rt,stimulus,button_pressed,trial_type,trial_index,time_elapsed,internal_node_id,subject,list,ppt_race,ppt_gender,url,first_guess,correct,key_press,responses,image_type,phrase_type,test_part
1340,Welcome to the experiment. Press Continue to begin.,0,html-button-response,0,1343,0.0-0.0,10023,List1B,white,man,,,,,,,,
8167,,,external-html,1,10855,0.0-1.0,10023,List1B,white,man,consent.html,,,,,,,
40326,"<p>On the next page, you will see portraits of 8 people and their names.</p><p>Your first task is to take a few minutes to memorise the names of these people.</p><p>You will have to recall their names during the rest of the experiment, so it is</p><p>essential that you try to memorise these people and their names as best as you can.</p><br><p><strong>You will then be tested on your memory of these names and portraits.</strong></p><br><p>The experiment will start after you have completed this memory test.</p><br><p>Ready?</p>",0,html-button-response,2,51183,0.0-2.0,10023,List1B,white,man,,,,,,,,
39711,"<img src='img/portrait_matrix_list1.jpg' style='width:900px;height:500px;''></img><p>If you have memorised all the portraits and names and are ready to start, press Continue.</p><p><strong>Please note: Your memory of these faces will be tested 4 times during this experiment.</strong></p>",0,html-button-response,3,91911,0.0-3.0-0.0,10023,List1B,white,man,,,,,,,,
4473,"<img src=""portrait/BM1.jpg""style=""height:400px;""></img>",4,html-button-response,4,97406,0.0-3.0-1.0,10023,List1B,white,man,,TRUE,4,,,,,
null,CORRECT,,html-keyboard-response,5,98934,0.0-3.0-2.0-0.0,10023,List1B,white,man,,,,null,,,,
1952,"<img src=""portrait/WW2.jpg""style=""height:400px;""></img>",3,html-button-response,6,100889,0.0-3.0-4.0,10023,List1B,white,man,,TRUE,3,,,,,
null,CORRECT,,html-keyboard-response,7,102433,0.0-3.0-5.0-0.0,10023,List1B,white,man,,,,null,,,,
3212,"<img src=""portrait/WM1.jpg""style=""height:400px;""></img>",6,html-button-response,8,105647,0.0-3.0-7.0,10023,List1B,white,man,,TRUE,6,,,,,
null,CORRECT,,html-keyboard-response,9,107166,0.0-3.0-8.0-0.0,10023,List1B,white,man,,,,null,,,,
3615,"<img src=""portrait/WW1.jpg""style=""height:400px;""></img>",1,html-button-response,10,110784,0.0-3.0-10.0,10023,List1B,white,man,,TRUE,1,,,,,
null,CORRECT,,html-keyboard-response,11,112316,0.0-3.0-11.0-0.0,10023,List1B,white,man,,,,null,,,,
2874,"<img src=""portrait/BW1.jpg""style=""height:400px;""></img>",2,html-button-response,12,115190,0.0-3.0-13.0,10023,List1B,white,man,,TRUE,0,,,,,
5391,"<img src=""portrait/BW1.jpg""style=""height:400px;""></img>",0,html-button-response,13,121591,0.0-3.0-15.0-0.0,10023,List1B,white,man,,FALSE,0,,,,,
null,CORRECT,,html-keyboard-response,14,123116,0.0-3.0-15.0-1.0-0.0,10023,List1B,white,man,,,,null,,,,
4120,"<img src=""portrait/BM2.jpg""style=""height:400px;""></img>",5,html-button-response,15,127238,0.0-3.0-16.0,10023,List1B,white,man,,TRUE,5,,,,,
null,CORRECT,,html-keyboard-response,16,128783,0.0-3.0-17.0-0.0,10023,List1B,white,man,,,,null,,,,
2422,"<img src=""portrait/WM2.jpg""style=""height:400px;""></img>",7,html-button-response,17,131206,0.0-3.0-19.0,10023,List1B,white,man,,TRUE,7,,,,,
null,CORRECT,,html-keyboard-response,18,132749,0.0-3.0-20.0-0.0,10023,List1B,white,man,,,,null,,,,
6784,"<img src=""portrait/BW2.jpg""style=""height:400px;""></img>",2,html-button-response,19,139535,0.0-3.0-22.0,10023,List1B,white,man,,TRUE,2,,,,,
null,CORRECT,,html-keyboard-response,20,141082,0.0-3.0-23.0-0.0,10023,List1B,white,man,,,,null,,,,
1347,<p>You got 7 out of 8 right first time. Press Continue.</p>,0,html-button-response,21,142431,0.0-3.0-25.0,10023,List1B,white,man,,,,,,,,
2309,"As you did not score 100%, the memory game will repeat. Press Continue.",0,html-button-response,22,145759,0.0-3.0-26.0-0.0,10023,List1B,white,man,,,,,,,,
1665,"<img src='img/portrait_matrix_list1.jpg' style='width:900px;height:500px;''></img><p>If you have memorised all the portraits and names and are ready to start, press Continue.</p><p><strong>Please note: Your memory of these faces will be tested 4 times during this experiment.</strong></p>",0,html-button-response,23,148450,0.0-3.1-0.1,10023,List1B,white,man,,,,,,,,
2100,"<img src=""portrait/BM1.jpg""style=""height:400px;""></img>",4,html-button-response,24,151584,0.0-3.1-1.1,10023,List1B,white,man,,TRUE,4,,,,,
null,CORRECT,,html-keyboard-response,25,153116,0.0-3.1-2.1-0.1,10023,List1B,white,man,,,,null,,,,
1441,"<img src=""portrait/WW2.jpg""style=""height:400px;""></img>",3,html-button-response,26,154558,0.0-3.1-4.1,10023,List1B,white,man,,TRUE,3,,,,,
null,CORRECT,,html-keyboard-response,27,156098,0.0-3.1-5.1-0.1,10023,List1B,white,man,,,,null,,,,
2202,"<img src=""portrait/WM1.jpg""style=""height:400px;""></img>",6,html-button-response,28,158303,0.0-3.1-7.1,10023,List1B,white,man,,TRUE,6,,,,,
null,CORRECT,,html-keyboard-response,29,159849,0.0-3.1-8.1-0.1,10023,List1B,white,man,,,,null,,,,
4276,"<img src=""portrait/WW1.jpg""style=""height:400px;""></img>",1,html-button-response,30,164127,0.0-3.1-10.1,10023,List1B,white,man,,TRUE,1,,,,,
null,CORRECT,,html-keyboard-response,31,165632,0.0-3.1-11.1-0.1,10023,List1B,white,man,,,,null,,,,
5581,"<img src=""portrait/BW1.jpg""style=""height:400px;""></img>",0,html-button-response,32,171215,0.0-3.1-13.1,10023,List1B,white,man,,TRUE,0,,,,,
null,CORRECT,,html-keyboard-response,33,172732,0.0-3.1-14.1-0.1,10023,List1B,white,man,,,,null,,,,
5865,"<img src=""portrait/BM2.jpg""style=""height:400px;""></img>",5,html-button-response,34,178600,0.0-3.1-16.1,10023,List1B,white,man,,TRUE,5,,,,,
null,CORRECT,,html-keyboard-response,35,180132,0.0-3.1-17.1-0.1,10023,List1B,white,man,,,,null,,,,
2072,"<img src=""portrait/WM2.jpg""style=""height:400px;""></img>",7,html-button-response,36,182207,0.0-3.1-19.1,10023,List1B,white,man,,TRUE,7,,,,,
null,CORRECT,,html-keyboard-response,37,183750,0.0-3.1-20.1-0.1,10023,List1B,white,man,,,,null,,,,
3177,"<img src=""portrait/BW2.jpg""style=""height:400px;""></img>",2,html-button-response,38,186927,0.0-3.1-22.1,10023,List1B,white,man,,TRUE,2,,,,,
null,CORRECT,,html-keyboard-response,39,188466,0.0-3.1-23.1-0.1,10023,List1B,white,man,,,,null,,,,
1682,<p>You got 8 out of 8 right first time. Press Continue.</p>,0,html-button-response,40,190151,0.0-3.1-25.1,10023,List1B,white,man,,,,,,,,
23462,"<p>In this experiment, you will view photographs of the people from the memory game interacting.</p><p>By using the <strong>exact</strong> phrase given <i>after</i> the photograph appears and recalling the correct names of the people in the photographs, form a sentence describing the interaction. You do not need to capitalise names.</p><p>Type your answer in the space provided. Please complete every sentence before moving onto the next trial.</p><p>You will only have a few seconds to memorise each given photograph and phrase before you can respond, so try your best to focus.</p><p>An example is given below. Press 'Continue' when you are ready.</p><img src='img/speaking_example.jpg' style='width:800px;height:460px;''></img>",0,html-button-response,41,214647,0.0-4.0,10023,List1B,white,man,,,,,,,,
2789,"<p>Before the experiment starts, you will watch two example trials. Press 'Continue'.</p>",0,html-button-response,42,218455,0.0-5.0,10023,List1B,white,man,,,,,,,,
null,<img src='img/meet_eg.gif' style='height:400px;''></img>,,html-keyboard-response,43,221499,0.0-6.0,10023,List1B,white,man,,,,null,,,,
null,<p>is meeting</p>,,html-keyboard-response,44,223483,0.0-7.0,10023,List1B,white,man,,,,null,,,,
4467,<p><b>Answer:</b> kate is meeting beth</p>,0,html-button-response,45,227952,0.0-8.0,10023,List1B,white,man,,,,,,,,
null,<img src='img/look_eg.gif' style='height:400px;''></img>,,html-keyboard-response,46,230999,0.0-9.0,10023,List1B,white,man,,,,null,,,,
null,<p>are looking at each other</p>,,html-keyboard-response,47,233000,0.0-10.0,10023,List1B,white,man,,,,null,,,,
6693,<p><b>Answer:</b> luke and dave are looking at each other</p>,0,html-button-response,48,239695,0.0-11.0,10023,List1B,white,man,,,,,,,,
12803,"<p>Ready to start the experiment?</p><br><p><strong>Remember to describe the picture using a full sentence,</strong></p><p><strong>that combines the names of the people with the <i>exact</i> phrase given.</strong></p><p><strong>To receive full payment you must do this correctly.</strong></p><p><strong> You do not need to capitalise names or use punctuation.</strong></p><br><p>Press 'Continue' to begin.</p>",0,html-button-response,49,253519,0.0-12.0,10023,List1B,white,man,,,,,,,,
null,"<div style=""font-size:60px;"">+</div>",,html-keyboard-response,50,255049,0.0-13.0-0.0,10023,List1B,white,man,,,,null,,,,
null,"<img src=""stim_listB/fight6.gif""style=""height:400px;""></stim_listB>",,html-keyboard-response,51,257065,0.0-13.0-1.0,10023,List1B,white,man,,,,null,,,,
null,are fighting each other,,html-keyboard-response,52,259049,0.0-13.0-2.0,10023,List1B,white,man,,,,null,,,,
12972,,,survey-text,53,272024,0.0-13.0-3.0,10023,List1B,white,man,,,,,"{""Q0"":""fred and luke are fighting eachother""}","<img src=""stim_listB/fight6.gif""style=""height:400px;""></stim_listB>",are fighting each other,
null,"<div style=""font-size:60px;"">+</div>",,html-keyboard-response,54,272532,0.0-13.0-0.1,10023,List1B,white,man,,,,null,,,,
null,"<img src=""stim_listB/fight4.gif""style=""height:400px;""></stim_listB>",,html-keyboard-response,55,274551,0.0-13.0-1.1,10023,List1B,white,man,,,,null,,,,
null,are fighting each other,,html-keyboard-response,56,276549,0.0-13.0-2.1,10023,List1B,white,man,,,,null,,,,
20955,,,survey-text,57,297506,0.0-13.0-3.1,10023,List1B,white,man,,,,,"{""Q0"":""Ruth and Luke are fighting eachother""}","<img src=""stim_listB/fight4.gif""style=""height:400px;""></stim_listB>",are fighting each other,
null,"<div style=""font-size:60px;"">+</div>",,html-keyboard-response,58,298019,0.0-13.0-0.2,10023,List1B,white,man,,,,null,,,,
null,"<img src=""stim_listB/play2.gif""style=""height:400px;""></stim_listB>",,html-keyboard-response,59,300037,0.0-13.0-1.2,10023,List1B,white,man,,,,null,,,,
null,are playing with each other,,html-keyboard-response,60,302035,0.0-13.0-2.2,10023,List1B,white,man,,,,null,,,,
17356,,,survey-text,61,319395,0.0-13.0-3.2,10023,List1B,white,man,,,,,"{""Q0"":""Fred and Beth are playing with each other""}","<img src=""stim_listB/play2.gif""style=""height:400px;""></stim_listB>",are playing with each other,
null,"<div style=""font-size:60px;"">+</div>",,html-keyboard-response,62,319920,0.0-13.0-0.3,10023,List1B,white,man,,,,null,,,,
null,"<img src=""stim_listB/argue4.gif""style=""height:400px;""></stim_listB>",,html-keyboard-response,63,321936,0.0-13.0-1.3,10023,List1B,white,man,,,,null,,,,
null,are arguing with each other,,html-keyboard-response,64,323920,0.0-13.0-2.3,10023,List1B,white,man,,,,null,,,,
7345,,,survey-text,65,331266,0.0-13.0-3.3,10023,List1B,white,man,,,,,"{""Q0"":""Ruth and Luke are playing with each other""}","<img src=""stim_listB/argue4.gif""style=""height:400px;""></stim_listB>",are arguing with each other,
null,"<div style=""font-size:60px;"">+</div>",,html-keyboard-response,66,331786,0.0-13.0-0.4,10023,List1B,white,man,,,,null,,,,
null,"<img src=""stim_listB/marry7.gif""style=""height:400px;""></stim_listB>",,html-keyboard-response,67,333803,0.0-13.0-1.4,10023,List1B,white,man,,,,null,,,,
null,is marrying,,html-keyboard-response,68,335803,0.0-13.0-2.4,10023,List1B,white,man,,,,null,,,,
17693,,,survey-text,69,353498,0.0-13.0-3.4,10023,List1B,white,man,,,,,"{""Q0"":""Ruth is marrying Kate""}","<img src=""stim_listB/marry7.gif""style=""height:400px;""></stim_listB>",is marrying,
null,"<div style=""font-size:60px;"">+</div>",,html-keyboard-response,70,354019,0.0-13.0-0.5,10023,List1B,white,man,,,,null,,,,
null,"<img src=""stim_listB/argue2.gif""style=""height:400px;""></stim_listB>",,html-keyboard-response,71,356036,0.0-13.0-1.5,10023,List1B,white,man,,,,null,,,,
null,are arguing with each other,,html-keyboard-response,72,358036,0.0-13.0-2.5,10023,List1B,white,man,,,,null,,,,
15965,,,survey-text,73,374002,0.0-13.0-3.5,10023,List1B,white,man,,,,,"{""Q0"":""Fred and Kate are arguing with each other""}","<img src=""stim_listB/argue2.gif""style=""height:400px;""></stim_listB>",are arguing with each other,
null,"<div style=""font-size:60px;"">+</div>",,html-keyboard-response,74,374520,0.0-13.0-0.6,10023,List1B,white,man,,,,null,,,,
null,"<img src=""stim_listB/flirt4.gif""style=""height:400px;""></stim_listB>",,html-keyboard-response,75,376536,0.0-13.0-1.6,10023,List1B,white,man,,,,null,,,,
null,are flirting with each other,,html-keyboard-response,76,378520,0.0-13.0-2.6,10023,List1B,white,man,,,,null,,,,
8529,,,survey-text,77,387050,0.0-13.0-3.6,10023,List1B,white,man,,,,,"{""Q0"":""Fred and Jane are flirting with each other""}","<img src=""stim_listB/flirt4.gif""style=""height:400px;""></stim_listB>",are flirting with each other,
null,"<div style=""font-size:60px;"">+</div>",,html-keyboard-response,78,387570,0.0-13.0-0.7,10023,List1B,white,man,,,,null,,,,
null,"<img src=""stim_listB/play4.gif""style=""height:400px;""></stim_listB>",,html-keyboard-response,79,389586,0.0-13.0-1.7,10023,List1B,white,man,,,,null,,,,
null,are playing with each other,,html-keyboard-response,80,391586,0.0-13.0-2.7,10023,List1B,white,man,,,,null,,,,
7202,,,survey-text,81,398791,0.0-13.0-3.7,10023,List1B,white,man,,,,,"{""Q0"":""Luke and Jane are playing with each other""}","<img src=""stim_listB/play4.gif""style=""height:400px;""></stim_listB>",are playing with each other,
null,"<div style=""font-size:60px;"">+</div>",,html-keyboard-response,82,399319,0.0-13.0-0.8,10023,List1B,white,man,,,,null,,,,
null,"<img src=""stim_listB/kiss5.gif""style=""height:400px;""></stim_listB>",,html-keyboard-response,83,401336,0.0-13.0-1.8,10023,List1B,white,man,,,,null,,,,
null,is kissing,,html-keyboard-response,84,403320,0.0-13.0-2.8,10023,List1B,white,man,,,,null,,,,
9769,,,survey-text,85,413089,0.0-13.0-3.8,10023,List1B,white,man,,,,,"{""Q0"":""Fred is kissing Luke""}","<img src=""stim_listB/kiss5.gif""style=""height:400px;""></stim_listB>",is kissing,
null,"<div style=""font-size:60px;"">+</div>",,html-keyboard-response,86,413602,0.0-13.0-0.9,10023,List1B,white,man,,,,null,,,,
null,"<img src=""stim_listB/talk4.gif""style=""height:400px;""></stim_listB>",,html-keyboard-response,87,415620,0.0-13.0-1.9,10023,List1B,white,man,,,,null,,,,
null,are talking to each other,,html-keyboard-response,88,417636,0.0-13.0-2.9,10023,List1B,white,man,,,,null,,,,
11324,,,survey-text,89,428963,0.0-13.0-3.9,10023,List1B,white,man,,,,,"{""Q0"":""Fred and Beth are talking to each other""}","<img src=""stim_listB/talk4.gif""style=""height:400px;""></stim_listB>",are talking to each other,
null,"<div style=""font-size:60px;"">+</div>",,html-keyboard-response,90,429469,0.0-13.0-0.10,10023,List1B,white,man,,,,null,,,,
null,"<img src=""stim_listB/play8.gif""style=""height:400px;""></stim_listB>",,html-keyboard-response,91,431486,0.0-13.0-1.10,10023,List1B,white,man,,,,null,,,,
null,are playing with each other,,html-keyboard-response,92,433486,0.0-13.0-2.10,10023,List1B,white,man,,,,null,,,,
11442,,,survey-text,93,444930,0.0-13.0-3.10,10023,List1B,white,man,,,,,"{""Q0"":""Beth and Jane are talking to each other""}","<img src=""stim_listB/play8.gif""style=""height:400px;""></stim_listB>",are playing with each other,
null,"<div style=""font-size:60px;"">+</div>",,html-keyboard-response,94,445452,0.0-13.0-0.11,10023,List1B,white,man,,,,null,,,,
null,"<img src=""stim_listB/marry1.gif""style=""height:400px;""></stim_listB>",,html-keyboard-response,95,447469,0.0-13.0-1.11,10023,List1B,white,man,,,,null,,,,
null,is marrying,,html-keyboard-response,96,449470,0.0-13.0-2.11,10023,List1B,white,man,,,,null,,,,
7131,,,survey-text,97,456603,0.0-13.0-3.11,10023,List1B,white,man,,,,,"{""Q0"":""Beth is marrying Mike""}","<img src=""stim_listB/marry1.gif""style=""height:400px;""></stim_listB>",is marrying,
null,"<div style=""font-size:60px;"">+</div>",,html-keyboard-response,98,457120,0.0-13.0-0.12,10023,List1B,white,man,,,,null,,,,
null,"<img src=""stim_listB/shout1.gif""style=""height:400px;""></stim_listB>",,html-keyboard-response,99,459119,0.0-13.0-1.12,10023,List1B,white,man,,,,null,,,,
null,is shouting at,,html-keyboard-response,100,461136,0.0-13.0-2.12,10023,List1B,white,man,,,,null,,,,
5879,,,survey-text,101,467019,0.0-13.0-3.12,10023,List1B,white,man,,,,,"{""Q0"":""Beth is shouting at Mike""}","<img src=""stim_listB/shout1.gif""style=""height:400px;""></stim_listB>",is shouting at,
null,"<div style=""font-size:60px;"">+</div>",,html-keyboard-response,102,467536,0.0-13.0-0.13,10023,List1B,white,man,,,,null,,,,
null,"<img src=""stim_listB/shout4.gif""style=""height:400px;""></stim_listB>",,html-keyboard-response,103,469553,0.0-13.0-1.13,10023,List1B,white,man,,,,null,,,,
null,are shouting at each other,,html-keyboard-response,104,471553,0.0-13.0-2.13,10023,List1B,white,man,,,,null,,,,
11063,,,survey-text,105,482618,0.0-13.0-3.13,10023,List1B,white,man,,,,,"{""Q0"":""Jane and Dave are shouting at each other""}","<img src=""stim_listB/shout4.gif""style=""height:400px;""></stim_listB>",are shouting at each other,
null,"<div style=""font-size:60px;"">+</div>",,html-keyboard-response,106,483136,0.0-13.0-0.14,10023,List1B,white,man,,,,null,,,,
null,"<img src=""stim_listB/dance2.gif""style=""height:400px;""></stim_listB>",,html-keyboard-response,107,485152,0.0-13.0-1.14,10023,List1B,white,man,,,,null,,,,
null,are dancing with each other,,html-keyboard-response,108,487136,0.0-13.0-2.14,10023,List1B,white,man,,,,null,,,,
8496,,,survey-text,109,495634,0.0-13.0-3.14,10023,List1B,white,man,,,,,"{""Q0"":""Mike and Beth are dancing with each other""}","<img src=""stim_listB/dance2.gif""style=""height:400px;""></stim_listB>",are dancing with each other,
null,"<div style=""font-size:60px;"">+</div>",,html-keyboard-response,110,496152,0.0-13.0-0.15,10023,List1B,white,man,,,,null,,,,
null,"<img src=""stim_listB/dance8.gif""style=""height:400px;""></stim_listB>",,html-keyboard-response,111,498170,0.0-13.0-1.15,10023,List1B,white,man,,,,null,,,,
null,are dancing with each other,,html-keyboard-response,112,500153,0.0-13.0-2.15,10023,List1B,white,man,,,,null,,,,
7232,,,survey-text,113,507387,0.0-13.0-3.15,10023,List1B,white,man,,,,,"{""Q0"":""Jane and Kate are dancing with each other""}","<img src=""stim_listB/dance8.gif""style=""height:400px;""></stim_listB>",are dancing with each other,
null,"<div style=""font-size:60px;"">+</div>",,html-keyboard-response,114,507902,0.0-13.0-0.16,10023,List1B,white,man,,,,null,,,,
null,"<img src=""stim_listB/shout5.gif""style=""height:400px;""></stim_listB>",,html-keyboard-response,115,509919,0.0-13.0-1.16,10023,List1B,white,man,,,,null,,,,
null,is shouting at,,html-keyboard-response,116,511920,0.0-13.0-2.16,10023,List1B,white,man,,,,null,,,,
9193,,,survey-text,117,521114,0.0-13.0-3.16,10023,List1B,white,man,,,,,"{""Q0"":""Dave is shouting at Luke""}","<img src=""stim_listB/shout5.gif""style=""height:400px;""></stim_listB>",is shouting at,
null,"<div style=""font-size:60px;"">+</div>",,html-keyboard-response,118,521636,0.0-13.0-0.17,10023,List1B,white,man,,,,null,,,,
null,"<img src=""stim_listB/shout7.gif""style=""height:400px;""></stim_listB>",,html-keyboard-response,119,523655,0.0-13.0-1.17,10023,List1B,white,man,,,,null,,,,
null,is shouting at,,html-keyboard-response,120,525636,0.0-13.0-2.17,10023,List1B,white,man,,,,null,,,,
5421,,,survey-text,121,531058,0.0-13.0-3.17,10023,List1B,white,man,,,,,"{""Q0"":""Jane is shouting at Beth""}","<img src=""stim_listB/shout7.gif""style=""height:400px;""></stim_listB>",is shouting at,
null,"<div style=""font-size:60px;"">+</div>",,html-keyboard-response,122,531569,0.0-13.0-0.18,10023,List1B,white,man,,,,null,,,,
null,"<img src=""stim_listB/talk2.gif""style=""height:400px;""></stim_listB>",,html-keyboard-response,123,533586,0.0-13.0-1.18,10023,List1B,white,man,,,,null,,,,
null,are talking to each other,,html-keyboard-response,124,535569,0.0-13.0-2.18,10023,List1B,white,man,,,,null,,,,
7991,,,survey-text,125,543563,0.0-13.0-3.18,10023,List1B,white,man,,,,,"{""Q0"":""Mike and Beth are talking to each other""}","<img src=""stim_listB/talk2.gif""style=""height:400px;""></stim_listB>",are talking to each other,
null,"<div style=""font-size:60px;"">+</div>",,html-keyboard-response,126,544086,0.0-13.0-0.19,10023,List1B,white,man,,,,null,,,,
null,"<img src=""stim_listB/fight2.gif""style=""height:400px;""></stim_listB>",,html-keyboard-response,127,546103,0.0-13.0-1.19,10023,List1B,white,man,,,,null,,,,
null,are fighting each other,,html-keyboard-response,128,548086,0.0-13.0-2.19,10023,List1B,white,man,,,,null,,,,
7418,,,survey-text,129,555507,0.0-13.0-3.19,10023,List1B,white,man,,,,,"{""Q0"":""Dave and Beth are fighting each other""}","<img src=""stim_listB/fight2.gif""style=""height:400px;""></stim_listB>",are fighting each other,
12389,"<img src='img/portrait_matrix_list1.jpg' style='width:900px;height:500px;''></img><p>If you have memorised all the portraits and names and are ready to start, press Continue.</p><p><strong>Please note: Your memory of these faces will be tested 4 times during this experiment.</strong></p>",0,html-button-response,130,567899,0.0-14.0-0.0,10023,List1B,white,man,,,,,,,,
4577,"<img src=""portrait/WM1.jpg""style=""height:400px;""></img>",6,html-button-response,131,573482,0.0-14.0-1.0,10023,List1B,white,man,,TRUE,6,,,,,
null,CORRECT,,html-keyboard-response,132,575019,0.0-14.0-2.0-0.0,10023,List1B,white,man,,,,null,,,,
4894,"<img src=""portrait/WW2.jpg""style=""height:400px;""></img>",3,html-button-response,133,579915,0.0-14.0-4.0,10023,List1B,white,man,,TRUE,3,,,,,
null,CORRECT,,html-keyboard-response,134,581453,0.0-14.0-5.0-0.0,10023,List1B,white,man,,,,null,,,,
4684,"<img src=""portrait/BM1.jpg""style=""height:400px;""></img>",4,html-button-response,135,586138,0.0-14.0-7.0,10023,List1B,white,man,,TRUE,4,,,,,
null,CORRECT,,html-keyboard-response,136,587668,0.0-14.0-8.0-0.0,10023,List1B,white,man,,,,null,,,,
1852,"<img src=""portrait/WM2.jpg""style=""height:400px;""></img>",7,html-button-response,137,589523,0.0-14.0-10.0,10023,List1B,white,man,,TRUE,7,,,,,
null,CORRECT,,html-keyboard-response,138,591069,0.0-14.0-11.0-0.0,10023,List1B,white,man,,,,null,,,,
2269,"<img src=""portrait/BM2.jpg""style=""height:400px;""></img>",5,html-button-response,139,593340,0.0-14.0-13.0,10023,List1B,white,man,,TRUE,5,,,,,
null,CORRECT,,html-keyboard-response,140,594870,0.0-14.0-14.0-0.0,10023,List1B,white,man,,,,null,,,,
1601,"<img src=""portrait/WW1.jpg""style=""height:400px;""></img>",1,html-button-response,141,596474,0.0-14.0-16.0,10023,List1B,white,man,,TRUE,1,,,,,
null,CORRECT,,html-keyboard-response,142,598019,0.0-14.0-17.0-0.0,10023,List1B,white,man,,,,null,,,,
3797,"<img src=""portrait/BW1.jpg""style=""height:400px;""></img>",0,html-button-response,143,601819,0.0-14.0-19.0,10023,List1B,white,man,,TRUE,0,,,,,
null,CORRECT,,html-keyboard-response,144,603353,0.0-14.0-20.0-0.0,10023,List1B,white,man,,,,null,,,,
1368,"<img src=""portrait/BW2.jpg""style=""height:400px;""></img>",2,html-button-response,145,604722,0.0-14.0-22.0,10023,List1B,white,man,,TRUE,2,,,,,
null,CORRECT,,html-keyboard-response,146,606252,0.0-14.0-23.0-0.0,10023,List1B,white,man,,,,null,,,,
1244,<p>You got 8 out of 8 right first time. Press Continue.</p>,0,html-button-response,147,607498,0.0-14.0-25.0,10023,List1B,white,man,,,,,,,,
null,"<div style=""font-size:60px;"">+</div>",,html-keyboard-response,148,609036,0.0-15.0-0.0,10023,List1B,white,man,,,,null,,,,
null,"<img src=""stim_listB/fight3.gif""style=""height:400px;""></stim_listB>",,html-keyboard-response,149,611037,0.0-15.0-1.0,10023,List1B,white,man,,,,null,,,,
null,is fighting,,html-keyboard-response,150,613053,0.0-15.0-2.0,10023,List1B,white,man,,,,null,,,,
11443,,,survey-text,151,624498,0.0-15.0-3.0,10023,List1B,white,man,,,,,"{""Q0"":""Jane and Dave are fighting with each other""}","<img src=""stim_listB/fight3.gif""style=""height:400px;""></stim_listB>",is fighting,
null,"<div style=""font-size:60px;"">+</div>",,html-keyboard-response,152,625019,0.0-15.0-0.1,10023,List1B,white,man,,,,null,,,,
null,"<img src=""stim_listB/talk6.gif""style=""height:400px;""></stim_listB>",,html-keyboard-response,153,627036,0.0-15.0-1.1,10023,List1B,white,man,,,,null,,,,
null,are talking to each other,,html-keyboard-response,154,629019,0.0-15.0-2.1,10023,List1B,white,man,,,,null,,,,
7516,,,survey-text,155,636538,0.0-15.0-3.1,10023,List1B,white,man,,,,,"{""Q0"":""Luke and Mike are talking with each other""}","<img src=""stim_listB/talk6.gif""style=""height:400px;""></stim_listB>",are talking to each other,
null,"<div style=""font-size:60px;"">+</div>",,html-keyboard-response,156,637053,0.0-15.0-0.2,10023,List1B,white,man,,,,null,,,,
null,"<img src=""stim_listB/talk7.gif""style=""height:400px;""></stim_listB>",,html-keyboard-response,157,639070,0.0-15.0-1.2,10023,List1B,white,man,,,,null,,,,
null,is talking to,,html-keyboard-response,158,641070,0.0-15.0-2.2,10023,List1B,white,man,,,,null,,,,
12365,,,survey-text,159,653437,0.0-15.0-3.2,10023,List1B,white,man,,,,,"{""Q0"":""Jane is talking to Ruth""}","<img src=""stim_listB/talk7.gif""style=""height:400px;""></stim_listB>",is talking to,
null,"<div style=""font-size:60px;"">+</div>",,html-keyboard-response,160,653953,0.0-15.0-0.3,10023,List1B,white,man,,,,null,,,,
null,"<img src=""stim_listB/dance3.gif""style=""height:400px;""></stim_listB>",,html-keyboard-response,161,655970,0.0-15.0-1.3,10023,List1B,white,man,,,,null,,,,
null,is dancing with,,html-keyboard-response,162,657953,0.0-15.0-2.3,10023,List1B,white,man,,,,null,,,,
6535,,,survey-text,163,664490,0.0-15.0-3.3,10023,List1B,white,man,,,,,"{""Q0"":""Ruth is dancing with Luke""}","<img src=""stim_listB/dance3.gif""style=""height:400px;""></stim_listB>",is dancing with,
null,"<div style=""font-size:60px;"">+</div>",,html-keyboard-response,164,665003,0.0-15.0-0.4,10023,List1B,white,man,,,,null,,,,
null,"<img src=""stim_listB/dance6.gif""style=""height:400px;""></stim_listB>",,html-keyboard-response,165,667019,0.0-15.0-1.4,10023,List1B,white,man,,,,null,,,,
null,are dancing with each other,,html-keyboard-response,166,669004,0.0-15.0-2.4,10023,List1B,white,man,,,,null,,,,
10093,,,survey-text,167,679098,0.0-15.0-3.4,10023,List1B,white,man,,,,,"{""Q0"":""Luke and Mike are dancing with each other""}","<img src=""stim_listB/dance6.gif""style=""height:400px;""></stim_listB>",are dancing with each other,
null,"<div style=""font-size:60px;"">+</div>",,html-keyboard-response,168,679619,0.0-15.0-0.5,10023,List1B,white,man,,,,null,,,,
null,"<img src=""stim_listB/dance7.gif""style=""height:400px;""></stim_listB>",,html-keyboard-response,169,681637,0.0-15.0-1.5,10023,List1B,white,man,,,,null,,,,
null,is dancing with,,html-keyboard-response,170,683636,0.0-15.0-2.5,10023,List1B,white,man,,,,null,,,,
5996,,,survey-text,171,689634,0.0-15.0-3.5,10023,List1B,white,man,,,,,"{""Q0"":""Ruth is dancing with Beth""}","<img src=""stim_listB/dance7.gif""style=""height:400px;""></stim_listB>",is dancing with,
null,"<div style=""font-size:60px;"">+</div>",,html-keyboard-response,172,690152,0.0-15.0-0.6,10023,List1B,white,man,,,,null,,,,
null,"<img src=""stim_listB/flirt7.gif""style=""height:400px;""></stim_listB>",,html-keyboard-response,173,692170,0.0-15.0-1.6,10023,List1B,white,man,,,,null,,,,
null,is flirting with,,html-keyboard-response,174,694170,0.0-15.0-2.6,10023,List1B,white,man,,,,null,,,,
6383,,,survey-text,175,700555,0.0-15.0-3.6,10023,List1B,white,man,,,,,"{""Q0"":""Ruth is flirting with Beth""}","<img src=""stim_listB/flirt7.gif""style=""height:400px;""></stim_listB>",is flirting with,
null,"<div style=""font-size:60px;"">+</div>",,html-keyboard-response,176,701070,0.0-15.0-0.7,10023,List1B,white,man,,,,null,,,,
null,"<img src=""stim_listB/kiss7.gif""style=""height:400px;""></stim_listB>",,html-keyboard-response,177,703086,0.0-15.0-1.7,10023,List1B,white,man,,,,null,,,,
null,is kissing,,html-keyboard-response,178,705086,0.0-15.0-2.7,10023,List1B,white,man,,,,null,,,,
8954,,,survey-text,179,714042,0.0-15.0-3.7,10023,List1B,white,man,,,,,"{""Q0"":""Jane is kissing Beth""}","<img src=""stim_listB/kiss7.gif""style=""height:400px;""></stim_listB>",is kissing,
null,"<div style=""font-size:60px;"">+</div>",,html-keyboard-response,180,714552,0.0-15.0-0.8,10023,List1B,white,man,,,,null,,,,
null,"<img src=""stim_listB/fight5.gif""style=""height:400px;""></stim_listB>",,html-keyboard-response,181,716569,0.0-15.0-1.8,10023,List1B,white,man,,,,null,,,,
null,is fighting,,html-keyboard-response,182,718569,0.0-15.0-2.8,10023,List1B,white,man,,,,null,,,,
5135,,,survey-text,183,723706,0.0-15.0-3.8,10023,List1B,white,man,,,,,"{""Q0"":""Dave is fighting Mike""}","<img src=""stim_listB/fight5.gif""style=""height:400px;""></stim_listB>",is fighting,
null,"<div style=""font-size:60px;"">+</div>",,html-keyboard-response,184,724219,0.0-15.0-0.9,10023,List1B,white,man,,,,null,,,,
null,"<img src=""stim_listB/touch5.gif""style=""height:400px;""></stim_listB>",,html-keyboard-response,185,726236,0.0-15.0-1.9,10023,List1B,white,man,,,,null,,,,
null,is touching,,html-keyboard-response,186,728236,0.0-15.0-2.9,10023,List1B,white,man,,,,null,,,,
4212,,,survey-text,187,732450,0.0-15.0-3.9,10023,List1B,white,man,,,,,"{""Q0"":""Dave is touching Mike""}","<img src=""stim_listB/touch5.gif""style=""height:400px;""></stim_listB>",is touching,
null,"<div style=""font-size:60px;"">+</div>",,html-keyboard-response,188,732970,0.0-15.0-0.10,10023,List1B,white,man,,,,null,,,,
null,"<img src=""stim_listB/flirt6.gif""style=""height:400px;""></stim_listB>",,html-keyboard-response,189,734987,0.0-15.0-1.10,10023,List1B,white,man,,,,null,,,,
null,are flirting with each other,,html-keyboard-response,190,736986,0.0-15.0-2.10,10023,List1B,white,man,,,,null,,,,
9303,,,survey-text,191,746290,0.0-15.0-3.10,10023,List1B,white,man,,,,,"{""Q0"":""Mike and Luke are flirting with each other""}","<img src=""stim_listB/flirt6.gif""style=""height:400px;""></stim_listB>",are flirting with each other,
null,"<div style=""font-size:60px;"">+</div>",,html-keyboard-response,192,746803,0.0-15.0-0.11,10023,List1B,white,man,,,,null,,,,
null,"<img src=""stim_listB/argue7.gif""style=""height:400px;""></stim_listB>",,html-keyboard-response,193,748820,0.0-15.0-1.11,10023,List1B,white,man,,,,null,,,,
null,is arguing with,,html-keyboard-response,194,750819,0.0-15.0-2.11,10023,List1B,white,man,,,,null,,,,
7973,,,survey-text,195,758795,0.0-15.0-3.11,10023,List1B,white,man,,,,,"{""Q0"":""Kate and Ruth are fighting with each other""}","<img src=""stim_listB/argue7.gif""style=""height:400px;""></stim_listB>",is arguing with,
null,"<div style=""font-size:60px;"">+</div>",,html-keyboard-response,196,759302,0.0-15.0-0.12,10023,List1B,white,man,,,,null,,,,
null,"<img src=""stim_listB/argue3.gif""style=""height:400px;""></stim_listB>",,html-keyboard-response,197,761319,0.0-15.0-1.12,10023,List1B,white,man,,,,null,,,,
null,is arguing with,,html-keyboard-response,198,763303,0.0-15.0-2.12,10023,List1B,white,man,,,,null,,,,
7744,,,survey-text,199,771050,0.0-15.0-3.12,10023,List1B,white,man,,,,,"{""Q0"":""Dave is arguing with Ruth""}","<img src=""stim_listB/argue3.gif""style=""height:400px;""></stim_listB>",is arguing with,
null,"<div style=""font-size:60px;"">+</div>",,html-keyboard-response,200,771570,0.0-15.0-0.13,10023,List1B,white,man,,,,null,,,,
null,"<img src=""stim_listB/shout3.gif""style=""height:400px;""></stim_listB>",,html-keyboard-response,201,773586,0.0-15.0-1.13,10023,List1B,white,man,,,,null,,,,
null,is shouting at,,html-keyboard-response,202,775585,0.0-15.0-2.13,10023,List1B,white,man,,,,null,,,,
7935,,,survey-text,203,783524,0.0-15.0-3.13,10023,List1B,white,man,,,,,"{""Q0"":""Mike is shouting at Ruth""}","<img src=""stim_listB/shout3.gif""style=""height:400px;""></stim_listB>",is shouting at,
null,"<div style=""font-size:60px;"">+</div>",,html-keyboard-response,204,784036,0.0-15.0-0.14,10023,List1B,white,man,,,,null,,,,
null,"<img src=""stim_listB/shout2.gif""style=""height:400px;""></stim_listB>",,html-keyboard-response,205,786053,0.0-15.0-1.14,10023,List1B,white,man,,,,null,,,,
null,are shouting at each other,,html-keyboard-response,206,788053,0.0-15.0-2.14,10023,List1B,white,man,,,,null,,,,
8188,,,survey-text,207,796243,0.0-15.0-3.14,10023,List1B,white,man,,,,,"{""Q0"":""Mike and Kate are shouting at each other""}","<img src=""stim_listB/shout2.gif""style=""height:400px;""></stim_listB>",are shouting at each other,
null,"<div style=""font-size:60px;"">+</div>",,html-keyboard-response,208,796755,0.0-15.0-0.15,10023,List1B,white,man,,,,null,,,,
null,"<img src=""stim_listB/kiss2.gif""style=""height:400px;""></stim_listB>",,html-keyboard-response,209,798770,0.0-15.0-1.15,10023,List1B,white,man,,,,null,,,,
null,are kissing each other,,html-keyboard-response,210,800770,0.0-15.0-2.15,10023,List1B,white,man,,,,null,,,,
6583,,,survey-text,211,807355,0.0-15.0-3.15,10023,List1B,white,man,,,,,"{""Q0"":""Mike and Kate are kissing each other""}","<img src=""stim_listB/kiss2.gif""style=""height:400px;""></stim_listB>",are kissing each other,
null,"<div style=""font-size:60px;"">+</div>",,html-keyboard-response,212,807869,0.0-15.0-0.16,10023,List1B,white,man,,,,null,,,,
null,"<img src=""stim_listB/kiss1.gif""style=""height:400px;""></stim_listB>",,html-keyboard-response,213,809886,0.0-15.0-1.16,10023,List1B,white,man,,,,null,,,,
null,is kissing,,html-keyboard-response,214,811887,0.0-15.0-2.16,10023,List1B,white,man,,,,null,,,,
10682,,,survey-text,215,822572,0.0-15.0-3.16,10023,List1B,white,man,,,,,"{""Q0"":""Fred is kissing Beth""}","<img src=""stim_listB/kiss1.gif""style=""height:400px;""></stim_listB>",is kissing,
null,"<div style=""font-size:60px;"">+</div>",,html-keyboard-response,216,823086,0.0-15.0-0.17,10023,List1B,white,man,,,,null,,,,
null,"<img src=""stim_listB/marry2.gif""style=""height:400px;""></stim_listB>",,html-keyboard-response,217,825103,0.0-15.0-1.17,10023,List1B,white,man,,,,null,,,,
null,are marrying each other,,html-keyboard-response,218,827103,0.0-15.0-2.17,10023,List1B,white,man,,,,null,,,,
7865,,,survey-text,219,834972,0.0-15.0-3.17,10023,List1B,white,man,,,,,"{""Q0"":""Fred and Kate are marrying each other""}","<img src=""stim_listB/marry2.gif""style=""height:400px;""></stim_listB>",are marrying each other,
null,"<div style=""font-size:60px;"">+</div>",,html-keyboard-response,220,835486,0.0-15.0-0.18,10023,List1B,white,man,,,,null,,,,
null,"<img src=""stim_listB/talk1.gif""style=""height:400px;""></stim_listB>",,html-keyboard-response,221,837520,0.0-15.0-1.18,10023,List1B,white,man,,,,null,,,,
null,is talking to,,html-keyboard-response,222,839503,0.0-15.0-2.18,10023,List1B,white,man,,,,null,,,,
6075,,,survey-text,223,845578,0.0-15.0-3.18,10023,List1B,white,man,,,,,"{""Q0"":""Jane is talking to Fred""}","<img src=""stim_listB/talk1.gif""style=""height:400px;""></stim_listB>",is talking to,
null,"<div style=""font-size:60px;"">+</div>",,html-keyboard-response,224,846086,0.0-15.0-0.19,10023,List1B,white,man,,,,null,,,,
null,"<img src=""stim_listB/play5.gif""style=""height:400px;""></stim_listB>",,html-keyboard-response,225,848103,0.0-15.0-1.19,10023,List1B,white,man,,,,null,,,,
null,is playing with,,html-keyboard-response,226,850103,0.0-15.0-2.19,10023,List1B,white,man,,,,null,,,,
5074,,,survey-text,227,855179,0.0-15.0-3.19,10023,List1B,white,man,,,,,"{""Q0"":""Mike is playing with Dave""}","<img src=""stim_listB/play5.gif""style=""height:400px;""></stim_listB>",is playing with,
8526,"<img src='img/portrait_matrix_list1.jpg' style='width:900px;height:500px;''></img><p>If you have memorised all the portraits and names and are ready to start, press Continue.</p><p><strong>Please note: Your memory of these faces will be tested 4 times during this experiment.</strong></p>",0,html-button-response,228,863707,0.0-16.0-0.0,10023,List1B,white,man,,,,,,,,
4073,"<img src=""portrait/BW2.jpg""style=""height:400px;""></img>",2,html-button-response,229,868795,0.0-16.0-1.0,10023,List1B,white,man,,TRUE,2,,,,,
null,CORRECT,,html-keyboard-response,230,870320,0.0-16.0-2.0-0.0,10023,List1B,white,man,,,,null,,,,
2801,"<img src=""portrait/BM1.jpg""style=""height:400px;""></img>",4,html-button-response,231,873123,0.0-16.0-4.0,10023,List1B,white,man,,TRUE,4,,,,,
null,CORRECT,,html-keyboard-response,232,874670,0.0-16.0-5.0-0.0,10023,List1B,white,man,,,,null,,,,
3603,"<img src=""portrait/BW1.jpg""style=""height:400px;""></img>",0,html-button-response,233,878274,0.0-16.0-7.0,10023,List1B,white,man,,TRUE,0,,,,,
null,CORRECT,,html-keyboard-response,234,879803,0.0-16.0-8.0-0.0,10023,List1B,white,man,,,,null,,,,
1957,"<img src=""portrait/WM1.jpg""style=""height:400px;""></img>",6,html-button-response,235,881763,0.0-16.0-10.0,10023,List1B,white,man,,TRUE,6,,,,,
null,CORRECT,,html-keyboard-response,236,883269,0.0-16.0-11.0-0.0,10023,List1B,white,man,,,,null,,,,
1331,"<img src=""portrait/WW2.jpg""style=""height:400px;""></img>",3,html-button-response,237,884604,0.0-16.0-13.0,10023,List1B,white,man,,TRUE,3,,,,,
null,CORRECT,,html-keyboard-response,238,886136,0.0-16.0-14.0-0.0,10023,List1B,white,man,,,,null,,,,
1496,"<img src=""portrait/BM2.jpg""style=""height:400px;""></img>",5,html-button-response,239,887635,0.0-16.0-16.0,10023,List1B,white,man,,TRUE,5,,,,,
null,CORRECT,,html-keyboard-response,240,889169,0.0-16.0-17.0-0.0,10023,List1B,white,man,,,,null,,,,
2015,"<img src=""portrait/WW1.jpg""style=""height:400px;""></img>",1,html-button-response,241,891188,0.0-16.0-19.0,10023,List1B,white,man,,TRUE,1,,,,,
null,CORRECT,,html-keyboard-response,242,892719,0.0-16.0-20.0-0.0,10023,List1B,white,man,,,,null,,,,
1649,"<img src=""portrait/WM2.jpg""style=""height:400px;""></img>",7,html-button-response,243,894371,0.0-16.0-22.0,10023,List1B,white,man,,TRUE,7,,,,,
null,CORRECT,,html-keyboard-response,244,895902,0.0-16.0-23.0-0.0,10023,List1B,white,man,,,,null,,,,
1097,<p>You got 8 out of 8 right first time. Press Continue.</p>,0,html-button-response,245,897004,0.0-16.0-25.0,10023,List1B,white,man,,,,,,,,
null,"<div style=""font-size:60px;"">+</div>",,html-keyboard-response,246,898553,0.0-17.0-0.0,10023,List1B,white,man,,,,null,,,,
null,"<img src=""stim_listB/marry8.gif""style=""height:400px;""></stim_listB>",,html-keyboard-response,247,900569,0.0-17.0-1.0,10023,List1B,white,man,,,,null,,,,
null,are marrying each other,,html-keyboard-response,248,902569,0.0-17.0-2.0,10023,List1B,white,man,,,,null,,,,
8487,,,survey-text,249,911059,0.0-17.0-3.0,10023,List1B,white,man,,,,,"{""Q0"":""Beth and Jane are marrying each other""}","<img src=""stim_listB/marry8.gif""style=""height:400px;""></stim_listB>",are marrying each other,
null,"<div style=""font-size:60px;"">+</div>",,html-keyboard-response,250,911569,0.0-17.0-0.1,10023,List1B,white,man,,,,null,,,,
null,"<img src=""stim_listB/argue1.gif""style=""height:400px;""></stim_listB>",,html-keyboard-response,251,913585,0.0-17.0-1.1,10023,List1B,white,man,,,,null,,,,
null,is arguing with,,html-keyboard-response,252,915586,0.0-17.0-2.1,10023,List1B,white,man,,,,null,,,,
6549,,,survey-text,253,922139,0.0-17.0-3.1,10023,List1B,white,man,,,,,"{""Q0"":""Mike is arguing with Beth""}","<img src=""stim_listB/argue1.gif""style=""height:400px;""></stim_listB>",is arguing with,
null,"<div style=""font-size:60px;"">+</div>",,html-keyboard-response,254,922652,0.0-17.0-0.2,10023,List1B,white,man,,,,null,,,,
null,"<img src=""stim_listB/touch1.gif""style=""height:400px;""></stim_listB>",,html-keyboard-response,255,924672,0.0-17.0-1.2,10023,List1B,white,man,,,,null,,,,
null,is touching,,html-keyboard-response,256,926670,0.0-17.0-2.2,10023,List1B,white,man,,,,null,,,,
9563,,,survey-text,257,936235,0.0-17.0-3.2,10023,List1B,white,man,,,,,"{""Q0"":""Mike is touching Kate""}","<img src=""stim_listB/touch1.gif""style=""height:400px;""></stim_listB>",is touching,
null,"<div style=""font-size:60px;"">+</div>",,html-keyboard-response,258,936752,0.0-17.0-0.3,10023,List1B,white,man,,,,null,,,,
null,"<img src=""stim_listB/flirt2.gif""style=""height:400px;""></stim_listB>",,html-keyboard-response,259,938769,0.0-17.0-1.3,10023,List1B,white,man,,,,null,,,,
null,are flirting with each other,,html-keyboard-response,260,940770,0.0-17.0-2.3,10023,List1B,white,man,,,,null,,,,
8223,,,survey-text,261,948994,0.0-17.0-3.3,10023,List1B,white,man,,,,,"{""Q0"":""Mike and Beth are flirting with each other""}","<img src=""stim_listB/flirt2.gif""style=""height:400px;""></stim_listB>",are flirting with each other,
null,"<div style=""font-size:60px;"">+</div>",,html-keyboard-response,262,949519,0.0-17.0-0.4,10023,List1B,white,man,,,,null,,,,
null,"<img src=""stim_listB/play3.gif""style=""height:400px;""></stim_listB>",,html-keyboard-response,263,951536,0.0-17.0-1.4,10023,List1B,white,man,,,,null,,,,
null,is playing with,,html-keyboard-response,264,953520,0.0-17.0-2.4,10023,List1B,white,man,,,,null,,,,
5104,,,survey-text,265,958626,0.0-17.0-3.4,10023,List1B,white,man,,,,,"{""Q0"":""Jane is playing with Dave""}","<img src=""stim_listB/play3.gif""style=""height:400px;""></stim_listB>",is playing with,
null,"<div style=""font-size:60px;"">+</div>",,html-keyboard-response,266,959136,0.0-17.0-0.5,10023,List1B,white,man,,,,null,,,,
null,"<img src=""stim_listB/flirt8.gif""style=""height:400px;""></stim_listB>",,html-keyboard-response,267,961153,0.0-17.0-1.5,10023,List1B,white,man,,,,null,,,,
null,are flirting with each other,,html-keyboard-response,268,963152,0.0-17.0-2.5,10023,List1B,white,man,,,,null,,,,
7176,,,survey-text,269,970330,0.0-17.0-3.5,10023,List1B,white,man,,,,,"{""Q0"":""Ruth and Kate are flirting with each other""}","<img src=""stim_listB/flirt8.gif""style=""height:400px;""></stim_listB>",are flirting with each other,
null,"<div style=""font-size:60px;"">+</div>",,html-keyboard-response,270,970852,0.0-17.0-0.6,10023,List1B,white,man,,,,null,,,,
null,"<img src=""stim_listB/fight8.gif""style=""height:400px;""></stim_listB>",,html-keyboard-response,271,972870,0.0-17.0-1.6,10023,List1B,white,man,,,,null,,,,
null,are fighting each other,,html-keyboard-response,272,974870,0.0-17.0-2.6,10023,List1B,white,man,,,,null,,,,
10763,,,survey-text,273,985635,0.0-17.0-3.6,10023,List1B,white,man,,,,,"{""Q0"":""Beth and Ruth are fighting with each other""}","<img src=""stim_listB/fight8.gif""style=""height:400px;""></stim_listB>",are fighting each other,
null,"<div style=""font-size:60px;"">+</div>",,html-keyboard-response,274,986153,0.0-17.0-0.7,10023,List1B,white,man,,,,null,,,,
null,"<img src=""stim_listB/touch3.gif""style=""height:400px;""></stim_listB>",,html-keyboard-response,275,988170,0.0-17.0-1.7,10023,List1B,white,man,,,,null,,,,
null,is touching,,html-keyboard-response,276,990171,0.0-17.0-2.7,10023,List1B,white,man,,,,null,,,,
6510,,,survey-text,277,996682,0.0-17.0-3.7,10023,List1B,white,man,,,,,"{""Q0"":""Dave is touching Jane""}","<img src=""stim_listB/touch3.gif""style=""height:400px;""></stim_listB>",is touching,
null,"<div style=""font-size:60px;"">+</div>",,html-keyboard-response,278,997202,0.0-17.0-0.8,10023,List1B,white,man,,,,null,,,,
null,"<img src=""stim_listB/fight7.gif""style=""height:400px;""></stim_listB>",,html-keyboard-response,279,999220,0.0-17.0-1.8,10023,List1B,white,man,,,,null,,,,
null,is fighting,,html-keyboard-response,280,1001220,0.0-17.0-2.8,10023,List1B,white,man,,,,null,,,,
6525,,,survey-text,281,1007746,0.0-17.0-3.8,10023,List1B,white,man,,,,,"{""Q0"":""Jane is fighting Kate""}","<img src=""stim_listB/fight7.gif""style=""height:400px;""></stim_listB>",is fighting,
null,"<div style=""font-size:60px;"">+</div>",,html-keyboard-response,282,1008270,0.0-17.0-0.9,10023,List1B,white,man,,,,null,,,,
null,"<img src=""stim_listB/shout6.gif""style=""height:400px;""></stim_listB>",,html-keyboard-response,283,1010287,0.0-17.0-1.9,10023,List1B,white,man,,,,null,,,,
null,are shouting at each other,,html-keyboard-response,284,1012287,0.0-17.0-2.9,10023,List1B,white,man,,,,null,,,,
10250,,,survey-text,285,1022539,0.0-17.0-3.9,10023,List1B,white,man,,,,,"{""Q0"":""Mike and Dave are shouting at each other""}","<img src=""stim_listB/shout6.gif""style=""height:400px;""></stim_listB>",are shouting at each other,
null,"<div style=""font-size:60px;"">+</div>",,html-keyboard-response,286,1023054,0.0-17.0-0.10,10023,List1B,white,man,,,,null,,,,
null,"<img src=""stim_listB/kiss3.gif""style=""height:400px;""></stim_listB>",,html-keyboard-response,287,1025071,0.0-17.0-1.10,10023,List1B,white,man,,,,null,,,,
null,is kissing,,html-keyboard-response,288,1027053,0.0-17.0-2.10,10023,List1B,white,man,,,,null,,,,
6107,,,survey-text,289,1033162,0.0-17.0-3.10,10023,List1B,white,man,,,,,"{""Q0"":""Ruth is kissing Luke""}","<img src=""stim_listB/kiss3.gif""style=""height:400px;""></stim_listB>",is kissing,
null,"<div style=""font-size:60px;"">+</div>",,html-keyboard-response,290,1033669,0.0-17.0-0.11,10023,List1B,white,man,,,,null,,,,
null,"<img src=""stim_listB/argue6.gif""style=""height:400px;""></stim_listB>",,html-keyboard-response,291,1035686,0.0-17.0-1.11,10023,List1B,white,man,,,,null,,,,
null,are arguing with each other,,html-keyboard-response,292,1037686,0.0-17.0-2.11,10023,List1B,white,man,,,,null,,,,
7483,,,survey-text,293,1045171,0.0-17.0-3.11,10023,List1B,white,man,,,,,"{""Q0"":""Fred and Dave are arguing with each other""}","<img src=""stim_listB/argue6.gif""style=""height:400px;""></stim_listB>",are arguing with each other,
null,"<div style=""font-size:60px;"">+</div>",,html-keyboard-response,294,1045687,0.0-17.0-0.12,10023,List1B,white,man,,,,null,,,,
null,"<img src=""stim_listB/kiss4.gif""style=""height:400px;""></stim_listB>",,html-keyboard-response,295,1047686,0.0-17.0-1.12,10023,List1B,white,man,,,,null,,,,
null,are kissing each other,,html-keyboard-response,296,1049702,0.0-17.0-2.12,10023,List1B,white,man,,,,null,,,,
7322,,,survey-text,297,1057027,0.0-17.0-3.12,10023,List1B,white,man,,,,,"{""Q0"":""Jane and Dave are kissing each other""}","<img src=""stim_listB/kiss4.gif""style=""height:400px;""></stim_listB>",are kissing each other,
null,"<div style=""font-size:60px;"">+</div>",,html-keyboard-response,298,1057555,0.0-17.0-0.13,10023,List1B,white,man,,,,null,,,,
null,"<img src=""stim_listB/marry3.gif""style=""height:400px;""></stim_listB>",,html-keyboard-response,299,1059569,0.0-17.0-1.13,10023,List1B,white,man,,,,null,,,,
null,is marrying,,html-keyboard-response,300,1061586,0.0-17.0-2.13,10023,List1B,white,man,,,,null,,,,
5158,,,survey-text,301,1066747,0.0-17.0-3.13,10023,List1B,white,man,,,,,"{""Q0"":""Ruth is marrying Dave""}","<img src=""stim_listB/marry3.gif""style=""height:400px;""></stim_listB>",is marrying,
null,"<div style=""font-size:60px;"">+</div>",,html-keyboard-response,302,1067269,0.0-17.0-0.14,10023,List1B,white,man,,,,null,,,,
null,"<img src=""stim_listB/flirt1.gif""style=""height:400px;""></stim_listB>",,html-keyboard-response,303,1069286,0.0-17.0-1.14,10023,List1B,white,man,,,,null,,,,
null,is flirting with,,html-keyboard-response,304,1071286,0.0-17.0-2.14,10023,List1B,white,man,,,,null,,,,
8827,,,survey-text,305,1080116,0.0-17.0-3.14,10023,List1B,white,man,,,,,"{""Q0"":""Kate is flirting with Dave""}","<img src=""stim_listB/flirt1.gif""style=""height:400px;""></stim_listB>",is flirting with,
null,"<div style=""font-size:60px;"">+</div>",,html-keyboard-response,306,1080635,0.0-17.0-0.15,10023,List1B,white,man,,,,null,,,,
null,"<img src=""stim_listB/touch2.gif""style=""height:400px;""></stim_listB>",,html-keyboard-response,307,1082653,0.0-17.0-1.15,10023,List1B,white,man,,,,null,,,,
null,are touching each other,,html-keyboard-response,308,1084652,0.0-17.0-2.15,10023,List1B,white,man,,,,null,,,,
45964,,,survey-text,309,1130619,0.0-17.0-3.15,10023,List1B,white,man,,,,,"{""Q0"":""Fred and Beth are touching each other""}","<img src=""stim_listB/touch2.gif""style=""height:400px;""></stim_listB>",are touching each other,
null,"<div style=""font-size:60px;"">+</div>",,html-keyboard-response,310,1131153,0.0-17.0-0.16,10023,List1B,white,man,,,,null,,,,
null,"<img src=""stim_listB/marry6.gif""style=""height:400px;""></stim_listB>",,html-keyboard-response,311,1133170,0.0-17.0-1.16,10023,List1B,white,man,,,,null,,,,
null,are marrying each other,,html-keyboard-response,312,1135169,0.0-17.0-2.16,10023,List1B,white,man,,,,null,,,,
6463,,,survey-text,313,1141635,0.0-17.0-3.16,10023,List1B,white,man,,,,,"{""Q0"":""Fred and Dave are marrying each other""}","<img src=""stim_listB/marry6.gif""style=""height:400px;""></stim_listB>",are marrying each other,
null,"<div style=""font-size:60px;"">+</div>",,html-keyboard-response,314,1142153,0.0-17.0-0.17,10023,List1B,white,man,,,,null,,,,
null,"<img src=""stim_listB/fight1.gif""style=""height:400px;""></stim_listB>",,html-keyboard-response,315,1144170,0.0-17.0-1.17,10023,List1B,white,man,,,,null,,,,
null,is fighting,,html-keyboard-response,316,1146170,0.0-17.0-2.17,10023,List1B,white,man,,,,null,,,,
4448,,,survey-text,317,1150619,0.0-17.0-3.17,10023,List1B,white,man,,,,,"{""Q0"":""Kate is fighting Mike""}","<img src=""stim_listB/fight1.gif""style=""height:400px;""></stim_listB>",is fighting,
null,"<div style=""font-size:60px;"">+</div>",,html-keyboard-response,318,1151120,0.0-17.0-0.18,10023,List1B,white,man,,,,null,,,,
null,"<img src=""stim_listB/play7.gif""style=""height:400px;""></stim_listB>",,html-keyboard-response,319,1153136,0.0-17.0-1.18,10023,List1B,white,man,,,,null,,,,
null,is playing with,,html-keyboard-response,320,1155126,0.0-17.0-2.18,10023,List1B,white,man,,,,null,,,,
5209,,,survey-text,321,1160338,0.0-17.0-3.18,10023,List1B,white,man,,,,,"{""Q0"":""Kate is playing with Jane""}","<img src=""stim_listB/play7.gif""style=""height:400px;""></stim_listB>",is playing with,
null,"<div style=""font-size:60px;"">+</div>",,html-keyboard-response,322,1160853,0.0-17.0-0.19,10023,List1B,white,man,,,,null,,,,
null,"<img src=""stim_listB/kiss8.gif""style=""height:400px;""></stim_listB>",,html-keyboard-response,323,1162869,0.0-17.0-1.19,10023,List1B,white,man,,,,null,,,,
null,are kissing each other,,html-keyboard-response,324,1164870,0.0-17.0-2.19,10023,List1B,white,man,,,,null,,,,
7253,,,survey-text,325,1172123,0.0-17.0-3.19,10023,List1B,white,man,,,,,"{""Q0"":""Kate and Jane are kissing each other""}","<img src=""stim_listB/kiss8.gif""style=""height:400px;""></stim_listB>",are kissing each other,
6259,"<img src='img/portrait_matrix_list1.jpg' style='width:900px;height:500px;''></img><p>If you have memorised all the portraits and names and are ready to start, press Continue.</p><p><strong>Please note: Your memory of these faces will be tested 4 times during this experiment.</strong></p>",0,html-button-response,326,1178387,0.0-18.0-0.0,10023,List1B,white,man,,,,,,,,
5424,"<img src=""portrait/BW1.jpg""style=""height:400px;""></img>",0,html-button-response,327,1184835,0.0-18.0-1.0,10023,List1B,white,man,,TRUE,0,,,,,
null,CORRECT,,html-keyboard-response,328,1186358,0.0-18.0-2.0-0.0,10023,List1B,white,man,,,,null,,,,
2860,"<img src=""portrait/WW1.jpg""style=""height:400px;""></img>",1,html-button-response,329,1189227,0.0-18.0-4.0,10023,List1B,white,man,,TRUE,1,,,,,
null,CORRECT,,html-keyboard-response,330,1190774,0.0-18.0-5.0-0.0,10023,List1B,white,man,,,,null,,,,
5258,"<img src=""portrait/BW2.jpg""style=""height:400px;""></img>",2,html-button-response,331,1196042,0.0-18.0-7.0,10023,List1B,white,man,,TRUE,2,,,,,
null,CORRECT,,html-keyboard-response,332,1197587,0.0-18.0-8.0-0.0,10023,List1B,white,man,,,,null,,,,
1709,"<img src=""portrait/WM2.jpg""style=""height:400px;""></img>",7,html-button-response,333,1199298,0.0-18.0-10.0,10023,List1B,white,man,,TRUE,7,,,,,
null,CORRECT,,html-keyboard-response,334,1200823,0.0-18.0-11.0-0.0,10023,List1B,white,man,,,,null,,,,
2510,"<img src=""portrait/WM1.jpg""style=""height:400px;""></img>",6,html-button-response,335,1203340,0.0-18.0-13.0,10023,List1B,white,man,,TRUE,6,,,,,
null,CORRECT,,html-keyboard-response,336,1204873,0.0-18.0-14.0-0.0,10023,List1B,white,man,,,,null,,,,
1300,"<img src=""portrait/BM2.jpg""style=""height:400px;""></img>",5,html-button-response,337,1206181,0.0-18.0-16.0,10023,List1B,white,man,,TRUE,5,,,,,
null,CORRECT,,html-keyboard-response,338,1207706,0.0-18.0-17.0-0.0,10023,List1B,white,man,,,,null,,,,
3331,"<img src=""portrait/WW2.jpg""style=""height:400px;""></img>",3,html-button-response,339,1211043,0.0-18.0-19.0,10023,List1B,white,man,,TRUE,3,,,,,
null,CORRECT,,html-keyboard-response,340,1212569,0.0-18.0-20.0-0.0,10023,List1B,white,man,,,,null,,,,
2390,"<img src=""portrait/BM1.jpg""style=""height:400px;""></img>",4,html-button-response,341,1214963,0.0-18.0-22.0,10023,List1B,white,man,,TRUE,4,,,,,
null,CORRECT,,html-keyboard-response,342,1216487,0.0-18.0-23.0-0.0,10023,List1B,white,man,,,,null,,,,
1064,<p>You got 8 out of 8 right first time. Press Continue.</p>,0,html-button-response,343,1217555,0.0-18.0-25.0,10023,List1B,white,man,,,,,,,,
null,"<div style=""font-size:60px;"">+</div>",,html-keyboard-response,344,1219095,0.0-19.0-0.0,10023,List1B,white,man,,,,null,,,,
null,"<img src=""stim_listB/play6.gif""style=""height:400px;""></stim_listB>",,html-keyboard-response,345,1221123,0.0-19.0-1.0,10023,List1B,white,man,,,,null,,,,
null,are playing with each other,,html-keyboard-response,346,1223123,0.0-19.0-2.0,10023,List1B,white,man,,,,null,,,,
8384,,,survey-text,347,1231513,0.0-19.0-3.0,10023,List1B,white,man,,,,,"{""Q0"":""Luke and Fred are playing wiht each other""}","<img src=""stim_listB/play6.gif""style=""height:400px;""></stim_listB>",are playing with each other,
null,"<div style=""font-size:60px;"">+</div>",,html-keyboard-response,348,1232023,0.0-19.0-0.1,10023,List1B,white,man,,,,null,,,,
null,"<img src=""stim_listB/shout8.gif""style=""height:400px;""></stim_listB>",,html-keyboard-response,349,1234055,0.0-19.0-1.1,10023,List1B,white,man,,,,null,,,,
null,are shouting at each other,,html-keyboard-response,350,1236041,0.0-19.0-2.1,10023,List1B,white,man,,,,null,,,,
7549,,,survey-text,351,1243595,0.0-19.0-3.1,10023,List1B,white,man,,,,,"{""Q0"":""Jane and Kate are shouting at each other""}","<img src=""stim_listB/shout8.gif""style=""height:400px;""></stim_listB>",are shouting at each other,
null,"<div style=""font-size:60px;"">+</div>",,html-keyboard-response,352,1244115,0.0-19.0-0.2,10023,List1B,white,man,,,,null,,,,
null,"<img src=""stim_listB/touch6.gif""style=""height:400px;""></stim_listB>",,html-keyboard-response,353,1246123,0.0-19.0-1.2,10023,List1B,white,man,,,,null,,,,
null,are touching each other,,html-keyboard-response,354,1248136,0.0-19.0-2.2,10023,List1B,white,man,,,,null,,,,
6377,,,survey-text,355,1254514,0.0-19.0-3.2,10023,List1B,white,man,,,,,"{""Q0"":""Fred and Luke are touching each other""}","<img src=""stim_listB/touch6.gif""style=""height:400px;""></stim_listB>",are touching each other,
null,"<div style=""font-size:60px;"">+</div>",,html-keyboard-response,356,1255041,0.0-19.0-0.3,10023,List1B,white,man,,,,null,,,,
null,"<img src=""stim_listB/touch8.gif""style=""height:400px;""></stim_listB>",,html-keyboard-response,357,1257073,0.0-19.0-1.3,10023,List1B,white,man,,,,null,,,,
null,are touching each other,,html-keyboard-response,358,1259073,0.0-19.0-2.3,10023,List1B,white,man,,,,null,,,,
11749,,,survey-text,359,1270829,0.0-19.0-3.3,10023,List1B,white,man,,,,,"{""Q0"":""Beth and Ruth are touching each other""}","<img src=""stim_listB/touch8.gif""style=""height:400px;""></stim_listB>",are touching each other,
null,"<div style=""font-size:60px;"">+</div>",,html-keyboard-response,360,1271353,0.0-19.0-0.4,10023,List1B,white,man,,,,null,,,,
null,"<img src=""stim_listB/touch7.gif""style=""height:400px;""></stim_listB>",,html-keyboard-response,361,1273375,0.0-19.0-1.4,10023,List1B,white,man,,,,null,,,,
null,is touching,,html-keyboard-response,362,1275369,0.0-19.0-2.4,10023,List1B,white,man,,,,null,,,,
9150,,,survey-text,363,1284522,0.0-19.0-3.4,10023,List1B,white,man,,,,,"{""Q0"":""Kate is touching Jane""}","<img src=""stim_listB/touch7.gif""style=""height:400px;""></stim_listB>",is touching,
null,"<div style=""font-size:60px;"">+</div>",,html-keyboard-response,364,1285040,0.0-19.0-0.5,10023,List1B,white,man,,,,null,,,,
null,"<img src=""stim_listB/dance1.gif""style=""height:400px;""></stim_listB>",,html-keyboard-response,365,1287073,0.0-19.0-1.5,10023,List1B,white,man,,,,null,,,,
null,is dancing with,,html-keyboard-response,366,1289057,0.0-19.0-2.5,10023,List1B,white,man,,,,null,,,,
4949,,,survey-text,367,1294011,0.0-19.0-3.5,10023,List1B,white,man,,,,,"{""Q0"":""Kate is dancing with Fred""}","<img src=""stim_listB/dance1.gif""style=""height:400px;""></stim_listB>",is dancing with,
null,"<div style=""font-size:60px;"">+</div>",,html-keyboard-response,368,1294520,0.0-19.0-0.6,10023,List1B,white,man,,,,null,,,,
null,"<img src=""stim_listB/marry5.gif""style=""height:400px;""></stim_listB>",,html-keyboard-response,369,1296536,0.0-19.0-1.6,10023,List1B,white,man,,,,null,,,,
null,is marrying,,html-keyboard-response,370,1298536,0.0-19.0-2.6,10023,List1B,white,man,,,,null,,,,
4985,,,survey-text,371,1303524,0.0-19.0-3.6,10023,List1B,white,man,,,,,"{""Q0"":""Luke is marrying Mike""}","<img src=""stim_listB/marry5.gif""style=""height:400px;""></stim_listB>",is marrying,
null,"<div style=""font-size:60px;"">+</div>",,html-keyboard-response,372,1304044,0.0-19.0-0.7,10023,List1B,white,man,,,,null,,,,
null,"<img src=""stim_listB/talk8.gif""style=""height:400px;""></stim_listB>",,html-keyboard-response,373,1306057,0.0-19.0-1.7,10023,List1B,white,man,,,,null,,,,
null,are talking to each other,,html-keyboard-response,374,1308074,0.0-19.0-2.7,10023,List1B,white,man,,,,null,,,,
9684,,,survey-text,375,1317763,0.0-19.0-3.7,10023,List1B,white,man,,,,,"{""Q0"":""Ruth is talking to Kate""}","<img src=""stim_listB/talk8.gif""style=""height:400px;""></stim_listB>",are talking to each other,
null,"<div style=""font-size:60px;"">+</div>",,html-keyboard-response,376,1318273,0.0-19.0-0.8,10023,List1B,white,man,,,,null,,,,
null,"<img src=""stim_listB/kiss6.gif""style=""height:400px;""></stim_listB>",,html-keyboard-response,377,1320306,0.0-19.0-1.8,10023,List1B,white,man,,,,null,,,,
null,are kissing each other,,html-keyboard-response,378,1322307,0.0-19.0-2.8,10023,List1B,white,man,,,,null,,,,
6315,,,survey-text,379,1328627,0.0-19.0-3.8,10023,List1B,white,man,,,,,"{""Q0"":""Dave and Mike are kissing each other""}","<img src=""stim_listB/kiss6.gif""style=""height:400px;""></stim_listB>",are kissing each other,
null,"<div style=""font-size:60px;"">+</div>",,html-keyboard-response,380,1329139,0.0-19.0-0.9,10023,List1B,white,man,,,,null,,,,
null,"<img src=""stim_listB/flirt3.gif""style=""height:400px;""></stim_listB>",,html-keyboard-response,381,1331177,0.0-19.0-1.9,10023,List1B,white,man,,,,null,,,,
null,is flirting with,,html-keyboard-response,382,1333174,0.0-19.0-2.9,10023,List1B,white,man,,,,null,,,,
9272,,,survey-text,383,1342451,0.0-19.0-3.9,10023,List1B,white,man,,,,,"{""Q0"":""Jane is flirting with Luke""}","<img src=""stim_listB/flirt3.gif""style=""height:400px;""></stim_listB>",is flirting with,
null,"<div style=""font-size:60px;"">+</div>",,html-keyboard-response,384,1342974,0.0-19.0-0.10,10023,List1B,white,man,,,,null,,,,
null,"<img src=""stim_listB/dance4.gif""style=""height:400px;""></stim_listB>",,html-keyboard-response,385,1344991,0.0-19.0-1.10,10023,List1B,white,man,,,,null,,,,
null,are dancing with each other,,html-keyboard-response,386,1347005,0.0-19.0-2.10,10023,List1B,white,man,,,,null,,,,
8631,,,survey-text,387,1355643,0.0-19.0-3.10,10023,List1B,white,man,,,,,"{""Q0"":""Dave and Ruth are dancing with each other""}","<img src=""stim_listB/dance4.gif""style=""height:400px;""></stim_listB>",are dancing with each other,
null,"<div style=""font-size:60px;"">+</div>",,html-keyboard-response,388,1356170,0.0-19.0-0.11,10023,List1B,white,man,,,,null,,,,
null,"<img src=""stim_listB/play1.gif""style=""height:400px;""></stim_listB>",,html-keyboard-response,389,1358171,0.0-19.0-1.11,10023,List1B,white,man,,,,null,,,,
null,is playing with,,html-keyboard-response,390,1360187,0.0-19.0-2.11,10023,List1B,white,man,,,,null,,,,
7487,,,survey-text,391,1367676,0.0-19.0-3.11,10023,List1B,white,man,,,,,"{""Q0"":""Kate is playing with Mike""}","<img src=""stim_listB/play1.gif""style=""height:400px;""></stim_listB>",is playing with,
null,"<div style=""font-size:60px;"">+</div>",,html-keyboard-response,392,1368190,0.0-19.0-0.12,10023,List1B,white,man,,,,null,,,,
null,"<img src=""stim_listB/talk3.gif""style=""height:400px;""></stim_listB>",,html-keyboard-response,393,1370204,0.0-19.0-1.12,10023,List1B,white,man,,,,null,,,,
null,is talking to,,html-keyboard-response,394,1372205,0.0-19.0-2.12,10023,List1B,white,man,,,,null,,,,
5681,,,survey-text,395,1377892,0.0-19.0-3.12,10023,List1B,white,man,,,,,"{""Q0"":""Jane is talking to Luke""}","<img src=""stim_listB/talk3.gif""style=""height:400px;""></stim_listB>",is talking to,
null,"<div style=""font-size:60px;"">+</div>",,html-keyboard-response,396,1378406,0.0-19.0-0.13,10023,List1B,white,man,,,,null,,,,
null,"<img src=""stim_listB/flirt5.gif""style=""height:400px;""></stim_listB>",,html-keyboard-response,397,1380441,0.0-19.0-1.13,10023,List1B,white,man,,,,null,,,,
null,is flirting with,,html-keyboard-response,398,1382427,0.0-19.0-2.13,10023,List1B,white,man,,,,null,,,,
5673,,,survey-text,399,1388108,0.0-19.0-3.13,10023,List1B,white,man,,,,,"{""Q0"":""Fred is flirting with Dave""}","<img src=""stim_listB/flirt5.gif""style=""height:400px;""></stim_listB>",is flirting with,
null,"<div style=""font-size:60px;"">+</div>",,html-keyboard-response,400,1388623,0.0-19.0-0.14,10023,List1B,white,man,,,,null,,,,
null,"<img src=""stim_listB/dance5.gif""style=""height:400px;""></stim_listB>",,html-keyboard-response,401,1390636,0.0-19.0-1.14,10023,List1B,white,man,,,,null,,,,
null,is dancing with,,html-keyboard-response,402,1392640,0.0-19.0-2.14,10023,List1B,white,man,,,,null,,,,
5326,,,survey-text,403,1397972,0.0-19.0-3.14,10023,List1B,white,man,,,,,"{""Q0"":""Fred is dancing with Dave""}","<img src=""stim_listB/dance5.gif""style=""height:400px;""></stim_listB>",is dancing with,
null,"<div style=""font-size:60px;"">+</div>",,html-keyboard-response,404,1398487,0.0-19.0-0.15,10023,List1B,white,man,,,,null,,,,
null,"<img src=""stim_listB/argue8.gif""style=""height:400px;""></stim_listB>",,html-keyboard-response,405,1400503,0.0-19.0-1.15,10023,List1B,white,man,,,,null,,,,
null,are arguing with each other,,html-keyboard-response,406,1402502,0.0-19.0-2.15,10023,List1B,white,man,,,,null,,,,
7610,,,survey-text,407,1410116,0.0-19.0-3.15,10023,List1B,white,man,,,,,"{""Q0"":""Beth and Jane are arguing with each other""}","<img src=""stim_listB/argue8.gif""style=""height:400px;""></stim_listB>",are arguing with each other,
null,"<div style=""font-size:60px;"">+</div>",,html-keyboard-response,408,1410645,0.0-19.0-0.16,10023,List1B,white,man,,,,null,,,,
null,"<img src=""stim_listB/marry4.gif""style=""height:400px;""></stim_listB>",,html-keyboard-response,409,1412674,0.0-19.0-1.16,10023,List1B,white,man,,,,null,,,,
null,are marrying each other,,html-keyboard-response,410,1414673,0.0-19.0-2.16,10023,List1B,white,man,,,,null,,,,
7692,,,survey-text,411,1422372,0.0-19.0-3.16,10023,List1B,white,man,,,,,"{""Q0"":""Luke and Jane are marrying each other""}","<img src=""stim_listB/marry4.gif""style=""height:400px;""></stim_listB>",are marrying each other,
null,"<div style=""font-size:60px;"">+</div>",,html-keyboard-response,412,1422889,0.0-19.0-0.17,10023,List1B,white,man,,,,null,,,,
null,"<img src=""stim_listB/argue5.gif""style=""height:400px;""></stim_listB>",,html-keyboard-response,413,1424924,0.0-19.0-1.17,10023,List1B,white,man,,,,null,,,,
null,is arguing with,,html-keyboard-response,414,1426939,0.0-19.0-2.17,10023,List1B,white,man,,,,null,,,,
4923,,,survey-text,415,1431867,0.0-19.0-3.17,10023,List1B,white,man,,,,,"{""Q0"":""Luke is arguing with Mike""}","<img src=""stim_listB/argue5.gif""style=""height:400px;""></stim_listB>",is arguing with,
null,"<div style=""font-size:60px;"">+</div>",,html-keyboard-response,416,1432389,0.0-19.0-0.18,10023,List1B,white,man,,,,null,,,,
null,"<img src=""stim_listB/touch4.gif""style=""height:400px;""></stim_listB>",,html-keyboard-response,417,1434412,0.0-19.0-1.18,10023,List1B,white,man,,,,null,,,,
null,are touching each other,,html-keyboard-response,418,1436403,0.0-19.0-2.18,10023,List1B,white,man,,,,null,,,,
6487,,,survey-text,419,1442892,0.0-19.0-3.18,10023,List1B,white,man,,,,,"{""Q0"":""Luke and Ruth are touching each other""}","<img src=""stim_listB/touch4.gif""style=""height:400px;""></stim_listB>",are touching each other,
null,"<div style=""font-size:60px;"">+</div>",,html-keyboard-response,420,1443408,0.0-19.0-0.19,10023,List1B,white,man,,,,null,,,,
null,"<img src=""stim_listB/talk5.gif""style=""height:400px;""></stim_listB>",,html-keyboard-response,421,1445441,0.0-19.0-1.19,10023,List1B,white,man,,,,null,,,,
null,is talking to,,html-keyboard-response,422,1447440,0.0-19.0-2.19,10023,List1B,white,man,,,,null,,,,
16998,,,survey-text,423,1464444,0.0-19.0-3.19,10023,List1B,white,man,,,,,"{""Q0"":""Ruth is talking to""}","<img src=""stim_listB/talk5.gif""style=""height:400px;""></stim_listB>",is talking to,
5717,<p>Thank you for completing that task.</p><p>The final part of this session is a short questionnaire.</p><p>Press Continue.</p>,0,html-button-response,424,1470163,0.0-20.0,10023,List1B,white,man,,,,,,,,
23470,,,survey-text,425,1494659,0.0-21.0,10023,List1B,white,man,,,,,"{""Q0"":""33"",""Q1"":""English"",""Q2"":""English"",""Q3"":""UK"",""Q4"":""White"",""Q5"":""Male""}",,,demographics
8277,,,survey-likert,426,1502947,0.0-22.0,10023,List1B,white,man,,,,,"{""Q0"":4}",,,likert_ESS
7326,,,survey-likert,427,1510275,0.0-23.0,10023,List1B,white,man,,,,,"{""Q0"":4}",,,likert_NSSAL_Q1
4014,,,survey-likert,428,1514292,0.0-24.0,10023,List1B,white,man,,,,,"{""Q0"":4}",,,likert_NSSAL_Q2
4404,,,survey-likert,429,1518699,0.0-25.0,10023,List1B,white,man,,,,,"{""Q0"":4}",,,likert_CGRS_Q1
4149,,,survey-likert,430,1522852,0.0-26.0,10023,List1B,white,man,,,,,"{""Q0"":4}",,,likert_CGRS_Q2
2844,,,survey-likert,431,1525699,0.0-27.0,10023,List1B,white,man,,,,,"{""Q0"":4}",,,likert_CGRS_Q3
11540,,,survey-text,432,1537244,0.0-28.0,10023,List1B,white,man,,,,,"{""Q0"":""ccc""}",,,worker_id
4834,,,external-html,433,1542514,0.0-29.0,10023,List1B,white,man,debrief.html,,,,,,,
