rt,stimulus,button_pressed,trial_type,trial_index,time_elapsed,internal_node_id,subject,list,ppt_race,ppt_gender,url,first_guess,correct,key_press,responses,image_type,phrase_type,test_part
2783,Welcome to the experiment. Press Continue to begin.,0,html-button-response,0,2788,0.0-0.0,10204,List2A,white,man,,,,,,,,
42454,,,external-html,1,46312,0.0-1.0,10204,List2A,white,man,consent.html,,,,,,,
13013,"<p>On the next page, you will see portraits of 8 people and their names.</p><p>Your first task is to take a few minutes to memorise the names of these people.</p><p>You will have to recall their names during the rest of the experiment, so it is</p><p>essential that you try to memorise these people and their names as best as you can.</p><br><p><strong>You will then be tested on your memory of these names and portraits.</strong></p><br><p>The experiment will start after you have completed this memory test.</p><br><p>Ready?</p>",0,html-button-response,2,59333,0.0-2.0,10204,List2A,white,man,,,,,,,,
52361,"<img src='img/portrait_matrix_list2.jpg' style='width:900px;height:500px;''></img><p>If you have memorised all the portraits and names and are ready to start, press Continue.</p><p><strong>Please note: Your memory of these faces will be tested 4 times during this experiment.</strong></p>",0,html-button-response,3,112725,0.0-3.0-0.0,10204,List2A,white,man,,,,,,,,
4902,"<img src=""portrait/WW1.jpg""style=""height:400px;""></img>",1,html-button-response,4,118649,0.0-3.0-1.0,10204,List2A,white,man,,TRUE,1,,,,,
null,CORRECT,,html-keyboard-response,5,120182,0.0-3.0-2.0-0.0,10204,List2A,white,man,,,,null,,,,
4372,"<img src=""portrait/BW1.jpg""style=""height:400px;""></img>",0,html-button-response,6,124566,0.0-3.0-4.0,10204,List2A,white,man,,TRUE,0,,,,,
null,CORRECT,,html-keyboard-response,7,126103,0.0-3.0-5.0-0.0,10204,List2A,white,man,,,,null,,,,
4469,"<img src=""portrait/WM2.jpg""style=""height:400px;""></img>",7,html-button-response,8,130576,0.0-3.0-7.0,10204,List2A,white,man,,TRUE,7,,,,,
null,CORRECT,,html-keyboard-response,9,132134,0.0-3.0-8.0-0.0,10204,List2A,white,man,,,,null,,,,
3523,"<img src=""portrait/WW2.jpg""style=""height:400px;""></img>",3,html-button-response,10,135663,0.0-3.0-10.0,10204,List2A,white,man,,TRUE,3,,,,,
null,CORRECT,,html-keyboard-response,11,137220,0.0-3.0-11.0-0.0,10204,List2A,white,man,,,,null,,,,
3291,"<img src=""portrait/WM1.jpg""style=""height:400px;""></img>",6,html-button-response,12,140518,0.0-3.0-13.0,10204,List2A,white,man,,TRUE,6,,,,,
null,CORRECT,,html-keyboard-response,13,142061,0.0-3.0-14.0-0.0,10204,List2A,white,man,,,,null,,,,
4899,"<img src=""portrait/BW2.jpg""style=""height:400px;""></img>",2,html-button-response,14,146966,0.0-3.0-16.0,10204,List2A,white,man,,TRUE,2,,,,,
null,CORRECT,,html-keyboard-response,15,148523,0.0-3.0-17.0-0.0,10204,List2A,white,man,,,,null,,,,
2637,"<img src=""portrait/BM2.jpg""style=""height:400px;""></img>",5,html-button-response,16,151167,0.0-3.0-19.0,10204,List2A,white,man,,TRUE,5,,,,,
null,CORRECT,,html-keyboard-response,17,152709,0.0-3.0-20.0-0.0,10204,List2A,white,man,,,,null,,,,
1857,"<img src=""portrait/BM1.jpg""style=""height:400px;""></img>",4,html-button-response,18,154573,0.0-3.0-22.0,10204,List2A,white,man,,TRUE,4,,,,,
null,CORRECT,,html-keyboard-response,19,156130,0.0-3.0-23.0-0.0,10204,List2A,white,man,,,,null,,,,
4525,<p>You got 8 out of 8 right first time. Press Continue.</p>,0,html-button-response,20,160662,0.0-3.0-25.0,10204,List2A,white,man,,,,,,,,
82708,"<p>In this experiment, you will view photographs of the people from the memory game interacting.</p><p>By using the <strong>exact</strong> phrase given <i>after</i> the photograph appears and recalling the correct names of the people in the photographs, form a sentence describing the interaction. You do not need to capitalise names.</p><p>Type your answer in the space provided. Please complete every sentence before moving onto the next trial.</p><p>You will only have a few seconds to memorise each given photograph and phrase before you can respond, so try your best to focus.</p><p>An example is given below. Press 'Continue' when you are ready.</p><img src='img/speaking_example.jpg' style='width:800px;height:460px;''></img>",0,html-button-response,21,244403,0.0-4.0,10204,List2A,white,man,,,,,,,,
5588,"<p>Before the experiment starts, you will watch two example trials. Press 'Continue'.</p>",0,html-button-response,22,251020,0.0-5.0,10204,List2A,white,man,,,,,,,,
null,<img src='img/meet_eg.gif' style='height:400px;''></img>,,html-keyboard-response,23,254078,0.0-6.0,10204,List2A,white,man,,,,null,,,,
null,<p>is meeting</p>,,html-keyboard-response,24,256078,0.0-7.0,10204,List2A,white,man,,,,null,,,,
2748,<p><b>Answer:</b> jane is meeting ruth</p>,0,html-button-response,25,258830,0.0-8.0,10204,List2A,white,man,,,,,,,,
null,<img src='img/look_eg.gif' style='height:400px;''></img>,,html-keyboard-response,26,261872,0.0-9.0,10204,List2A,white,man,,,,null,,,,
null,<p>are looking at each other</p>,,html-keyboard-response,27,263879,0.0-10.0,10204,List2A,white,man,,,,null,,,,
11186,<p><b>Answer:</b> fred and mike are looking at each other</p>,0,html-button-response,28,275069,0.0-11.0,10204,List2A,white,man,,,,,,,,
27270,"<p>Ready to start the experiment?</p><br><p><strong>Remember to describe the picture using a full sentence,</strong></p><p><strong>that combines the names of the people with the <i>exact</i> phrase given.</strong></p><p><strong>To receive full payment you must do this correctly.</strong></p><p><strong> You do not need to capitalise names or use punctuation.</strong></p><br><p>Press 'Continue' to begin.</p>",0,html-button-response,29,303369,0.0-12.0,10204,List2A,white,man,,,,,,,,
null,"<div style=""font-size:60px;"">+</div>",,html-keyboard-response,30,304928,0.0-13.0-0.0,10204,List2A,white,man,,,,null,,,,
null,"<img src=""stim_listA/argue2.gif""style=""height:400px;""></stim_listA>",,html-keyboard-response,31,306958,0.0-13.0-1.0,10204,List2A,white,man,,,,null,,,,
null,are arguing with each other,,html-keyboard-response,32,308957,0.0-13.0-2.0,10204,List2A,white,man,,,,null,,,,
21479,,,survey-text,33,330443,0.0-13.0-3.0,10204,List2A,white,man,,,,,"{""Q0"":""luke and jane are arguing with each other""}","<img src=""stim_listA/argue2.gif""style=""height:400px;""></stim_listA>",are arguing with each other,
null,"<div style=""font-size:60px;"">+</div>",,html-keyboard-response,34,330953,0.0-13.0-0.1,10204,List2A,white,man,,,,null,,,,
null,"<img src=""stim_listA/shout3.gif""style=""height:400px;""></stim_listA>",,html-keyboard-response,35,332968,0.0-13.0-1.1,10204,List2A,white,man,,,,null,,,,
null,is shouting at,,html-keyboard-response,36,334967,0.0-13.0-2.1,10204,List2A,white,man,,,,null,,,,
16113,,,survey-text,37,351086,0.0-13.0-3.1,10204,List2A,white,man,,,,,"{""Q0"":""beth is shouting at fred""}","<img src=""stim_listA/shout3.gif""style=""height:400px;""></stim_listA>",is shouting at,
null,"<div style=""font-size:60px;"">+</div>",,html-keyboard-response,38,351613,0.0-13.0-0.2,10204,List2A,white,man,,,,null,,,,
null,"<img src=""stim_listA/touch5.gif""style=""height:400px;""></stim_listA>",,html-keyboard-response,39,353643,0.0-13.0-1.2,10204,List2A,white,man,,,,null,,,,
null,is touching,,html-keyboard-response,40,355642,0.0-13.0-2.2,10204,List2A,white,man,,,,null,,,,
11208,,,survey-text,41,366866,0.0-13.0-3.2,10204,List2A,white,man,,,,,"{""Q0"":""mike is touching dave""}","<img src=""stim_listA/touch5.gif""style=""height:400px;""></stim_listA>",is touching,
null,"<div style=""font-size:60px;"">+</div>",,html-keyboard-response,42,367377,0.0-13.0-0.3,10204,List2A,white,man,,,,null,,,,
null,"<img src=""stim_listA/dance7.gif""style=""height:400px;""></stim_listA>",,html-keyboard-response,43,369408,0.0-13.0-1.3,10204,List2A,white,man,,,,null,,,,
null,is dancing with,,html-keyboard-response,44,371408,0.0-13.0-2.3,10204,List2A,white,man,,,,null,,,,
10288,,,survey-text,45,381700,0.0-13.0-3.3,10204,List2A,white,man,,,,,"{""Q0"":""ruth is dancing with kate""}","<img src=""stim_listA/dance7.gif""style=""height:400px;""></stim_listA>",is dancing with,
null,"<div style=""font-size:60px;"">+</div>",,html-keyboard-response,46,382214,0.0-13.0-0.4,10204,List2A,white,man,,,,null,,,,
null,"<img src=""stim_listA/play6.gif""style=""height:400px;""></stim_listA>",,html-keyboard-response,47,384229,0.0-13.0-1.4,10204,List2A,white,man,,,,null,,,,
null,are playing with each other,,html-keyboard-response,48,386243,0.0-13.0-2.4,10204,List2A,white,man,,,,null,,,,
15961,,,survey-text,49,402212,0.0-13.0-3.4,10204,List2A,white,man,,,,,"{""Q0"":""luke and fred are playing with each other""}","<img src=""stim_listA/play6.gif""style=""height:400px;""></stim_listA>",are playing with each other,
null,"<div style=""font-size:60px;"">+</div>",,html-keyboard-response,50,402738,0.0-13.0-0.5,10204,List2A,white,man,,,,null,,,,
null,"<img src=""stim_listA/dance4.gif""style=""height:400px;""></stim_listA>",,html-keyboard-response,51,404769,0.0-13.0-1.5,10204,List2A,white,man,,,,null,,,,
null,are dancing with each other,,html-keyboard-response,52,406753,0.0-13.0-2.5,10204,List2A,white,man,,,,null,,,,
19023,,,survey-text,53,425781,0.0-13.0-3.5,10204,List2A,white,man,,,,,"{""Q0"":""mike and beth are dancing with each other""}","<img src=""stim_listA/dance4.gif""style=""height:400px;""></stim_listA>",are dancing with each other,
null,"<div style=""font-size:60px;"">+</div>",,html-keyboard-response,54,426308,0.0-13.0-0.6,10204,List2A,white,man,,,,null,,,,
null,"<img src=""stim_listA/flirt7.gif""style=""height:400px;""></stim_listA>",,html-keyboard-response,55,428322,0.0-13.0-1.6,10204,List2A,white,man,,,,null,,,,
null,is flirting with,,html-keyboard-response,56,430321,0.0-13.0-2.6,10204,List2A,white,man,,,,null,,,,
11202,,,survey-text,57,441530,0.0-13.0-3.6,10204,List2A,white,man,,,,,"{""Q0"":""ruth is flirting with kate""}","<img src=""stim_listA/flirt7.gif""style=""height:400px;""></stim_listA>",is flirting with,
null,"<div style=""font-size:60px;"">+</div>",,html-keyboard-response,58,442056,0.0-13.0-0.7,10204,List2A,white,man,,,,null,,,,
null,"<img src=""stim_listA/touch1.gif""style=""height:400px;""></stim_listA>",,html-keyboard-response,59,444072,0.0-13.0-1.7,10204,List2A,white,man,,,,null,,,,
null,is touching,,html-keyboard-response,60,446071,0.0-13.0-2.7,10204,List2A,white,man,,,,null,,,,
8267,,,survey-text,61,454344,0.0-13.0-3.7,10204,List2A,white,man,,,,,"{""Q0"":""dave is touching jane""}","<img src=""stim_listA/touch1.gif""style=""height:400px;""></stim_listA>",is touching,
null,"<div style=""font-size:60px;"">+</div>",,html-keyboard-response,62,454870,0.0-13.0-0.8,10204,List2A,white,man,,,,null,,,,
null,"<img src=""stim_listA/touch8.gif""style=""height:400px;""></stim_listA>",,html-keyboard-response,63,456885,0.0-13.0-1.8,10204,List2A,white,man,,,,null,,,,
null,are touching each other,,html-keyboard-response,64,458900,0.0-13.0-2.8,10204,List2A,white,man,,,,null,,,,
19278,,,survey-text,65,478183,0.0-13.0-3.8,10204,List2A,white,man,,,,,"{""Q0"":""ruth and beth is touching each other""}","<img src=""stim_listA/touch8.gif""style=""height:400px;""></stim_listA>",are touching each other,
null,"<div style=""font-size:60px;"">+</div>",,html-keyboard-response,66,478709,0.0-13.0-0.9,10204,List2A,white,man,,,,null,,,,
null,"<img src=""stim_listA/kiss4.gif""style=""height:400px;""></stim_listA>",,html-keyboard-response,67,480725,0.0-13.0-1.9,10204,List2A,white,man,,,,null,,,,
null,are kissing each other,,html-keyboard-response,68,482739,0.0-13.0-2.9,10204,List2A,white,man,,,,null,,,,
15317,,,survey-text,69,498063,0.0-13.0-3.9,10204,List2A,white,man,,,,,"{""Q0"":""mike and kate are kissing each other""}","<img src=""stim_listA/kiss4.gif""style=""height:400px;""></stim_listA>",are kissing each other,
null,"<div style=""font-size:60px;"">+</div>",,html-keyboard-response,70,498590,0.0-13.0-0.10,10204,List2A,white,man,,,,null,,,,
null,"<img src=""stim_listA/play1.gif""style=""height:400px;""></stim_listA>",,html-keyboard-response,71,500621,0.0-13.0-1.10,10204,List2A,white,man,,,,null,,,,
null,is playing with,,html-keyboard-response,72,502620,0.0-13.0-2.10,10204,List2A,white,man,,,,null,,,,
8365,,,survey-text,73,510990,0.0-13.0-3.10,10204,List2A,white,man,,,,,"{""Q0"":""dave is playing with jane""}","<img src=""stim_listA/play1.gif""style=""height:400px;""></stim_listA>",is playing with,
null,"<div style=""font-size:60px;"">+</div>",,html-keyboard-response,74,511504,0.0-13.0-0.11,10204,List2A,white,man,,,,null,,,,
null,"<img src=""stim_listA/dance8.gif""style=""height:400px;""></stim_listA>",,html-keyboard-response,75,513527,0.0-13.0-1.11,10204,List2A,white,man,,,,null,,,,
null,are dancing with each other,,html-keyboard-response,76,515534,0.0-13.0-2.11,10204,List2A,white,man,,,,null,,,,
14476,,,survey-text,77,530018,0.0-13.0-3.11,10204,List2A,white,man,,,,,"{""Q0"":""jane and kate are dancing with each other""}","<img src=""stim_listA/dance8.gif""style=""height:400px;""></stim_listA>",are dancing with each other,
null,"<div style=""font-size:60px;"">+</div>",,html-keyboard-response,78,530528,0.0-13.0-0.12,10204,List2A,white,man,,,,null,,,,
null,"<img src=""stim_listA/play3.gif""style=""height:400px;""></stim_listA>",,html-keyboard-response,79,532559,0.0-13.0-1.12,10204,List2A,white,man,,,,null,,,,
null,is playing with,,html-keyboard-response,80,534558,0.0-13.0-2.12,10204,List2A,white,man,,,,null,,,,
10369,,,survey-text,81,544932,0.0-13.0-3.12,10204,List2A,white,man,,,,,"{""Q0"":""mike is playing with kate""}","<img src=""stim_listA/play3.gif""style=""height:400px;""></stim_listA>",is playing with,
null,"<div style=""font-size:60px;"">+</div>",,html-keyboard-response,82,545443,0.0-13.0-0.13,10204,List2A,white,man,,,,null,,,,
null,"<img src=""stim_listA/marry4.gif""style=""height:400px;""></stim_listA>",,html-keyboard-response,83,547458,0.0-13.0-1.13,10204,List2A,white,man,,,,null,,,,
null,are marrying each other,,html-keyboard-response,84,549472,0.0-13.0-2.13,10204,List2A,white,man,,,,null,,,,
11530,,,survey-text,85,561007,0.0-13.0-3.13,10204,List2A,white,man,,,,,"{""Q0"":""fred and kate are marring each other""}","<img src=""stim_listA/marry4.gif""style=""height:400px;""></stim_listA>",are marrying each other,
null,"<div style=""font-size:60px;"">+</div>",,html-keyboard-response,86,561534,0.0-13.0-0.14,10204,List2A,white,man,,,,null,,,,
null,"<img src=""stim_listA/touch4.gif""style=""height:400px;""></stim_listA>",,html-keyboard-response,87,563549,0.0-13.0-1.14,10204,List2A,white,man,,,,null,,,,
null,are touching each other,,html-keyboard-response,88,565564,0.0-13.0-2.14,10204,List2A,white,man,,,,null,,,,
12214,,,survey-text,89,577783,0.0-13.0-3.14,10204,List2A,white,man,,,,,"{""Q0"":""fred and beth are touching each other""}","<img src=""stim_listA/touch4.gif""style=""height:400px;""></stim_listA>",are touching each other,
null,"<div style=""font-size:60px;"">+</div>",,html-keyboard-response,90,578311,0.0-13.0-0.15,10204,List2A,white,man,,,,null,,,,
null,"<img src=""stim_listA/marry6.gif""style=""height:400px;""></stim_listA>",,html-keyboard-response,91,580328,0.0-13.0-1.15,10204,List2A,white,man,,,,null,,,,
null,are marrying each other,,html-keyboard-response,92,582342,0.0-13.0-2.15,10204,List2A,white,man,,,,null,,,,
11823,,,survey-text,93,594169,0.0-13.0-3.15,10204,List2A,white,man,,,,,"{""Q0"":""mike and luke are marring each other""}","<img src=""stim_listA/marry6.gif""style=""height:400px;""></stim_listA>",are marrying each other,
null,"<div style=""font-size:60px;"">+</div>",,html-keyboard-response,94,594684,0.0-13.0-0.16,10204,List2A,white,man,,,,null,,,,
null,"<img src=""stim_listA/talk6.gif""style=""height:400px;""></stim_listA>",,html-keyboard-response,95,596714,0.0-13.0-1.16,10204,List2A,white,man,,,,null,,,,
null,are talking to each other,,html-keyboard-response,96,598714,0.0-13.0-2.16,10204,List2A,white,man,,,,null,,,,
9984,,,survey-text,97,608705,0.0-13.0-3.16,10204,List2A,white,man,,,,,"{""Q0"":""dave and fred are talking to each other""}","<img src=""stim_listA/talk6.gif""style=""height:400px;""></stim_listA>",are talking to each other,
null,"<div style=""font-size:60px;"">+</div>",,html-keyboard-response,98,609215,0.0-13.0-0.17,10204,List2A,white,man,,,,null,,,,
null,"<img src=""stim_listA/fight2.gif""style=""height:400px;""></stim_listA>",,html-keyboard-response,99,611231,0.0-13.0-1.17,10204,List2A,white,man,,,,null,,,,
null,are fighting each other,,html-keyboard-response,100,613224,0.0-13.0-2.17,10204,List2A,white,man,,,,null,,,,
14515,,,survey-text,101,627746,0.0-13.0-3.17,10204,List2A,white,man,,,,,"{""Q0"":""luke and ruth are fighting each other""}","<img src=""stim_listA/fight2.gif""style=""height:400px;""></stim_listA>",are fighting each other,
null,"<div style=""font-size:60px;"">+</div>",,html-keyboard-response,102,628256,0.0-13.0-0.18,10204,List2A,white,man,,,,null,,,,
null,"<img src=""stim_listA/play8.gif""style=""height:400px;""></stim_listA>",,html-keyboard-response,103,630271,0.0-13.0-1.18,10204,List2A,white,man,,,,null,,,,
null,are playing with each other,,html-keyboard-response,104,632286,0.0-13.0-2.18,10204,List2A,white,man,,,,null,,,,
12755,,,survey-text,105,645047,0.0-13.0-3.18,10204,List2A,white,man,,,,,"{""Q0"":""ruth and beth are playing with each other""}","<img src=""stim_listA/play8.gif""style=""height:400px;""></stim_listA>",are playing with each other,
null,"<div style=""font-size:60px;"">+</div>",,html-keyboard-response,106,645558,0.0-13.0-0.19,10204,List2A,white,man,,,,null,,,,
null,"<img src=""stim_listA/marry2.gif""style=""height:400px;""></stim_listA>",,html-keyboard-response,107,647573,0.0-13.0-1.19,10204,List2A,white,man,,,,null,,,,
null,are marrying each other,,html-keyboard-response,108,649572,0.0-13.0-2.19,10204,List2A,white,man,,,,null,,,,
12506,,,survey-text,109,662083,0.0-13.0-3.19,10204,List2A,white,man,,,,,"{""Q0"":""luke and jane are marring each other""}","<img src=""stim_listA/marry2.gif""style=""height:400px;""></stim_listA>",are marrying each other,
11298,"<img src='img/portrait_matrix_list2.jpg' style='width:900px;height:500px;''></img><p>If you have memorised all the portraits and names and are ready to start, press Continue.</p><p><strong>Please note: Your memory of these faces will be tested 4 times during this experiment.</strong></p>",0,html-button-response,110,673388,0.0-14.0-0.0,10204,List2A,white,man,,,,,,,,
3293,"<img src=""portrait/WM2.jpg""style=""height:400px;""></img>",7,html-button-response,111,677696,0.0-14.0-1.0,10204,List2A,white,man,,TRUE,7,,,,,
null,CORRECT,,html-keyboard-response,112,679226,0.0-14.0-2.0-0.0,10204,List2A,white,man,,,,null,,,,
3676,"<img src=""portrait/WW1.jpg""style=""height:400px;""></img>",1,html-button-response,113,682912,0.0-14.0-4.0,10204,List2A,white,man,,TRUE,1,,,,,
null,CORRECT,,html-keyboard-response,114,684474,0.0-14.0-5.0-0.0,10204,List2A,white,man,,,,null,,,,
3205,"<img src=""portrait/WM1.jpg""style=""height:400px;""></img>",6,html-button-response,115,687688,0.0-14.0-7.0,10204,List2A,white,man,,TRUE,6,,,,,
null,CORRECT,,html-keyboard-response,116,689229,0.0-14.0-8.0-0.0,10204,List2A,white,man,,,,null,,,,
2267,"<img src=""portrait/BW1.jpg""style=""height:400px;""></img>",0,html-button-response,117,691504,0.0-14.0-10.0,10204,List2A,white,man,,TRUE,0,,,,,
null,CORRECT,,html-keyboard-response,118,693062,0.0-14.0-11.0-0.0,10204,List2A,white,man,,,,null,,,,
2304,"<img src=""portrait/WW2.jpg""style=""height:400px;""></img>",3,html-button-response,119,695374,0.0-14.0-13.0,10204,List2A,white,man,,TRUE,3,,,,,
null,CORRECT,,html-keyboard-response,120,696932,0.0-14.0-14.0-0.0,10204,List2A,white,man,,,,null,,,,
2886,"<img src=""portrait/BM1.jpg""style=""height:400px;""></img>",4,html-button-response,121,699827,0.0-14.0-16.0,10204,List2A,white,man,,TRUE,4,,,,,
null,CORRECT,,html-keyboard-response,122,701367,0.0-14.0-17.0-0.0,10204,List2A,white,man,,,,null,,,,
2903,"<img src=""portrait/BW2.jpg""style=""height:400px;""></img>",2,html-button-response,123,704279,0.0-14.0-19.0,10204,List2A,white,man,,TRUE,2,,,,,
null,CORRECT,,html-keyboard-response,124,705818,0.0-14.0-20.0-0.0,10204,List2A,white,man,,,,null,,,,
3822,"<img src=""portrait/BM2.jpg""style=""height:400px;""></img>",5,html-button-response,125,709647,0.0-14.0-22.0,10204,List2A,white,man,,TRUE,5,,,,,
null,CORRECT,,html-keyboard-response,126,711193,0.0-14.0-23.0-0.0,10204,List2A,white,man,,,,null,,,,
7577,<p>You got 8 out of 8 right first time. Press Continue.</p>,0,html-button-response,127,718774,0.0-14.0-25.0,10204,List2A,white,man,,,,,,,,
null,"<div style=""font-size:60px;"">+</div>",,html-keyboard-response,128,720308,0.0-15.0-0.0,10204,List2A,white,man,,,,null,,,,
null,"<img src=""stim_listA/fight6.gif""style=""height:400px;""></stim_listA>",,html-keyboard-response,129,722339,0.0-15.0-1.0,10204,List2A,white,man,,,,null,,,,
null,are fighting each other,,html-keyboard-response,130,724325,0.0-15.0-2.0,10204,List2A,white,man,,,,null,,,,
12471,,,survey-text,131,736801,0.0-15.0-3.0,10204,List2A,white,man,,,,,"{""Q0"":""luke and fred are fighting each other""}","<img src=""stim_listA/fight6.gif""style=""height:400px;""></stim_listA>",are fighting each other,
null,"<div style=""font-size:60px;"">+</div>",,html-keyboard-response,132,737313,0.0-15.0-0.1,10204,List2A,white,man,,,,null,,,,
null,"<img src=""stim_listA/talk7.gif""style=""height:400px;""></stim_listA>",,html-keyboard-response,133,739329,0.0-15.0-1.1,10204,List2A,white,man,,,,null,,,,
null,is talking to,,html-keyboard-response,134,741343,0.0-15.0-2.1,10204,List2A,white,man,,,,null,,,,
8387,,,survey-text,135,749736,0.0-15.0-3.1,10204,List2A,white,man,,,,,"{""Q0"":""ruth is talking to kate""}","<img src=""stim_listA/talk7.gif""style=""height:400px;""></stim_listA>",is talking to,
null,"<div style=""font-size:60px;"">+</div>",,html-keyboard-response,136,750247,0.0-15.0-0.2,10204,List2A,white,man,,,,null,,,,
null,"<img src=""stim_listA/flirt2.gif""style=""height:400px;""></stim_listA>",,html-keyboard-response,137,752261,0.0-15.0-1.2,10204,List2A,white,man,,,,null,,,,
null,are flirting with each other,,html-keyboard-response,138,754259,0.0-15.0-2.2,10204,List2A,white,man,,,,null,,,,
15415,,,survey-text,139,769680,0.0-15.0-3.2,10204,List2A,white,man,,,,,"{""Q0"":""ruth and dave are flirting with each other""}","<img src=""stim_listA/flirt2.gif""style=""height:400px;""></stim_listA>",are flirting with each other,
null,"<div style=""font-size:60px;"">+</div>",,html-keyboard-response,140,770206,0.0-15.0-0.3,10204,List2A,white,man,,,,null,,,,
null,"<img src=""stim_listA/play4.gif""style=""height:400px;""></stim_listA>",,html-keyboard-response,141,772236,0.0-15.0-1.3,10204,List2A,white,man,,,,null,,,,
null,are playing with each other,,html-keyboard-response,142,774235,0.0-15.0-2.3,10204,List2A,white,man,,,,null,,,,
12867,,,survey-text,143,787106,0.0-15.0-3.3,10204,List2A,white,man,,,,,"{""Q0"":""fred and beth are playing with each other""}","<img src=""stim_listA/play4.gif""style=""height:400px;""></stim_listA>",are playing with each other,
null,"<div style=""font-size:60px;"">+</div>",,html-keyboard-response,144,787617,0.0-15.0-0.4,10204,List2A,white,man,,,,null,,,,
null,"<img src=""stim_listA/marry3.gif""style=""height:400px;""></stim_listA>",,html-keyboard-response,145,789638,0.0-15.0-1.4,10204,List2A,white,man,,,,null,,,,
null,is marrying,,html-keyboard-response,146,791631,0.0-15.0-2.4,10204,List2A,white,man,,,,null,,,,
6643,,,survey-text,147,798282,0.0-15.0-3.4,10204,List2A,white,man,,,,,"{""Q0"":""beth is marring mike""}","<img src=""stim_listA/marry3.gif""style=""height:400px;""></stim_listA>",is marrying,
null,"<div style=""font-size:60px;"">+</div>",,html-keyboard-response,148,798808,0.0-15.0-0.5,10204,List2A,white,man,,,,null,,,,
null,"<img src=""stim_listA/kiss7.gif""style=""height:400px;""></stim_listA>",,html-keyboard-response,149,800839,0.0-15.0-1.5,10204,List2A,white,man,,,,null,,,,
null,is kissing,,html-keyboard-response,150,802839,0.0-15.0-2.5,10204,List2A,white,man,,,,null,,,,
7336,,,survey-text,151,810182,0.0-15.0-3.5,10204,List2A,white,man,,,,,"{""Q0"":""beth is kissing ruth""}","<img src=""stim_listA/kiss7.gif""style=""height:400px;""></stim_listA>",is kissing,
null,"<div style=""font-size:60px;"">+</div>",,html-keyboard-response,152,810692,0.0-15.0-0.6,10204,List2A,white,man,,,,null,,,,
null,"<img src=""stim_listA/marry1.gif""style=""height:400px;""></stim_listA>",,html-keyboard-response,153,812707,0.0-15.0-1.6,10204,List2A,white,man,,,,null,,,,
null,is marrying,,html-keyboard-response,154,814701,0.0-15.0-2.6,10204,List2A,white,man,,,,null,,,,
7376,,,survey-text,155,822082,0.0-15.0-3.6,10204,List2A,white,man,,,,,"{""Q0"":""ruth is marring dave""}","<img src=""stim_listA/marry1.gif""style=""height:400px;""></stim_listA>",is marrying,
null,"<div style=""font-size:60px;"">+</div>",,html-keyboard-response,156,822593,0.0-15.0-0.7,10204,List2A,white,man,,,,null,,,,
null,"<img src=""stim_listA/argue4.gif""style=""height:400px;""></stim_listA>",,html-keyboard-response,157,824623,0.0-15.0-1.7,10204,List2A,white,man,,,,null,,,,
null,are arguing with each other,,html-keyboard-response,158,826607,0.0-15.0-2.7,10204,List2A,white,man,,,,null,,,,
16105,,,survey-text,159,842719,0.0-15.0-3.7,10204,List2A,white,man,,,,,"{""Q0"":""kate and fred are arguing with each other""}","<img src=""stim_listA/argue4.gif""style=""height:400px;""></stim_listA>",are arguing with each other,
null,"<div style=""font-size:60px;"">+</div>",,html-keyboard-response,160,843243,0.0-15.0-0.8,10204,List2A,white,man,,,,null,,,,
null,"<img src=""stim_listA/kiss3.gif""style=""height:400px;""></stim_listA>",,html-keyboard-response,161,845260,0.0-15.0-1.8,10204,List2A,white,man,,,,null,,,,
null,is kissing,,html-keyboard-response,162,847263,0.0-15.0-2.8,10204,List2A,white,man,,,,null,,,,
6683,,,survey-text,163,853953,0.0-15.0-3.8,10204,List2A,white,man,,,,,"{""Q0"":""fred is kissing beth""}","<img src=""stim_listA/kiss3.gif""style=""height:400px;""></stim_listA>",is kissing,
null,"<div style=""font-size:60px;"">+</div>",,html-keyboard-response,164,854479,0.0-15.0-0.9,10204,List2A,white,man,,,,null,,,,
null,"<img src=""stim_listA/talk1.gif""style=""height:400px;""></stim_listA>",,html-keyboard-response,165,856494,0.0-15.0-1.9,10204,List2A,white,man,,,,null,,,,
null,is talking to,,html-keyboard-response,166,858487,0.0-15.0-2.9,10204,List2A,white,man,,,,null,,,,
7814,,,survey-text,167,866318,0.0-15.0-3.9,10204,List2A,white,man,,,,,"{""Q0"":""luke is talking to jane""}","<img src=""stim_listA/talk1.gif""style=""height:400px;""></stim_listA>",is talking to,
null,"<div style=""font-size:60px;"">+</div>",,html-keyboard-response,168,866848,0.0-15.0-0.10,10204,List2A,white,man,,,,null,,,,
null,"<img src=""stim_listA/kiss1.gif""style=""height:400px;""></stim_listA>",,html-keyboard-response,169,868863,0.0-15.0-1.10,10204,List2A,white,man,,,,null,,,,
null,is kissing,,html-keyboard-response,170,870877,0.0-15.0-2.10,10204,List2A,white,man,,,,null,,,,
7131,,,survey-text,171,878012,0.0-15.0-3.10,10204,List2A,white,man,,,,,"{""Q0"":""luke is kissing ruth""}","<img src=""stim_listA/kiss1.gif""style=""height:400px;""></stim_listA>",is kissing,
null,"<div style=""font-size:60px;"">+</div>",,html-keyboard-response,172,878523,0.0-15.0-0.11,10204,List2A,white,man,,,,null,,,,
null,"<img src=""stim_listA/argue7.gif""style=""height:400px;""></stim_listA>",,html-keyboard-response,173,880554,0.0-15.0-1.11,10204,List2A,white,man,,,,null,,,,
null,is arguing with,,html-keyboard-response,174,882552,0.0-15.0-2.11,10204,List2A,white,man,,,,null,,,,
8198,,,survey-text,175,890757,0.0-15.0-3.11,10204,List2A,white,man,,,,,"{""Q0"":""jane is arguing with beth""}","<img src=""stim_listA/argue7.gif""style=""height:400px;""></stim_listA>",is arguing with,
null,"<div style=""font-size:60px;"">+</div>",,html-keyboard-response,176,891267,0.0-15.0-0.12,10204,List2A,white,man,,,,null,,,,
null,"<img src=""stim_listA/fight4.gif""style=""height:400px;""></stim_listA>",,html-keyboard-response,177,893283,0.0-15.0-1.12,10204,List2A,white,man,,,,null,,,,
null,are fighting each other,,html-keyboard-response,178,895297,0.0-15.0-2.12,10204,List2A,white,man,,,,null,,,,
9998,,,survey-text,179,905301,0.0-15.0-3.12,10204,List2A,white,man,,,,,"{""Q0"":""fred and beth are fighting each other""}","<img src=""stim_listA/fight4.gif""style=""height:400px;""></stim_listA>",are fighting each other,
null,"<div style=""font-size:60px;"">+</div>",,html-keyboard-response,180,905811,0.0-15.0-0.13,10204,List2A,white,man,,,,null,,,,
null,"<img src=""stim_listA/dance5.gif""style=""height:400px;""></stim_listA>",,html-keyboard-response,181,907826,0.0-15.0-1.13,10204,List2A,white,man,,,,null,,,,
null,is dancing with,,html-keyboard-response,182,909822,0.0-15.0-2.13,10204,List2A,white,man,,,,null,,,,
6690,,,survey-text,183,916518,0.0-15.0-3.13,10204,List2A,white,man,,,,,"{""Q0"":""luke is dancing with mike""}","<img src=""stim_listA/dance5.gif""style=""height:400px;""></stim_listA>",is dancing with,
null,"<div style=""font-size:60px;"">+</div>",,html-keyboard-response,184,917029,0.0-15.0-0.14,10204,List2A,white,man,,,,null,,,,
null,"<img src=""stim_listA/kiss2.gif""style=""height:400px;""></stim_listA>",,html-keyboard-response,185,919060,0.0-15.0-1.14,10204,List2A,white,man,,,,null,,,,
null,are kissing each other,,html-keyboard-response,186,921043,0.0-15.0-2.14,10204,List2A,white,man,,,,null,,,,
11298,,,survey-text,187,932348,0.0-15.0-3.14,10204,List2A,white,man,,,,,"{""Q0"":""dave and jane are kissing each other""}","<img src=""stim_listA/kiss2.gif""style=""height:400px;""></stim_listA>",are kissing each other,
null,"<div style=""font-size:60px;"">+</div>",,html-keyboard-response,188,932873,0.0-15.0-0.15,10204,List2A,white,man,,,,null,,,,
null,"<img src=""stim_listA/fight5.gif""style=""height:400px;""></stim_listA>",,html-keyboard-response,189,934904,0.0-15.0-1.15,10204,List2A,white,man,,,,null,,,,
null,is fighting,,html-keyboard-response,190,936903,0.0-15.0-2.15,10204,List2A,white,man,,,,null,,,,
6746,,,survey-text,191,943652,0.0-15.0-3.15,10204,List2A,white,man,,,,,"{""Q0"":""dave is fighting mike""}","<img src=""stim_listA/fight5.gif""style=""height:400px;""></stim_listA>",is fighting,
null,"<div style=""font-size:60px;"">+</div>",,html-keyboard-response,192,944178,0.0-15.0-0.16,10204,List2A,white,man,,,,null,,,,
null,"<img src=""stim_listA/play5.gif""style=""height:400px;""></stim_listA>",,html-keyboard-response,193,946195,0.0-15.0-1.16,10204,List2A,white,man,,,,null,,,,
null,is playing with,,html-keyboard-response,194,948191,0.0-15.0-2.16,10204,List2A,white,man,,,,null,,,,
9073,,,survey-text,195,957273,0.0-15.0-3.16,10204,List2A,white,man,,,,,"{""Q0"":""dave is playing with mike""}","<img src=""stim_listA/play5.gif""style=""height:400px;""></stim_listA>",is playing with,
null,"<div style=""font-size:60px;"">+</div>",,html-keyboard-response,196,957783,0.0-15.0-0.17,10204,List2A,white,man,,,,null,,,,
null,"<img src=""stim_listA/shout2.gif""style=""height:400px;""></stim_listA>",,html-keyboard-response,197,959814,0.0-15.0-1.17,10204,List2A,white,man,,,,null,,,,
null,are shouting at each other,,html-keyboard-response,198,961797,0.0-15.0-2.17,10204,List2A,white,man,,,,null,,,,
13327,,,survey-text,199,975131,0.0-15.0-3.17,10204,List2A,white,man,,,,,"{""Q0"":""dave and jane are shouting at each other""}","<img src=""stim_listA/shout2.gif""style=""height:400px;""></stim_listA>",are shouting at each other,
null,"<div style=""font-size:60px;"">+</div>",,html-keyboard-response,200,975657,0.0-15.0-0.18,10204,List2A,white,man,,,,null,,,,
null,"<img src=""stim_listA/kiss8.gif""style=""height:400px;""></stim_listA>",,html-keyboard-response,201,977672,0.0-15.0-1.18,10204,List2A,white,man,,,,null,,,,
null,are kissing each other,,html-keyboard-response,202,979687,0.0-15.0-2.18,10204,List2A,white,man,,,,null,,,,
16851,,,survey-text,203,996544,0.0-15.0-3.18,10204,List2A,white,man,,,,,"{""Q0"":""jane and kate are kissing each other""}","<img src=""stim_listA/kiss8.gif""style=""height:400px;""></stim_listA>",are kissing each other,
null,"<div style=""font-size:60px;"">+</div>",,html-keyboard-response,204,997070,0.0-15.0-0.19,10204,List2A,white,man,,,,null,,,,
null,"<img src=""stim_listA/shout1.gif""style=""height:400px;""></stim_listA>",,html-keyboard-response,205,999101,0.0-15.0-1.19,10204,List2A,white,man,,,,null,,,,
null,is shouting at,,html-keyboard-response,206,1001115,0.0-15.0-2.19,10204,List2A,white,man,,,,null,,,,
6891,,,survey-text,207,1008013,0.0-15.0-3.19,10204,List2A,white,man,,,,,"{""Q0"":""ruth is shouting at luke""}","<img src=""stim_listA/shout1.gif""style=""height:400px;""></stim_listA>",is shouting at,
12439,"<img src='img/portrait_matrix_list2.jpg' style='width:900px;height:500px;''></img><p>If you have memorised all the portraits and names and are ready to start, press Continue.</p><p><strong>Please note: Your memory of these faces will be tested 4 times during this experiment.</strong></p>",0,html-button-response,208,1020460,0.0-16.0-0.0,10204,List2A,white,man,,,,,,,,
2387,"<img src=""portrait/WW2.jpg""style=""height:400px;""></img>",3,html-button-response,209,1023868,0.0-16.0-1.0,10204,List2A,white,man,,TRUE,3,,,,,
null,CORRECT,,html-keyboard-response,210,1025394,0.0-16.0-2.0-0.0,10204,List2A,white,man,,,,null,,,,
3448,"<img src=""portrait/BW1.jpg""style=""height:400px;""></img>",0,html-button-response,211,1028851,0.0-16.0-4.0,10204,List2A,white,man,,TRUE,0,,,,,
null,CORRECT,,html-keyboard-response,212,1030392,0.0-16.0-5.0-0.0,10204,List2A,white,man,,,,null,,,,
2634,"<img src=""portrait/WM1.jpg""style=""height:400px;""></img>",6,html-button-response,213,1033036,0.0-16.0-7.0,10204,List2A,white,man,,TRUE,6,,,,,
null,CORRECT,,html-keyboard-response,214,1034578,0.0-16.0-8.0-0.0,10204,List2A,white,man,,,,null,,,,
3458,"<img src=""portrait/WW1.jpg""style=""height:400px;""></img>",1,html-button-response,215,1038043,0.0-16.0-10.0,10204,List2A,white,man,,TRUE,1,,,,,
null,CORRECT,,html-keyboard-response,216,1039600,0.0-16.0-11.0-0.0,10204,List2A,white,man,,,,null,,,,
3791,"<img src=""portrait/BW2.jpg""style=""height:400px;""></img>",2,html-button-response,217,1043397,0.0-16.0-13.0,10204,List2A,white,man,,TRUE,2,,,,,
null,CORRECT,,html-keyboard-response,218,1044943,0.0-16.0-14.0-0.0,10204,List2A,white,man,,,,null,,,,
2425,"<img src=""portrait/WM2.jpg""style=""height:400px;""></img>",7,html-button-response,219,1047376,0.0-16.0-16.0,10204,List2A,white,man,,TRUE,7,,,,,
null,CORRECT,,html-keyboard-response,220,1048917,0.0-16.0-17.0-0.0,10204,List2A,white,man,,,,null,,,,
2515,"<img src=""portrait/BM2.jpg""style=""height:400px;""></img>",5,html-button-response,221,1051437,0.0-16.0-19.0,10204,List2A,white,man,,TRUE,5,,,,,
null,CORRECT,,html-keyboard-response,222,1052994,0.0-16.0-20.0-0.0,10204,List2A,white,man,,,,null,,,,
1763,"<img src=""portrait/BM1.jpg""style=""height:400px;""></img>",4,html-button-response,223,1054764,0.0-16.0-22.0,10204,List2A,white,man,,TRUE,4,,,,,
null,CORRECT,,html-keyboard-response,224,1056322,0.0-16.0-23.0-0.0,10204,List2A,white,man,,,,null,,,,
2336,<p>You got 8 out of 8 right first time. Press Continue.</p>,0,html-button-response,225,1058666,0.0-16.0-25.0,10204,List2A,white,man,,,,,,,,
null,"<div style=""font-size:60px;"">+</div>",,html-keyboard-response,226,1060211,0.0-17.0-0.0,10204,List2A,white,man,,,,null,,,,
null,"<img src=""stim_listA/touch6.gif""style=""height:400px;""></stim_listA>",,html-keyboard-response,227,1062242,0.0-17.0-1.0,10204,List2A,white,man,,,,null,,,,
null,are touching each other,,html-keyboard-response,228,1064225,0.0-17.0-2.0,10204,List2A,white,man,,,,null,,,,
11938,,,survey-text,229,1076169,0.0-17.0-3.0,10204,List2A,white,man,,,,,"{""Q0"":""fred and luke are touching each other""}","<img src=""stim_listA/touch6.gif""style=""height:400px;""></stim_listA>",are touching each other,
null,"<div style=""font-size:60px;"">+</div>",,html-keyboard-response,230,1076695,0.0-17.0-0.1,10204,List2A,white,man,,,,null,,,,
null,"<img src=""stim_listA/talk4.gif""style=""height:400px;""></stim_listA>",,html-keyboard-response,231,1078711,0.0-17.0-1.1,10204,List2A,white,man,,,,null,,,,
null,are talking to each other,,html-keyboard-response,232,1080726,0.0-17.0-2.1,10204,List2A,white,man,,,,null,,,,
11722,,,survey-text,233,1092455,0.0-17.0-3.1,10204,List2A,white,man,,,,,"{""Q0"":""mike and beth are talking to each other""}","<img src=""stim_listA/talk4.gif""style=""height:400px;""></stim_listA>",are talking to each other,
null,"<div style=""font-size:60px;"">+</div>",,html-keyboard-response,234,1092981,0.0-17.0-0.2,10204,List2A,white,man,,,,null,,,,
null,"<img src=""stim_listA/shout5.gif""style=""height:400px;""></stim_listA>",,html-keyboard-response,235,1095012,0.0-17.0-1.2,10204,List2A,white,man,,,,null,,,,
null,is shouting at,,html-keyboard-response,236,1097010,0.0-17.0-2.2,10204,List2A,white,man,,,,null,,,,
9285,,,survey-text,237,1106301,0.0-17.0-3.2,10204,List2A,white,man,,,,,"{""Q0"":""luke is shouting at fred""}","<img src=""stim_listA/shout5.gif""style=""height:400px;""></stim_listA>",is shouting at,
null,"<div style=""font-size:60px;"">+</div>",,html-keyboard-response,238,1106813,0.0-17.0-0.3,10204,List2A,white,man,,,,null,,,,
null,"<img src=""stim_listA/dance1.gif""style=""height:400px;""></stim_listA>",,html-keyboard-response,239,1108828,0.0-17.0-1.3,10204,List2A,white,man,,,,null,,,,
null,is dancing with,,html-keyboard-response,240,1110842,0.0-17.0-2.3,10204,List2A,white,man,,,,null,,,,
7798,,,survey-text,241,1118646,0.0-17.0-3.3,10204,List2A,white,man,,,,,"{""Q0"":""luke is dancing with jane""}","<img src=""stim_listA/dance1.gif""style=""height:400px;""></stim_listA>",is dancing with,
null,"<div style=""font-size:60px;"">+</div>",,html-keyboard-response,242,1119176,0.0-17.0-0.4,10204,List2A,white,man,,,,null,,,,
null,"<img src=""stim_listA/play7.gif""style=""height:400px;""></stim_listA>",,html-keyboard-response,243,1121197,0.0-17.0-1.4,10204,List2A,white,man,,,,null,,,,
null,is playing with,,html-keyboard-response,244,1123179,0.0-17.0-2.4,10204,List2A,white,man,,,,null,,,,
6332,,,survey-text,245,1129517,0.0-17.0-3.4,10204,List2A,white,man,,,,,"{""Q0"":""jane is playing with kate""}","<img src=""stim_listA/play7.gif""style=""height:400px;""></stim_listA>",is playing with,
null,"<div style=""font-size:60px;"">+</div>",,html-keyboard-response,246,1130027,0.0-17.0-0.5,10204,List2A,white,man,,,,null,,,,
null,"<img src=""stim_listA/flirt5.gif""style=""height:400px;""></stim_listA>",,html-keyboard-response,247,1132043,0.0-17.0-1.5,10204,List2A,white,man,,,,null,,,,
null,is flirting with,,html-keyboard-response,248,1134040,0.0-17.0-2.5,10204,List2A,white,man,,,,null,,,,
7774,,,survey-text,249,1141820,0.0-17.0-3.5,10204,List2A,white,man,,,,,"{""Q0"":""luke is flirting with mike""}","<img src=""stim_listA/flirt5.gif""style=""height:400px;""></stim_listA>",is flirting with,
null,"<div style=""font-size:60px;"">+</div>",,html-keyboard-response,250,1142346,0.0-17.0-0.6,10204,List2A,white,man,,,,null,,,,
null,"<img src=""stim_listA/argue6.gif""style=""height:400px;""></stim_listA>",,html-keyboard-response,251,1144361,0.0-17.0-1.6,10204,List2A,white,man,,,,null,,,,
null,are arguing with each other,,html-keyboard-response,252,1146375,0.0-17.0-2.6,10204,List2A,white,man,,,,null,,,,
9941,,,survey-text,253,1156320,0.0-17.0-3.6,10204,List2A,white,man,,,,,"{""Q0"":""luke and mike are arguing with each other""}","<img src=""stim_listA/argue6.gif""style=""height:400px;""></stim_listA>",are arguing with each other,
null,"<div style=""font-size:60px;"">+</div>",,html-keyboard-response,254,1156846,0.0-17.0-0.7,10204,List2A,white,man,,,,null,,,,
null,"<img src=""stim_listA/fight3.gif""style=""height:400px;""></stim_listA>",,html-keyboard-response,255,1158892,0.0-17.0-1.7,10204,List2A,white,man,,,,null,,,,
null,is fighting,,html-keyboard-response,256,1160876,0.0-17.0-2.7,10204,List2A,white,man,,,,null,,,,
7299,,,survey-text,257,1168182,0.0-17.0-3.7,10204,List2A,white,man,,,,,"{""Q0"":""mike is fighting kate""}","<img src=""stim_listA/fight3.gif""style=""height:400px;""></stim_listA>",is fighting,
null,"<div style=""font-size:60px;"">+</div>",,html-keyboard-response,258,1168693,0.0-17.0-0.8,10204,List2A,white,man,,,,null,,,,
null,"<img src=""stim_listA/talk5.gif""style=""height:400px;""></stim_listA>",,html-keyboard-response,259,1170708,0.0-17.0-1.8,10204,List2A,white,man,,,,null,,,,
null,is talking to,,html-keyboard-response,260,1172709,0.0-17.0-2.8,10204,List2A,white,man,,,,null,,,,
6297,,,survey-text,261,1179013,0.0-17.0-3.8,10204,List2A,white,man,,,,,"{""Q0"":""mike is talking to luke""}","<img src=""stim_listA/talk5.gif""style=""height:400px;""></stim_listA>",is talking to,
null,"<div style=""font-size:60px;"">+</div>",,html-keyboard-response,262,1179523,0.0-17.0-0.9,10204,List2A,white,man,,,,null,,,,
null,"<img src=""stim_listA/shout4.gif""style=""height:400px;""></stim_listA>",,html-keyboard-response,263,1181538,0.0-17.0-1.9,10204,List2A,white,man,,,,null,,,,
null,are shouting at each other,,html-keyboard-response,264,1183530,0.0-17.0-2.9,10204,List2A,white,man,,,,null,,,,
11609,,,survey-text,265,1195149,0.0-17.0-3.9,10204,List2A,white,man,,,,,"{""Q0"":""mike and kate are shouting at each other""}","<img src=""stim_listA/shout4.gif""style=""height:400px;""></stim_listA>",are shouting at each other,
null,"<div style=""font-size:60px;"">+</div>",,html-keyboard-response,266,1195660,0.0-17.0-0.10,10204,List2A,white,man,,,,null,,,,
null,"<img src=""stim_listA/play2.gif""style=""height:400px;""></stim_listA>",,html-keyboard-response,267,1197679,0.0-17.0-1.10,10204,List2A,white,man,,,,null,,,,
null,are playing with each other,,html-keyboard-response,268,1199675,0.0-17.0-2.10,10204,List2A,white,man,,,,null,,,,
13018,,,survey-text,269,1212700,0.0-17.0-3.10,10204,List2A,white,man,,,,,"{""Q0"":""luke and ruth are playing with each other""}","<img src=""stim_listA/play2.gif""style=""height:400px;""></stim_listA>",are playing with each other,
null,"<div style=""font-size:60px;"">+</div>",,html-keyboard-response,270,1213212,0.0-17.0-0.11,10204,List2A,white,man,,,,null,,,,
null,"<img src=""stim_listA/fight8.gif""style=""height:400px;""></stim_listA>",,html-keyboard-response,271,1215230,0.0-17.0-1.11,10204,List2A,white,man,,,,null,,,,
null,are fighting each other,,html-keyboard-response,272,1217219,0.0-17.0-2.11,10204,List2A,white,man,,,,null,,,,
10530,,,survey-text,273,1227755,0.0-17.0-3.11,10204,List2A,white,man,,,,,"{""Q0"":""ruth and beth are fighting each other""}","<img src=""stim_listA/fight8.gif""style=""height:400px;""></stim_listA>",are fighting each other,
null,"<div style=""font-size:60px;"">+</div>",,html-keyboard-response,274,1228266,0.0-17.0-0.12,10204,List2A,white,man,,,,null,,,,
null,"<img src=""stim_listA/shout8.gif""style=""height:400px;""></stim_listA>",,html-keyboard-response,275,1230281,0.0-17.0-1.12,10204,List2A,white,man,,,,null,,,,
null,are shouting at each other,,html-keyboard-response,276,1232280,0.0-17.0-2.12,10204,List2A,white,man,,,,null,,,,
11613,,,survey-text,277,1243899,0.0-17.0-3.12,10204,List2A,white,man,,,,,"{""Q0"":""jane and kate are shouting at each other""}","<img src=""stim_listA/shout8.gif""style=""height:400px;""></stim_listA>",are shouting at each other,
null,"<div style=""font-size:60px;"">+</div>",,html-keyboard-response,278,1244424,0.0-17.0-0.13,10204,List2A,white,man,,,,null,,,,
null,"<img src=""stim_listA/shout6.gif""style=""height:400px;""></stim_listA>",,html-keyboard-response,279,1246455,0.0-17.0-1.13,10204,List2A,white,man,,,,null,,,,
null,are shouting at each other,,html-keyboard-response,280,1248439,0.0-17.0-2.13,10204,List2A,white,man,,,,null,,,,
12148,,,survey-text,281,1260592,0.0-17.0-3.13,10204,List2A,white,man,,,,,"{""Q0"":""mike and dave are shouting at each other""}","<img src=""stim_listA/shout6.gif""style=""height:400px;""></stim_listA>",are shouting at each other,
null,"<div style=""font-size:60px;"">+</div>",,html-keyboard-response,282,1261103,0.0-17.0-0.14,10204,List2A,white,man,,,,null,,,,
null,"<img src=""stim_listA/talk2.gif""style=""height:400px;""></stim_listA>",,html-keyboard-response,283,1263118,0.0-17.0-1.14,10204,List2A,white,man,,,,null,,,,
null,are talking to each other,,html-keyboard-response,284,1265111,0.0-17.0-2.14,10204,List2A,white,man,,,,null,,,,
12828,,,survey-text,285,1277945,0.0-17.0-3.14,10204,List2A,white,man,,,,,"{""Q0"":""dave and ruth are talking to each other""}","<img src=""stim_listA/talk2.gif""style=""height:400px;""></stim_listA>",are talking to each other,
null,"<div style=""font-size:60px;"">+</div>",,html-keyboard-response,286,1278456,0.0-17.0-0.15,10204,List2A,white,man,,,,null,,,,
null,"<img src=""stim_listA/touch7.gif""style=""height:400px;""></stim_listA>",,html-keyboard-response,287,1280487,0.0-17.0-1.15,10204,List2A,white,man,,,,null,,,,
null,is touching,,html-keyboard-response,288,1282481,0.0-17.0-2.15,10204,List2A,white,man,,,,null,,,,
8354,,,survey-text,289,1290842,0.0-17.0-3.15,10204,List2A,white,man,,,,,"{""Q0"":""kate is touching jane""}","<img src=""stim_listA/touch7.gif""style=""height:400px;""></stim_listA>",is touching,
null,"<div style=""font-size:60px;"">+</div>",,html-keyboard-response,290,1291353,0.0-17.0-0.16,10204,List2A,white,man,,,,null,,,,
null,"<img src=""stim_listA/flirt8.gif""style=""height:400px;""></stim_listA>",,html-keyboard-response,291,1293368,0.0-17.0-1.16,10204,List2A,white,man,,,,null,,,,
null,are flirting with each other,,html-keyboard-response,292,1295383,0.0-17.0-2.16,10204,List2A,white,man,,,,null,,,,
10740,,,survey-text,293,1306131,0.0-17.0-3.16,10204,List2A,white,man,,,,,"{""Q0"":""jane and beth are flirting with each other""}","<img src=""stim_listA/flirt8.gif""style=""height:400px;""></stim_listA>",are flirting with each other,
null,"<div style=""font-size:60px;"">+</div>",,html-keyboard-response,294,1306640,0.0-17.0-0.17,10204,List2A,white,man,,,,null,,,,
null,"<img src=""stim_listA/marry7.gif""style=""height:400px;""></stim_listA>",,html-keyboard-response,295,1308656,0.0-17.0-1.17,10204,List2A,white,man,,,,null,,,,
null,is marrying,,html-keyboard-response,296,1310647,0.0-17.0-2.17,10204,List2A,white,man,,,,null,,,,
7463,,,survey-text,297,1318116,0.0-17.0-3.17,10204,List2A,white,man,,,,,"{""Q0"":""beth is marrying jane""}","<img src=""stim_listA/marry7.gif""style=""height:400px;""></stim_listA>",is marrying,
null,"<div style=""font-size:60px;"">+</div>",,html-keyboard-response,298,1318642,0.0-17.0-0.18,10204,List2A,white,man,,,,null,,,,
null,"<img src=""stim_listA/talk8.gif""style=""height:400px;""></stim_listA>",,html-keyboard-response,299,1320661,0.0-17.0-1.18,10204,List2A,white,man,,,,null,,,,
null,are talking to each other,,html-keyboard-response,300,1322670,0.0-17.0-2.18,10204,List2A,white,man,,,,null,,,,
9624,,,survey-text,301,1332301,0.0-17.0-3.18,10204,List2A,white,man,,,,,"{""Q0"":""beth and jane are talking to each other""}","<img src=""stim_listA/talk8.gif""style=""height:400px;""></stim_listA>",are talking to each other,
null,"<div style=""font-size:60px;"">+</div>",,html-keyboard-response,302,1332827,0.0-17.0-0.19,10204,List2A,white,man,,,,null,,,,
null,"<img src=""stim_listA/dance3.gif""style=""height:400px;""></stim_listA>",,html-keyboard-response,303,1334858,0.0-17.0-1.19,10204,List2A,white,man,,,,null,,,,
null,is dancing with,,html-keyboard-response,304,1336845,0.0-17.0-2.19,10204,List2A,white,man,,,,null,,,,
7851,,,survey-text,305,1344701,0.0-17.0-3.19,10204,List2A,white,man,,,,,"{""Q0"":""kate is dancing with fred""}","<img src=""stim_listA/dance3.gif""style=""height:400px;""></stim_listA>",is dancing with,
15107,"<img src='img/portrait_matrix_list2.jpg' style='width:900px;height:500px;''></img><p>If you have memorised all the portraits and names and are ready to start, press Continue.</p><p><strong>Please note: Your memory of these faces will be tested 4 times during this experiment.</strong></p>",0,html-button-response,306,1359817,0.0-18.0-0.0,10204,List2A,white,man,,,,,,,,
2874,"<img src=""portrait/WW2.jpg""style=""height:400px;""></img>",3,html-button-response,307,1363723,0.0-18.0-1.0,10204,List2A,white,man,,TRUE,3,,,,,
null,CORRECT,,html-keyboard-response,308,1365263,0.0-18.0-2.0-0.0,10204,List2A,white,man,,,,null,,,,
1879,"<img src=""portrait/WW1.jpg""style=""height:400px;""></img>",1,html-button-response,309,1367152,0.0-18.0-4.0,10204,List2A,white,man,,TRUE,1,,,,,
null,CORRECT,,html-keyboard-response,310,1368693,0.0-18.0-5.0-0.0,10204,List2A,white,man,,,,null,,,,
2160,"<img src=""portrait/WM1.jpg""style=""height:400px;""></img>",6,html-button-response,311,1370862,0.0-18.0-7.0,10204,List2A,white,man,,TRUE,6,,,,,
null,CORRECT,,html-keyboard-response,312,1372386,0.0-18.0-8.0-0.0,10204,List2A,white,man,,,,null,,,,
4689,"<img src=""portrait/BM1.jpg""style=""height:400px;""></img>",4,html-button-response,313,1377081,0.0-18.0-10.0,10204,List2A,white,man,,TRUE,4,,,,,
null,CORRECT,,html-keyboard-response,314,1378606,0.0-18.0-11.0-0.0,10204,List2A,white,man,,,,null,,,,
2079,"<img src=""portrait/BW2.jpg""style=""height:400px;""></img>",3,html-button-response,315,1380694,0.0-18.0-13.0,10204,List2A,white,man,,TRUE,2,,,,,
2249,"<img src=""portrait/BW2.jpg""style=""height:400px;""></img>",2,html-button-response,316,1383974,0.0-18.0-15.0-0.0,10204,List2A,white,man,,FALSE,2,,,,,
null,CORRECT,,html-keyboard-response,317,1385515,0.0-18.0-15.0-1.0-0.0,10204,List2A,white,man,,,,null,,,,
2374,"<img src=""portrait/BM2.jpg""style=""height:400px;""></img>",5,html-button-response,318,1387895,0.0-18.0-16.0,10204,List2A,white,man,,TRUE,5,,,,,
null,CORRECT,,html-keyboard-response,319,1389452,0.0-18.0-17.0-0.0,10204,List2A,white,man,,,,null,,,,
2730,"<img src=""portrait/BW1.jpg""style=""height:400px;""></img>",0,html-button-response,320,1392193,0.0-18.0-19.0,10204,List2A,white,man,,TRUE,0,,,,,
null,CORRECT,,html-keyboard-response,321,1393717,0.0-18.0-20.0-0.0,10204,List2A,white,man,,,,null,,,,
2374,"<img src=""portrait/WM2.jpg""style=""height:400px;""></img>",7,html-button-response,322,1396100,0.0-18.0-22.0,10204,List2A,white,man,,TRUE,7,,,,,
null,CORRECT,,html-keyboard-response,323,1397638,0.0-18.0-23.0-0.0,10204,List2A,white,man,,,,null,,,,
8968,<p>You got 7 out of 8 right first time. Press Continue.</p>,0,html-button-response,324,1406617,0.0-18.0-25.0,10204,List2A,white,man,,,,,,,,
17959,"As you did not score 100%, the memory game will repeat. Press Continue.",0,html-button-response,325,1425606,0.0-18.0-26.0-0.0,10204,List2A,white,man,,,,,,,,
4851,"<img src='img/portrait_matrix_list2.jpg' style='width:900px;height:500px;''></img><p>If you have memorised all the portraits and names and are ready to start, press Continue.</p><p><strong>Please note: Your memory of these faces will be tested 4 times during this experiment.</strong></p>",0,html-button-response,326,1431490,0.0-18.1-0.1,10204,List2A,white,man,,,,,,,,
2889,"<img src=""portrait/WW2.jpg""style=""height:400px;""></img>",3,html-button-response,327,1435410,0.0-18.1-1.1,10204,List2A,white,man,,TRUE,3,,,,,
null,CORRECT,,html-keyboard-response,328,1436937,0.0-18.1-2.1-0.1,10204,List2A,white,man,,,,null,,,,
2072,"<img src=""portrait/WW1.jpg""style=""height:400px;""></img>",1,html-button-response,329,1439096,0.0-18.1-4.1,10204,List2A,white,man,,TRUE,1,,,,,
null,CORRECT,,html-keyboard-response,330,1440637,0.0-18.1-5.1-0.1,10204,List2A,white,man,,,,null,,,,
3062,"<img src=""portrait/WM1.jpg""style=""height:400px;""></img>",6,html-button-response,331,1443705,0.0-18.1-7.1,10204,List2A,white,man,,TRUE,6,,,,,
null,CORRECT,,html-keyboard-response,332,1445247,0.0-18.1-8.1-0.1,10204,List2A,white,man,,,,null,,,,
3097,"<img src=""portrait/BM1.jpg""style=""height:400px;""></img>",4,html-button-response,333,1448354,0.0-18.1-10.1,10204,List2A,white,man,,TRUE,4,,,,,
null,CORRECT,,html-keyboard-response,334,1449879,0.0-18.1-11.1-0.1,10204,List2A,white,man,,,,null,,,,
2783,"<img src=""portrait/BW2.jpg""style=""height:400px;""></img>",2,html-button-response,335,1452670,0.0-18.1-13.1,10204,List2A,white,man,,TRUE,2,,,,,
null,CORRECT,,html-keyboard-response,336,1454212,0.0-18.1-14.1-0.1,10204,List2A,white,man,,,,null,,,,
2855,"<img src=""portrait/BM2.jpg""style=""height:400px;""></img>",5,html-button-response,337,1457076,0.0-18.1-16.1,10204,List2A,white,man,,TRUE,5,,,,,
null,CORRECT,,html-keyboard-response,338,1458632,0.0-18.1-17.1-0.1,10204,List2A,white,man,,,,null,,,,
2877,"<img src=""portrait/BW1.jpg""style=""height:400px;""></img>",0,html-button-response,339,1461517,0.0-18.1-19.1,10204,List2A,white,man,,TRUE,0,,,,,
null,CORRECT,,html-keyboard-response,340,1463028,0.0-18.1-20.1-0.1,10204,List2A,white,man,,,,null,,,,
2041,"<img src=""portrait/WM2.jpg""style=""height:400px;""></img>",7,html-button-response,341,1465075,0.0-18.1-22.1,10204,List2A,white,man,,TRUE,7,,,,,
null,CORRECT,,html-keyboard-response,342,1466605,0.0-18.1-23.1-0.1,10204,List2A,white,man,,,,null,,,,
1664,<p>You got 8 out of 8 right first time. Press Continue.</p>,0,html-button-response,343,1468281,0.0-18.1-25.1,10204,List2A,white,man,,,,,,,,
null,"<div style=""font-size:60px;"">+</div>",,html-keyboard-response,344,1469838,0.0-19.0-0.0,10204,List2A,white,man,,,,null,,,,
null,"<img src=""stim_listA/kiss6.gif""style=""height:400px;""></stim_listA>",,html-keyboard-response,345,1471868,0.0-19.0-1.0,10204,List2A,white,man,,,,null,,,,
null,are kissing each other,,html-keyboard-response,346,1473871,0.0-19.0-2.0,10204,List2A,white,man,,,,null,,,,
14633,,,survey-text,347,1488511,0.0-19.0-3.0,10204,List2A,white,man,,,,,"{""Q0"":""dave and mike are kissing each other""}","<img src=""stim_listA/kiss6.gif""style=""height:400px;""></stim_listA>",are kissing each other,
null,"<div style=""font-size:60px;"">+</div>",,html-keyboard-response,348,1489020,0.0-19.0-0.1,10204,List2A,white,man,,,,null,,,,
null,"<img src=""stim_listA/talk3.gif""style=""height:400px;""></stim_listA>",,html-keyboard-response,349,1491036,0.0-19.0-1.1,10204,List2A,white,man,,,,null,,,,
null,is talking to,,html-keyboard-response,350,1493038,0.0-19.0-2.1,10204,List2A,white,man,,,,null,,,,
6905,,,survey-text,351,1499949,0.0-19.0-3.1,10204,List2A,white,man,,,,,"{""Q0"":""kate is talking to fred""}","<img src=""stim_listA/talk3.gif""style=""height:400px;""></stim_listA>",is talking to,
null,"<div style=""font-size:60px;"">+</div>",,html-keyboard-response,352,1500460,0.0-19.0-0.2,10204,List2A,white,man,,,,null,,,,
null,"<img src=""stim_listA/argue8.gif""style=""height:400px;""></stim_listA>",,html-keyboard-response,353,1502490,0.0-19.0-1.2,10204,List2A,white,man,,,,null,,,,
null,are arguing with each other,,html-keyboard-response,354,1504466,0.0-19.0-2.2,10204,List2A,white,man,,,,null,,,,
10899,,,survey-text,355,1515372,0.0-19.0-3.2,10204,List2A,white,man,,,,,"{""Q0"":""kate and ruth are arguing with each other""}","<img src=""stim_listA/argue8.gif""style=""height:400px;""></stim_listA>",are arguing with each other,
null,"<div style=""font-size:60px;"">+</div>",,html-keyboard-response,356,1515904,0.0-19.0-0.3,10204,List2A,white,man,,,,null,,,,
null,"<img src=""stim_listA/flirt3.gif""style=""height:400px;""></stim_listA>",,html-keyboard-response,357,1517921,0.0-19.0-1.3,10204,List2A,white,man,,,,null,,,,
null,is flirting with,,html-keyboard-response,358,1519921,0.0-19.0-2.3,10204,List2A,white,man,,,,null,,,,
8138,,,survey-text,359,1528066,0.0-19.0-3.3,10204,List2A,white,man,,,,,"{""Q0"":""kate is flirting with fred""}","<img src=""stim_listA/flirt3.gif""style=""height:400px;""></stim_listA>",is flirting with,
null,"<div style=""font-size:60px;"">+</div>",,html-keyboard-response,360,1528593,0.0-19.0-0.4,10204,List2A,white,man,,,,null,,,,
null,"<img src=""stim_listA/marry5.gif""style=""height:400px;""></stim_listA>",,html-keyboard-response,361,1530609,0.0-19.0-1.4,10204,List2A,white,man,,,,null,,,,
null,is marrying,,html-keyboard-response,362,1532598,0.0-19.0-2.4,10204,List2A,white,man,,,,null,,,,
8540,,,survey-text,363,1541147,0.0-19.0-3.4,10204,List2A,white,man,,,,,"{""Q0"":""fred is marrying dave""}","<img src=""stim_listA/marry5.gif""style=""height:400px;""></stim_listA>",is marrying,
null,"<div style=""font-size:60px;"">+</div>",,html-keyboard-response,364,1541673,0.0-19.0-0.5,10204,List2A,white,man,,,,null,,,,
null,"<img src=""stim_listA/argue5.gif""style=""height:400px;""></stim_listA>",,html-keyboard-response,365,1543704,0.0-19.0-1.5,10204,List2A,white,man,,,,null,,,,
null,is arguing with,,html-keyboard-response,366,1545689,0.0-19.0-2.5,10204,List2A,white,man,,,,null,,,,
7150,,,survey-text,367,1552846,0.0-19.0-3.5,10204,List2A,white,man,,,,,"{""Q0"":""fred is arguing with dave""}","<img src=""stim_listA/argue5.gif""style=""height:400px;""></stim_listA>",is arguing with,
null,"<div style=""font-size:60px;"">+</div>",,html-keyboard-response,368,1553357,0.0-19.0-0.6,10204,List2A,white,man,,,,null,,,,
null,"<img src=""stim_listA/flirt1.gif""style=""height:400px;""></stim_listA>",,html-keyboard-response,369,1555372,0.0-19.0-1.6,10204,List2A,white,man,,,,null,,,,
null,is flirting with,,html-keyboard-response,370,1557387,0.0-19.0-2.6,10204,List2A,white,man,,,,null,,,,
8568,,,survey-text,371,1565962,0.0-19.0-3.6,10204,List2A,white,man,,,,,"{""Q0"":""luke is flirting with jane""}","<img src=""stim_listA/flirt1.gif""style=""height:400px;""></stim_listA>",is flirting with,
null,"<div style=""font-size:60px;"">+</div>",,html-keyboard-response,372,1566472,0.0-19.0-0.7,10204,List2A,white,man,,,,null,,,,
null,"<img src=""stim_listA/flirt4.gif""style=""height:400px;""></stim_listA>",,html-keyboard-response,373,1568504,0.0-19.0-1.7,10204,List2A,white,man,,,,null,,,,
null,are flirting with each other,,html-keyboard-response,374,1570503,0.0-19.0-2.7,10204,List2A,white,man,,,,null,,,,
13794,,,survey-text,375,1584303,0.0-19.0-3.7,10204,List2A,white,man,,,,,"{""Q0"":""mike and beth are flirting with each other""}","<img src=""stim_listA/flirt4.gif""style=""height:400px;""></stim_listA>",are flirting with each other,
null,"<div style=""font-size:60px;"">+</div>",,html-keyboard-response,376,1584820,0.0-19.0-0.8,10204,List2A,white,man,,,,null,,,,
null,"<img src=""stim_listA/dance6.gif""style=""height:400px;""></stim_listA>",,html-keyboard-response,377,1586829,0.0-19.0-1.8,10204,List2A,white,man,,,,null,,,,
null,are dancing with each other,,html-keyboard-response,378,1588828,0.0-19.0-2.8,10204,List2A,white,man,,,,null,,,,
11389,,,survey-text,379,1600224,0.0-19.0-3.8,10204,List2A,white,man,,,,,"{""Q0"":""fred and dave are dancing with each other""}","<img src=""stim_listA/dance6.gif""style=""height:400px;""></stim_listA>",are dancing with each other,
null,"<div style=""font-size:60px;"">+</div>",,html-keyboard-response,380,1600735,0.0-19.0-0.9,10204,List2A,white,man,,,,null,,,,
null,"<img src=""stim_listA/shout7.gif""style=""height:400px;""></stim_listA>",,html-keyboard-response,381,1602750,0.0-19.0-1.9,10204,List2A,white,man,,,,null,,,,
null,is shouting at,,html-keyboard-response,382,1604751,0.0-19.0-2.9,10204,List2A,white,man,,,,null,,,,
9445,,,survey-text,383,1614203,0.0-19.0-3.9,10204,List2A,white,man,,,,,"{""Q0"":""ruth is shouting at beth""}","<img src=""stim_listA/shout7.gif""style=""height:400px;""></stim_listA>",is shouting at,
null,"<div style=""font-size:60px;"">+</div>",,html-keyboard-response,384,1614714,0.0-19.0-0.10,10204,List2A,white,man,,,,null,,,,
null,"<img src=""stim_listA/kiss5.gif""style=""height:400px;""></stim_listA>",,html-keyboard-response,385,1616737,0.0-19.0-1.10,10204,List2A,white,man,,,,null,,,,
null,is kissing,,html-keyboard-response,386,1618727,0.0-19.0-2.10,10204,List2A,white,man,,,,null,,,,
9030,,,survey-text,387,1627766,0.0-19.0-3.10,10204,List2A,white,man,,,,,"{""Q0"":""fred is kissing luke""}","<img src=""stim_listA/kiss5.gif""style=""height:400px;""></stim_listA>",is kissing,
null,"<div style=""font-size:60px;"">+</div>",,html-keyboard-response,388,1628275,0.0-19.0-0.11,10204,List2A,white,man,,,,null,,,,
null,"<img src=""stim_listA/argue3.gif""style=""height:400px;""></stim_listA>",,html-keyboard-response,389,1630291,0.0-19.0-1.11,10204,List2A,white,man,,,,null,,,,
null,is arguing with,,html-keyboard-response,390,1632290,0.0-19.0-2.11,10204,List2A,white,man,,,,null,,,,
8240,,,survey-text,391,1640536,0.0-19.0-3.11,10204,List2A,white,man,,,,,"{""Q0"":""beth is arguing with mike""}","<img src=""stim_listA/argue3.gif""style=""height:400px;""></stim_listA>",is arguing with,
null,"<div style=""font-size:60px;"">+</div>",,html-keyboard-response,392,1641061,0.0-19.0-0.12,10204,List2A,white,man,,,,null,,,,
null,"<img src=""stim_listA/flirt6.gif""style=""height:400px;""></stim_listA>",,html-keyboard-response,393,1643092,0.0-19.0-1.12,10204,List2A,white,man,,,,null,,,,
null,are flirting with each other,,html-keyboard-response,394,1645068,0.0-19.0-2.12,10204,List2A,white,man,,,,null,,,,
9998,,,survey-text,395,1655074,0.0-19.0-3.12,10204,List2A,white,man,,,,,"{""Q0"":""fred and dave are flirting with each other""}","<img src=""stim_listA/flirt6.gif""style=""height:400px;""></stim_listA>",are flirting with each other,
null,"<div style=""font-size:60px;"">+</div>",,html-keyboard-response,396,1655598,0.0-19.0-0.13,10204,List2A,white,man,,,,null,,,,
null,"<img src=""stim_listA/marry8.gif""style=""height:400px;""></stim_listA>",,html-keyboard-response,397,1657614,0.0-19.0-1.13,10204,List2A,white,man,,,,null,,,,
null,are marrying each other,,html-keyboard-response,398,1659628,0.0-19.0-2.13,10204,List2A,white,man,,,,null,,,,
12939,,,survey-text,399,1672575,0.0-19.0-3.13,10204,List2A,white,man,,,,,"{""Q0"":""ruth and kate are marrying each other""}","<img src=""stim_listA/marry8.gif""style=""height:400px;""></stim_listA>",are marrying each other,
null,"<div style=""font-size:60px;"">+</div>",,html-keyboard-response,400,1673102,0.0-19.0-0.14,10204,List2A,white,man,,,,null,,,,
null,"<img src=""stim_listA/fight1.gif""style=""height:400px;""></stim_listA>",,html-keyboard-response,401,1675117,0.0-19.0-1.14,10204,List2A,white,man,,,,null,,,,
null,is fighting,,html-keyboard-response,402,1677116,0.0-19.0-2.14,10204,List2A,white,man,,,,null,,,,
6353,,,survey-text,403,1683476,0.0-19.0-3.14,10204,List2A,white,man,,,,,"{""Q0"":""dave is flighting jane""}","<img src=""stim_listA/fight1.gif""style=""height:400px;""></stim_listA>",is fighting,
null,"<div style=""font-size:60px;"">+</div>",,html-keyboard-response,404,1683992,0.0-19.0-0.15,10204,List2A,white,man,,,,null,,,,
null,"<img src=""stim_listA/dance2.gif""style=""height:400px;""></stim_listA>",,html-keyboard-response,405,1686016,0.0-19.0-1.15,10204,List2A,white,man,,,,null,,,,
null,are dancing with each other,,html-keyboard-response,406,1688003,0.0-19.0-2.15,10204,List2A,white,man,,,,null,,,,
11786,,,survey-text,407,1699797,0.0-19.0-3.15,10204,List2A,white,man,,,,,"{""Q0"":""dave and ruth are dancing with each other""}","<img src=""stim_listA/dance2.gif""style=""height:400px;""></stim_listA>",are dancing with each other,
null,"<div style=""font-size:60px;"">+</div>",,html-keyboard-response,408,1700307,0.0-19.0-0.16,10204,List2A,white,man,,,,null,,,,
null,"<img src=""stim_listA/touch2.gif""style=""height:400px;""></stim_listA>",,html-keyboard-response,409,1702338,0.0-19.0-1.16,10204,List2A,white,man,,,,null,,,,
null,are touching each other,,html-keyboard-response,410,1704312,0.0-19.0-2.16,10204,List2A,white,man,,,,null,,,,
11861,,,survey-text,411,1716179,0.0-19.0-3.16,10204,List2A,white,man,,,,,"{""Q0"":""luke and ruth are touching each other""}","<img src=""stim_listA/touch2.gif""style=""height:400px;""></stim_listA>",are touching each other,
null,"<div style=""font-size:60px;"">+</div>",,html-keyboard-response,412,1716700,0.0-19.0-0.17,10204,List2A,white,man,,,,null,,,,
null,"<img src=""stim_listA/fight7.gif""style=""height:400px;""></stim_listA>",,html-keyboard-response,413,1718718,0.0-19.0-1.17,10204,List2A,white,man,,,,null,,,,
null,is fighting,,html-keyboard-response,414,1720722,0.0-19.0-2.17,10204,List2A,white,man,,,,null,,,,
6886,,,survey-text,415,1727616,0.0-19.0-3.17,10204,List2A,white,man,,,,,"{""Q0"":""jane is fighting kate""}","<img src=""stim_listA/fight7.gif""style=""height:400px;""></stim_listA>",is fighting,
null,"<div style=""font-size:60px;"">+</div>",,html-keyboard-response,416,1728142,0.0-19.0-0.18,10204,List2A,white,man,,,,null,,,,
null,"<img src=""stim_listA/argue1.gif""style=""height:400px;""></stim_listA>",,html-keyboard-response,417,1730172,0.0-19.0-1.18,10204,List2A,white,man,,,,null,,,,
null,is arguing with,,html-keyboard-response,418,1732153,0.0-19.0-2.18,10204,List2A,white,man,,,,null,,,,
8281,,,survey-text,419,1740443,0.0-19.0-3.18,10204,List2A,white,man,,,,,"{""Q0"":""ruth is arguing with dave""}","<img src=""stim_listA/argue1.gif""style=""height:400px;""></stim_listA>",is arguing with,
null,"<div style=""font-size:60px;"">+</div>",,html-keyboard-response,420,1740953,0.0-19.0-0.19,10204,List2A,white,man,,,,null,,,,
null,"<img src=""stim_listA/touch3.gif""style=""height:400px;""></stim_listA>",,html-keyboard-response,421,1742985,0.0-19.0-1.19,10204,List2A,white,man,,,,null,,,,
null,is touching,,html-keyboard-response,422,1744960,0.0-19.0-2.19,10204,List2A,white,man,,,,null,,,,
6625,,,survey-text,423,1751594,0.0-19.0-3.19,10204,List2A,white,man,,,,,"{""Q0"":""mike is touching kate""}","<img src=""stim_listA/touch3.gif""style=""height:400px;""></stim_listA>",is touching,
3303,<p>Thank you for completing that task.</p><p>The final part of this session is a short questionnaire.</p><p>Press Continue.</p>,0,html-button-response,424,1754904,0.0-20.0,10204,List2A,white,man,,,,,,,,
28692,,,survey-text,425,1784614,0.0-21.0,10204,List2A,white,man,,,,,"{""Q0"":""40"",""Q1"":""english"",""Q2"":""english"",""Q3"":""england uk"",""Q4"":""white british"",""Q5"":""male""}",,,demographics
9770,,,survey-likert,426,1794396,0.0-22.0,10204,List2A,white,man,,,,,"{""Q0"":4}",,,likert_ESS
7344,,,survey-likert,427,1801750,0.0-23.0,10204,List2A,white,man,,,,,"{""Q0"":4}",,,likert_NSSAL_Q1
4191,,,survey-likert,428,1805952,0.0-24.0,10204,List2A,white,man,,,,,"{""Q0"":4}",,,likert_NSSAL_Q2
6800,,,survey-likert,429,1812761,0.0-25.0,10204,List2A,white,man,,,,,"{""Q0"":4}",,,likert_CGRS_Q1
3715,,,survey-likert,430,1816484,0.0-26.0,10204,List2A,white,man,,,,,"{""Q0"":4}",,,likert_CGRS_Q2
3738,,,survey-likert,431,1820227,0.0-27.0,10204,List2A,white,man,,,,,"{""Q0"":4}",,,likert_CGRS_Q3
26597,,,survey-text,432,1846835,0.0-28.0,10204,List2A,white,man,,,,,"{""Q0"":""ccc""}",,,worker_id
27900,,,external-html,433,1874892,0.0-29.0,10204,List2A,white,man,debrief.html,,,,,,,
