rt,stimulus,button_pressed,trial_type,trial_index,time_elapsed,internal_node_id,subject,list,ppt_race,ppt_gender,url,first_guess,correct,key_press,responses,image_type,phrase_type,test_part
1540,Welcome to the experiment. Press Continue to begin.,0,html-button-response,0,1549,0.0-0.0,10267,List1A,white,woman,,,,,,,,
55105,,,external-html,1,57727,0.0-1.0,10267,List1A,white,woman,consent.html,,,,,,,
8002,"<p>On the next page, you will see portraits of 8 people and their names.</p><p>Your first task is to take a few minutes to memorise the names of these people.</p><p>You will have to recall their names during the rest of the experiment, so it is</p><p>essential that you try to memorise these people and their names as best as you can.</p><br><p><strong>You will then be tested on your memory of these names and portraits.</strong></p><br><p>The experiment will start after you have completed this memory test.</p><br><p>Ready?</p>",0,html-button-response,2,65731,0.0-2.0,10267,List1A,white,woman,,,,,,,,
32752,"<img src='img/portrait_matrix_list1.jpg' style='width:900px;height:500px;''></img><p>If you have memorised all the portraits and names and are ready to start, press Continue.</p><p><strong>Please note: Your memory of these faces will be tested 4 times during this experiment.</strong></p>",0,html-button-response,3,99487,0.0-3.0-0.0,10267,List1A,white,woman,,,,,,,,
4501,"<img src=""portrait/BM2.jpg""style=""height:400px;""></img>",5,html-button-response,4,104991,0.0-3.0-1.0,10267,List1A,white,woman,,TRUE,5,,,,,
null,CORRECT,,html-keyboard-response,5,106495,0.0-3.0-2.0-0.0,10267,List1A,white,woman,,,,null,,,,
8466,"<img src=""portrait/WW1.jpg""style=""height:400px;""></img>",0,html-button-response,6,114968,0.0-3.0-4.0,10267,List1A,white,woman,,TRUE,1,,,,,
4216,"<img src=""portrait/WW1.jpg""style=""height:400px;""></img>",1,html-button-response,7,120187,0.0-3.0-6.0-0.0,10267,List1A,white,woman,,FALSE,1,,,,,
null,CORRECT,,html-keyboard-response,8,121692,0.0-3.0-6.0-1.0-0.0,10267,List1A,white,woman,,,,null,,,,
7461,"<img src=""portrait/BW2.jpg""style=""height:400px;""></img>",2,html-button-response,9,129154,0.0-3.0-7.0,10267,List1A,white,woman,,TRUE,2,,,,,
null,CORRECT,,html-keyboard-response,10,130663,0.0-3.0-8.0-0.0,10267,List1A,white,woman,,,,null,,,,
3847,"<img src=""portrait/WM2.jpg""style=""height:400px;""></img>",7,html-button-response,11,134512,0.0-3.0-10.0,10267,List1A,white,woman,,TRUE,7,,,,,
null,CORRECT,,html-keyboard-response,12,136017,0.0-3.0-11.0-0.0,10267,List1A,white,woman,,,,null,,,,
3133,"<img src=""portrait/BW1.jpg""style=""height:400px;""></img>",0,html-button-response,13,139152,0.0-3.0-13.0,10267,List1A,white,woman,,TRUE,0,,,,,
null,CORRECT,,html-keyboard-response,14,140653,0.0-3.0-14.0-0.0,10267,List1A,white,woman,,,,null,,,,
4491,"<img src=""portrait/BM1.jpg""style=""height:400px;""></img>",4,html-button-response,15,145146,0.0-3.0-16.0,10267,List1A,white,woman,,TRUE,4,,,,,
null,CORRECT,,html-keyboard-response,16,146652,0.0-3.0-17.0-0.0,10267,List1A,white,woman,,,,null,,,,
2855,"<img src=""portrait/WW2.jpg""style=""height:400px;""></img>",3,html-button-response,17,149508,0.0-3.0-19.0,10267,List1A,white,woman,,TRUE,3,,,,,
null,CORRECT,,html-keyboard-response,18,151014,0.0-3.0-20.0-0.0,10267,List1A,white,woman,,,,null,,,,
5736,"<img src=""portrait/WM1.jpg""style=""height:400px;""></img>",6,html-button-response,19,156752,0.0-3.0-22.0,10267,List1A,white,woman,,TRUE,6,,,,,
null,CORRECT,,html-keyboard-response,20,158254,0.0-3.0-23.0-0.0,10267,List1A,white,woman,,,,null,,,,
1982,<p>You got 7 out of 8 right first time. Press Continue.</p>,0,html-button-response,21,160238,0.0-3.0-25.0,10267,List1A,white,woman,,,,,,,,
2460,"As you did not score 100%, the memory game will repeat. Press Continue.",0,html-button-response,22,163703,0.0-3.0-26.0-0.0,10267,List1A,white,woman,,,,,,,,
8881,"<img src='img/portrait_matrix_list1.jpg' style='width:900px;height:500px;''></img><p>If you have memorised all the portraits and names and are ready to start, press Continue.</p><p><strong>Please note: Your memory of these faces will be tested 4 times during this experiment.</strong></p>",0,html-button-response,23,173592,0.0-3.1-0.1,10267,List1A,white,woman,,,,,,,,
4009,"<img src=""portrait/BM2.jpg""style=""height:400px;""></img>",5,html-button-response,24,178603,0.0-3.1-1.1,10267,List1A,white,woman,,TRUE,5,,,,,
null,CORRECT,,html-keyboard-response,25,180104,0.0-3.1-2.1-0.1,10267,List1A,white,woman,,,,null,,,,
4405,"<img src=""portrait/WW1.jpg""style=""height:400px;""></img>",1,html-button-response,26,184511,0.0-3.1-4.1,10267,List1A,white,woman,,TRUE,1,,,,,
null,CORRECT,,html-keyboard-response,27,186015,0.0-3.1-5.1-0.1,10267,List1A,white,woman,,,,null,,,,
3269,"<img src=""portrait/BW2.jpg""style=""height:400px;""></img>",2,html-button-response,28,189286,0.0-3.1-7.1,10267,List1A,white,woman,,TRUE,2,,,,,
null,CORRECT,,html-keyboard-response,29,190788,0.0-3.1-8.1-0.1,10267,List1A,white,woman,,,,null,,,,
5218,"<img src=""portrait/WM2.jpg""style=""height:400px;""></img>",7,html-button-response,30,196008,0.0-3.1-10.1,10267,List1A,white,woman,,TRUE,7,,,,,
null,CORRECT,,html-keyboard-response,31,197510,0.0-3.1-11.1-0.1,10267,List1A,white,woman,,,,null,,,,
3133,"<img src=""portrait/BW1.jpg""style=""height:400px;""></img>",0,html-button-response,32,200645,0.0-3.1-13.1,10267,List1A,white,woman,,TRUE,0,,,,,
null,CORRECT,,html-keyboard-response,33,202150,0.0-3.1-14.1-0.1,10267,List1A,white,woman,,,,null,,,,
5654,"<img src=""portrait/BM1.jpg""style=""height:400px;""></img>",4,html-button-response,34,207805,0.0-3.1-16.1,10267,List1A,white,woman,,TRUE,4,,,,,
null,CORRECT,,html-keyboard-response,35,209313,0.0-3.1-17.1-0.1,10267,List1A,white,woman,,,,null,,,,
2848,"<img src=""portrait/WW2.jpg""style=""height:400px;""></img>",3,html-button-response,36,212161,0.0-3.1-19.1,10267,List1A,white,woman,,TRUE,3,,,,,
null,CORRECT,,html-keyboard-response,37,213664,0.0-3.1-20.1-0.1,10267,List1A,white,woman,,,,null,,,,
1961,"<img src=""portrait/WM1.jpg""style=""height:400px;""></img>",6,html-button-response,38,215625,0.0-3.1-22.1,10267,List1A,white,woman,,TRUE,6,,,,,
null,CORRECT,,html-keyboard-response,39,217132,0.0-3.1-23.1-0.1,10267,List1A,white,woman,,,,null,,,,
1739,<p>You got 8 out of 8 right first time. Press Continue.</p>,0,html-button-response,40,218872,0.0-3.1-25.1,10267,List1A,white,woman,,,,,,,,
21825,"<p>In this experiment, you will view photographs of the people from the memory game interacting.</p><p>By using the <strong>exact</strong> phrase given <i>after</i> the photograph appears and recalling the correct names of the people in the photographs, form a sentence describing the interaction. You do not need to capitalise names.</p><p>Type your answer in the space provided. Please complete every sentence before moving onto the next trial.</p><p>You will only have a few seconds to memorise each given photograph and phrase before you can respond, so try your best to focus.</p><p>An example is given below. Press 'Continue' when you are ready.</p><img src='img/speaking_example.jpg' style='width:800px;height:460px;''></img>",0,html-button-response,41,241700,0.0-4.0,10267,List1A,white,woman,,,,,,,,
2286,"<p>Before the experiment starts, you will watch two example trials. Press 'Continue'.</p>",0,html-button-response,42,244989,0.0-5.0,10267,List1A,white,woman,,,,,,,,
null,<img src='img/meet_eg.gif' style='height:400px;''></img>,,html-keyboard-response,43,247996,0.0-6.0,10267,List1A,white,woman,,,,null,,,,
null,<p>is meeting</p>,,html-keyboard-response,44,249997,0.0-7.0,10267,List1A,white,woman,,,,null,,,,
2273,<p><b>Answer:</b> kate is meeting beth</p>,0,html-button-response,45,252274,0.0-8.0,10267,List1A,white,woman,,,,,,,,
null,<img src='img/look_eg.gif' style='height:400px;''></img>,,html-keyboard-response,46,255276,0.0-9.0,10267,List1A,white,woman,,,,null,,,,
null,<p>are looking at each other</p>,,html-keyboard-response,47,257282,0.0-10.0,10267,List1A,white,woman,,,,null,,,,
2392,<p><b>Answer:</b> luke and dave are looking at each other</p>,0,html-button-response,48,259675,0.0-11.0,10267,List1A,white,woman,,,,,,,,
17990,"<p>Ready to start the experiment?</p><br><p><strong>Remember to describe the picture using a full sentence,</strong></p><p><strong>that combines the names of the people with the <i>exact</i> phrase given.</strong></p><p><strong>To receive full payment you must do this correctly.</strong></p><p><strong> You do not need to capitalise names or use punctuation.</strong></p><br><p>Press 'Continue' to begin.</p>",0,html-button-response,49,278668,0.0-12.0,10267,List1A,white,woman,,,,,,,,
null,"<div style=""font-size:60px;"">+</div>",,html-keyboard-response,50,280170,0.0-13.0-0.0,10267,List1A,white,woman,,,,null,,,,
null,"<img src=""stim_listA/shout2.gif""style=""height:400px;""></stim_listA>",,html-keyboard-response,51,282173,0.0-13.0-1.0,10267,List1A,white,woman,,,,null,,,,
null,are shouting at each other,,html-keyboard-response,52,284174,0.0-13.0-2.0,10267,List1A,white,woman,,,,null,,,,
12663,,,survey-text,53,296840,0.0-13.0-3.0,10267,List1A,white,woman,,,,,"{""Q0"":""kate and mike are shouting at each other""}","<img src=""stim_listA/shout2.gif""style=""height:400px;""></stim_listA>",are shouting at each other,
null,"<div style=""font-size:60px;"">+</div>",,html-keyboard-response,54,297344,0.0-13.0-0.1,10267,List1A,white,woman,,,,null,,,,
null,"<img src=""stim_listA/touch6.gif""style=""height:400px;""></stim_listA>",,html-keyboard-response,55,299346,0.0-13.0-1.1,10267,List1A,white,woman,,,,null,,,,
null,are touching each other,,html-keyboard-response,56,301348,0.0-13.0-2.1,10267,List1A,white,woman,,,,null,,,,
9333,,,survey-text,57,310682,0.0-13.0-3.1,10267,List1A,white,woman,,,,,"{""Q0"":""luke and fred are touching each other""}","<img src=""stim_listA/touch6.gif""style=""height:400px;""></stim_listA>",are touching each other,
null,"<div style=""font-size:60px;"">+</div>",,html-keyboard-response,58,311183,0.0-13.0-0.2,10267,List1A,white,woman,,,,null,,,,
null,"<img src=""stim_listA/flirt2.gif""style=""height:400px;""></stim_listA>",,html-keyboard-response,59,313187,0.0-13.0-1.2,10267,List1A,white,woman,,,,null,,,,
null,are flirting with each other,,html-keyboard-response,60,315188,0.0-13.0-2.2,10267,List1A,white,woman,,,,null,,,,
9688,,,survey-text,61,324878,0.0-13.0-3.2,10267,List1A,white,woman,,,,,"{""Q0"":""beth and mike are flirting with each other""}","<img src=""stim_listA/flirt2.gif""style=""height:400px;""></stim_listA>",are flirting with each other,
null,"<div style=""font-size:60px;"">+</div>",,html-keyboard-response,62,325379,0.0-13.0-0.3,10267,List1A,white,woman,,,,null,,,,
null,"<img src=""stim_listA/kiss3.gif""style=""height:400px;""></stim_listA>",,html-keyboard-response,63,327380,0.0-13.0-1.3,10267,List1A,white,woman,,,,null,,,,
null,is kissing,,html-keyboard-response,64,329382,0.0-13.0-2.3,10267,List1A,white,woman,,,,null,,,,
11354,,,survey-text,65,340737,0.0-13.0-3.3,10267,List1A,white,woman,,,,,"{""Q0"":""ruth is kissing luke""}","<img src=""stim_listA/kiss3.gif""style=""height:400px;""></stim_listA>",is kissing,
null,"<div style=""font-size:60px;"">+</div>",,html-keyboard-response,66,341239,0.0-13.0-0.4,10267,List1A,white,woman,,,,null,,,,
null,"<img src=""stim_listA/play3.gif""style=""height:400px;""></stim_listA>",,html-keyboard-response,67,343241,0.0-13.0-1.4,10267,List1A,white,woman,,,,null,,,,
null,is playing with,,html-keyboard-response,68,345241,0.0-13.0-2.4,10267,List1A,white,woman,,,,null,,,,
11865,,,survey-text,69,357108,0.0-13.0-3.4,10267,List1A,white,woman,,,,,"{""Q0"":""jane is playing with luke""}","<img src=""stim_listA/play3.gif""style=""height:400px;""></stim_listA>",is playing with,
null,"<div style=""font-size:60px;"">+</div>",,html-keyboard-response,70,357610,0.0-13.0-0.5,10267,List1A,white,woman,,,,null,,,,
null,"<img src=""stim_listA/dance2.gif""style=""height:400px;""></stim_listA>",,html-keyboard-response,71,359612,0.0-13.0-1.5,10267,List1A,white,woman,,,,null,,,,
null,are dancing with each other,,html-keyboard-response,72,361613,0.0-13.0-2.5,10267,List1A,white,woman,,,,null,,,,
11704,,,survey-text,73,373318,0.0-13.0-3.5,10267,List1A,white,woman,,,,,"{""Q0"":""beth and mike are dancing with each other""}","<img src=""stim_listA/dance2.gif""style=""height:400px;""></stim_listA>",are dancing with each other,
null,"<div style=""font-size:60px;"">+</div>",,html-keyboard-response,74,373820,0.0-13.0-0.6,10267,List1A,white,woman,,,,null,,,,
null,"<img src=""stim_listA/fight4.gif""style=""height:400px;""></stim_listA>",,html-keyboard-response,75,375823,0.0-13.0-1.6,10267,List1A,white,woman,,,,null,,,,
null,are fighting each other,,html-keyboard-response,76,377824,0.0-13.0-2.6,10267,List1A,white,woman,,,,null,,,,
9871,,,survey-text,77,387696,0.0-13.0-3.6,10267,List1A,white,woman,,,,,"{""Q0"":""luke and ruth are fighting each other""}","<img src=""stim_listA/fight4.gif""style=""height:400px;""></stim_listA>",are fighting each other,
null,"<div style=""font-size:60px;"">+</div>",,html-keyboard-response,78,388198,0.0-13.0-0.7,10267,List1A,white,woman,,,,null,,,,
null,"<img src=""stim_listA/talk8.gif""style=""height:400px;""></stim_listA>",,html-keyboard-response,79,390200,0.0-13.0-1.7,10267,List1A,white,woman,,,,null,,,,
null,are talking to each other,,html-keyboard-response,80,392201,0.0-13.0-2.7,10267,List1A,white,woman,,,,null,,,,
10724,,,survey-text,81,402926,0.0-13.0-3.7,10267,List1A,white,woman,,,,,"{""Q0"":""kate and ruth are talking to each other""}","<img src=""stim_listA/talk8.gif""style=""height:400px;""></stim_listA>",are talking to each other,
null,"<div style=""font-size:60px;"">+</div>",,html-keyboard-response,82,403427,0.0-13.0-0.8,10267,List1A,white,woman,,,,null,,,,
null,"<img src=""stim_listA/flirt1.gif""style=""height:400px;""></stim_listA>",,html-keyboard-response,83,405428,0.0-13.0-1.8,10267,List1A,white,woman,,,,null,,,,
null,is flirting with,,html-keyboard-response,84,407429,0.0-13.0-2.8,10267,List1A,white,woman,,,,null,,,,
11223,,,survey-text,85,418654,0.0-13.0-3.8,10267,List1A,white,woman,,,,,"{""Q0"":""fred is flirting with kate""}","<img src=""stim_listA/flirt1.gif""style=""height:400px;""></stim_listA>",is flirting with,
null,"<div style=""font-size:60px;"">+</div>",,html-keyboard-response,86,419155,0.0-13.0-0.9,10267,List1A,white,woman,,,,null,,,,
null,"<img src=""stim_listA/talk3.gif""style=""height:400px;""></stim_listA>",,html-keyboard-response,87,421157,0.0-13.0-1.9,10267,List1A,white,woman,,,,null,,,,
null,is talking to,,html-keyboard-response,88,423158,0.0-13.0-2.9,10267,List1A,white,woman,,,,null,,,,
8769,,,survey-text,89,431927,0.0-13.0-3.9,10267,List1A,white,woman,,,,,"{""Q0"":""jane is talking to luke""}","<img src=""stim_listA/talk3.gif""style=""height:400px;""></stim_listA>",is talking to,
null,"<div style=""font-size:60px;"">+</div>",,html-keyboard-response,90,432430,0.0-13.0-0.10,10267,List1A,white,woman,,,,null,,,,
null,"<img src=""stim_listA/dance4.gif""style=""height:400px;""></stim_listA>",,html-keyboard-response,91,434432,0.0-13.0-1.10,10267,List1A,white,woman,,,,null,,,,
null,are dancing with each other,,html-keyboard-response,92,436436,0.0-13.0-2.10,10267,List1A,white,woman,,,,null,,,,
7975,,,survey-text,93,444411,0.0-13.0-3.10,10267,List1A,white,woman,,,,,"{""Q0"":""dave and ruth are dancing with each other""}","<img src=""stim_listA/dance4.gif""style=""height:400px;""></stim_listA>",are dancing with each other,
null,"<div style=""font-size:60px;"">+</div>",,html-keyboard-response,94,444913,0.0-13.0-0.11,10267,List1A,white,woman,,,,null,,,,
null,"<img src=""stim_listA/argue8.gif""style=""height:400px;""></stim_listA>",,html-keyboard-response,95,446914,0.0-13.0-1.11,10267,List1A,white,woman,,,,null,,,,
null,are arguing with each other,,html-keyboard-response,96,448919,0.0-13.0-2.11,10267,List1A,white,woman,,,,null,,,,
9847,,,survey-text,97,458767,0.0-13.0-3.11,10267,List1A,white,woman,,,,,"{""Q0"":""beth and jane are arguing with each other""}","<img src=""stim_listA/argue8.gif""style=""height:400px;""></stim_listA>",are arguing with each other,
null,"<div style=""font-size:60px;"">+</div>",,html-keyboard-response,98,459268,0.0-13.0-0.12,10267,List1A,white,woman,,,,null,,,,
null,"<img src=""stim_listA/shout3.gif""style=""height:400px;""></stim_listA>",,html-keyboard-response,99,461271,0.0-13.0-1.12,10267,List1A,white,woman,,,,null,,,,
null,is shouting at,,html-keyboard-response,100,463272,0.0-13.0-2.12,10267,List1A,white,woman,,,,null,,,,
7155,,,survey-text,101,470427,0.0-13.0-3.12,10267,List1A,white,woman,,,,,"{""Q0"":""luke is shouting at beth""}","<img src=""stim_listA/shout3.gif""style=""height:400px;""></stim_listA>",is shouting at,
null,"<div style=""font-size:60px;"">+</div>",,html-keyboard-response,102,470929,0.0-13.0-0.13,10267,List1A,white,woman,,,,null,,,,
null,"<img src=""stim_listA/flirt5.gif""style=""height:400px;""></stim_listA>",,html-keyboard-response,103,472930,0.0-13.0-1.13,10267,List1A,white,woman,,,,null,,,,
null,is flirting with,,html-keyboard-response,104,474931,0.0-13.0-2.13,10267,List1A,white,woman,,,,null,,,,
7949,,,survey-text,105,482881,0.0-13.0-3.13,10267,List1A,white,woman,,,,,"{""Q0"":""dave is flirting with fred""}","<img src=""stim_listA/flirt5.gif""style=""height:400px;""></stim_listA>",is flirting with,
null,"<div style=""font-size:60px;"">+</div>",,html-keyboard-response,106,483383,0.0-13.0-0.14,10267,List1A,white,woman,,,,null,,,,
null,"<img src=""stim_listA/dance7.gif""style=""height:400px;""></stim_listA>",,html-keyboard-response,107,485384,0.0-13.0-1.14,10267,List1A,white,woman,,,,null,,,,
null,is dancing with,,html-keyboard-response,108,487385,0.0-13.0-2.14,10267,List1A,white,woman,,,,null,,,,
6365,,,survey-text,109,493750,0.0-13.0-3.14,10267,List1A,white,woman,,,,,"{""Q0"":""beth is dancing with jane""}","<img src=""stim_listA/dance7.gif""style=""height:400px;""></stim_listA>",is dancing with,
null,"<div style=""font-size:60px;"">+</div>",,html-keyboard-response,110,494252,0.0-13.0-0.15,10267,List1A,white,woman,,,,null,,,,
null,"<img src=""stim_listA/fight7.gif""style=""height:400px;""></stim_listA>",,html-keyboard-response,111,496256,0.0-13.0-1.15,10267,List1A,white,woman,,,,null,,,,
null,is fighting,,html-keyboard-response,112,498257,0.0-13.0-2.15,10267,List1A,white,woman,,,,null,,,,
9200,,,survey-text,113,507458,0.0-13.0-3.15,10267,List1A,white,woman,,,,,"{""Q0"":""kate is fighting jane""}","<img src=""stim_listA/fight7.gif""style=""height:400px;""></stim_listA>",is fighting,
null,"<div style=""font-size:60px;"">+</div>",,html-keyboard-response,114,507960,0.0-13.0-0.16,10267,List1A,white,woman,,,,null,,,,
null,"<img src=""stim_listA/argue1.gif""style=""height:400px;""></stim_listA>",,html-keyboard-response,115,509962,0.0-13.0-1.16,10267,List1A,white,woman,,,,null,,,,
null,is arguing with,,html-keyboard-response,116,511963,0.0-13.0-2.16,10267,List1A,white,woman,,,,null,,,,
6969,,,survey-text,117,518933,0.0-13.0-3.16,10267,List1A,white,woman,,,,,"{""Q0"":""mike is arguing with beth""}","<img src=""stim_listA/argue1.gif""style=""height:400px;""></stim_listA>",is arguing with,
null,"<div style=""font-size:60px;"">+</div>",,html-keyboard-response,118,519435,0.0-13.0-0.17,10267,List1A,white,woman,,,,null,,,,
null,"<img src=""stim_listA/talk1.gif""style=""height:400px;""></stim_listA>",,html-keyboard-response,119,521438,0.0-13.0-1.17,10267,List1A,white,woman,,,,null,,,,
null,is talking to,,html-keyboard-response,120,523439,0.0-13.0-2.17,10267,List1A,white,woman,,,,null,,,,
7314,,,survey-text,121,530755,0.0-13.0-3.17,10267,List1A,white,woman,,,,,"{""Q0"":""fred is talking to kate""}","<img src=""stim_listA/talk1.gif""style=""height:400px;""></stim_listA>",is talking to,
null,"<div style=""font-size:60px;"">+</div>",,html-keyboard-response,122,531256,0.0-13.0-0.18,10267,List1A,white,woman,,,,null,,,,
null,"<img src=""stim_listA/dance6.gif""style=""height:400px;""></stim_listA>",,html-keyboard-response,123,533259,0.0-13.0-1.18,10267,List1A,white,woman,,,,null,,,,
null,are dancing with each other,,html-keyboard-response,124,535260,0.0-13.0-2.18,10267,List1A,white,woman,,,,null,,,,
11160,,,survey-text,125,546421,0.0-13.0-3.18,10267,List1A,white,woman,,,,,"{""Q0"":""mike and luke are talking to each other""}","<img src=""stim_listA/dance6.gif""style=""height:400px;""></stim_listA>",are dancing with each other,
null,"<div style=""font-size:60px;"">+</div>",,html-keyboard-response,126,546924,0.0-13.0-0.19,10267,List1A,white,woman,,,,null,,,,
null,"<img src=""stim_listA/argue7.gif""style=""height:400px;""></stim_listA>",,html-keyboard-response,127,548926,0.0-13.0-1.19,10267,List1A,white,woman,,,,null,,,,
null,is arguing with,,html-keyboard-response,128,550927,0.0-13.0-2.19,10267,List1A,white,woman,,,,null,,,,
9259,,,survey-text,129,560188,0.0-13.0-3.19,10267,List1A,white,woman,,,,,"{""Q0"":""ruth is arguing with kate""}","<img src=""stim_listA/argue7.gif""style=""height:400px;""></stim_listA>",is arguing with,
6095,"<img src='img/portrait_matrix_list1.jpg' style='width:900px;height:500px;''></img><p>If you have memorised all the portraits and names and are ready to start, press Continue.</p><p><strong>Please note: Your memory of these faces will be tested 4 times during this experiment.</strong></p>",0,html-button-response,130,566284,0.0-14.0-0.0,10267,List1A,white,woman,,,,,,,,
3820,"<img src=""portrait/WW2.jpg""style=""height:400px;""></img>",3,html-button-response,131,571108,0.0-14.0-1.0,10267,List1A,white,woman,,TRUE,3,,,,,
null,CORRECT,,html-keyboard-response,132,572612,0.0-14.0-2.0-0.0,10267,List1A,white,woman,,,,null,,,,
3194,"<img src=""portrait/WW1.jpg""style=""height:400px;""></img>",1,html-button-response,133,575807,0.0-14.0-4.0,10267,List1A,white,woman,,TRUE,1,,,,,
null,CORRECT,,html-keyboard-response,134,577309,0.0-14.0-5.0-0.0,10267,List1A,white,woman,,,,null,,,,
2497,"<img src=""portrait/BM1.jpg""style=""height:400px;""></img>",4,html-button-response,135,579808,0.0-14.0-7.0,10267,List1A,white,woman,,TRUE,4,,,,,
null,CORRECT,,html-keyboard-response,136,581313,0.0-14.0-8.0-0.0,10267,List1A,white,woman,,,,null,,,,
3976,"<img src=""portrait/BW2.jpg""style=""height:400px;""></img>",2,html-button-response,137,585291,0.0-14.0-10.0,10267,List1A,white,woman,,TRUE,2,,,,,
null,CORRECT,,html-keyboard-response,138,586796,0.0-14.0-11.0-0.0,10267,List1A,white,woman,,,,null,,,,
2347,"<img src=""portrait/BM2.jpg""style=""height:400px;""></img>",5,html-button-response,139,589144,0.0-14.0-13.0,10267,List1A,white,woman,,TRUE,5,,,,,
null,CORRECT,,html-keyboard-response,140,590649,0.0-14.0-14.0-0.0,10267,List1A,white,woman,,,,null,,,,
1370,"<img src=""portrait/WM1.jpg""style=""height:400px;""></img>",6,html-button-response,141,592021,0.0-14.0-16.0,10267,List1A,white,woman,,TRUE,6,,,,,
null,CORRECT,,html-keyboard-response,142,593523,0.0-14.0-17.0-0.0,10267,List1A,white,woman,,,,null,,,,
1413,"<img src=""portrait/BW1.jpg""style=""height:400px;""></img>",0,html-button-response,143,594938,0.0-14.0-19.0,10267,List1A,white,woman,,TRUE,0,,,,,
null,CORRECT,,html-keyboard-response,144,596445,0.0-14.0-20.0-0.0,10267,List1A,white,woman,,,,null,,,,
1171,"<img src=""portrait/WM2.jpg""style=""height:400px;""></img>",7,html-button-response,145,597618,0.0-14.0-22.0,10267,List1A,white,woman,,TRUE,7,,,,,
null,CORRECT,,html-keyboard-response,146,599123,0.0-14.0-23.0-0.0,10267,List1A,white,woman,,,,null,,,,
1304,<p>You got 8 out of 8 right first time. Press Continue.</p>,0,html-button-response,147,600429,0.0-14.0-25.0,10267,List1A,white,woman,,,,,,,,
null,"<div style=""font-size:60px;"">+</div>",,html-keyboard-response,148,601931,0.0-15.0-0.0,10267,List1A,white,woman,,,,null,,,,
null,"<img src=""stim_listA/kiss1.gif""style=""height:400px;""></stim_listA>",,html-keyboard-response,149,603934,0.0-15.0-1.0,10267,List1A,white,woman,,,,null,,,,
null,is kissing,,html-keyboard-response,150,605935,0.0-15.0-2.0,10267,List1A,white,woman,,,,null,,,,
6048,,,survey-text,151,611984,0.0-15.0-3.0,10267,List1A,white,woman,,,,,"{""Q0"":""fred is kissing beth""}","<img src=""stim_listA/kiss1.gif""style=""height:400px;""></stim_listA>",is kissing,
null,"<div style=""font-size:60px;"">+</div>",,html-keyboard-response,152,612486,0.0-15.0-0.1,10267,List1A,white,woman,,,,null,,,,
null,"<img src=""stim_listA/touch4.gif""style=""height:400px;""></stim_listA>",,html-keyboard-response,153,614487,0.0-15.0-1.1,10267,List1A,white,woman,,,,null,,,,
null,are touching each other,,html-keyboard-response,154,616490,0.0-15.0-2.1,10267,List1A,white,woman,,,,null,,,,
9230,,,survey-text,155,625721,0.0-15.0-3.1,10267,List1A,white,woman,,,,,"{""Q0"":""ruth and luke are touching each other""}","<img src=""stim_listA/touch4.gif""style=""height:400px;""></stim_listA>",are touching each other,
null,"<div style=""font-size:60px;"">+</div>",,html-keyboard-response,156,626223,0.0-15.0-0.2,10267,List1A,white,woman,,,,null,,,,
null,"<img src=""stim_listA/shout5.gif""style=""height:400px;""></stim_listA>",,html-keyboard-response,157,628224,0.0-15.0-1.2,10267,List1A,white,woman,,,,null,,,,
null,is shouting at,,html-keyboard-response,158,630226,0.0-15.0-2.2,10267,List1A,white,woman,,,,null,,,,
5502,,,survey-text,159,635729,0.0-15.0-3.2,10267,List1A,white,woman,,,,,"{""Q0"":""fred is shouting at luke""}","<img src=""stim_listA/shout5.gif""style=""height:400px;""></stim_listA>",is shouting at,
null,"<div style=""font-size:60px;"">+</div>",,html-keyboard-response,160,636231,0.0-15.0-0.3,10267,List1A,white,woman,,,,null,,,,
null,"<img src=""stim_listA/flirt3.gif""style=""height:400px;""></stim_listA>",,html-keyboard-response,161,638232,0.0-15.0-1.3,10267,List1A,white,woman,,,,null,,,,
null,is flirting with,,html-keyboard-response,162,640233,0.0-15.0-2.3,10267,List1A,white,woman,,,,null,,,,
9892,,,survey-text,163,650126,0.0-15.0-3.3,10267,List1A,white,woman,,,,,"{""Q0"":""jane is flirting with luke""}","<img src=""stim_listA/flirt3.gif""style=""height:400px;""></stim_listA>",is flirting with,
null,"<div style=""font-size:60px;"">+</div>",,html-keyboard-response,164,650629,0.0-15.0-0.4,10267,List1A,white,woman,,,,null,,,,
null,"<img src=""stim_listA/touch7.gif""style=""height:400px;""></stim_listA>",,html-keyboard-response,165,652632,0.0-15.0-1.4,10267,List1A,white,woman,,,,null,,,,
null,is touching,,html-keyboard-response,166,654634,0.0-15.0-2.4,10267,List1A,white,woman,,,,null,,,,
8986,,,survey-text,167,663626,0.0-15.0-3.4,10267,List1A,white,woman,,,,,"{""Q0"":""jane is touching kate""}","<img src=""stim_listA/touch7.gif""style=""height:400px;""></stim_listA>",is touching,
null,"<div style=""font-size:60px;"">+</div>",,html-keyboard-response,168,664148,0.0-15.0-0.5,10267,List1A,white,woman,,,,null,,,,
null,"<img src=""stim_listA/play6.gif""style=""height:400px;""></stim_listA>",,html-keyboard-response,169,666241,0.0-15.0-1.5,10267,List1A,white,woman,,,,null,,,,
null,are playing with each other,,html-keyboard-response,170,668244,0.0-15.0-2.5,10267,List1A,white,woman,,,,null,,,,
7741,,,survey-text,171,676001,0.0-15.0-3.5,10267,List1A,white,woman,,,,,"{""Q0"":""luke and fred are playing with each other""}","<img src=""stim_listA/play6.gif""style=""height:400px;""></stim_listA>",are playing with each other,
null,"<div style=""font-size:60px;"">+</div>",,html-keyboard-response,172,676532,0.0-15.0-0.6,10267,List1A,white,woman,,,,null,,,,
null,"<img src=""stim_listA/shout8.gif""style=""height:400px;""></stim_listA>",,html-keyboard-response,173,678611,0.0-15.0-1.6,10267,List1A,white,woman,,,,null,,,,
null,are shouting at each other,,html-keyboard-response,174,680614,0.0-15.0-2.6,10267,List1A,white,woman,,,,null,,,,
7323,,,survey-text,175,687945,0.0-15.0-3.6,10267,List1A,white,woman,,,,,"{""Q0"":""jane and kate are shouting at each other""}","<img src=""stim_listA/shout8.gif""style=""height:400px;""></stim_listA>",are shouting at each other,
null,"<div style=""font-size:60px;"">+</div>",,html-keyboard-response,176,688449,0.0-15.0-0.7,10267,List1A,white,woman,,,,null,,,,
null,"<img src=""stim_listA/play1.gif""style=""height:400px;""></stim_listA>",,html-keyboard-response,177,690451,0.0-15.0-1.7,10267,List1A,white,woman,,,,null,,,,
null,is playing with,,html-keyboard-response,178,692452,0.0-15.0-2.7,10267,List1A,white,woman,,,,null,,,,
5610,,,survey-text,179,698064,0.0-15.0-3.7,10267,List1A,white,woman,,,,,"{""Q0"":""kate is playing with mike""}","<img src=""stim_listA/play1.gif""style=""height:400px;""></stim_listA>",is playing with,
null,"<div style=""font-size:60px;"">+</div>",,html-keyboard-response,180,698565,0.0-15.0-0.8,10267,List1A,white,woman,,,,null,,,,
null,"<img src=""stim_listA/touch3.gif""style=""height:400px;""></stim_listA>",,html-keyboard-response,181,700567,0.0-15.0-1.8,10267,List1A,white,woman,,,,null,,,,
null,is touching,,html-keyboard-response,182,702572,0.0-15.0-2.8,10267,List1A,white,woman,,,,null,,,,
5725,,,survey-text,183,708299,0.0-15.0-3.8,10267,List1A,white,woman,,,,,"{""Q0"":""jane is touching dave""}","<img src=""stim_listA/touch3.gif""style=""height:400px;""></stim_listA>",is touching,
null,"<div style=""font-size:60px;"">+</div>",,html-keyboard-response,184,708800,0.0-15.0-0.9,10267,List1A,white,woman,,,,null,,,,
null,"<img src=""stim_listA/marry4.gif""style=""height:400px;""></stim_listA>",,html-keyboard-response,185,710812,0.0-15.0-1.9,10267,List1A,white,woman,,,,null,,,,
null,are marrying each other,,html-keyboard-response,186,712815,0.0-15.0-2.9,10267,List1A,white,woman,,,,null,,,,
7387,,,survey-text,187,720204,0.0-15.0-3.9,10267,List1A,white,woman,,,,,"{""Q0"":""jane and luke are marrying each other""}","<img src=""stim_listA/marry4.gif""style=""height:400px;""></stim_listA>",are marrying each other,
null,"<div style=""font-size:60px;"">+</div>",,html-keyboard-response,188,720706,0.0-15.0-0.10,10267,List1A,white,woman,,,,null,,,,
null,"<img src=""stim_listA/kiss8.gif""style=""height:400px;""></stim_listA>",,html-keyboard-response,189,722709,0.0-15.0-1.10,10267,List1A,white,woman,,,,null,,,,
null,are kissing each other,,html-keyboard-response,190,724711,0.0-15.0-2.10,10267,List1A,white,woman,,,,null,,,,
7834,,,survey-text,191,732545,0.0-15.0-3.10,10267,List1A,white,woman,,,,,"{""Q0"":""jane and kate are kissing each other""}","<img src=""stim_listA/kiss8.gif""style=""height:400px;""></stim_listA>",are kissing each other,
null,"<div style=""font-size:60px;"">+</div>",,html-keyboard-response,192,733047,0.0-15.0-0.11,10267,List1A,white,woman,,,,null,,,,
null,"<img src=""stim_listA/fight3.gif""style=""height:400px;""></stim_listA>",,html-keyboard-response,193,735049,0.0-15.0-1.11,10267,List1A,white,woman,,,,null,,,,
null,is fighting,,html-keyboard-response,194,737050,0.0-15.0-2.11,10267,List1A,white,woman,,,,null,,,,
4839,,,survey-text,195,741889,0.0-15.0-3.11,10267,List1A,white,woman,,,,,"{""Q0"":""jane is fighting dave""}","<img src=""stim_listA/fight3.gif""style=""height:400px;""></stim_listA>",is fighting,
null,"<div style=""font-size:60px;"">+</div>",,html-keyboard-response,196,742393,0.0-15.0-0.12,10267,List1A,white,woman,,,,null,,,,
null,"<img src=""stim_listA/kiss2.gif""style=""height:400px;""></stim_listA>",,html-keyboard-response,197,744395,0.0-15.0-1.12,10267,List1A,white,woman,,,,null,,,,
null,are kissing each other,,html-keyboard-response,198,746397,0.0-15.0-2.12,10267,List1A,white,woman,,,,null,,,,
7161,,,survey-text,199,753560,0.0-15.0-3.12,10267,List1A,white,woman,,,,,"{""Q0"":""mike and kate are kissing each other""}","<img src=""stim_listA/kiss2.gif""style=""height:400px;""></stim_listA>",are kissing each other,
null,"<div style=""font-size:60px;"">+</div>",,html-keyboard-response,200,754061,0.0-15.0-0.13,10267,List1A,white,woman,,,,null,,,,
null,"<img src=""stim_listA/touch1.gif""style=""height:400px;""></stim_listA>",,html-keyboard-response,201,756067,0.0-15.0-1.13,10267,List1A,white,woman,,,,null,,,,
null,is touching,,html-keyboard-response,202,758067,0.0-15.0-2.13,10267,List1A,white,woman,,,,null,,,,
4642,,,survey-text,203,762743,0.0-15.0-3.13,10267,List1A,white,woman,,,,,"{""Q0"":""kate is touching mike""}","<img src=""stim_listA/touch1.gif""style=""height:400px;""></stim_listA>",is touching,
null,"<div style=""font-size:60px;"">+</div>",,html-keyboard-response,204,763244,0.0-15.0-0.14,10267,List1A,white,woman,,,,null,,,,
null,"<img src=""stim_listA/flirt7.gif""style=""height:400px;""></stim_listA>",,html-keyboard-response,205,765246,0.0-15.0-1.14,10267,List1A,white,woman,,,,null,,,,
null,is flirting with,,html-keyboard-response,206,767248,0.0-15.0-2.14,10267,List1A,white,woman,,,,null,,,,
8875,,,survey-text,207,776125,0.0-15.0-3.14,10267,List1A,white,woman,,,,,"{""Q0"":""jane is flirting with beth""}","<img src=""stim_listA/flirt7.gif""style=""height:400px;""></stim_listA>",is flirting with,
null,"<div style=""font-size:60px;"">+</div>",,html-keyboard-response,208,776628,0.0-15.0-0.15,10267,List1A,white,woman,,,,null,,,,
null,"<img src=""stim_listA/argue4.gif""style=""height:400px;""></stim_listA>",,html-keyboard-response,209,778631,0.0-15.0-1.15,10267,List1A,white,woman,,,,null,,,,
null,are arguing with each other,,html-keyboard-response,210,780632,0.0-15.0-2.15,10267,List1A,white,woman,,,,null,,,,
8844,,,survey-text,211,789477,0.0-15.0-3.15,10267,List1A,white,woman,,,,,"{""Q0"":""jane and luke are arguing with each other""}","<img src=""stim_listA/argue4.gif""style=""height:400px;""></stim_listA>",are arguing with each other,
null,"<div style=""font-size:60px;"">+</div>",,html-keyboard-response,212,789978,0.0-15.0-0.16,10267,List1A,white,woman,,,,null,,,,
null,"<img src=""stim_listA/marry6.gif""style=""height:400px;""></stim_listA>",,html-keyboard-response,213,791980,0.0-15.0-1.16,10267,List1A,white,woman,,,,null,,,,
null,are marrying each other,,html-keyboard-response,214,793982,0.0-15.0-2.16,10267,List1A,white,woman,,,,null,,,,
12916,,,survey-text,215,806898,0.0-15.0-3.16,10267,List1A,white,woman,,,,,"{""Q0"":""fred and dave are marrying each other""}","<img src=""stim_listA/marry6.gif""style=""height:400px;""></stim_listA>",are marrying each other,
null,"<div style=""font-size:60px;"">+</div>",,html-keyboard-response,216,807400,0.0-15.0-0.17,10267,List1A,white,woman,,,,null,,,,
null,"<img src=""stim_listA/touch2.gif""style=""height:400px;""></stim_listA>",,html-keyboard-response,217,809406,0.0-15.0-1.17,10267,List1A,white,woman,,,,null,,,,
null,are touching each other,,html-keyboard-response,218,811408,0.0-15.0-2.17,10267,List1A,white,woman,,,,null,,,,
7031,,,survey-text,219,818440,0.0-15.0-3.17,10267,List1A,white,woman,,,,,"{""Q0"":""fred and beth are touching each other""}","<img src=""stim_listA/touch2.gif""style=""height:400px;""></stim_listA>",are touching each other,
null,"<div style=""font-size:60px;"">+</div>",,html-keyboard-response,220,818941,0.0-15.0-0.18,10267,List1A,white,woman,,,,null,,,,
null,"<img src=""stim_listA/talk5.gif""style=""height:400px;""></stim_listA>",,html-keyboard-response,221,820943,0.0-15.0-1.18,10267,List1A,white,woman,,,,null,,,,
null,is talking to,,html-keyboard-response,222,822943,0.0-15.0-2.18,10267,List1A,white,woman,,,,null,,,,
4927,,,survey-text,223,827872,0.0-15.0-3.18,10267,List1A,white,woman,,,,,"{""Q0"":""dave is talking to fred""}","<img src=""stim_listA/talk5.gif""style=""height:400px;""></stim_listA>",is talking to,
null,"<div style=""font-size:60px;"">+</div>",,html-keyboard-response,224,828374,0.0-15.0-0.19,10267,List1A,white,woman,,,,null,,,,
null,"<img src=""stim_listA/argue6.gif""style=""height:400px;""></stim_listA>",,html-keyboard-response,225,830375,0.0-15.0-1.19,10267,List1A,white,woman,,,,null,,,,
null,are arguing with each other,,html-keyboard-response,226,832377,0.0-15.0-2.19,10267,List1A,white,woman,,,,null,,,,
8494,,,survey-text,227,840872,0.0-15.0-3.19,10267,List1A,white,woman,,,,,"{""Q0"":""dave and fred are arguing with each other""}","<img src=""stim_listA/argue6.gif""style=""height:400px;""></stim_listA>",are arguing with each other,
8902,"<img src='img/portrait_matrix_list1.jpg' style='width:900px;height:500px;''></img><p>If you have memorised all the portraits and names and are ready to start, press Continue.</p><p><strong>Please note: Your memory of these faces will be tested 4 times during this experiment.</strong></p>",0,html-button-response,228,849778,0.0-16.0-0.0,10267,List1A,white,woman,,,,,,,,
3763,"<img src=""portrait/BW1.jpg""style=""height:400px;""></img>",0,html-button-response,229,854544,0.0-16.0-1.0,10267,List1A,white,woman,,TRUE,0,,,,,
null,CORRECT,,html-keyboard-response,230,856050,0.0-16.0-2.0-0.0,10267,List1A,white,woman,,,,null,,,,
2409,"<img src=""portrait/WM1.jpg""style=""height:400px;""></img>",6,html-button-response,231,858461,0.0-16.0-4.0,10267,List1A,white,woman,,TRUE,6,,,,,
null,CORRECT,,html-keyboard-response,232,859962,0.0-16.0-5.0-0.0,10267,List1A,white,woman,,,,null,,,,
1329,"<img src=""portrait/WM2.jpg""style=""height:400px;""></img>",7,html-button-response,233,861293,0.0-16.0-7.0,10267,List1A,white,woman,,TRUE,7,,,,,
null,CORRECT,,html-keyboard-response,234,862795,0.0-16.0-8.0-0.0,10267,List1A,white,woman,,,,null,,,,
1340,"<img src=""portrait/BM1.jpg""style=""height:400px;""></img>",4,html-button-response,235,864136,0.0-16.0-10.0,10267,List1A,white,woman,,TRUE,4,,,,,
null,CORRECT,,html-keyboard-response,236,865638,0.0-16.0-11.0-0.0,10267,List1A,white,woman,,,,null,,,,
2362,"<img src=""portrait/WW1.jpg""style=""height:400px;""></img>",1,html-button-response,237,868002,0.0-16.0-13.0,10267,List1A,white,woman,,TRUE,1,,,,,
null,CORRECT,,html-keyboard-response,238,869508,0.0-16.0-14.0-0.0,10267,List1A,white,woman,,,,null,,,,
2696,"<img src=""portrait/BW2.jpg""style=""height:400px;""></img>",2,html-button-response,239,872205,0.0-16.0-16.0,10267,List1A,white,woman,,TRUE,2,,,,,
null,CORRECT,,html-keyboard-response,240,873711,0.0-16.0-17.0-0.0,10267,List1A,white,woman,,,,null,,,,
865,"<img src=""portrait/WW2.jpg""style=""height:400px;""></img>",3,html-button-response,241,874577,0.0-16.0-19.0,10267,List1A,white,woman,,TRUE,3,,,,,
null,CORRECT,,html-keyboard-response,242,876079,0.0-16.0-20.0-0.0,10267,List1A,white,woman,,,,null,,,,
2007,"<img src=""portrait/BM2.jpg""style=""height:400px;""></img>",5,html-button-response,243,878088,0.0-16.0-22.0,10267,List1A,white,woman,,TRUE,5,,,,,
null,CORRECT,,html-keyboard-response,244,879590,0.0-16.0-23.0-0.0,10267,List1A,white,woman,,,,null,,,,
1381,<p>You got 8 out of 8 right first time. Press Continue.</p>,0,html-button-response,245,880972,0.0-16.0-25.0,10267,List1A,white,woman,,,,,,,,
null,"<div style=""font-size:60px;"">+</div>",,html-keyboard-response,246,882476,0.0-17.0-0.0,10267,List1A,white,woman,,,,null,,,,
null,"<img src=""stim_listA/kiss7.gif""style=""height:400px;""></stim_listA>",,html-keyboard-response,247,884478,0.0-17.0-1.0,10267,List1A,white,woman,,,,null,,,,
null,is kissing,,html-keyboard-response,248,886481,0.0-17.0-2.0,10267,List1A,white,woman,,,,null,,,,
7088,,,survey-text,249,893571,0.0-17.0-3.0,10267,List1A,white,woman,,,,,"{""Q0"":""beth is kissing ruth""}","<img src=""stim_listA/kiss7.gif""style=""height:400px;""></stim_listA>",is kissing,
null,"<div style=""font-size:60px;"">+</div>",,html-keyboard-response,250,894072,0.0-17.0-0.1,10267,List1A,white,woman,,,,null,,,,
null,"<img src=""stim_listA/shout1.gif""style=""height:400px;""></stim_listA>",,html-keyboard-response,251,896074,0.0-17.0-1.1,10267,List1A,white,woman,,,,null,,,,
null,is shouting at,,html-keyboard-response,252,898076,0.0-17.0-2.1,10267,List1A,white,woman,,,,null,,,,
4306,,,survey-text,253,902384,0.0-17.0-3.1,10267,List1A,white,woman,,,,,"{""Q0"":""beth is shouting at fred""}","<img src=""stim_listA/shout1.gif""style=""height:400px;""></stim_listA>",is shouting at,
null,"<div style=""font-size:60px;"">+</div>",,html-keyboard-response,254,902885,0.0-17.0-0.2,10267,List1A,white,woman,,,,null,,,,
null,"<img src=""stim_listA/argue5.gif""style=""height:400px;""></stim_listA>",,html-keyboard-response,255,904890,0.0-17.0-1.2,10267,List1A,white,woman,,,,null,,,,
null,is arguing with,,html-keyboard-response,256,906891,0.0-17.0-2.2,10267,List1A,white,woman,,,,null,,,,
6012,,,survey-text,257,912904,0.0-17.0-3.2,10267,List1A,white,woman,,,,,"{""Q0"":""luke is arguing with mike""}","<img src=""stim_listA/argue5.gif""style=""height:400px;""></stim_listA>",is arguing with,
null,"<div style=""font-size:60px;"">+</div>",,html-keyboard-response,258,913406,0.0-17.0-0.3,10267,List1A,white,woman,,,,null,,,,
null,"<img src=""stim_listA/touch5.gif""style=""height:400px;""></stim_listA>",,html-keyboard-response,259,915408,0.0-17.0-1.3,10267,List1A,white,woman,,,,null,,,,
null,is touching,,html-keyboard-response,260,917409,0.0-17.0-2.3,10267,List1A,white,woman,,,,null,,,,
7982,,,survey-text,261,925392,0.0-17.0-3.3,10267,List1A,white,woman,,,,,"{""Q0"":""mike is touching dave""}","<img src=""stim_listA/touch5.gif""style=""height:400px;""></stim_listA>",is touching,
null,"<div style=""font-size:60px;"">+</div>",,html-keyboard-response,262,925893,0.0-17.0-0.4,10267,List1A,white,woman,,,,null,,,,
null,"<img src=""stim_listA/flirt8.gif""style=""height:400px;""></stim_listA>",,html-keyboard-response,263,927895,0.0-17.0-1.4,10267,List1A,white,woman,,,,null,,,,
null,are flirting with each other,,html-keyboard-response,264,929900,0.0-17.0-2.4,10267,List1A,white,woman,,,,null,,,,
8864,,,survey-text,265,938766,0.0-17.0-3.4,10267,List1A,white,woman,,,,,"{""Q0"":""kate and jane are flirting with each other""}","<img src=""stim_listA/flirt8.gif""style=""height:400px;""></stim_listA>",are flirting with each other,
null,"<div style=""font-size:60px;"">+</div>",,html-keyboard-response,266,939268,0.0-17.0-0.5,10267,List1A,white,woman,,,,null,,,,
null,"<img src=""stim_listA/talk2.gif""style=""height:400px;""></stim_listA>",,html-keyboard-response,267,941274,0.0-17.0-1.5,10267,List1A,white,woman,,,,null,,,,
null,are talking to each other,,html-keyboard-response,268,943275,0.0-17.0-2.5,10267,List1A,white,woman,,,,null,,,,
8294,,,survey-text,269,951571,0.0-17.0-3.5,10267,List1A,white,woman,,,,,"{""Q0"":""beth and mike are talking to each other""}","<img src=""stim_listA/talk2.gif""style=""height:400px;""></stim_listA>",are talking to each other,
null,"<div style=""font-size:60px;"">+</div>",,html-keyboard-response,270,952073,0.0-17.0-0.6,10267,List1A,white,woman,,,,null,,,,
null,"<img src=""stim_listA/argue2.gif""style=""height:400px;""></stim_listA>",,html-keyboard-response,271,954077,0.0-17.0-1.6,10267,List1A,white,woman,,,,null,,,,
null,are arguing with each other,,html-keyboard-response,272,956082,0.0-17.0-2.6,10267,List1A,white,woman,,,,null,,,,
7093,,,survey-text,273,963177,0.0-17.0-3.6,10267,List1A,white,woman,,,,,"{""Q0"":""kate and fred are arguing with each other""}","<img src=""stim_listA/argue2.gif""style=""height:400px;""></stim_listA>",are arguing with each other,
null,"<div style=""font-size:60px;"">+</div>",,html-keyboard-response,274,963680,0.0-17.0-0.7,10267,List1A,white,woman,,,,null,,,,
null,"<img src=""stim_listA/marry5.gif""style=""height:400px;""></stim_listA>",,html-keyboard-response,275,965683,0.0-17.0-1.7,10267,List1A,white,woman,,,,null,,,,
null,is marrying,,html-keyboard-response,276,967685,0.0-17.0-2.7,10267,List1A,white,woman,,,,null,,,,
5098,,,survey-text,277,972783,0.0-17.0-3.7,10267,List1A,white,woman,,,,,"{""Q0"":""mike is marrying luke""}","<img src=""stim_listA/marry5.gif""style=""height:400px;""></stim_listA>",is marrying,
null,"<div style=""font-size:60px;"">+</div>",,html-keyboard-response,278,973286,0.0-17.0-0.8,10267,List1A,white,woman,,,,null,,,,
null,"<img src=""stim_listA/fight1.gif""style=""height:400px;""></stim_listA>",,html-keyboard-response,279,975289,0.0-17.0-1.8,10267,List1A,white,woman,,,,null,,,,
null,is fighting,,html-keyboard-response,280,977290,0.0-17.0-2.8,10267,List1A,white,woman,,,,null,,,,
10595,,,survey-text,281,987886,0.0-17.0-3.8,10267,List1A,white,woman,,,,,"{""Q0"":""mike is fighting kate""}","<img src=""stim_listA/fight1.gif""style=""height:400px;""></stim_listA>",is fighting,
null,"<div style=""font-size:60px;"">+</div>",,html-keyboard-response,282,988389,0.0-17.0-0.9,10267,List1A,white,woman,,,,null,,,,
null,"<img src=""stim_listA/shout4.gif""style=""height:400px;""></stim_listA>",,html-keyboard-response,283,990391,0.0-17.0-1.9,10267,List1A,white,woman,,,,null,,,,
null,are shouting at each other,,html-keyboard-response,284,992392,0.0-17.0-2.9,10267,List1A,white,woman,,,,null,,,,
6690,,,survey-text,285,999083,0.0-17.0-3.9,10267,List1A,white,woman,,,,,"{""Q0"":""jane and dave are shouting at each other""}","<img src=""stim_listA/shout4.gif""style=""height:400px;""></stim_listA>",are shouting at each other,
null,"<div style=""font-size:60px;"">+</div>",,html-keyboard-response,286,999586,0.0-17.0-0.10,10267,List1A,white,woman,,,,null,,,,
null,"<img src=""stim_listA/kiss5.gif""style=""height:400px;""></stim_listA>",,html-keyboard-response,287,1001590,0.0-17.0-1.10,10267,List1A,white,woman,,,,null,,,,
null,is kissing,,html-keyboard-response,288,1003594,0.0-17.0-2.10,10267,List1A,white,woman,,,,null,,,,
4710,,,survey-text,289,1008306,0.0-17.0-3.10,10267,List1A,white,woman,,,,,"{""Q0"":""fred is kissing luke""}","<img src=""stim_listA/kiss5.gif""style=""height:400px;""></stim_listA>",is kissing,
null,"<div style=""font-size:60px;"">+</div>",,html-keyboard-response,290,1008808,0.0-17.0-0.11,10267,List1A,white,woman,,,,null,,,,
null,"<img src=""stim_listA/shout7.gif""style=""height:400px;""></stim_listA>",,html-keyboard-response,291,1010812,0.0-17.0-1.11,10267,List1A,white,woman,,,,null,,,,
null,is shouting at,,html-keyboard-response,292,1012818,0.0-17.0-2.11,10267,List1A,white,woman,,,,null,,,,
9636,,,survey-text,293,1022456,0.0-17.0-3.11,10267,List1A,white,woman,,,,,"{""Q0"":""beth is shouting at ruth ""}","<img src=""stim_listA/shout7.gif""style=""height:400px;""></stim_listA>",is shouting at,
null,"<div style=""font-size:60px;"">+</div>",,html-keyboard-response,294,1022960,0.0-17.0-0.12,10267,List1A,white,woman,,,,null,,,,
null,"<img src=""stim_listA/marry1.gif""style=""height:400px;""></stim_listA>",,html-keyboard-response,295,1024961,0.0-17.0-1.12,10267,List1A,white,woman,,,,null,,,,
null,is marrying,,html-keyboard-response,296,1026966,0.0-17.0-2.12,10267,List1A,white,woman,,,,null,,,,
5750,,,survey-text,297,1032717,0.0-17.0-3.12,10267,List1A,white,woman,,,,,"{""Q0"":""beth is marrying mike""}","<img src=""stim_listA/marry1.gif""style=""height:400px;""></stim_listA>",is marrying,
null,"<div style=""font-size:60px;"">+</div>",,html-keyboard-response,298,1033220,0.0-17.0-0.13,10267,List1A,white,woman,,,,null,,,,
null,"<img src=""stim_listA/flirt6.gif""style=""height:400px;""></stim_listA>",,html-keyboard-response,299,1035221,0.0-17.0-1.13,10267,List1A,white,woman,,,,null,,,,
null,are flirting with each other,,html-keyboard-response,300,1037223,0.0-17.0-2.13,10267,List1A,white,woman,,,,null,,,,
7626,,,survey-text,301,1044849,0.0-17.0-3.13,10267,List1A,white,woman,,,,,"{""Q0"":""luke and mike are flirting with each other""}","<img src=""stim_listA/flirt6.gif""style=""height:400px;""></stim_listA>",are flirting with each other,
null,"<div style=""font-size:60px;"">+</div>",,html-keyboard-response,302,1045352,0.0-17.0-0.14,10267,List1A,white,woman,,,,null,,,,
null,"<img src=""stim_listA/marry3.gif""style=""height:400px;""></stim_listA>",,html-keyboard-response,303,1047356,0.0-17.0-1.14,10267,List1A,white,woman,,,,null,,,,
null,is marrying,,html-keyboard-response,304,1049361,0.0-17.0-2.14,10267,List1A,white,woman,,,,null,,,,
5613,,,survey-text,305,1054976,0.0-17.0-3.14,10267,List1A,white,woman,,,,,"{""Q0"":""ruth is marrying dave""}","<img src=""stim_listA/marry3.gif""style=""height:400px;""></stim_listA>",is marrying,
null,"<div style=""font-size:60px;"">+</div>",,html-keyboard-response,306,1055478,0.0-17.0-0.15,10267,List1A,white,woman,,,,null,,,,
null,"<img src=""stim_listA/dance8.gif""style=""height:400px;""></stim_listA>",,html-keyboard-response,307,1057485,0.0-17.0-1.15,10267,List1A,white,woman,,,,null,,,,
null,are dancing with each other,,html-keyboard-response,308,1059486,0.0-17.0-2.15,10267,List1A,white,woman,,,,null,,,,
8741,,,survey-text,309,1068228,0.0-17.0-3.15,10267,List1A,white,woman,,,,,"{""Q0"":""kate and ruth are dancing with each other""}","<img src=""stim_listA/dance8.gif""style=""height:400px;""></stim_listA>",are dancing with each other,
null,"<div style=""font-size:60px;"">+</div>",,html-keyboard-response,310,1068731,0.0-17.0-0.16,10267,List1A,white,woman,,,,null,,,,
null,"<img src=""stim_listA/play7.gif""style=""height:400px;""></stim_listA>",,html-keyboard-response,311,1070737,0.0-17.0-1.16,10267,List1A,white,woman,,,,null,,,,
null,is playing with,,html-keyboard-response,312,1072742,0.0-17.0-2.16,10267,List1A,white,woman,,,,null,,,,
5878,,,survey-text,313,1078622,0.0-17.0-3.16,10267,List1A,white,woman,,,,,"{""Q0"":""jane is playing with kate ""}","<img src=""stim_listA/play7.gif""style=""height:400px;""></stim_listA>",is playing with,
null,"<div style=""font-size:60px;"">+</div>",,html-keyboard-response,314,1079126,0.0-17.0-0.17,10267,List1A,white,woman,,,,null,,,,
null,"<img src=""stim_listA/dance3.gif""style=""height:400px;""></stim_listA>",,html-keyboard-response,315,1081134,0.0-17.0-1.17,10267,List1A,white,woman,,,,null,,,,
null,is dancing with,,html-keyboard-response,316,1083138,0.0-17.0-2.17,10267,List1A,white,woman,,,,null,,,,
6492,,,survey-text,317,1089632,0.0-17.0-3.17,10267,List1A,white,woman,,,,,"{""Q0"":""jane is dancing with luke""}","<img src=""stim_listA/dance3.gif""style=""height:400px;""></stim_listA>",is dancing with,
null,"<div style=""font-size:60px;"">+</div>",,html-keyboard-response,318,1090139,0.0-17.0-0.18,10267,List1A,white,woman,,,,null,,,,
null,"<img src=""stim_listA/argue3.gif""style=""height:400px;""></stim_listA>",,html-keyboard-response,319,1092145,0.0-17.0-1.18,10267,List1A,white,woman,,,,null,,,,
null,is arguing with,,html-keyboard-response,320,1094148,0.0-17.0-2.18,10267,List1A,white,woman,,,,null,,,,
6785,,,survey-text,321,1100935,0.0-17.0-3.18,10267,List1A,white,woman,,,,,"{""Q0"":""dave is dancing with ruth""}","<img src=""stim_listA/argue3.gif""style=""height:400px;""></stim_listA>",is arguing with,
null,"<div style=""font-size:60px;"">+</div>",,html-keyboard-response,322,1101438,0.0-17.0-0.19,10267,List1A,white,woman,,,,null,,,,
null,"<img src=""stim_listA/kiss4.gif""style=""height:400px;""></stim_listA>",,html-keyboard-response,323,1103441,0.0-17.0-1.19,10267,List1A,white,woman,,,,null,,,,
null,are kissing each other,,html-keyboard-response,324,1105447,0.0-17.0-2.19,10267,List1A,white,woman,,,,null,,,,
7268,,,survey-text,325,1112718,0.0-17.0-3.19,10267,List1A,white,woman,,,,,"{""Q0"":""jane and dave are kissing each other""}","<img src=""stim_listA/kiss4.gif""style=""height:400px;""></stim_listA>",are kissing each other,
1905,"<img src='img/portrait_matrix_list1.jpg' style='width:900px;height:500px;''></img><p>If you have memorised all the portraits and names and are ready to start, press Continue.</p><p><strong>Please note: Your memory of these faces will be tested 4 times during this experiment.</strong></p>",0,html-button-response,326,1114625,0.0-18.0-0.0,10267,List1A,white,woman,,,,,,,,
3149,"<img src=""portrait/BW2.jpg""style=""height:400px;""></img>",2,html-button-response,327,1118780,0.0-18.0-1.0,10267,List1A,white,woman,,TRUE,2,,,,,
null,CORRECT,,html-keyboard-response,328,1120291,0.0-18.0-2.0-0.0,10267,List1A,white,woman,,,,null,,,,
1552,"<img src=""portrait/WM1.jpg""style=""height:400px;""></img>",6,html-button-response,329,1121845,0.0-18.0-4.0,10267,List1A,white,woman,,TRUE,6,,,,,
null,CORRECT,,html-keyboard-response,330,1123352,0.0-18.0-5.0-0.0,10267,List1A,white,woman,,,,null,,,,
1417,"<img src=""portrait/WW2.jpg""style=""height:400px;""></img>",3,html-button-response,331,1124771,0.0-18.0-7.0,10267,List1A,white,woman,,TRUE,3,,,,,
null,CORRECT,,html-keyboard-response,332,1126278,0.0-18.0-8.0-0.0,10267,List1A,white,woman,,,,null,,,,
1843,"<img src=""portrait/WW1.jpg""style=""height:400px;""></img>",1,html-button-response,333,1128123,0.0-18.0-10.0,10267,List1A,white,woman,,TRUE,1,,,,,
null,CORRECT,,html-keyboard-response,334,1129635,0.0-18.0-11.0-0.0,10267,List1A,white,woman,,,,null,,,,
1522,"<img src=""portrait/BM1.jpg""style=""height:400px;""></img>",4,html-button-response,335,1131159,0.0-18.0-13.0,10267,List1A,white,woman,,TRUE,4,,,,,
null,CORRECT,,html-keyboard-response,336,1132666,0.0-18.0-14.0-0.0,10267,List1A,white,woman,,,,null,,,,
3182,"<img src=""portrait/BW1.jpg""style=""height:400px;""></img>",0,html-button-response,337,1135850,0.0-18.0-16.0,10267,List1A,white,woman,,TRUE,0,,,,,
null,CORRECT,,html-keyboard-response,338,1137362,0.0-18.0-17.0-0.0,10267,List1A,white,woman,,,,null,,,,
1765,"<img src=""portrait/WM2.jpg""style=""height:400px;""></img>",7,html-button-response,339,1139130,0.0-18.0-19.0,10267,List1A,white,woman,,TRUE,7,,,,,
null,CORRECT,,html-keyboard-response,340,1140642,0.0-18.0-20.0-0.0,10267,List1A,white,woman,,,,null,,,,
2072,"<img src=""portrait/BM2.jpg""style=""height:400px;""></img>",5,html-button-response,341,1142717,0.0-18.0-22.0,10267,List1A,white,woman,,TRUE,5,,,,,
null,CORRECT,,html-keyboard-response,342,1144225,0.0-18.0-23.0-0.0,10267,List1A,white,woman,,,,null,,,,
1390,<p>You got 8 out of 8 right first time. Press Continue.</p>,0,html-button-response,343,1145617,0.0-18.0-25.0,10267,List1A,white,woman,,,,,,,,
null,"<div style=""font-size:60px;"">+</div>",,html-keyboard-response,344,1147129,0.0-19.0-0.0,10267,List1A,white,woman,,,,null,,,,
null,"<img src=""stim_listA/play4.gif""style=""height:400px;""></stim_listA>",,html-keyboard-response,345,1149135,0.0-19.0-1.0,10267,List1A,white,woman,,,,null,,,,
null,are playing with each other,,html-keyboard-response,346,1151141,0.0-19.0-2.0,10267,List1A,white,woman,,,,null,,,,
11061,,,survey-text,347,1162204,0.0-19.0-3.0,10267,List1A,white,woman,,,,,"{""Q0"":""luke and ruth are playing with each other""}","<img src=""stim_listA/play4.gif""style=""height:400px;""></stim_listA>",are playing with each other,
null,"<div style=""font-size:60px;"">+</div>",,html-keyboard-response,348,1162708,0.0-19.0-0.1,10267,List1A,white,woman,,,,null,,,,
null,"<img src=""stim_listA/talk4.gif""style=""height:400px;""></stim_listA>",,html-keyboard-response,349,1164714,0.0-19.0-1.1,10267,List1A,white,woman,,,,null,,,,
null,are talking to each other,,html-keyboard-response,350,1166719,0.0-19.0-2.1,10267,List1A,white,woman,,,,null,,,,
7565,,,survey-text,351,1174286,0.0-19.0-3.1,10267,List1A,white,woman,,,,,"{""Q0"":""dave and ruth are talking to each other""}","<img src=""stim_listA/talk4.gif""style=""height:400px;""></stim_listA>",are talking to each other,
null,"<div style=""font-size:60px;"">+</div>",,html-keyboard-response,352,1174788,0.0-19.0-0.2,10267,List1A,white,woman,,,,null,,,,
null,"<img src=""stim_listA/dance1.gif""style=""height:400px;""></stim_listA>",,html-keyboard-response,353,1176790,0.0-19.0-1.2,10267,List1A,white,woman,,,,null,,,,
null,is dancing with,,html-keyboard-response,354,1178792,0.0-19.0-2.2,10267,List1A,white,woman,,,,null,,,,
4721,,,survey-text,355,1183515,0.0-19.0-3.2,10267,List1A,white,woman,,,,,"{""Q0"":""fred is dancing with kate""}","<img src=""stim_listA/dance1.gif""style=""height:400px;""></stim_listA>",is dancing with,
null,"<div style=""font-size:60px;"">+</div>",,html-keyboard-response,356,1184016,0.0-19.0-0.3,10267,List1A,white,woman,,,,null,,,,
null,"<img src=""stim_listA/fight6.gif""style=""height:400px;""></stim_listA>",,html-keyboard-response,357,1186019,0.0-19.0-1.3,10267,List1A,white,woman,,,,null,,,,
null,are fighting each other,,html-keyboard-response,358,1188020,0.0-19.0-2.3,10267,List1A,white,woman,,,,null,,,,
8221,,,survey-text,359,1196243,0.0-19.0-3.3,10267,List1A,white,woman,,,,,"{""Q0"":""luke and fred are fighting each other""}","<img src=""stim_listA/fight6.gif""style=""height:400px;""></stim_listA>",are fighting each other,
null,"<div style=""font-size:60px;"">+</div>",,html-keyboard-response,360,1196745,0.0-19.0-0.4,10267,List1A,white,woman,,,,null,,,,
null,"<img src=""stim_listA/kiss6.gif""style=""height:400px;""></stim_listA>",,html-keyboard-response,361,1198750,0.0-19.0-1.4,10267,List1A,white,woman,,,,null,,,,
null,are kissing each other,,html-keyboard-response,362,1200752,0.0-19.0-2.4,10267,List1A,white,woman,,,,null,,,,
6312,,,survey-text,363,1207067,0.0-19.0-3.4,10267,List1A,white,woman,,,,,"{""Q0"":""dave and mike are kissing each other""}","<img src=""stim_listA/kiss6.gif""style=""height:400px;""></stim_listA>",are kissing each other,
null,"<div style=""font-size:60px;"">+</div>",,html-keyboard-response,364,1207570,0.0-19.0-0.5,10267,List1A,white,woman,,,,null,,,,
null,"<img src=""stim_listA/marry7.gif""style=""height:400px;""></stim_listA>",,html-keyboard-response,365,1209572,0.0-19.0-1.5,10267,List1A,white,woman,,,,null,,,,
null,is marrying,,html-keyboard-response,366,1211577,0.0-19.0-2.5,10267,List1A,white,woman,,,,null,,,,
10333,,,survey-text,367,1221912,0.0-19.0-3.5,10267,List1A,white,woman,,,,,"{""Q0"":""ruth is marrying kate""}","<img src=""stim_listA/marry7.gif""style=""height:400px;""></stim_listA>",is marrying,
null,"<div style=""font-size:60px;"">+</div>",,html-keyboard-response,368,1222414,0.0-19.0-0.6,10267,List1A,white,woman,,,,null,,,,
null,"<img src=""stim_listA/play8.gif""style=""height:400px;""></stim_listA>",,html-keyboard-response,369,1224418,0.0-19.0-1.6,10267,List1A,white,woman,,,,null,,,,
null,are playing with each other,,html-keyboard-response,370,1226419,0.0-19.0-2.6,10267,List1A,white,woman,,,,null,,,,
6667,,,survey-text,371,1233088,0.0-19.0-3.6,10267,List1A,white,woman,,,,,"{""Q0"":""beth and ruth are playing with each other ""}","<img src=""stim_listA/play8.gif""style=""height:400px;""></stim_listA>",are playing with each other,
null,"<div style=""font-size:60px;"">+</div>",,html-keyboard-response,372,1233591,0.0-19.0-0.7,10267,List1A,white,woman,,,,null,,,,
null,"<img src=""stim_listA/touch8.gif""style=""height:400px;""></stim_listA>",,html-keyboard-response,373,1235597,0.0-19.0-1.7,10267,List1A,white,woman,,,,null,,,,
null,are touching each other,,html-keyboard-response,374,1237599,0.0-19.0-2.7,10267,List1A,white,woman,,,,null,,,,
7140,,,survey-text,375,1244740,0.0-19.0-3.7,10267,List1A,white,woman,,,,,"{""Q0"":""beth and ruth are touching each other""}","<img src=""stim_listA/touch8.gif""style=""height:400px;""></stim_listA>",are touching each other,
null,"<div style=""font-size:60px;"">+</div>",,html-keyboard-response,376,1245243,0.0-19.0-0.8,10267,List1A,white,woman,,,,null,,,,
null,"<img src=""stim_listA/flirt4.gif""style=""height:400px;""></stim_listA>",,html-keyboard-response,377,1247249,0.0-19.0-1.8,10267,List1A,white,woman,,,,null,,,,
null,are flirting with each other,,html-keyboard-response,378,1249252,0.0-19.0-2.8,10267,List1A,white,woman,,,,null,,,,
8319,,,survey-text,379,1257572,0.0-19.0-3.8,10267,List1A,white,woman,,,,,"{""Q0"":""ruth and dave are flirting with each other""}","<img src=""stim_listA/flirt4.gif""style=""height:400px;""></stim_listA>",are flirting with each other,
null,"<div style=""font-size:60px;"">+</div>",,html-keyboard-response,380,1258075,0.0-19.0-0.9,10267,List1A,white,woman,,,,null,,,,
null,"<img src=""stim_listA/marry8.gif""style=""height:400px;""></stim_listA>",,html-keyboard-response,381,1260082,0.0-19.0-1.9,10267,List1A,white,woman,,,,null,,,,
null,are marrying each other,,html-keyboard-response,382,1262087,0.0-19.0-2.9,10267,List1A,white,woman,,,,null,,,,
10718,,,survey-text,383,1272806,0.0-19.0-3.9,10267,List1A,white,woman,,,,,"{""Q0"":""jane and beth are marrying each other""}","<img src=""stim_listA/marry8.gif""style=""height:400px;""></stim_listA>",are marrying each other,
null,"<div style=""font-size:60px;"">+</div>",,html-keyboard-response,384,1273309,0.0-19.0-0.10,10267,List1A,white,woman,,,,null,,,,
null,"<img src=""stim_listA/shout6.gif""style=""height:400px;""></stim_listA>",,html-keyboard-response,385,1275312,0.0-19.0-1.10,10267,List1A,white,woman,,,,null,,,,
null,are shouting at each other,,html-keyboard-response,386,1277313,0.0-19.0-2.10,10267,List1A,white,woman,,,,null,,,,
8136,,,survey-text,387,1285450,0.0-19.0-3.10,10267,List1A,white,woman,,,,,"{""Q0"":""dave and mike are shouting at each other""}","<img src=""stim_listA/shout6.gif""style=""height:400px;""></stim_listA>",are shouting at each other,
null,"<div style=""font-size:60px;"">+</div>",,html-keyboard-response,388,1285951,0.0-19.0-0.11,10267,List1A,white,woman,,,,null,,,,
null,"<img src=""stim_listA/play2.gif""style=""height:400px;""></stim_listA>",,html-keyboard-response,389,1287957,0.0-19.0-1.11,10267,List1A,white,woman,,,,null,,,,
null,are playing with each other,,html-keyboard-response,390,1289958,0.0-19.0-2.11,10267,List1A,white,woman,,,,null,,,,
7807,,,survey-text,391,1297767,0.0-19.0-3.11,10267,List1A,white,woman,,,,,"{""Q0"":""beth and fred are playing with each other""}","<img src=""stim_listA/play2.gif""style=""height:400px;""></stim_listA>",are playing with each other,
null,"<div style=""font-size:60px;"">+</div>",,html-keyboard-response,392,1298268,0.0-19.0-0.12,10267,List1A,white,woman,,,,null,,,,
null,"<img src=""stim_listA/fight8.gif""style=""height:400px;""></stim_listA>",,html-keyboard-response,393,1300270,0.0-19.0-1.12,10267,List1A,white,woman,,,,null,,,,
null,are fighting each other,,html-keyboard-response,394,1302271,0.0-19.0-2.12,10267,List1A,white,woman,,,,null,,,,
8099,,,survey-text,395,1310372,0.0-19.0-3.12,10267,List1A,white,woman,,,,,"{""Q0"":""ruth and beth are fighting each other""}","<img src=""stim_listA/fight8.gif""style=""height:400px;""></stim_listA>",are fighting each other,
null,"<div style=""font-size:60px;"">+</div>",,html-keyboard-response,396,1310873,0.0-19.0-0.13,10267,List1A,white,woman,,,,null,,,,
null,"<img src=""stim_listA/talk6.gif""style=""height:400px;""></stim_listA>",,html-keyboard-response,397,1312875,0.0-19.0-1.13,10267,List1A,white,woman,,,,null,,,,
null,are talking to each other,,html-keyboard-response,398,1314876,0.0-19.0-2.13,10267,List1A,white,woman,,,,null,,,,
6429,,,survey-text,399,1321306,0.0-19.0-3.13,10267,List1A,white,woman,,,,,"{""Q0"":""luke and mike are talking to each other""}","<img src=""stim_listA/talk6.gif""style=""height:400px;""></stim_listA>",are talking to each other,
null,"<div style=""font-size:60px;"">+</div>",,html-keyboard-response,400,1321808,0.0-19.0-0.14,10267,List1A,white,woman,,,,null,,,,
null,"<img src=""stim_listA/dance5.gif""style=""height:400px;""></stim_listA>",,html-keyboard-response,401,1323810,0.0-19.0-1.14,10267,List1A,white,woman,,,,null,,,,
null,is dancing with,,html-keyboard-response,402,1325811,0.0-19.0-2.14,10267,List1A,white,woman,,,,null,,,,
5003,,,survey-text,403,1330814,0.0-19.0-3.14,10267,List1A,white,woman,,,,,"{""Q0"":""fred is dancing with dave""}","<img src=""stim_listA/dance5.gif""style=""height:400px;""></stim_listA>",is dancing with,
null,"<div style=""font-size:60px;"">+</div>",,html-keyboard-response,404,1331316,0.0-19.0-0.15,10267,List1A,white,woman,,,,null,,,,
null,"<img src=""stim_listA/fight5.gif""style=""height:400px;""></stim_listA>",,html-keyboard-response,405,1333319,0.0-19.0-1.15,10267,List1A,white,woman,,,,null,,,,
null,is fighting,,html-keyboard-response,406,1335321,0.0-19.0-2.15,10267,List1A,white,woman,,,,null,,,,
4928,,,survey-text,407,1340251,0.0-19.0-3.15,10267,List1A,white,woman,,,,,"{""Q0"":""dave is fighting mike""}","<img src=""stim_listA/fight5.gif""style=""height:400px;""></stim_listA>",is fighting,
null,"<div style=""font-size:60px;"">+</div>",,html-keyboard-response,408,1340752,0.0-19.0-0.16,10267,List1A,white,woman,,,,null,,,,
null,"<img src=""stim_listA/marry2.gif""style=""height:400px;""></stim_listA>",,html-keyboard-response,409,1342755,0.0-19.0-1.16,10267,List1A,white,woman,,,,null,,,,
null,are marrying each other,,html-keyboard-response,410,1344757,0.0-19.0-2.16,10267,List1A,white,woman,,,,null,,,,
8983,,,survey-text,411,1353740,0.0-19.0-3.16,10267,List1A,white,woman,,,,,"{""Q0"":""fred and kate are marrying each other""}","<img src=""stim_listA/marry2.gif""style=""height:400px;""></stim_listA>",are marrying each other,
null,"<div style=""font-size:60px;"">+</div>",,html-keyboard-response,412,1354241,0.0-19.0-0.17,10267,List1A,white,woman,,,,null,,,,
null,"<img src=""stim_listA/fight2.gif""style=""height:400px;""></stim_listA>",,html-keyboard-response,413,1356244,0.0-19.0-1.17,10267,List1A,white,woman,,,,null,,,,
null,are fighting each other,,html-keyboard-response,414,1358246,0.0-19.0-2.17,10267,List1A,white,woman,,,,null,,,,
7121,,,survey-text,415,1365368,0.0-19.0-3.17,10267,List1A,white,woman,,,,,"{""Q0"":""beth and fred are fighting each other""}","<img src=""stim_listA/fight2.gif""style=""height:400px;""></stim_listA>",are fighting each other,
null,"<div style=""font-size:60px;"">+</div>",,html-keyboard-response,416,1365870,0.0-19.0-0.18,10267,List1A,white,woman,,,,null,,,,
null,"<img src=""stim_listA/talk7.gif""style=""height:400px;""></stim_listA>",,html-keyboard-response,417,1367871,0.0-19.0-1.18,10267,List1A,white,woman,,,,null,,,,
null,is talking to,,html-keyboard-response,418,1369872,0.0-19.0-2.18,10267,List1A,white,woman,,,,null,,,,
5007,,,survey-text,419,1374880,0.0-19.0-3.18,10267,List1A,white,woman,,,,,"{""Q0"":""beth is talking to jane""}","<img src=""stim_listA/talk7.gif""style=""height:400px;""></stim_listA>",is talking to,
null,"<div style=""font-size:60px;"">+</div>",,html-keyboard-response,420,1375381,0.0-19.0-0.19,10267,List1A,white,woman,,,,null,,,,
null,"<img src=""stim_listA/play5.gif""style=""height:400px;""></stim_listA>",,html-keyboard-response,421,1377383,0.0-19.0-1.19,10267,List1A,white,woman,,,,null,,,,
null,is playing with,,html-keyboard-response,422,1379384,0.0-19.0-2.19,10267,List1A,white,woman,,,,null,,,,
5519,,,survey-text,423,1384904,0.0-19.0-3.19,10267,List1A,white,woman,,,,,"{""Q0"":""dave is playing with mike""}","<img src=""stim_listA/play5.gif""style=""height:400px;""></stim_listA>",is playing with,
2214,<p>Thank you for completing that task.</p><p>The final part of this session is a short questionnaire.</p><p>Press Continue.</p>,0,html-button-response,424,1387120,0.0-20.0,10267,List1A,white,woman,,,,,,,,
24169,,,survey-text,425,1412291,0.0-21.0,10267,List1A,white,woman,,,,,"{""Q0"":""20"",""Q1"":""English"",""Q2"":""English"",""Q3"":""England"",""Q4"":""White British"",""Q5"":""Female""}",,,demographics
9286,,,survey-likert,426,1421596,0.0-22.0,10267,List1A,white,woman,,,,,"{""Q0"":4}",,,likert_ESS
8063,,,survey-likert,427,1429678,0.0-23.0,10267,List1A,white,woman,,,,,"{""Q0"":4}",,,likert_NSSAL_Q1
5099,,,survey-likert,428,1434794,0.0-24.0,10267,List1A,white,woman,,,,,"{""Q0"":4}",,,likert_NSSAL_Q2
11179,,,survey-likert,429,1445991,0.0-25.0,10267,List1A,white,woman,,,,,"{""Q0"":4}",,,likert_CGRS_Q1
4217,,,survey-likert,430,1450223,0.0-26.0,10267,List1A,white,woman,,,,,"{""Q0"":4}",,,likert_CGRS_Q2
3118,,,survey-likert,431,1453358,0.0-27.0,10267,List1A,white,woman,,,,,"{""Q0"":4}",,,likert_CGRS_Q3
11951,,,survey-text,432,1465327,0.0-28.0,10267,List1A,white,woman,,,,,"{""Q0"":""ccc""}",,,worker_id
37650,,,external-html,433,1503096,0.0-29.0,10267,List1A,white,woman,debrief.html,,,,,,,
