rt,stimulus,button_pressed,trial_type,trial_index,time_elapsed,internal_node_id,subject,list,ppt_race,ppt_gender,url,first_guess,correct,key_press,responses,image_type,phrase_type,test_part
3557,Welcome to the experiment. Press Continue to begin.,0,html-button-response,0,3564,0.0-0.0,10543,List2B,white,woman,,,,,,,,
31743,,,external-html,1,36382,0.0-1.0,10543,List2B,white,woman,consent.html,,,,,,,
16270,"<p>On the next page, you will see portraits of 8 people and their names.</p><p>Your first task is to take a few minutes to memorise the names of these people.</p><p>You will have to recall their names during the rest of the experiment, so it is</p><p>essential that you try to memorise these people and their names as best as you can.</p><br><p><strong>You will then be tested on your memory of these names and portraits.</strong></p><br><p>The experiment will start after you have completed this memory test.</p><br><p>Ready?</p>",0,html-button-response,2,52657,0.0-2.0,10543,List2B,white,woman,,,,,,,,
103073,"<img src='img/portrait_matrix_list2.jpg' style='width:900px;height:500px;''></img><p>If you have memorised all the portraits and names and are ready to start, press Continue.</p><p><strong>Please note: Your memory of these faces will be tested 4 times during this experiment.</strong></p>",0,html-button-response,3,156737,0.0-3.0-0.0,10543,List2B,white,woman,,,,,,,,
2674,"<img src=""portrait/WM2.jpg""style=""height:400px;""></img>",7,html-button-response,4,160420,0.0-3.0-1.0,10543,List2B,white,woman,,TRUE,7,,,,,
null,CORRECT,,html-keyboard-response,5,161935,0.0-3.0-2.0-0.0,10543,List2B,white,woman,,,,null,,,,
2550,"<img src=""portrait/WW1.jpg""style=""height:400px;""></img>",1,html-button-response,6,164490,0.0-3.0-4.0,10543,List2B,white,woman,,TRUE,1,,,,,
null,CORRECT,,html-keyboard-response,7,165999,0.0-3.0-5.0-0.0,10543,List2B,white,woman,,,,null,,,,
4242,"<img src=""portrait/BM1.jpg""style=""height:400px;""></img>",5,html-button-response,8,170244,0.0-3.0-7.0,10543,List2B,white,woman,,TRUE,4,,,,,
5230,"<img src=""portrait/BM1.jpg""style=""height:400px;""></img>",4,html-button-response,9,176479,0.0-3.0-9.0-0.0,10543,List2B,white,woman,,FALSE,4,,,,,
null,CORRECT,,html-keyboard-response,10,177984,0.0-3.0-9.0-1.0-0.0,10543,List2B,white,woman,,,,null,,,,
1579,"<img src=""portrait/WW2.jpg""style=""height:400px;""></img>",3,html-button-response,11,179567,0.0-3.0-10.0,10543,List2B,white,woman,,TRUE,3,,,,,
null,CORRECT,,html-keyboard-response,12,181073,0.0-3.0-11.0-0.0,10543,List2B,white,woman,,,,null,,,,
2216,"<img src=""portrait/WM1.jpg""style=""height:400px;""></img>",6,html-button-response,13,183293,0.0-3.0-13.0,10543,List2B,white,woman,,TRUE,6,,,,,
null,CORRECT,,html-keyboard-response,14,184799,0.0-3.0-14.0-0.0,10543,List2B,white,woman,,,,null,,,,
1982,"<img src=""portrait/BM2.jpg""style=""height:400px;""></img>",5,html-button-response,15,186786,0.0-3.0-16.0,10543,List2B,white,woman,,TRUE,5,,,,,
null,CORRECT,,html-keyboard-response,16,188292,0.0-3.0-17.0-0.0,10543,List2B,white,woman,,,,null,,,,
2169,"<img src=""portrait/BW2.jpg""style=""height:400px;""></img>",2,html-button-response,17,190466,0.0-3.0-19.0,10543,List2B,white,woman,,TRUE,2,,,,,
null,CORRECT,,html-keyboard-response,18,191972,0.0-3.0-20.0-0.0,10543,List2B,white,woman,,,,null,,,,
3253,"<img src=""portrait/BW1.jpg""style=""height:400px;""></img>",0,html-button-response,19,195228,0.0-3.0-22.0,10543,List2B,white,woman,,TRUE,0,,,,,
null,CORRECT,,html-keyboard-response,20,196733,0.0-3.0-23.0-0.0,10543,List2B,white,woman,,,,null,,,,
1666,<p>You got 7 out of 8 right first time. Press Continue.</p>,0,html-button-response,21,198405,0.0-3.0-25.0,10543,List2B,white,woman,,,,,,,,
2632,"As you did not score 100%, the memory game will repeat. Press Continue.",0,html-button-response,22,202042,0.0-3.0-26.0-0.0,10543,List2B,white,woman,,,,,,,,
16965,"<img src='img/portrait_matrix_list2.jpg' style='width:900px;height:500px;''></img><p>If you have memorised all the portraits and names and are ready to start, press Continue.</p><p><strong>Please note: Your memory of these faces will be tested 4 times during this experiment.</strong></p>",0,html-button-response,23,220013,0.0-3.1-0.1,10543,List2B,white,woman,,,,,,,,
1501,"<img src=""portrait/WM2.jpg""style=""height:400px;""></img>",7,html-button-response,24,222522,0.0-3.1-1.1,10543,List2B,white,woman,,TRUE,7,,,,,
null,CORRECT,,html-keyboard-response,25,224029,0.0-3.1-2.1-0.1,10543,List2B,white,woman,,,,null,,,,
1936,"<img src=""portrait/WW1.jpg""style=""height:400px;""></img>",1,html-button-response,26,225969,0.0-3.1-4.1,10543,List2B,white,woman,,TRUE,1,,,,,
null,CORRECT,,html-keyboard-response,27,227475,0.0-3.1-5.1-0.1,10543,List2B,white,woman,,,,null,,,,
1794,"<img src=""portrait/BM1.jpg""style=""height:400px;""></img>",4,html-button-response,28,229274,0.0-3.1-7.1,10543,List2B,white,woman,,TRUE,4,,,,,
null,CORRECT,,html-keyboard-response,29,230779,0.0-3.1-8.1-0.1,10543,List2B,white,woman,,,,null,,,,
1480,"<img src=""portrait/WW2.jpg""style=""height:400px;""></img>",3,html-button-response,30,232263,0.0-3.1-10.1,10543,List2B,white,woman,,TRUE,3,,,,,
null,CORRECT,,html-keyboard-response,31,233769,0.0-3.1-11.1-0.1,10543,List2B,white,woman,,,,null,,,,
2221,"<img src=""portrait/WM1.jpg""style=""height:400px;""></img>",6,html-button-response,32,235996,0.0-3.1-13.1,10543,List2B,white,woman,,TRUE,6,,,,,
null,CORRECT,,html-keyboard-response,33,237501,0.0-3.1-14.1-0.1,10543,List2B,white,woman,,,,null,,,,
1938,"<img src=""portrait/BM2.jpg""style=""height:400px;""></img>",5,html-button-response,34,239444,0.0-3.1-16.1,10543,List2B,white,woman,,TRUE,5,,,,,
null,CORRECT,,html-keyboard-response,35,240951,0.0-3.1-17.1-0.1,10543,List2B,white,woman,,,,null,,,,
1635,"<img src=""portrait/BW2.jpg""style=""height:400px;""></img>",2,html-button-response,36,242592,0.0-3.1-19.1,10543,List2B,white,woman,,TRUE,2,,,,,
null,CORRECT,,html-keyboard-response,37,244098,0.0-3.1-20.1-0.1,10543,List2B,white,woman,,,,null,,,,
1915,"<img src=""portrait/BW1.jpg""style=""height:400px;""></img>",0,html-button-response,38,246017,0.0-3.1-22.1,10543,List2B,white,woman,,TRUE,0,,,,,
null,CORRECT,,html-keyboard-response,39,247522,0.0-3.1-23.1-0.1,10543,List2B,white,woman,,,,null,,,,
1547,<p>You got 8 out of 8 right first time. Press Continue.</p>,0,html-button-response,40,249074,0.0-3.1-25.1,10543,List2B,white,woman,,,,,,,,
36765,"<p>In this experiment, you will view photographs of the people from the memory game interacting.</p><p>By using the <strong>exact</strong> phrase given <i>after</i> the photograph appears and recalling the correct names of the people in the photographs, form a sentence describing the interaction. You do not need to capitalise names.</p><p>Type your answer in the space provided. Please complete every sentence before moving onto the next trial.</p><p>You will only have a few seconds to memorise each given photograph and phrase before you can respond, so try your best to focus.</p><p>An example is given below. Press 'Continue' when you are ready.</p><img src='img/speaking_example.jpg' style='width:800px;height:460px;''></img>",0,html-button-response,41,286845,0.0-4.0,10543,List2B,white,woman,,,,,,,,
3434,"<p>Before the experiment starts, you will watch two example trials. Press 'Continue'.</p>",0,html-button-response,42,291283,0.0-5.0,10543,List2B,white,woman,,,,,,,,
null,<img src='img/meet_eg.gif' style='height:400px;''></img>,,html-keyboard-response,43,294289,0.0-6.0,10543,List2B,white,woman,,,,null,,,,
null,<p>is meeting</p>,,html-keyboard-response,44,296292,0.0-7.0,10543,List2B,white,woman,,,,null,,,,
2274,<p><b>Answer:</b> jane is meeting ruth</p>,0,html-button-response,45,298569,0.0-8.0,10543,List2B,white,woman,,,,,,,,
null,<img src='img/look_eg.gif' style='height:400px;''></img>,,html-keyboard-response,46,301574,0.0-9.0,10543,List2B,white,woman,,,,null,,,,
null,<p>are looking at each other</p>,,html-keyboard-response,47,303578,0.0-10.0,10543,List2B,white,woman,,,,null,,,,
2763,<p><b>Answer:</b> fred and mike are looking at each other</p>,0,html-button-response,48,306343,0.0-11.0,10543,List2B,white,woman,,,,,,,,
7009,"<p>Ready to start the experiment?</p><br><p><strong>Remember to describe the picture using a full sentence,</strong></p><p><strong>that combines the names of the people with the <i>exact</i> phrase given.</strong></p><p><strong>To receive full payment you must do this correctly.</strong></p><p><strong> You do not need to capitalise names or use punctuation.</strong></p><br><p>Press 'Continue' to begin.</p>",0,html-button-response,49,314358,0.0-12.0,10543,List2B,white,woman,,,,,,,,
null,"<div style=""font-size:60px;"">+</div>",,html-keyboard-response,50,315862,0.0-13.0-0.0,10543,List2B,white,woman,,,,null,,,,
null,"<img src=""stim_listB/kiss4.gif""style=""height:400px;""></stim_listB>",,html-keyboard-response,51,317868,0.0-13.0-1.0,10543,List2B,white,woman,,,,null,,,,
null,are kissing each other,,html-keyboard-response,52,319871,0.0-13.0-2.0,10543,List2B,white,woman,,,,null,,,,
20986,,,survey-text,53,340860,0.0-13.0-3.0,10543,List2B,white,woman,,,,,"{""Q0"":""MIKE AND KATE ARE KISSING EACH OTHER""}","<img src=""stim_listB/kiss4.gif""style=""height:400px;""></stim_listB>",are kissing each other,
null,"<div style=""font-size:60px;"">+</div>",,html-keyboard-response,54,341365,0.0-13.0-0.1,10543,List2B,white,woman,,,,null,,,,
null,"<img src=""stim_listB/flirt6.gif""style=""height:400px;""></stim_listB>",,html-keyboard-response,55,343369,0.0-13.0-1.1,10543,List2B,white,woman,,,,null,,,,
null,are flirting with each other,,html-keyboard-response,56,345373,0.0-13.0-2.1,10543,List2B,white,woman,,,,null,,,,
12041,,,survey-text,57,357418,0.0-13.0-3.1,10543,List2B,white,woman,,,,,"{""Q0"":""DAVE AND FRED ARE FLIRTING WITH each other""}","<img src=""stim_listB/flirt6.gif""style=""height:400px;""></stim_listB>",are flirting with each other,
null,"<div style=""font-size:60px;"">+</div>",,html-keyboard-response,58,357922,0.0-13.0-0.2,10543,List2B,white,woman,,,,null,,,,
null,"<img src=""stim_listB/dance3.gif""style=""height:400px;""></stim_listB>",,html-keyboard-response,59,359939,0.0-13.0-1.2,10543,List2B,white,woman,,,,null,,,,
null,is dancing with,,html-keyboard-response,60,361943,0.0-13.0-2.2,10543,List2B,white,woman,,,,null,,,,
15006,,,survey-text,61,376952,0.0-13.0-3.2,10543,List2B,white,woman,,,,,"{""Q0"":""KATE AND FRED ARE DANCING""}","<img src=""stim_listB/dance3.gif""style=""height:400px;""></stim_listB>",is dancing with,
null,"<div style=""font-size:60px;"">+</div>",,html-keyboard-response,62,377456,0.0-13.0-0.3,10543,List2B,white,woman,,,,null,,,,
null,"<img src=""stim_listB/talk5.gif""style=""height:400px;""></stim_listB>",,html-keyboard-response,63,379461,0.0-13.0-1.3,10543,List2B,white,woman,,,,null,,,,
null,is talking to,,html-keyboard-response,64,381465,0.0-13.0-2.3,10543,List2B,white,woman,,,,null,,,,
7611,,,survey-text,65,389078,0.0-13.0-3.3,10543,List2B,white,woman,,,,,"{""Q0"":""LUKE IS TALKING TO MIKE""}","<img src=""stim_listB/talk5.gif""style=""height:400px;""></stim_listB>",is talking to,
null,"<div style=""font-size:60px;"">+</div>",,html-keyboard-response,66,389584,0.0-13.0-0.4,10543,List2B,white,woman,,,,null,,,,
null,"<img src=""stim_listB/play1.gif""style=""height:400px;""></stim_listB>",,html-keyboard-response,67,391588,0.0-13.0-1.4,10543,List2B,white,woman,,,,null,,,,
null,is playing with,,html-keyboard-response,68,393591,0.0-13.0-2.4,10543,List2B,white,woman,,,,null,,,,
7236,,,survey-text,69,400830,0.0-13.0-3.4,10543,List2B,white,woman,,,,,"{""Q0"":""JANE IS PLAYING WITH DAVE""}","<img src=""stim_listB/play1.gif""style=""height:400px;""></stim_listB>",is playing with,
null,"<div style=""font-size:60px;"">+</div>",,html-keyboard-response,70,401335,0.0-13.0-0.5,10543,List2B,white,woman,,,,null,,,,
null,"<img src=""stim_listB/marry8.gif""style=""height:400px;""></stim_listB>",,html-keyboard-response,71,403340,0.0-13.0-1.5,10543,List2B,white,woman,,,,null,,,,
null,are marrying each other,,html-keyboard-response,72,405343,0.0-13.0-2.5,10543,List2B,white,woman,,,,null,,,,
9603,,,survey-text,73,414949,0.0-13.0-3.5,10543,List2B,white,woman,,,,,"{""Q0"":""RUTH AND KATE ARE MARRYING each other""}","<img src=""stim_listB/marry8.gif""style=""height:400px;""></stim_listB>",are marrying each other,
null,"<div style=""font-size:60px;"">+</div>",,html-keyboard-response,74,415453,0.0-13.0-0.6,10543,List2B,white,woman,,,,null,,,,
null,"<img src=""stim_listB/touch7.gif""style=""height:400px;""></stim_listB>",,html-keyboard-response,75,417457,0.0-13.0-1.6,10543,List2B,white,woman,,,,null,,,,
null,is touching,,html-keyboard-response,76,419460,0.0-13.0-2.6,10543,List2B,white,woman,,,,null,,,,
10889,,,survey-text,77,430352,0.0-13.0-3.6,10543,List2B,white,woman,,,,,"{""Q0"":""KATE IS TOUCHING JANE""}","<img src=""stim_listB/touch7.gif""style=""height:400px;""></stim_listB>",is touching,
null,"<div style=""font-size:60px;"">+</div>",,html-keyboard-response,78,430856,0.0-13.0-0.7,10543,List2B,white,woman,,,,null,,,,
null,"<img src=""stim_listB/argue2.gif""style=""height:400px;""></stim_listB>",,html-keyboard-response,79,432865,0.0-13.0-1.7,10543,List2B,white,woman,,,,null,,,,
null,are arguing with each other,,html-keyboard-response,80,434869,0.0-13.0-2.7,10543,List2B,white,woman,,,,null,,,,
12132,,,survey-text,81,447003,0.0-13.0-3.7,10543,List2B,white,woman,,,,,"{""Q0"":""LUKE AND JANE ARE ARGUING WITH each other""}","<img src=""stim_listB/argue2.gif""style=""height:400px;""></stim_listB>",are arguing with each other,
null,"<div style=""font-size:60px;"">+</div>",,html-keyboard-response,82,447507,0.0-13.0-0.8,10543,List2B,white,woman,,,,null,,,,
null,"<img src=""stim_listB/talk2.gif""style=""height:400px;""></stim_listB>",,html-keyboard-response,83,449515,0.0-13.0-1.8,10543,List2B,white,woman,,,,null,,,,
null,are talking to each other,,html-keyboard-response,84,451517,0.0-13.0-2.8,10543,List2B,white,woman,,,,null,,,,
9347,,,survey-text,85,460866,0.0-13.0-3.8,10543,List2B,white,woman,,,,,"{""Q0"":""DAVE AND RUTH ARE TALKING TO EACH OTHER""}","<img src=""stim_listB/talk2.gif""style=""height:400px;""></stim_listB>",are talking to each other,
null,"<div style=""font-size:60px;"">+</div>",,html-keyboard-response,86,461370,0.0-13.0-0.9,10543,List2B,white,woman,,,,null,,,,
null,"<img src=""stim_listB/fight2.gif""style=""height:400px;""></stim_listB>",,html-keyboard-response,87,463379,0.0-13.0-1.9,10543,List2B,white,woman,,,,null,,,,
null,are fighting each other,,html-keyboard-response,88,465382,0.0-13.0-2.9,10543,List2B,white,woman,,,,null,,,,
10050,,,survey-text,89,475435,0.0-13.0-3.9,10543,List2B,white,woman,,,,,"{""Q0"":""LUKE AND RUTH ARE FIGHTING EACH OTHER""}","<img src=""stim_listB/fight2.gif""style=""height:400px;""></stim_listB>",are fighting each other,
null,"<div style=""font-size:60px;"">+</div>",,html-keyboard-response,90,475939,0.0-13.0-0.10,10543,List2B,white,woman,,,,null,,,,
null,"<img src=""stim_listB/argue5.gif""style=""height:400px;""></stim_listB>",,html-keyboard-response,91,477944,0.0-13.0-1.10,10543,List2B,white,woman,,,,null,,,,
null,is arguing with,,html-keyboard-response,92,479948,0.0-13.0-2.10,10543,List2B,white,woman,,,,null,,,,
8310,,,survey-text,93,488261,0.0-13.0-3.10,10543,List2B,white,woman,,,,,"{""Q0"":""FRED IS ARGUING WITH DAVE""}","<img src=""stim_listB/argue5.gif""style=""height:400px;""></stim_listB>",is arguing with,
null,"<div style=""font-size:60px;"">+</div>",,html-keyboard-response,94,488764,0.0-13.0-0.11,10543,List2B,white,woman,,,,null,,,,
null,"<img src=""stim_listB/shout8.gif""style=""height:400px;""></stim_listB>",,html-keyboard-response,95,490769,0.0-13.0-1.11,10543,List2B,white,woman,,,,null,,,,
null,are shouting at each other,,html-keyboard-response,96,492777,0.0-13.0-2.11,10543,List2B,white,woman,,,,null,,,,
17542,,,survey-text,97,510321,0.0-13.0-3.11,10543,List2B,white,woman,,,,,"{""Q0"":""RUTH AND KATE ARE SHOUTING AT EACH OTHER""}","<img src=""stim_listB/shout8.gif""style=""height:400px;""></stim_listB>",are shouting at each other,
null,"<div style=""font-size:60px;"">+</div>",,html-keyboard-response,98,510824,0.0-13.0-0.12,10543,List2B,white,woman,,,,null,,,,
null,"<img src=""stim_listB/kiss6.gif""style=""height:400px;""></stim_listB>",,html-keyboard-response,99,512830,0.0-13.0-1.12,10543,List2B,white,woman,,,,null,,,,
null,are kissing each other,,html-keyboard-response,100,514835,0.0-13.0-2.12,10543,List2B,white,woman,,,,null,,,,
10166,,,survey-text,101,525003,0.0-13.0-3.12,10543,List2B,white,woman,,,,,"{""Q0"":""MIKE AND DAVE ARE KISSING each other""}","<img src=""stim_listB/kiss6.gif""style=""height:400px;""></stim_listB>",are kissing each other,
null,"<div style=""font-size:60px;"">+</div>",,html-keyboard-response,102,525505,0.0-13.0-0.13,10543,List2B,white,woman,,,,null,,,,
null,"<img src=""stim_listB/marry2.gif""style=""height:400px;""></stim_listB>",,html-keyboard-response,103,527510,0.0-13.0-1.13,10543,List2B,white,woman,,,,null,,,,
null,are marrying each other,,html-keyboard-response,104,529512,0.0-13.0-2.13,10543,List2B,white,woman,,,,null,,,,
8494,,,survey-text,105,538009,0.0-13.0-3.13,10543,List2B,white,woman,,,,,"{""Q0"":""LUKE AND JANE ARE MARRYING EACH OTHER""}","<img src=""stim_listB/marry2.gif""style=""height:400px;""></stim_listB>",are marrying each other,
null,"<div style=""font-size:60px;"">+</div>",,html-keyboard-response,106,538514,0.0-13.0-0.14,10543,List2B,white,woman,,,,null,,,,
null,"<img src=""stim_listB/argue6.gif""style=""height:400px;""></stim_listB>",,html-keyboard-response,107,540520,0.0-13.0-1.14,10543,List2B,white,woman,,,,null,,,,
null,are arguing with each other,,html-keyboard-response,108,542522,0.0-13.0-2.14,10543,List2B,white,woman,,,,null,,,,
12263,,,survey-text,109,554787,0.0-13.0-3.14,10543,List2B,white,woman,,,,,"{""Q0"":""LUKE AND MIKE ARE ARGUING WITH EACH OTHER""}","<img src=""stim_listB/argue6.gif""style=""height:400px;""></stim_listB>",are arguing with each other,
null,"<div style=""font-size:60px;"">+</div>",,html-keyboard-response,110,555290,0.0-13.0-0.15,10543,List2B,white,woman,,,,null,,,,
null,"<img src=""stim_listB/marry3.gif""style=""height:400px;""></stim_listB>",,html-keyboard-response,111,557299,0.0-13.0-1.15,10543,List2B,white,woman,,,,null,,,,
null,is marrying,,html-keyboard-response,112,559302,0.0-13.0-2.15,10543,List2B,white,woman,,,,null,,,,
6753,,,survey-text,113,566057,0.0-13.0-3.15,10543,List2B,white,woman,,,,,"{""Q0"":""BETH IS MARRYING MIKE""}","<img src=""stim_listB/marry3.gif""style=""height:400px;""></stim_listB>",is marrying,
null,"<div style=""font-size:60px;"">+</div>",,html-keyboard-response,114,566562,0.0-13.0-0.16,10543,List2B,white,woman,,,,null,,,,
null,"<img src=""stim_listB/shout3.gif""style=""height:400px;""></stim_listB>",,html-keyboard-response,115,568567,0.0-13.0-1.16,10543,List2B,white,woman,,,,null,,,,
null,is shouting at,,html-keyboard-response,116,570570,0.0-13.0-2.16,10543,List2B,white,woman,,,,null,,,,
6911,,,survey-text,117,577484,0.0-13.0-3.16,10543,List2B,white,woman,,,,,"{""Q0"":""BETH IS SHOUTING AT FRED""}","<img src=""stim_listB/shout3.gif""style=""height:400px;""></stim_listB>",is shouting at,
null,"<div style=""font-size:60px;"">+</div>",,html-keyboard-response,118,577987,0.0-13.0-0.17,10543,List2B,white,woman,,,,null,,,,
null,"<img src=""stim_listB/argue4.gif""style=""height:400px;""></stim_listB>",,html-keyboard-response,119,579996,0.0-13.0-1.17,10543,List2B,white,woman,,,,null,,,,
null,are arguing with each other,,html-keyboard-response,120,582000,0.0-13.0-2.17,10543,List2B,white,woman,,,,null,,,,
9569,,,survey-text,121,591571,0.0-13.0-3.17,10543,List2B,white,woman,,,,,"{""Q0"":""KATE AND FRED ARE ARGUING WITH EACH OTHER""}","<img src=""stim_listB/argue4.gif""style=""height:400px;""></stim_listB>",are arguing with each other,
null,"<div style=""font-size:60px;"">+</div>",,html-keyboard-response,122,592075,0.0-13.0-0.18,10543,List2B,white,woman,,,,null,,,,
null,"<img src=""stim_listB/fight6.gif""style=""height:400px;""></stim_listB>",,html-keyboard-response,123,594081,0.0-13.0-1.18,10543,List2B,white,woman,,,,null,,,,
null,are fighting each other,,html-keyboard-response,124,596084,0.0-13.0-2.18,10543,List2B,white,woman,,,,null,,,,
9226,,,survey-text,125,605312,0.0-13.0-3.18,10543,List2B,white,woman,,,,,"{""Q0"":""LUKE AND FRED ARE FIGHTING EACH OTHER""}","<img src=""stim_listB/fight6.gif""style=""height:400px;""></stim_listB>",are fighting each other,
null,"<div style=""font-size:60px;"">+</div>",,html-keyboard-response,126,605815,0.0-13.0-0.19,10543,List2B,white,woman,,,,null,,,,
null,"<img src=""stim_listB/marry5.gif""style=""height:400px;""></stim_listB>",,html-keyboard-response,127,607825,0.0-13.0-1.19,10543,List2B,white,woman,,,,null,,,,
null,is marrying,,html-keyboard-response,128,609830,0.0-13.0-2.19,10543,List2B,white,woman,,,,null,,,,
6973,,,survey-text,129,616806,0.0-13.0-3.19,10543,List2B,white,woman,,,,,"{""Q0"":""FRED IS MARRYING DAVE""}","<img src=""stim_listB/marry5.gif""style=""height:400px;""></stim_listB>",is marrying,
6758,"<img src='img/portrait_matrix_list2.jpg' style='width:900px;height:500px;''></img><p>If you have memorised all the portraits and names and are ready to start, press Continue.</p><p><strong>Please note: Your memory of these faces will be tested 4 times during this experiment.</strong></p>",0,html-button-response,130,623567,0.0-14.0-0.0,10543,List2B,white,woman,,,,,,,,
2660,"<img src=""portrait/WM2.jpg""style=""height:400px;""></img>",7,html-button-response,131,627235,0.0-14.0-1.0,10543,List2B,white,woman,,TRUE,7,,,,,
null,CORRECT,,html-keyboard-response,132,628743,0.0-14.0-2.0-0.0,10543,List2B,white,woman,,,,null,,,,
1402,"<img src=""portrait/WW2.jpg""style=""height:400px;""></img>",3,html-button-response,133,630148,0.0-14.0-4.0,10543,List2B,white,woman,,TRUE,3,,,,,
null,CORRECT,,html-keyboard-response,134,631652,0.0-14.0-5.0-0.0,10543,List2B,white,woman,,,,null,,,,
1881,"<img src=""portrait/WM1.jpg""style=""height:400px;""></img>",6,html-button-response,135,633536,0.0-14.0-7.0,10543,List2B,white,woman,,TRUE,6,,,,,
null,CORRECT,,html-keyboard-response,136,635042,0.0-14.0-8.0-0.0,10543,List2B,white,woman,,,,null,,,,
1639,"<img src=""portrait/BM1.jpg""style=""height:400px;""></img>",4,html-button-response,137,636685,0.0-14.0-10.0,10543,List2B,white,woman,,TRUE,4,,,,,
null,CORRECT,,html-keyboard-response,138,638190,0.0-14.0-11.0-0.0,10543,List2B,white,woman,,,,null,,,,
1796,"<img src=""portrait/BW1.jpg""style=""height:400px;""></img>",0,html-button-response,139,639989,0.0-14.0-13.0,10543,List2B,white,woman,,TRUE,0,,,,,
null,CORRECT,,html-keyboard-response,140,641495,0.0-14.0-14.0-0.0,10543,List2B,white,woman,,,,null,,,,
1292,"<img src=""portrait/BW2.jpg""style=""height:400px;""></img>",2,html-button-response,141,642792,0.0-14.0-16.0,10543,List2B,white,woman,,TRUE,2,,,,,
null,CORRECT,,html-keyboard-response,142,644298,0.0-14.0-17.0-0.0,10543,List2B,white,woman,,,,null,,,,
2042,"<img src=""portrait/WW1.jpg""style=""height:400px;""></img>",1,html-button-response,143,646344,0.0-14.0-19.0,10543,List2B,white,woman,,TRUE,1,,,,,
null,CORRECT,,html-keyboard-response,144,647850,0.0-14.0-20.0-0.0,10543,List2B,white,woman,,,,null,,,,
1983,"<img src=""portrait/BM2.jpg""style=""height:400px;""></img>",5,html-button-response,145,649838,0.0-14.0-22.0,10543,List2B,white,woman,,TRUE,5,,,,,
null,CORRECT,,html-keyboard-response,146,651344,0.0-14.0-23.0-0.0,10543,List2B,white,woman,,,,null,,,,
1314,<p>You got 8 out of 8 right first time. Press Continue.</p>,0,html-button-response,147,652662,0.0-14.0-25.0,10543,List2B,white,woman,,,,,,,,
null,"<div style=""font-size:60px;"">+</div>",,html-keyboard-response,148,654168,0.0-15.0-0.0,10543,List2B,white,woman,,,,null,,,,
null,"<img src=""stim_listB/talk6.gif""style=""height:400px;""></stim_listB>",,html-keyboard-response,149,656173,0.0-15.0-1.0,10543,List2B,white,woman,,,,null,,,,
null,are talking to each other,,html-keyboard-response,150,658176,0.0-15.0-2.0,10543,List2B,white,woman,,,,null,,,,
11500,,,survey-text,151,669679,0.0-15.0-3.0,10543,List2B,white,woman,,,,,"{""Q0"":""DAVE AND FRED ARE TALKING TO EACH OTHER""}","<img src=""stim_listB/talk6.gif""style=""height:400px;""></stim_listB>",are talking to each other,
null,"<div style=""font-size:60px;"">+</div>",,html-keyboard-response,152,670183,0.0-15.0-0.1,10543,List2B,white,woman,,,,null,,,,
null,"<img src=""stim_listB/argue3.gif""style=""height:400px;""></stim_listB>",,html-keyboard-response,153,672188,0.0-15.0-1.1,10543,List2B,white,woman,,,,null,,,,
null,is arguing with,,html-keyboard-response,154,674190,0.0-15.0-2.1,10543,List2B,white,woman,,,,null,,,,
6995,,,survey-text,155,681187,0.0-15.0-3.1,10543,List2B,white,woman,,,,,"{""Q0"":""BETH IS ARGUING WITH MIKE""}","<img src=""stim_listB/argue3.gif""style=""height:400px;""></stim_listB>",is arguing with,
null,"<div style=""font-size:60px;"">+</div>",,html-keyboard-response,156,681690,0.0-15.0-0.2,10543,List2B,white,woman,,,,null,,,,
null,"<img src=""stim_listB/shout2.gif""style=""height:400px;""></stim_listB>",,html-keyboard-response,157,683699,0.0-15.0-1.2,10543,List2B,white,woman,,,,null,,,,
null,are shouting at each other,,html-keyboard-response,158,685703,0.0-15.0-2.2,10543,List2B,white,woman,,,,null,,,,
14301,,,survey-text,159,700007,0.0-15.0-3.2,10543,List2B,white,woman,,,,,"{""Q0"":""DAVE AND JANE ARE SHOUTING AT EACH OTHER""}","<img src=""stim_listB/shout2.gif""style=""height:400px;""></stim_listB>",are shouting at each other,
null,"<div style=""font-size:60px;"">+</div>",,html-keyboard-response,160,700512,0.0-15.0-0.3,10543,List2B,white,woman,,,,null,,,,
null,"<img src=""stim_listB/play3.gif""style=""height:400px;""></stim_listB>",,html-keyboard-response,161,702518,0.0-15.0-1.3,10543,List2B,white,woman,,,,null,,,,
null,is playing with,,html-keyboard-response,162,704521,0.0-15.0-2.3,10543,List2B,white,woman,,,,null,,,,
7481,,,survey-text,163,712004,0.0-15.0-3.3,10543,List2B,white,woman,,,,,"{""Q0"":""KATE IS PLAYING WITH MIKE""}","<img src=""stim_listB/play3.gif""style=""height:400px;""></stim_listB>",is playing with,
null,"<div style=""font-size:60px;"">+</div>",,html-keyboard-response,164,712507,0.0-15.0-0.4,10543,List2B,white,woman,,,,null,,,,
null,"<img src=""stim_listB/talk3.gif""style=""height:400px;""></stim_listB>",,html-keyboard-response,165,714512,0.0-15.0-1.4,10543,List2B,white,woman,,,,null,,,,
null,is talking to,,html-keyboard-response,166,716516,0.0-15.0-2.4,10543,List2B,white,woman,,,,null,,,,
6597,,,survey-text,167,723115,0.0-15.0-3.4,10543,List2B,white,woman,,,,,"{""Q0"":""KATE IS TALKING TO FRED""}","<img src=""stim_listB/talk3.gif""style=""height:400px;""></stim_listB>",is talking to,
null,"<div style=""font-size:60px;"">+</div>",,html-keyboard-response,168,723618,0.0-15.0-0.5,10543,List2B,white,woman,,,,null,,,,
null,"<img src=""stim_listB/dance7.gif""style=""height:400px;""></stim_listB>",,html-keyboard-response,169,725631,0.0-15.0-1.5,10543,List2B,white,woman,,,,null,,,,
null,is dancing with,,html-keyboard-response,170,727634,0.0-15.0-2.5,10543,List2B,white,woman,,,,null,,,,
12756,,,survey-text,171,740393,0.0-15.0-3.5,10543,List2B,white,woman,,,,,"{""Q0"":""RUTH IS DANCING WITH KATE""}","<img src=""stim_listB/dance7.gif""style=""height:400px;""></stim_listB>",is dancing with,
null,"<div style=""font-size:60px;"">+</div>",,html-keyboard-response,172,740897,0.0-15.0-0.6,10543,List2B,white,woman,,,,null,,,,
null,"<img src=""stim_listB/dance1.gif""style=""height:400px;""></stim_listB>",,html-keyboard-response,173,742903,0.0-15.0-1.6,10543,List2B,white,woman,,,,null,,,,
null,is dancing with,,html-keyboard-response,174,744906,0.0-15.0-2.6,10543,List2B,white,woman,,,,null,,,,
7301,,,survey-text,175,752209,0.0-15.0-3.6,10543,List2B,white,woman,,,,,"{""Q0"":""JANE IS DANCING WITH LUKE""}","<img src=""stim_listB/dance1.gif""style=""height:400px;""></stim_listB>",is dancing with,
null,"<div style=""font-size:60px;"">+</div>",,html-keyboard-response,176,752714,0.0-15.0-0.7,10543,List2B,white,woman,,,,null,,,,
null,"<img src=""stim_listB/touch8.gif""style=""height:400px;""></stim_listB>",,html-keyboard-response,177,754718,0.0-15.0-1.7,10543,List2B,white,woman,,,,null,,,,
null,are touching each other,,html-keyboard-response,178,756722,0.0-15.0-2.7,10543,List2B,white,woman,,,,null,,,,
11371,,,survey-text,179,768096,0.0-15.0-3.7,10543,List2B,white,woman,,,,,"{""Q0"":""RUTH AND BETH ARE TOUCHING EACH OTHER""}","<img src=""stim_listB/touch8.gif""style=""height:400px;""></stim_listB>",are touching each other,
null,"<div style=""font-size:60px;"">+</div>",,html-keyboard-response,180,768599,0.0-15.0-0.8,10543,List2B,white,woman,,,,null,,,,
null,"<img src=""stim_listB/flirt3.gif""style=""height:400px;""></stim_listB>",,html-keyboard-response,181,770606,0.0-15.0-1.8,10543,List2B,white,woman,,,,null,,,,
null,is flirting with,,html-keyboard-response,182,772608,0.0-15.0-2.8,10543,List2B,white,woman,,,,null,,,,
8099,,,survey-text,183,780709,0.0-15.0-3.8,10543,List2B,white,woman,,,,,"{""Q0"":""KATE IS FLIRTING WITH FRED""}","<img src=""stim_listB/flirt3.gif""style=""height:400px;""></stim_listB>",is flirting with,
null,"<div style=""font-size:60px;"">+</div>",,html-keyboard-response,184,781213,0.0-15.0-0.9,10543,List2B,white,woman,,,,null,,,,
null,"<img src=""stim_listB/shout1.gif""style=""height:400px;""></stim_listB>",,html-keyboard-response,185,783222,0.0-15.0-1.9,10543,List2B,white,woman,,,,null,,,,
null,is shouting at,,html-keyboard-response,186,785225,0.0-15.0-2.9,10543,List2B,white,woman,,,,null,,,,
7733,,,survey-text,187,792961,0.0-15.0-3.9,10543,List2B,white,woman,,,,,"{""Q0"":""RUTH IS SHOUTING AT LUKE""}","<img src=""stim_listB/shout1.gif""style=""height:400px;""></stim_listB>",is shouting at,
null,"<div style=""font-size:60px;"">+</div>",,html-keyboard-response,188,793467,0.0-15.0-0.10,10543,List2B,white,woman,,,,null,,,,
null,"<img src=""stim_listB/talk1.gif""style=""height:400px;""></stim_listB>",,html-keyboard-response,189,795471,0.0-15.0-1.10,10543,List2B,white,woman,,,,null,,,,
null,is talking to,,html-keyboard-response,190,797474,0.0-15.0-2.10,10543,List2B,white,woman,,,,null,,,,
7232,,,survey-text,191,804709,0.0-15.0-3.10,10543,List2B,white,woman,,,,,"{""Q0"":""JANE IS TALKING TO LUKE""}","<img src=""stim_listB/talk1.gif""style=""height:400px;""></stim_listB>",is talking to,
null,"<div style=""font-size:60px;"">+</div>",,html-keyboard-response,192,805213,0.0-15.0-0.11,10543,List2B,white,woman,,,,null,,,,
null,"<img src=""stim_listB/dance5.gif""style=""height:400px;""></stim_listB>",,html-keyboard-response,193,807222,0.0-15.0-1.11,10543,List2B,white,woman,,,,null,,,,
null,is dancing with,,html-keyboard-response,194,809225,0.0-15.0-2.11,10543,List2B,white,woman,,,,null,,,,
8115,,,survey-text,195,817344,0.0-15.0-3.11,10543,List2B,white,woman,,,,,"{""Q0"":""MIKE IS DANCING WITH LUKE""}","<img src=""stim_listB/dance5.gif""style=""height:400px;""></stim_listB>",is dancing with,
null,"<div style=""font-size:60px;"">+</div>",,html-keyboard-response,196,817847,0.0-15.0-0.12,10543,List2B,white,woman,,,,null,,,,
null,"<img src=""stim_listB/marry7.gif""style=""height:400px;""></stim_listB>",,html-keyboard-response,197,819852,0.0-15.0-1.12,10543,List2B,white,woman,,,,null,,,,
null,is marrying,,html-keyboard-response,198,821855,0.0-15.0-2.12,10543,List2B,white,woman,,,,null,,,,
5964,,,survey-text,199,827822,0.0-15.0-3.12,10543,List2B,white,woman,,,,,"{""Q0"":""BETH IS MARRYING KATE""}","<img src=""stim_listB/marry7.gif""style=""height:400px;""></stim_listB>",is marrying,
null,"<div style=""font-size:60px;"">+</div>",,html-keyboard-response,200,828326,0.0-15.0-0.13,10543,List2B,white,woman,,,,null,,,,
null,"<img src=""stim_listB/shout6.gif""style=""height:400px;""></stim_listB>",,html-keyboard-response,201,830335,0.0-15.0-1.13,10543,List2B,white,woman,,,,null,,,,
null,are shouting at each other,,html-keyboard-response,202,832338,0.0-15.0-2.13,10543,List2B,white,woman,,,,null,,,,
12943,,,survey-text,203,845284,0.0-15.0-3.13,10543,List2B,white,woman,,,,,"{""Q0"":""FRED AND MIKE ARE SHOUTING AT EACH OTHER""}","<img src=""stim_listB/shout6.gif""style=""height:400px;""></stim_listB>",are shouting at each other,
null,"<div style=""font-size:60px;"">+</div>",,html-keyboard-response,204,845789,0.0-15.0-0.14,10543,List2B,white,woman,,,,null,,,,
null,"<img src=""stim_listB/kiss8.gif""style=""height:400px;""></stim_listB>",,html-keyboard-response,205,847799,0.0-15.0-1.14,10543,List2B,white,woman,,,,null,,,,
null,are kissing each other,,html-keyboard-response,206,849802,0.0-15.0-2.14,10543,List2B,white,woman,,,,null,,,,
9008,,,survey-text,207,858813,0.0-15.0-3.14,10543,List2B,white,woman,,,,,"{""Q0"":""KATE AND JANE ARE KISSING EACH OTHER""}","<img src=""stim_listB/kiss8.gif""style=""height:400px;""></stim_listB>",are kissing each other,
null,"<div style=""font-size:60px;"">+</div>",,html-keyboard-response,208,859317,0.0-15.0-0.15,10543,List2B,white,woman,,,,null,,,,
null,"<img src=""stim_listB/fight5.gif""style=""height:400px;""></stim_listB>",,html-keyboard-response,209,861322,0.0-15.0-1.15,10543,List2B,white,woman,,,,null,,,,
null,is fighting,,html-keyboard-response,210,863326,0.0-15.0-2.15,10543,List2B,white,woman,,,,null,,,,
11340,,,survey-text,211,874670,0.0-15.0-3.15,10543,List2B,white,woman,,,,,"{""Q0"":""MIKE IS FIGHTING DAVE""}","<img src=""stim_listB/fight5.gif""style=""height:400px;""></stim_listB>",is fighting,
null,"<div style=""font-size:60px;"">+</div>",,html-keyboard-response,212,875173,0.0-15.0-0.16,10543,List2B,white,woman,,,,null,,,,
null,"<img src=""stim_listB/marry6.gif""style=""height:400px;""></stim_listB>",,html-keyboard-response,213,877178,0.0-15.0-1.16,10543,List2B,white,woman,,,,null,,,,
null,are marrying each other,,html-keyboard-response,214,879180,0.0-15.0-2.16,10543,List2B,white,woman,,,,null,,,,
9313,,,survey-text,215,888498,0.0-15.0-3.16,10543,List2B,white,woman,,,,,"{""Q0"":""LUKE AND MIKE ARE MARRYING EACH OTHER""}","<img src=""stim_listB/marry6.gif""style=""height:400px;""></stim_listB>",are marrying each other,
null,"<div style=""font-size:60px;"">+</div>",,html-keyboard-response,216,889001,0.0-15.0-0.17,10543,List2B,white,woman,,,,null,,,,
null,"<img src=""stim_listB/shout7.gif""style=""height:400px;""></stim_listB>",,html-keyboard-response,217,891007,0.0-15.0-1.17,10543,List2B,white,woman,,,,null,,,,
null,is shouting at,,html-keyboard-response,218,893010,0.0-15.0-2.17,10543,List2B,white,woman,,,,null,,,,
6918,,,survey-text,219,899930,0.0-15.0-3.17,10543,List2B,white,woman,,,,,"{""Q0"":""BETH IS SHOUTING AT RUTH""}","<img src=""stim_listB/shout7.gif""style=""height:400px;""></stim_listB>",is shouting at,
null,"<div style=""font-size:60px;"">+</div>",,html-keyboard-response,220,900433,0.0-15.0-0.18,10543,List2B,white,woman,,,,null,,,,
null,"<img src=""stim_listB/flirt4.gif""style=""height:400px;""></stim_listB>",,html-keyboard-response,221,902440,0.0-15.0-1.18,10543,List2B,white,woman,,,,null,,,,
null,are flirting with each other,,html-keyboard-response,222,904443,0.0-15.0-2.18,10543,List2B,white,woman,,,,null,,,,
11813,,,survey-text,223,916259,0.0-15.0-3.18,10543,List2B,white,woman,,,,,"{""Q0"":""BETH AND MIKE ARE FLIRTING WITH EACH OTHER""}","<img src=""stim_listB/flirt4.gif""style=""height:400px;""></stim_listB>",are flirting with each other,
null,"<div style=""font-size:60px;"">+</div>",,html-keyboard-response,224,916763,0.0-15.0-0.19,10543,List2B,white,woman,,,,null,,,,
null,"<img src=""stim_listB/dance4.gif""style=""height:400px;""></stim_listB>",,html-keyboard-response,225,918769,0.0-15.0-1.19,10543,List2B,white,woman,,,,null,,,,
null,are dancing with each other,,html-keyboard-response,226,920773,0.0-15.0-2.19,10543,List2B,white,woman,,,,null,,,,
10769,,,survey-text,227,931545,0.0-15.0-3.19,10543,List2B,white,woman,,,,,"{""Q0"":""BETH AND MIKE ARE DANCING WITH EACH OTHER""}","<img src=""stim_listB/dance4.gif""style=""height:400px;""></stim_listB>",are dancing with each other,
2308,"<img src='img/portrait_matrix_list2.jpg' style='width:900px;height:500px;''></img><p>If you have memorised all the portraits and names and are ready to start, press Continue.</p><p><strong>Please note: Your memory of these faces will be tested 4 times during this experiment.</strong></p>",0,html-button-response,228,933859,0.0-16.0-0.0,10543,List2B,white,woman,,,,,,,,
1269,"<img src=""portrait/WW1.jpg""style=""height:400px;""></img>",1,html-button-response,229,936135,0.0-16.0-1.0,10543,List2B,white,woman,,TRUE,1,,,,,
null,CORRECT,,html-keyboard-response,230,937639,0.0-16.0-2.0-0.0,10543,List2B,white,woman,,,,null,,,,
1859,"<img src=""portrait/WW2.jpg""style=""height:400px;""></img>",3,html-button-response,231,939507,0.0-16.0-4.0,10543,List2B,white,woman,,TRUE,3,,,,,
null,CORRECT,,html-keyboard-response,232,941013,0.0-16.0-5.0-0.0,10543,List2B,white,woman,,,,null,,,,
1720,"<img src=""portrait/BW2.jpg""style=""height:400px;""></img>",2,html-button-response,233,942737,0.0-16.0-7.0,10543,List2B,white,woman,,TRUE,2,,,,,
null,CORRECT,,html-keyboard-response,234,944242,0.0-16.0-8.0-0.0,10543,List2B,white,woman,,,,null,,,,
1991,"<img src=""portrait/WM1.jpg""style=""height:400px;""></img>",6,html-button-response,235,946236,0.0-16.0-10.0,10543,List2B,white,woman,,TRUE,6,,,,,
null,CORRECT,,html-keyboard-response,236,947741,0.0-16.0-11.0-0.0,10543,List2B,white,woman,,,,null,,,,
1227,"<img src=""portrait/BM2.jpg""style=""height:400px;""></img>",5,html-button-response,237,948971,0.0-16.0-13.0,10543,List2B,white,woman,,TRUE,5,,,,,
null,CORRECT,,html-keyboard-response,238,950475,0.0-16.0-14.0-0.0,10543,List2B,white,woman,,,,null,,,,
1414,"<img src=""portrait/BM1.jpg""style=""height:400px;""></img>",4,html-button-response,239,951892,0.0-16.0-16.0,10543,List2B,white,woman,,TRUE,4,,,,,
null,CORRECT,,html-keyboard-response,240,953398,0.0-16.0-17.0-0.0,10543,List2B,white,woman,,,,null,,,,
1187,"<img src=""portrait/WM2.jpg""style=""height:400px;""></img>",7,html-button-response,241,954590,0.0-16.0-19.0,10543,List2B,white,woman,,TRUE,7,,,,,
null,CORRECT,,html-keyboard-response,242,956096,0.0-16.0-20.0-0.0,10543,List2B,white,woman,,,,null,,,,
1622,"<img src=""portrait/BW1.jpg""style=""height:400px;""></img>",0,html-button-response,243,957720,0.0-16.0-22.0,10543,List2B,white,woman,,TRUE,0,,,,,
null,CORRECT,,html-keyboard-response,244,959226,0.0-16.0-23.0-0.0,10543,List2B,white,woman,,,,null,,,,
1194,<p>You got 8 out of 8 right first time. Press Continue.</p>,0,html-button-response,245,960423,0.0-16.0-25.0,10543,List2B,white,woman,,,,,,,,
null,"<div style=""font-size:60px;"">+</div>",,html-keyboard-response,246,961930,0.0-17.0-0.0,10543,List2B,white,woman,,,,null,,,,
null,"<img src=""stim_listB/fight7.gif""style=""height:400px;""></stim_listB>",,html-keyboard-response,247,963935,0.0-17.0-1.0,10543,List2B,white,woman,,,,null,,,,
null,is fighting,,html-keyboard-response,248,965939,0.0-17.0-2.0,10543,List2B,white,woman,,,,null,,,,
11301,,,survey-text,249,977243,0.0-17.0-3.0,10543,List2B,white,woman,,,,,"{""Q0"":""KATE IS FIGHTING JANE""}","<img src=""stim_listB/fight7.gif""style=""height:400px;""></stim_listB>",is fighting,
null,"<div style=""font-size:60px;"">+</div>",,html-keyboard-response,250,977748,0.0-17.0-0.1,10543,List2B,white,woman,,,,null,,,,
null,"<img src=""stim_listB/kiss7.gif""style=""height:400px;""></stim_listB>",,html-keyboard-response,251,979754,0.0-17.0-1.1,10543,List2B,white,woman,,,,null,,,,
null,is kissing,,html-keyboard-response,252,981757,0.0-17.0-2.1,10543,List2B,white,woman,,,,null,,,,
6270,,,survey-text,253,988029,0.0-17.0-3.1,10543,List2B,white,woman,,,,,"{""Q0"":""RUTH IS KISSING BETH""}","<img src=""stim_listB/kiss7.gif""style=""height:400px;""></stim_listB>",is kissing,
null,"<div style=""font-size:60px;"">+</div>",,html-keyboard-response,254,988532,0.0-17.0-0.2,10543,List2B,white,woman,,,,null,,,,
null,"<img src=""stim_listB/marry1.gif""style=""height:400px;""></stim_listB>",,html-keyboard-response,255,990539,0.0-17.0-1.2,10543,List2B,white,woman,,,,null,,,,
null,is marrying,,html-keyboard-response,256,992545,0.0-17.0-2.2,10543,List2B,white,woman,,,,null,,,,
6441,,,survey-text,257,998989,0.0-17.0-3.2,10543,List2B,white,woman,,,,,"{""Q0"":""RUTH IS MARRYING DAVE""}","<img src=""stim_listB/marry1.gif""style=""height:400px;""></stim_listB>",is marrying,
null,"<div style=""font-size:60px;"">+</div>",,html-keyboard-response,258,999492,0.0-17.0-0.3,10543,List2B,white,woman,,,,null,,,,
null,"<img src=""stim_listB/shout4.gif""style=""height:400px;""></stim_listB>",,html-keyboard-response,259,1001497,0.0-17.0-1.3,10543,List2B,white,woman,,,,null,,,,
null,are shouting at each other,,html-keyboard-response,260,1003501,0.0-17.0-2.3,10543,List2B,white,woman,,,,null,,,,
12671,,,survey-text,261,1016174,0.0-17.0-3.3,10543,List2B,white,woman,,,,,"{""Q0"":""MIKE AND KATE ARE SHOUTING AT EACH OTHER""}","<img src=""stim_listB/shout4.gif""style=""height:400px;""></stim_listB>",are shouting at each other,
null,"<div style=""font-size:60px;"">+</div>",,html-keyboard-response,262,1016677,0.0-17.0-0.4,10543,List2B,white,woman,,,,null,,,,
null,"<img src=""stim_listB/marry4.gif""style=""height:400px;""></stim_listB>",,html-keyboard-response,263,1018679,0.0-17.0-1.4,10543,List2B,white,woman,,,,null,,,,
null,are marrying each other,,html-keyboard-response,264,1020682,0.0-17.0-2.4,10543,List2B,white,woman,,,,null,,,,
8813,,,survey-text,265,1029499,0.0-17.0-3.4,10543,List2B,white,woman,,,,,"{""Q0"":""FRED AND KATE ARE MARRYING EACH OTHER""}","<img src=""stim_listB/marry4.gif""style=""height:400px;""></stim_listB>",are marrying each other,
null,"<div style=""font-size:60px;"">+</div>",,html-keyboard-response,266,1030002,0.0-17.0-0.5,10543,List2B,white,woman,,,,null,,,,
null,"<img src=""stim_listB/play4.gif""style=""height:400px;""></stim_listB>",,html-keyboard-response,267,1032007,0.0-17.0-1.5,10543,List2B,white,woman,,,,null,,,,
null,are playing with each other,,html-keyboard-response,268,1034009,0.0-17.0-2.5,10543,List2B,white,woman,,,,null,,,,
10328,,,survey-text,269,1044341,0.0-17.0-3.5,10543,List2B,white,woman,,,,,"{""Q0"":""FRED AND BETH ARE PLAYING WITH EACH OTHER""}","<img src=""stim_listB/play4.gif""style=""height:400px;""></stim_listB>",are playing with each other,
null,"<div style=""font-size:60px;"">+</div>",,html-keyboard-response,270,1044844,0.0-17.0-0.6,10543,List2B,white,woman,,,,null,,,,
null,"<img src=""stim_listB/talk7.gif""style=""height:400px;""></stim_listB>",,html-keyboard-response,271,1046849,0.0-17.0-1.6,10543,List2B,white,woman,,,,null,,,,
null,is talking to,,html-keyboard-response,272,1048852,0.0-17.0-2.6,10543,List2B,white,woman,,,,null,,,,
7137,,,survey-text,273,1055991,0.0-17.0-3.6,10543,List2B,white,woman,,,,,"{""Q0"":""RUTH IS TALKING TO KATE""}","<img src=""stim_listB/talk7.gif""style=""height:400px;""></stim_listB>",is talking to,
null,"<div style=""font-size:60px;"">+</div>",,html-keyboard-response,274,1056494,0.0-17.0-0.7,10543,List2B,white,woman,,,,null,,,,
null,"<img src=""stim_listB/touch5.gif""style=""height:400px;""></stim_listB>",,html-keyboard-response,275,1058510,0.0-17.0-1.7,10543,List2B,white,woman,,,,null,,,,
null,is touching,,html-keyboard-response,276,1060513,0.0-17.0-2.7,10543,List2B,white,woman,,,,null,,,,
6156,,,survey-text,277,1066672,0.0-17.0-3.7,10543,List2B,white,woman,,,,,"{""Q0"":""MIKE IS TOUCHING DAVE""}","<img src=""stim_listB/touch5.gif""style=""height:400px;""></stim_listB>",is touching,
null,"<div style=""font-size:60px;"">+</div>",,html-keyboard-response,278,1067175,0.0-17.0-0.8,10543,List2B,white,woman,,,,null,,,,
null,"<img src=""stim_listB/play5.gif""style=""height:400px;""></stim_listB>",,html-keyboard-response,279,1069180,0.0-17.0-1.8,10543,List2B,white,woman,,,,null,,,,
null,is playing with,,html-keyboard-response,280,1071183,0.0-17.0-2.8,10543,List2B,white,woman,,,,null,,,,
7024,,,survey-text,281,1078209,0.0-17.0-3.8,10543,List2B,white,woman,,,,,"{""Q0"":""MIKE IS PLAYING WITH DAVE""}","<img src=""stim_listB/play5.gif""style=""height:400px;""></stim_listB>",is playing with,
null,"<div style=""font-size:60px;"">+</div>",,html-keyboard-response,282,1078714,0.0-17.0-0.9,10543,List2B,white,woman,,,,null,,,,
null,"<img src=""stim_listB/flirt7.gif""style=""height:400px;""></stim_listB>",,html-keyboard-response,283,1080720,0.0-17.0-1.9,10543,List2B,white,woman,,,,null,,,,
null,is flirting with,,html-keyboard-response,284,1082723,0.0-17.0-2.9,10543,List2B,white,woman,,,,null,,,,
7269,,,survey-text,285,1089994,0.0-17.0-3.9,10543,List2B,white,woman,,,,,"{""Q0"":""RUTH IS FLIRTING WITH KATE""}","<img src=""stim_listB/flirt7.gif""style=""height:400px;""></stim_listB>",is flirting with,
null,"<div style=""font-size:60px;"">+</div>",,html-keyboard-response,286,1090498,0.0-17.0-0.10,10543,List2B,white,woman,,,,null,,,,
null,"<img src=""stim_listB/play8.gif""style=""height:400px;""></stim_listB>",,html-keyboard-response,287,1092503,0.0-17.0-1.10,10543,List2B,white,woman,,,,null,,,,
null,are playing with each other,,html-keyboard-response,288,1094506,0.0-17.0-2.10,10543,List2B,white,woman,,,,null,,,,
13565,,,survey-text,289,1108073,0.0-17.0-3.10,10543,List2B,white,woman,,,,,"{""Q0"":""RUTH AND BETH ARE PLAYING WITH EACH OTHER""}","<img src=""stim_listB/play8.gif""style=""height:400px;""></stim_listB>",are playing with each other,
null,"<div style=""font-size:60px;"">+</div>",,html-keyboard-response,290,1108577,0.0-17.0-0.11,10543,List2B,white,woman,,,,null,,,,
null,"<img src=""stim_listB/fight8.gif""style=""height:400px;""></stim_listB>",,html-keyboard-response,291,1110583,0.0-17.0-1.11,10543,List2B,white,woman,,,,null,,,,
null,are fighting each other,,html-keyboard-response,292,1112587,0.0-17.0-2.11,10543,List2B,white,woman,,,,null,,,,
10229,,,survey-text,293,1122818,0.0-17.0-3.11,10543,List2B,white,woman,,,,,"{""Q0"":""RUTH AND BETH ARE FIGHTING EACH OTHER""}","<img src=""stim_listB/fight8.gif""style=""height:400px;""></stim_listB>",are fighting each other,
null,"<div style=""font-size:60px;"">+</div>",,html-keyboard-response,294,1123322,0.0-17.0-0.12,10543,List2B,white,woman,,,,null,,,,
null,"<img src=""stim_listB/flirt8.gif""style=""height:400px;""></stim_listB>",,html-keyboard-response,295,1125330,0.0-17.0-1.12,10543,List2B,white,woman,,,,null,,,,
null,are flirting with each other,,html-keyboard-response,296,1127333,0.0-17.0-2.12,10543,List2B,white,woman,,,,null,,,,
10205,,,survey-text,297,1137541,0.0-17.0-3.12,10543,List2B,white,woman,,,,,"{""Q0"":""JANE AND BETH ARE FLIRTING WITH EACH OTHER""}","<img src=""stim_listB/flirt8.gif""style=""height:400px;""></stim_listB>",are flirting with each other,
null,"<div style=""font-size:60px;"">+</div>",,html-keyboard-response,298,1138045,0.0-17.0-0.13,10543,List2B,white,woman,,,,null,,,,
null,"<img src=""stim_listB/talk4.gif""style=""height:400px;""></stim_listB>",,html-keyboard-response,299,1140050,0.0-17.0-1.13,10543,List2B,white,woman,,,,null,,,,
null,are talking to each other,,html-keyboard-response,300,1142052,0.0-17.0-2.13,10543,List2B,white,woman,,,,null,,,,
10236,,,survey-text,301,1152290,0.0-17.0-3.13,10543,List2B,white,woman,,,,,"{""Q0"":""MIKE AND BETH ARE TALKING TO EACH OTHER""}","<img src=""stim_listB/talk4.gif""style=""height:400px;""></stim_listB>",are talking to each other,
null,"<div style=""font-size:60px;"">+</div>",,html-keyboard-response,302,1152794,0.0-17.0-0.14,10543,List2B,white,woman,,,,null,,,,
null,"<img src=""stim_listB/flirt2.gif""style=""height:400px;""></stim_listB>",,html-keyboard-response,303,1154799,0.0-17.0-1.14,10543,List2B,white,woman,,,,null,,,,
null,are flirting with each other,,html-keyboard-response,304,1156802,0.0-17.0-2.14,10543,List2B,white,woman,,,,null,,,,
12040,,,survey-text,305,1168844,0.0-17.0-3.14,10543,List2B,white,woman,,,,,"{""Q0"":""DAVE AND RUTH ARE FLIRTING WITH EACH OTHER""}","<img src=""stim_listB/flirt2.gif""style=""height:400px;""></stim_listB>",are flirting with each other,
null,"<div style=""font-size:60px;"">+</div>",,html-keyboard-response,306,1169348,0.0-17.0-0.15,10543,List2B,white,woman,,,,null,,,,
null,"<img src=""stim_listB/touch3.gif""style=""height:400px;""></stim_listB>",,html-keyboard-response,307,1171354,0.0-17.0-1.15,10543,List2B,white,woman,,,,null,,,,
null,is touching,,html-keyboard-response,308,1173357,0.0-17.0-2.15,10543,List2B,white,woman,,,,null,,,,
8830,,,survey-text,309,1182191,0.0-17.0-3.15,10543,List2B,white,woman,,,,,"{""Q0"":""KATE IS TOUCHING MIKE""}","<img src=""stim_listB/touch3.gif""style=""height:400px;""></stim_listB>",is touching,
null,"<div style=""font-size:60px;"">+</div>",,html-keyboard-response,310,1182696,0.0-17.0-0.16,10543,List2B,white,woman,,,,null,,,,
null,"<img src=""stim_listB/dance2.gif""style=""height:400px;""></stim_listB>",,html-keyboard-response,311,1184706,0.0-17.0-1.16,10543,List2B,white,woman,,,,null,,,,
null,are dancing with each other,,html-keyboard-response,312,1186709,0.0-17.0-2.16,10543,List2B,white,woman,,,,null,,,,
11169,,,survey-text,313,1197881,0.0-17.0-3.16,10543,List2B,white,woman,,,,,"{""Q0"":""DAVE AND RUTH ARE DANCING WITH EACH OTHER""}","<img src=""stim_listB/dance2.gif""style=""height:400px;""></stim_listB>",are dancing with each other,
null,"<div style=""font-size:60px;"">+</div>",,html-keyboard-response,314,1198385,0.0-17.0-0.17,10543,List2B,white,woman,,,,null,,,,
null,"<img src=""stim_listB/flirt5.gif""style=""height:400px;""></stim_listB>",,html-keyboard-response,315,1200389,0.0-17.0-1.17,10543,List2B,white,woman,,,,null,,,,
null,is flirting with,,html-keyboard-response,316,1202393,0.0-17.0-2.17,10543,List2B,white,woman,,,,null,,,,
10228,,,survey-text,317,1212623,0.0-17.0-3.17,10543,List2B,white,woman,,,,,"{""Q0"":""LUKE IS FLIRTING WITH MIKE""}","<img src=""stim_listB/flirt5.gif""style=""height:400px;""></stim_listB>",is flirting with,
null,"<div style=""font-size:60px;"">+</div>",,html-keyboard-response,318,1213127,0.0-17.0-0.18,10543,List2B,white,woman,,,,null,,,,
null,"<img src=""stim_listB/touch6.gif""style=""height:400px;""></stim_listB>",,html-keyboard-response,319,1215136,0.0-17.0-1.18,10543,List2B,white,woman,,,,null,,,,
null,are touching each other,,html-keyboard-response,320,1217138,0.0-17.0-2.18,10543,List2B,white,woman,,,,null,,,,
10797,,,survey-text,321,1227937,0.0-17.0-3.18,10543,List2B,white,woman,,,,,"{""Q0"":""LUKE AND FRED ARE TOUCHING EACH OTHER""}","<img src=""stim_listB/touch6.gif""style=""height:400px;""></stim_listB>",are touching each other,
null,"<div style=""font-size:60px;"">+</div>",,html-keyboard-response,322,1228440,0.0-17.0-0.19,10543,List2B,white,woman,,,,null,,,,
null,"<img src=""stim_listB/argue7.gif""style=""height:400px;""></stim_listB>",,html-keyboard-response,323,1230444,0.0-17.0-1.19,10543,List2B,white,woman,,,,null,,,,
null,is arguing with,,html-keyboard-response,324,1232450,0.0-17.0-2.19,10543,List2B,white,woman,,,,null,,,,
8126,,,survey-text,325,1240578,0.0-17.0-3.19,10543,List2B,white,woman,,,,,"{""Q0"":""BETH IS ARGUING WITH JANE""}","<img src=""stim_listB/argue7.gif""style=""height:400px;""></stim_listB>",is arguing with,
2873,"<img src='img/portrait_matrix_list2.jpg' style='width:900px;height:500px;''></img><p>If you have memorised all the portraits and names and are ready to start, press Continue.</p><p><strong>Please note: Your memory of these faces will be tested 4 times during this experiment.</strong></p>",0,html-button-response,326,1243454,0.0-18.0-0.0,10543,List2B,white,woman,,,,,,,,
1495,"<img src=""portrait/BM1.jpg""style=""height:400px;""></img>",4,html-button-response,327,1245956,0.0-18.0-1.0,10543,List2B,white,woman,,TRUE,4,,,,,
null,CORRECT,,html-keyboard-response,328,1247462,0.0-18.0-2.0-0.0,10543,List2B,white,woman,,,,null,,,,
1952,"<img src=""portrait/WW2.jpg""style=""height:400px;""></img>",3,html-button-response,329,1249418,0.0-18.0-4.0,10543,List2B,white,woman,,TRUE,3,,,,,
null,CORRECT,,html-keyboard-response,330,1250928,0.0-18.0-5.0-0.0,10543,List2B,white,woman,,,,null,,,,
2557,"<img src=""portrait/BW2.jpg""style=""height:400px;""></img>",2,html-button-response,331,1253491,0.0-18.0-7.0,10543,List2B,white,woman,,TRUE,2,,,,,
null,CORRECT,,html-keyboard-response,332,1254996,0.0-18.0-8.0-0.0,10543,List2B,white,woman,,,,null,,,,
1395,"<img src=""portrait/BW1.jpg""style=""height:400px;""></img>",0,html-button-response,333,1256395,0.0-18.0-10.0,10543,List2B,white,woman,,TRUE,0,,,,,
null,CORRECT,,html-keyboard-response,334,1257900,0.0-18.0-11.0-0.0,10543,List2B,white,woman,,,,null,,,,
1442,"<img src=""portrait/WW1.jpg""style=""height:400px;""></img>",1,html-button-response,335,1259347,0.0-18.0-13.0,10543,List2B,white,woman,,TRUE,1,,,,,
null,CORRECT,,html-keyboard-response,336,1260852,0.0-18.0-14.0-0.0,10543,List2B,white,woman,,,,null,,,,
1726,"<img src=""portrait/BM2.jpg""style=""height:400px;""></img>",5,html-button-response,337,1262584,0.0-18.0-16.0,10543,List2B,white,woman,,TRUE,5,,,,,
null,CORRECT,,html-keyboard-response,338,1264088,0.0-18.0-17.0-0.0,10543,List2B,white,woman,,,,null,,,,
1442,"<img src=""portrait/WM1.jpg""style=""height:400px;""></img>",6,html-button-response,339,1265535,0.0-18.0-19.0,10543,List2B,white,woman,,TRUE,6,,,,,
null,CORRECT,,html-keyboard-response,340,1267040,0.0-18.0-20.0-0.0,10543,List2B,white,woman,,,,null,,,,
1051,"<img src=""portrait/WM2.jpg""style=""height:400px;""></img>",7,html-button-response,341,1268096,0.0-18.0-22.0,10543,List2B,white,woman,,TRUE,7,,,,,
null,CORRECT,,html-keyboard-response,342,1269602,0.0-18.0-23.0-0.0,10543,List2B,white,woman,,,,null,,,,
1270,<p>You got 8 out of 8 right first time. Press Continue.</p>,0,html-button-response,343,1270876,0.0-18.0-25.0,10543,List2B,white,woman,,,,,,,,
null,"<div style=""font-size:60px;"">+</div>",,html-keyboard-response,344,1272383,0.0-19.0-0.0,10543,List2B,white,woman,,,,null,,,,
null,"<img src=""stim_listB/touch4.gif""style=""height:400px;""></stim_listB>",,html-keyboard-response,345,1274387,0.0-19.0-1.0,10543,List2B,white,woman,,,,null,,,,
null,are touching each other,,html-keyboard-response,346,1276393,0.0-19.0-2.0,10543,List2B,white,woman,,,,null,,,,
11648,,,survey-text,347,1288043,0.0-19.0-3.0,10543,List2B,white,woman,,,,,"{""Q0"":""FRED AND BETH ARE TOUCHING EACH OTHER""}","<img src=""stim_listB/touch4.gif""style=""height:400px;""></stim_listB>",are touching each other,
null,"<div style=""font-size:60px;"">+</div>",,html-keyboard-response,348,1288547,0.0-19.0-0.1,10543,List2B,white,woman,,,,null,,,,
null,"<img src=""stim_listB/flirt1.gif""style=""height:400px;""></stim_listB>",,html-keyboard-response,349,1290555,0.0-19.0-1.1,10543,List2B,white,woman,,,,null,,,,
null,is flirting with,,html-keyboard-response,350,1292558,0.0-19.0-2.1,10543,List2B,white,woman,,,,null,,,,
11659,,,survey-text,351,1304220,0.0-19.0-3.1,10543,List2B,white,woman,,,,,"{""Q0"":""JANE IS FLIRTING WITH LUKE""}","<img src=""stim_listB/flirt1.gif""style=""height:400px;""></stim_listB>",is flirting with,
null,"<div style=""font-size:60px;"">+</div>",,html-keyboard-response,352,1304724,0.0-19.0-0.2,10543,List2B,white,woman,,,,null,,,,
null,"<img src=""stim_listB/talk8.gif""style=""height:400px;""></stim_listB>",,html-keyboard-response,353,1306729,0.0-19.0-1.2,10543,List2B,white,woman,,,,null,,,,
null,are talking to each other,,html-keyboard-response,354,1308732,0.0-19.0-2.2,10543,List2B,white,woman,,,,null,,,,
8916,,,survey-text,355,1317650,0.0-19.0-3.2,10543,List2B,white,woman,,,,,"{""Q0"":""BETH AND JANE ARE TALKING TO EACH OTHER""}","<img src=""stim_listB/talk8.gif""style=""height:400px;""></stim_listB>",are talking to each other,
null,"<div style=""font-size:60px;"">+</div>",,html-keyboard-response,356,1318154,0.0-19.0-0.3,10543,List2B,white,woman,,,,null,,,,
null,"<img src=""stim_listB/play2.gif""style=""height:400px;""></stim_listB>",,html-keyboard-response,357,1320159,0.0-19.0-1.3,10543,List2B,white,woman,,,,null,,,,
null,are playing with each other,,html-keyboard-response,358,1322163,0.0-19.0-2.3,10543,List2B,white,woman,,,,null,,,,
11550,,,survey-text,359,1333715,0.0-19.0-3.3,10543,List2B,white,woman,,,,,"{""Q0"":""LUKE AND RUTH ARE PLAYING WITH EACH OTHER""}","<img src=""stim_listB/play2.gif""style=""height:400px;""></stim_listB>",are playing with each other,
null,"<div style=""font-size:60px;"">+</div>",,html-keyboard-response,360,1334218,0.0-19.0-0.4,10543,List2B,white,woman,,,,null,,,,
null,"<img src=""stim_listB/touch2.gif""style=""height:400px;""></stim_listB>",,html-keyboard-response,361,1336223,0.0-19.0-1.4,10543,List2B,white,woman,,,,null,,,,
null,are touching each other,,html-keyboard-response,362,1338227,0.0-19.0-2.4,10543,List2B,white,woman,,,,null,,,,
10303,,,survey-text,363,1348533,0.0-19.0-3.4,10543,List2B,white,woman,,,,,"{""Q0"":""RUTH AND LUKE ARE TOUCHING EACH OTHER""}","<img src=""stim_listB/touch2.gif""style=""height:400px;""></stim_listB>",are touching each other,
null,"<div style=""font-size:60px;"">+</div>",,html-keyboard-response,364,1349037,0.0-19.0-0.5,10543,List2B,white,woman,,,,null,,,,
null,"<img src=""stim_listB/argue1.gif""style=""height:400px;""></stim_listB>",,html-keyboard-response,365,1351041,0.0-19.0-1.5,10543,List2B,white,woman,,,,null,,,,
null,is arguing with,,html-keyboard-response,366,1353043,0.0-19.0-2.5,10543,List2B,white,woman,,,,null,,,,
8556,,,survey-text,367,1361602,0.0-19.0-3.5,10543,List2B,white,woman,,,,,"{""Q0"":""DAVE IS ARGUING WITH RUTH""}","<img src=""stim_listB/argue1.gif""style=""height:400px;""></stim_listB>",is arguing with,
null,"<div style=""font-size:60px;"">+</div>",,html-keyboard-response,368,1362106,0.0-19.0-0.6,10543,List2B,white,woman,,,,null,,,,
null,"<img src=""stim_listB/dance8.gif""style=""height:400px;""></stim_listB>",,html-keyboard-response,369,1364114,0.0-19.0-1.6,10543,List2B,white,woman,,,,null,,,,
null,are dancing with each other,,html-keyboard-response,370,1366119,0.0-19.0-2.6,10543,List2B,white,woman,,,,null,,,,
10164,,,survey-text,371,1376285,0.0-19.0-3.6,10543,List2B,white,woman,,,,,"{""Q0"":""BETH AND JANE ARE DANCING WITH EACH OTHER""}","<img src=""stim_listB/dance8.gif""style=""height:400px;""></stim_listB>",are dancing with each other,
null,"<div style=""font-size:60px;"">+</div>",,html-keyboard-response,372,1376788,0.0-19.0-0.7,10543,List2B,white,woman,,,,null,,,,
null,"<img src=""stim_listB/kiss5.gif""style=""height:400px;""></stim_listB>",,html-keyboard-response,373,1378794,0.0-19.0-1.7,10543,List2B,white,woman,,,,null,,,,
null,is kissing,,html-keyboard-response,374,1380802,0.0-19.0-2.7,10543,List2B,white,woman,,,,null,,,,
7859,,,survey-text,375,1388663,0.0-19.0-3.7,10543,List2B,white,woman,,,,,"{""Q0"":""FRED IS KISSING LUKE""}","<img src=""stim_listB/kiss5.gif""style=""height:400px;""></stim_listB>",is kissing,
null,"<div style=""font-size:60px;"">+</div>",,html-keyboard-response,376,1389166,0.0-19.0-0.8,10543,List2B,white,woman,,,,null,,,,
null,"<img src=""stim_listB/play7.gif""style=""height:400px;""></stim_listB>",,html-keyboard-response,377,1391172,0.0-19.0-1.8,10543,List2B,white,woman,,,,null,,,,
null,is playing with,,html-keyboard-response,378,1393176,0.0-19.0-2.8,10543,List2B,white,woman,,,,null,,,,
11407,,,survey-text,379,1404586,0.0-19.0-3.8,10543,List2B,white,woman,,,,,"{""Q0"":""KATE IS PLAYING WITH JANE""}","<img src=""stim_listB/play7.gif""style=""height:400px;""></stim_listB>",is playing with,
null,"<div style=""font-size:60px;"">+</div>",,html-keyboard-response,380,1405090,0.0-19.0-0.9,10543,List2B,white,woman,,,,null,,,,
null,"<img src=""stim_listB/fight1.gif""style=""height:400px;""></stim_listB>",,html-keyboard-response,381,1407097,0.0-19.0-1.9,10543,List2B,white,woman,,,,null,,,,
null,is fighting,,html-keyboard-response,382,1409099,0.0-19.0-2.9,10543,List2B,white,woman,,,,null,,,,
5924,,,survey-text,383,1415025,0.0-19.0-3.9,10543,List2B,white,woman,,,,,"{""Q0"":""JANE IS FIGHTING DAVE""}","<img src=""stim_listB/fight1.gif""style=""height:400px;""></stim_listB>",is fighting,
null,"<div style=""font-size:60px;"">+</div>",,html-keyboard-response,384,1415529,0.0-19.0-0.10,10543,List2B,white,woman,,,,null,,,,
null,"<img src=""stim_listB/kiss1.gif""style=""height:400px;""></stim_listB>",,html-keyboard-response,385,1417534,0.0-19.0-1.10,10543,List2B,white,woman,,,,null,,,,
null,is kissing,,html-keyboard-response,386,1419540,0.0-19.0-2.10,10543,List2B,white,woman,,,,null,,,,
6861,,,survey-text,387,1426403,0.0-19.0-3.10,10543,List2B,white,woman,,,,,"{""Q0"":""RUTH IS KISSING LUKE""}","<img src=""stim_listB/kiss1.gif""style=""height:400px;""></stim_listB>",is kissing,
null,"<div style=""font-size:60px;"">+</div>",,html-keyboard-response,388,1426906,0.0-19.0-0.11,10543,List2B,white,woman,,,,null,,,,
null,"<img src=""stim_listB/kiss2.gif""style=""height:400px;""></stim_listB>",,html-keyboard-response,389,1428911,0.0-19.0-1.11,10543,List2B,white,woman,,,,null,,,,
null,are kissing each other,,html-keyboard-response,390,1430915,0.0-19.0-2.11,10543,List2B,white,woman,,,,null,,,,
9267,,,survey-text,391,1440184,0.0-19.0-3.11,10543,List2B,white,woman,,,,,"{""Q0"":""JANE AND DAVE ARE KISSING EACH OTHER""}","<img src=""stim_listB/kiss2.gif""style=""height:400px;""></stim_listB>",are kissing each other,
null,"<div style=""font-size:60px;"">+</div>",,html-keyboard-response,392,1440689,0.0-19.0-0.12,10543,List2B,white,woman,,,,null,,,,
null,"<img src=""stim_listB/argue8.gif""style=""height:400px;""></stim_listB>",,html-keyboard-response,393,1442694,0.0-19.0-1.12,10543,List2B,white,woman,,,,null,,,,
null,are arguing with each other,,html-keyboard-response,394,1444697,0.0-19.0-2.12,10543,List2B,white,woman,,,,null,,,,
13706,,,survey-text,395,1458406,0.0-19.0-3.12,10543,List2B,white,woman,,,,,"{""Q0"":""RUTH AND KATE ARE ARGUING WITH EACH OTHER""}","<img src=""stim_listB/argue8.gif""style=""height:400px;""></stim_listB>",are arguing with each other,
null,"<div style=""font-size:60px;"">+</div>",,html-keyboard-response,396,1458910,0.0-19.0-0.13,10543,List2B,white,woman,,,,null,,,,
null,"<img src=""stim_listB/touch1.gif""style=""height:400px;""></stim_listB>",,html-keyboard-response,397,1460917,0.0-19.0-1.13,10543,List2B,white,woman,,,,null,,,,
null,is touching,,html-keyboard-response,398,1462919,0.0-19.0-2.13,10543,List2B,white,woman,,,,null,,,,
6187,,,survey-text,399,1469109,0.0-19.0-3.13,10543,List2B,white,woman,,,,,"{""Q0"":""JANE IS TOUCHING DAVE""}","<img src=""stim_listB/touch1.gif""style=""height:400px;""></stim_listB>",is touching,
null,"<div style=""font-size:60px;"">+</div>",,html-keyboard-response,400,1469612,0.0-19.0-0.14,10543,List2B,white,woman,,,,null,,,,
null,"<img src=""stim_listB/fight4.gif""style=""height:400px;""></stim_listB>",,html-keyboard-response,401,1471618,0.0-19.0-1.14,10543,List2B,white,woman,,,,null,,,,
null,are fighting each other,,html-keyboard-response,402,1473621,0.0-19.0-2.14,10543,List2B,white,woman,,,,null,,,,
9633,,,survey-text,403,1483257,0.0-19.0-3.14,10543,List2B,white,woman,,,,,"{""Q0"":""FRED AND BETH ARE FIGHTING EACH OTHER""}","<img src=""stim_listB/fight4.gif""style=""height:400px;""></stim_listB>",are fighting each other,
null,"<div style=""font-size:60px;"">+</div>",,html-keyboard-response,404,1483761,0.0-19.0-0.15,10543,List2B,white,woman,,,,null,,,,
null,"<img src=""stim_listB/fight3.gif""style=""height:400px;""></stim_listB>",,html-keyboard-response,405,1485766,0.0-19.0-1.15,10543,List2B,white,woman,,,,null,,,,
null,is fighting,,html-keyboard-response,406,1487770,0.0-19.0-2.15,10543,List2B,white,woman,,,,null,,,,
6623,,,survey-text,407,1494395,0.0-19.0-3.15,10543,List2B,white,woman,,,,,"{""Q0"":""KATE IS FIGHTING MIKE""}","<img src=""stim_listB/fight3.gif""style=""height:400px;""></stim_listB>",is fighting,
null,"<div style=""font-size:60px;"">+</div>",,html-keyboard-response,408,1494898,0.0-19.0-0.16,10543,List2B,white,woman,,,,null,,,,
null,"<img src=""stim_listB/kiss3.gif""style=""height:400px;""></stim_listB>",,html-keyboard-response,409,1496903,0.0-19.0-1.16,10543,List2B,white,woman,,,,null,,,,
null,is kissing,,html-keyboard-response,410,1498913,0.0-19.0-2.16,10543,List2B,white,woman,,,,null,,,,
6106,,,survey-text,411,1505022,0.0-19.0-3.16,10543,List2B,white,woman,,,,,"{""Q0"":""FRED IS KISSING BETH""}","<img src=""stim_listB/kiss3.gif""style=""height:400px;""></stim_listB>",is kissing,
null,"<div style=""font-size:60px;"">+</div>",,html-keyboard-response,412,1505525,0.0-19.0-0.17,10543,List2B,white,woman,,,,null,,,,
null,"<img src=""stim_listB/play6.gif""style=""height:400px;""></stim_listB>",,html-keyboard-response,413,1507530,0.0-19.0-1.17,10543,List2B,white,woman,,,,null,,,,
null,are playing with each other,,html-keyboard-response,414,1509533,0.0-19.0-2.17,10543,List2B,white,woman,,,,null,,,,
10131,,,survey-text,415,1519666,0.0-19.0-3.17,10543,List2B,white,woman,,,,,"{""Q0"":""FRED AND LUKE ARE PLAYING WITH EACH OTHER""}","<img src=""stim_listB/play6.gif""style=""height:400px;""></stim_listB>",are playing with each other,
null,"<div style=""font-size:60px;"">+</div>",,html-keyboard-response,416,1520169,0.0-19.0-0.18,10543,List2B,white,woman,,,,null,,,,
null,"<img src=""stim_listB/dance6.gif""style=""height:400px;""></stim_listB>",,html-keyboard-response,417,1522181,0.0-19.0-1.18,10543,List2B,white,woman,,,,null,,,,
null,are dancing with each other,,html-keyboard-response,418,1524183,0.0-19.0-2.18,10543,List2B,white,woman,,,,null,,,,
11162,,,survey-text,419,1535349,0.0-19.0-3.18,10543,List2B,white,woman,,,,,"{""Q0"":""DAVE AND FRED ARE DANCING WITH EACH OTHER""}","<img src=""stim_listB/dance6.gif""style=""height:400px;""></stim_listB>",are dancing with each other,
null,"<div style=""font-size:60px;"">+</div>",,html-keyboard-response,420,1535852,0.0-19.0-0.19,10543,List2B,white,woman,,,,null,,,,
null,"<img src=""stim_listB/shout5.gif""style=""height:400px;""></stim_listB>",,html-keyboard-response,421,1537862,0.0-19.0-1.19,10543,List2B,white,woman,,,,null,,,,
null,is shouting at,,html-keyboard-response,422,1539865,0.0-19.0-2.19,10543,List2B,white,woman,,,,null,,,,
7550,,,survey-text,423,1547418,0.0-19.0-3.19,10543,List2B,white,woman,,,,,"{""Q0"":""FRED IS SHOUTING AT LUKE""}","<img src=""stim_listB/shout5.gif""style=""height:400px;""></stim_listB>",is shouting at,
2677,<p>Thank you for completing that task.</p><p>The final part of this session is a short questionnaire.</p><p>Press Continue.</p>,0,html-button-response,424,1550099,0.0-20.0,10543,List2B,white,woman,,,,,,,,
55908,,,survey-text,425,1607015,0.0-21.0,10543,List2B,white,woman,,,,,"{""Q0"":""33"",""Q1"":""ENGLISH"",""Q2"":""ENGLISH"",""Q3"":""ENGLAND, UK"",""Q4"":""CAUCASIAN"",""Q5"":""FEMALE""}",,,demographics
7505,,,survey-likert,426,1614526,0.0-22.0,10543,List2B,white,woman,,,,,"{""Q0"":4}",,,likert_ESS
15927,,,survey-likert,427,1630458,0.0-23.0,10543,List2B,white,woman,,,,,"{""Q0"":4}",,,likert_NSSAL_Q1
3306,,,survey-likert,428,1633770,0.0-24.0,10543,List2B,white,woman,,,,,"{""Q0"":4}",,,likert_NSSAL_Q2
4688,,,survey-likert,429,1638463,0.0-25.0,10543,List2B,white,woman,,,,,"{""Q0"":4}",,,likert_CGRS_Q1
5178,,,survey-likert,430,1643645,0.0-26.0,10543,List2B,white,woman,,,,,"{""Q0"":4}",,,likert_CGRS_Q2
3179,,,survey-likert,431,1646828,0.0-27.0,10543,List2B,white,woman,,,,,"{""Q0"":4}",,,likert_CGRS_Q3
6205,,,survey-text,432,1653038,0.0-28.0,10543,List2B,white,woman,,,,,"{""Q0"":""ccc""}",,,worker_id
30298,,,external-html,433,1683423,0.0-29.0,10543,List2B,white,woman,debrief.html,,,,,,,
