rt,stimulus,button_pressed,trial_type,trial_index,time_elapsed,internal_node_id,subject,list,ppt_race,ppt_gender,url,first_guess,correct,key_press,responses,image_type,phrase_type,test_part
2870,Welcome to the experiment. Press Continue to begin.,0,html-button-response,0,2877,0.0-0.0,10793,List2A,white,man,,,,,,,,
48256,,,external-html,1,52505,0.0-1.0,10793,List2A,white,man,consent.html,,,,,,,
10435,"<p>On the next page, you will see portraits of 8 people and their names.</p><p>Your first task is to take a few minutes to memorise the names of these people.</p><p>You will have to recall their names during the rest of the experiment, so it is</p><p>essential that you try to memorise these people and their names as best as you can.</p><br><p><strong>You will then be tested on your memory of these names and portraits.</strong></p><br><p>The experiment will start after you have completed this memory test.</p><br><p>Ready?</p>",0,html-button-response,2,62943,0.0-2.0,10793,List2A,white,man,,,,,,,,
141472,"<img src='img/portrait_matrix_list2.jpg' style='width:900px;height:500px;''></img><p>If you have memorised all the portraits and names and are ready to start, press Continue.</p><p><strong>Please note: Your memory of these faces will be tested 4 times during this experiment.</strong></p>",0,html-button-response,3,205422,0.0-3.0-0.0,10793,List2A,white,man,,,,,,,,
8696,"<img src=""portrait/WM2.jpg""style=""height:400px;""></img>",7,html-button-response,4,215127,0.0-3.0-1.0,10793,List2A,white,man,,TRUE,7,,,,,
null,CORRECT,,html-keyboard-response,5,216659,0.0-3.0-2.0-0.0,10793,List2A,white,man,,,,null,,,,
2188,"<img src=""portrait/BM1.jpg""style=""height:400px;""></img>",4,html-button-response,6,218850,0.0-3.0-4.0,10793,List2A,white,man,,TRUE,4,,,,,
null,CORRECT,,html-keyboard-response,7,220362,0.0-3.0-5.0-0.0,10793,List2A,white,man,,,,null,,,,
2447,"<img src=""portrait/WM1.jpg""style=""height:400px;""></img>",6,html-button-response,8,222811,0.0-3.0-7.0,10793,List2A,white,man,,TRUE,6,,,,,
null,CORRECT,,html-keyboard-response,9,224323,0.0-3.0-8.0-0.0,10793,List2A,white,man,,,,null,,,,
1696,"<img src=""portrait/WW2.jpg""style=""height:400px;""></img>",3,html-button-response,10,226020,0.0-3.0-10.0,10793,List2A,white,man,,TRUE,3,,,,,
null,CORRECT,,html-keyboard-response,11,227524,0.0-3.0-11.0-0.0,10793,List2A,white,man,,,,null,,,,
2708,"<img src=""portrait/BW1.jpg""style=""height:400px;""></img>",0,html-button-response,12,230233,0.0-3.0-13.0,10793,List2A,white,man,,TRUE,0,,,,,
null,CORRECT,,html-keyboard-response,13,231741,0.0-3.0-14.0-0.0,10793,List2A,white,man,,,,null,,,,
3417,"<img src=""portrait/BM2.jpg""style=""height:400px;""></img>",5,html-button-response,14,235160,0.0-3.0-16.0,10793,List2A,white,man,,TRUE,5,,,,,
null,CORRECT,,html-keyboard-response,15,236672,0.0-3.0-17.0-0.0,10793,List2A,white,man,,,,null,,,,
5017,"<img src=""portrait/WW1.jpg""style=""height:400px;""></img>",1,html-button-response,16,241691,0.0-3.0-19.0,10793,List2A,white,man,,TRUE,1,,,,,
null,CORRECT,,html-keyboard-response,17,243203,0.0-3.0-20.0-0.0,10793,List2A,white,man,,,,null,,,,
11624,"<img src=""portrait/BW2.jpg""style=""height:400px;""></img>",2,html-button-response,18,254829,0.0-3.0-22.0,10793,List2A,white,man,,TRUE,2,,,,,
null,CORRECT,,html-keyboard-response,19,256339,0.0-3.0-23.0-0.0,10793,List2A,white,man,,,,null,,,,
1827,<p>You got 8 out of 8 right first time. Press Continue.</p>,0,html-button-response,20,258168,0.0-3.0-25.0,10793,List2A,white,man,,,,,,,,
18008,"<p>In this experiment, you will view photographs of the people from the memory game interacting.</p><p>By using the <strong>exact</strong> phrase given <i>after</i> the photograph appears and recalling the correct names of the people in the photographs, form a sentence describing the interaction. You do not need to capitalise names.</p><p>Type your answer in the space provided. Please complete every sentence before moving onto the next trial.</p><p>You will only have a few seconds to memorise each given photograph and phrase before you can respond, so try your best to focus.</p><p>An example is given below. Press 'Continue' when you are ready.</p><img src='img/speaking_example.jpg' style='width:800px;height:460px;''></img>",0,html-button-response,21,277181,0.0-4.0,10793,List2A,white,man,,,,,,,,
2217,"<p>Before the experiment starts, you will watch two example trials. Press 'Continue'.</p>",0,html-button-response,22,280405,0.0-5.0,10793,List2A,white,man,,,,,,,,
null,<img src='img/meet_eg.gif' style='height:400px;''></img>,,html-keyboard-response,23,283408,0.0-6.0,10793,List2A,white,man,,,,null,,,,
null,<p>is meeting</p>,,html-keyboard-response,24,285411,0.0-7.0,10793,List2A,white,man,,,,null,,,,
2589,<p><b>Answer:</b> jane is meeting ruth</p>,0,html-button-response,25,288002,0.0-8.0,10793,List2A,white,man,,,,,,,,
null,<img src='img/look_eg.gif' style='height:400px;''></img>,,html-keyboard-response,26,291007,0.0-9.0,10793,List2A,white,man,,,,null,,,,
null,<p>are looking at each other</p>,,html-keyboard-response,27,293009,0.0-10.0,10793,List2A,white,man,,,,null,,,,
1642,<p><b>Answer:</b> fred and mike are looking at each other</p>,0,html-button-response,28,294653,0.0-11.0,10793,List2A,white,man,,,,,,,,
6327,"<p>Ready to start the experiment?</p><br><p><strong>Remember to describe the picture using a full sentence,</strong></p><p><strong>that combines the names of the people with the <i>exact</i> phrase given.</strong></p><p><strong>To receive full payment you must do this correctly.</strong></p><p><strong> You do not need to capitalise names or use punctuation.</strong></p><br><p>Press 'Continue' to begin.</p>",0,html-button-response,29,301983,0.0-12.0,10793,List2A,white,man,,,,,,,,
null,"<div style=""font-size:60px;"">+</div>",,html-keyboard-response,30,303491,0.0-13.0-0.0,10793,List2A,white,man,,,,null,,,,
null,"<img src=""stim_listA/dance6.gif""style=""height:400px;""></stim_listA>",,html-keyboard-response,31,305503,0.0-13.0-1.0,10793,List2A,white,man,,,,null,,,,
null,are dancing with each other,,html-keyboard-response,32,307505,0.0-13.0-2.0,10793,List2A,white,man,,,,null,,,,
15004,,,survey-text,33,322512,0.0-13.0-3.0,10793,List2A,white,man,,,,,"{""Q0"":""dave and fred are dancing with eachother""}","<img src=""stim_listA/dance6.gif""style=""height:400px;""></stim_listA>",are dancing with each other,
null,"<div style=""font-size:60px;"">+</div>",,html-keyboard-response,34,323018,0.0-13.0-0.1,10793,List2A,white,man,,,,null,,,,
null,"<img src=""stim_listA/argue5.gif""style=""height:400px;""></stim_listA>",,html-keyboard-response,35,325023,0.0-13.0-1.1,10793,List2A,white,man,,,,null,,,,
null,is arguing with,,html-keyboard-response,36,327029,0.0-13.0-2.1,10793,List2A,white,man,,,,null,,,,
10725,,,survey-text,37,337756,0.0-13.0-3.1,10793,List2A,white,man,,,,,"{""Q0"":""dave is arguing with fred""}","<img src=""stim_listA/argue5.gif""style=""height:400px;""></stim_listA>",is arguing with,
null,"<div style=""font-size:60px;"">+</div>",,html-keyboard-response,38,338262,0.0-13.0-0.2,10793,List2A,white,man,,,,null,,,,
null,"<img src=""stim_listA/marry7.gif""style=""height:400px;""></stim_listA>",,html-keyboard-response,39,340267,0.0-13.0-1.2,10793,List2A,white,man,,,,null,,,,
null,is marrying,,html-keyboard-response,40,342271,0.0-13.0-2.2,10793,List2A,white,man,,,,null,,,,
8869,,,survey-text,41,351142,0.0-13.0-3.2,10793,List2A,white,man,,,,,"{""Q0"":""jane is marrying kate""}","<img src=""stim_listA/marry7.gif""style=""height:400px;""></stim_listA>",is marrying,
null,"<div style=""font-size:60px;"">+</div>",,html-keyboard-response,42,351648,0.0-13.0-0.3,10793,List2A,white,man,,,,null,,,,
null,"<img src=""stim_listA/dance8.gif""style=""height:400px;""></stim_listA>",,html-keyboard-response,43,353650,0.0-13.0-1.3,10793,List2A,white,man,,,,null,,,,
null,are dancing with each other,,html-keyboard-response,44,355651,0.0-13.0-2.3,10793,List2A,white,man,,,,null,,,,
17705,,,survey-text,45,373360,0.0-13.0-3.3,10793,List2A,white,man,,,,,"{""Q0"":""jane and beth are dancing with eachother""}","<img src=""stim_listA/dance8.gif""style=""height:400px;""></stim_listA>",are dancing with each other,
null,"<div style=""font-size:60px;"">+</div>",,html-keyboard-response,46,373868,0.0-13.0-0.4,10793,List2A,white,man,,,,null,,,,
null,"<img src=""stim_listA/dance1.gif""style=""height:400px;""></stim_listA>",,html-keyboard-response,47,375873,0.0-13.0-1.4,10793,List2A,white,man,,,,null,,,,
null,is dancing with,,html-keyboard-response,48,377874,0.0-13.0-2.4,10793,List2A,white,man,,,,null,,,,
7456,,,survey-text,49,385332,0.0-13.0-3.4,10793,List2A,white,man,,,,,"{""Q0"":""luke is dancing with jane""}","<img src=""stim_listA/dance1.gif""style=""height:400px;""></stim_listA>",is dancing with,
null,"<div style=""font-size:60px;"">+</div>",,html-keyboard-response,50,385838,0.0-13.0-0.5,10793,List2A,white,man,,,,null,,,,
null,"<img src=""stim_listA/marry5.gif""style=""height:400px;""></stim_listA>",,html-keyboard-response,51,387844,0.0-13.0-1.5,10793,List2A,white,man,,,,null,,,,
null,is marrying,,html-keyboard-response,52,389849,0.0-13.0-2.5,10793,List2A,white,man,,,,null,,,,
7350,,,survey-text,53,397201,0.0-13.0-3.5,10793,List2A,white,man,,,,,"{""Q0"":""dave is marrying fred""}","<img src=""stim_listA/marry5.gif""style=""height:400px;""></stim_listA>",is marrying,
null,"<div style=""font-size:60px;"">+</div>",,html-keyboard-response,54,397706,0.0-13.0-0.6,10793,List2A,white,man,,,,null,,,,
null,"<img src=""stim_listA/talk6.gif""style=""height:400px;""></stim_listA>",,html-keyboard-response,55,399708,0.0-13.0-1.6,10793,List2A,white,man,,,,null,,,,
null,are talking to each other,,html-keyboard-response,56,401713,0.0-13.0-2.6,10793,List2A,white,man,,,,null,,,,
11563,,,survey-text,57,413278,0.0-13.0-3.6,10793,List2A,white,man,,,,,"{""Q0"":""dave and fred are talking to eachother""}","<img src=""stim_listA/talk6.gif""style=""height:400px;""></stim_listA>",are talking to each other,
null,"<div style=""font-size:60px;"">+</div>",,html-keyboard-response,58,413784,0.0-13.0-0.7,10793,List2A,white,man,,,,null,,,,
null,"<img src=""stim_listA/flirt8.gif""style=""height:400px;""></stim_listA>",,html-keyboard-response,59,415788,0.0-13.0-1.7,10793,List2A,white,man,,,,null,,,,
null,are flirting with each other,,html-keyboard-response,60,417789,0.0-13.0-2.7,10793,List2A,white,man,,,,null,,,,
23887,,,survey-text,61,441678,0.0-13.0-3.7,10793,List2A,white,man,,,,,"{""Q0"":""jane and beth are flirting with eachother""}","<img src=""stim_listA/flirt8.gif""style=""height:400px;""></stim_listA>",are flirting with each other,
null,"<div style=""font-size:60px;"">+</div>",,html-keyboard-response,62,442180,0.0-13.0-0.8,10793,List2A,white,man,,,,null,,,,
null,"<img src=""stim_listA/flirt4.gif""style=""height:400px;""></stim_listA>",,html-keyboard-response,63,444187,0.0-13.0-1.8,10793,List2A,white,man,,,,null,,,,
null,are flirting with each other,,html-keyboard-response,64,446188,0.0-13.0-2.8,10793,List2A,white,man,,,,null,,,,
12666,,,survey-text,65,458856,0.0-13.0-3.8,10793,List2A,white,man,,,,,"{""Q0"":""mike and beth are flirting with each other""}","<img src=""stim_listA/flirt4.gif""style=""height:400px;""></stim_listA>",are flirting with each other,
null,"<div style=""font-size:60px;"">+</div>",,html-keyboard-response,66,459368,0.0-13.0-0.9,10793,List2A,white,man,,,,null,,,,
null,"<img src=""stim_listA/fight4.gif""style=""height:400px;""></stim_listA>",,html-keyboard-response,67,461370,0.0-13.0-1.9,10793,List2A,white,man,,,,null,,,,
null,are fighting each other,,html-keyboard-response,68,463371,0.0-13.0-2.9,10793,List2A,white,man,,,,null,,,,
9330,,,survey-text,69,472702,0.0-13.0-3.9,10793,List2A,white,man,,,,,"{""Q0"":""fred and beth are fighting each other""}","<img src=""stim_listA/fight4.gif""style=""height:400px;""></stim_listA>",are fighting each other,
null,"<div style=""font-size:60px;"">+</div>",,html-keyboard-response,70,473206,0.0-13.0-0.10,10793,List2A,white,man,,,,null,,,,
null,"<img src=""stim_listA/shout1.gif""style=""height:400px;""></stim_listA>",,html-keyboard-response,71,475212,0.0-13.0-1.10,10793,List2A,white,man,,,,null,,,,
null,is shouting at,,html-keyboard-response,72,477214,0.0-13.0-2.10,10793,List2A,white,man,,,,null,,,,
6957,,,survey-text,73,484173,0.0-13.0-3.10,10793,List2A,white,man,,,,,"{""Q0"":""luke is shouting at ruth""}","<img src=""stim_listA/shout1.gif""style=""height:400px;""></stim_listA>",is shouting at,
null,"<div style=""font-size:60px;"">+</div>",,html-keyboard-response,74,484675,0.0-13.0-0.11,10793,List2A,white,man,,,,null,,,,
null,"<img src=""stim_listA/shout4.gif""style=""height:400px;""></stim_listA>",,html-keyboard-response,75,486681,0.0-13.0-1.11,10793,List2A,white,man,,,,null,,,,
null,are shouting at each other,,html-keyboard-response,76,488685,0.0-13.0-2.11,10793,List2A,white,man,,,,null,,,,
17673,,,survey-text,77,506359,0.0-13.0-3.11,10793,List2A,white,man,,,,,"{""Q0"":""luke and kate are shouting at each other""}","<img src=""stim_listA/shout4.gif""style=""height:400px;""></stim_listA>",are shouting at each other,
null,"<div style=""font-size:60px;"">+</div>",,html-keyboard-response,78,506866,0.0-13.0-0.12,10793,List2A,white,man,,,,null,,,,
null,"<img src=""stim_listA/play5.gif""style=""height:400px;""></stim_listA>",,html-keyboard-response,79,508868,0.0-13.0-1.12,10793,List2A,white,man,,,,null,,,,
null,is playing with,,html-keyboard-response,80,510872,0.0-13.0-2.12,10793,List2A,white,man,,,,null,,,,
7515,,,survey-text,81,518389,0.0-13.0-3.12,10793,List2A,white,man,,,,,"{""Q0"":""dave is playing with mike""}","<img src=""stim_listA/play5.gif""style=""height:400px;""></stim_listA>",is playing with,
null,"<div style=""font-size:60px;"">+</div>",,html-keyboard-response,82,518891,0.0-13.0-0.13,10793,List2A,white,man,,,,null,,,,
null,"<img src=""stim_listA/touch5.gif""style=""height:400px;""></stim_listA>",,html-keyboard-response,83,520893,0.0-13.0-1.13,10793,List2A,white,man,,,,null,,,,
null,is touching,,html-keyboard-response,84,522893,0.0-13.0-2.13,10793,List2A,white,man,,,,null,,,,
5759,,,survey-text,85,528654,0.0-13.0-3.13,10793,List2A,white,man,,,,,"{""Q0"":""mike is touching dave""}","<img src=""stim_listA/touch5.gif""style=""height:400px;""></stim_listA>",is touching,
null,"<div style=""font-size:60px;"">+</div>",,html-keyboard-response,86,529160,0.0-13.0-0.14,10793,List2A,white,man,,,,null,,,,
null,"<img src=""stim_listA/kiss5.gif""style=""height:400px;""></stim_listA>",,html-keyboard-response,87,531167,0.0-13.0-1.14,10793,List2A,white,man,,,,null,,,,
null,is kissing,,html-keyboard-response,88,533168,0.0-13.0-2.14,10793,List2A,white,man,,,,null,,,,
7140,,,survey-text,89,540310,0.0-13.0-3.14,10793,List2A,white,man,,,,,"{""Q0"":""luke is kissing fred""}","<img src=""stim_listA/kiss5.gif""style=""height:400px;""></stim_listA>",is kissing,
null,"<div style=""font-size:60px;"">+</div>",,html-keyboard-response,90,540816,0.0-13.0-0.15,10793,List2A,white,man,,,,null,,,,
null,"<img src=""stim_listA/shout6.gif""style=""height:400px;""></stim_listA>",,html-keyboard-response,91,542818,0.0-13.0-1.15,10793,List2A,white,man,,,,null,,,,
null,are shouting at each other,,html-keyboard-response,92,544819,0.0-13.0-2.15,10793,List2A,white,man,,,,null,,,,
13042,,,survey-text,93,557862,0.0-13.0-3.15,10793,List2A,white,man,,,,,"{""Q0"":""mike and dave are shouting at each other""}","<img src=""stim_listA/shout6.gif""style=""height:400px;""></stim_listA>",are shouting at each other,
null,"<div style=""font-size:60px;"">+</div>",,html-keyboard-response,94,558365,0.0-13.0-0.16,10793,List2A,white,man,,,,null,,,,
null,"<img src=""stim_listA/marry6.gif""style=""height:400px;""></stim_listA>",,html-keyboard-response,95,560367,0.0-13.0-1.16,10793,List2A,white,man,,,,null,,,,
null,are marrying each other,,html-keyboard-response,96,562369,0.0-13.0-2.16,10793,List2A,white,man,,,,null,,,,
18599,,,survey-text,97,580969,0.0-13.0-3.16,10793,List2A,white,man,,,,,"{""Q0"":""luke and mike are marrying each other""}","<img src=""stim_listA/marry6.gif""style=""height:400px;""></stim_listA>",are marrying each other,
null,"<div style=""font-size:60px;"">+</div>",,html-keyboard-response,98,581475,0.0-13.0-0.17,10793,List2A,white,man,,,,null,,,,
null,"<img src=""stim_listA/argue4.gif""style=""height:400px;""></stim_listA>",,html-keyboard-response,99,583482,0.0-13.0-1.17,10793,List2A,white,man,,,,null,,,,
null,are arguing with each other,,html-keyboard-response,100,585499,0.0-13.0-2.17,10793,List2A,white,man,,,,null,,,,
19293,,,survey-text,101,604793,0.0-13.0-3.17,10793,List2A,white,man,,,,,"{""Q0"":""fred and kate are arguing with each other""}","<img src=""stim_listA/argue4.gif""style=""height:400px;""></stim_listA>",are arguing with each other,
null,"<div style=""font-size:60px;"">+</div>",,html-keyboard-response,102,605297,0.0-13.0-0.18,10793,List2A,white,man,,,,null,,,,
null,"<img src=""stim_listA/argue1.gif""style=""height:400px;""></stim_listA>",,html-keyboard-response,103,607300,0.0-13.0-1.18,10793,List2A,white,man,,,,null,,,,
null,is arguing with,,html-keyboard-response,104,609305,0.0-13.0-2.18,10793,List2A,white,man,,,,null,,,,
10327,,,survey-text,105,619633,0.0-13.0-3.18,10793,List2A,white,man,,,,,"{""Q0"":""ruth is arguing with dave""}","<img src=""stim_listA/argue1.gif""style=""height:400px;""></stim_listA>",is arguing with,
null,"<div style=""font-size:60px;"">+</div>",,html-keyboard-response,106,620136,0.0-13.0-0.19,10793,List2A,white,man,,,,null,,,,
null,"<img src=""stim_listA/touch8.gif""style=""height:400px;""></stim_listA>",,html-keyboard-response,107,622138,0.0-13.0-1.19,10793,List2A,white,man,,,,null,,,,
null,are touching each other,,html-keyboard-response,108,624140,0.0-13.0-2.19,10793,List2A,white,man,,,,null,,,,
12041,,,survey-text,109,636183,0.0-13.0-3.19,10793,List2A,white,man,,,,,"{""Q0"":""beth and ruth are touching each other""}","<img src=""stim_listA/touch8.gif""style=""height:400px;""></stim_listA>",are touching each other,
4822,"<img src='img/portrait_matrix_list2.jpg' style='width:900px;height:500px;''></img><p>If you have memorised all the portraits and names and are ready to start, press Continue.</p><p><strong>Please note: Your memory of these faces will be tested 4 times during this experiment.</strong></p>",0,html-button-response,110,641010,0.0-14.0-0.0,10793,List2A,white,man,,,,,,,,
6857,"<img src=""portrait/BM1.jpg""style=""height:400px;""></img>",4,html-button-response,111,648872,0.0-14.0-1.0,10793,List2A,white,man,,TRUE,4,,,,,
null,CORRECT,,html-keyboard-response,112,650384,0.0-14.0-2.0-0.0,10793,List2A,white,man,,,,null,,,,
7145,"<img src=""portrait/BW2.jpg""style=""height:400px;""></img>",2,html-button-response,113,657531,0.0-14.0-4.0,10793,List2A,white,man,,TRUE,2,,,,,
null,CORRECT,,html-keyboard-response,114,659038,0.0-14.0-5.0-0.0,10793,List2A,white,man,,,,null,,,,
1436,"<img src=""portrait/BW1.jpg""style=""height:400px;""></img>",0,html-button-response,115,660476,0.0-14.0-7.0,10793,List2A,white,man,,TRUE,0,,,,,
null,CORRECT,,html-keyboard-response,116,661981,0.0-14.0-8.0-0.0,10793,List2A,white,man,,,,null,,,,
2724,"<img src=""portrait/WM1.jpg""style=""height:400px;""></img>",6,html-button-response,117,664707,0.0-14.0-10.0,10793,List2A,white,man,,TRUE,6,,,,,
null,CORRECT,,html-keyboard-response,118,666219,0.0-14.0-11.0-0.0,10793,List2A,white,man,,,,null,,,,
2328,"<img src=""portrait/WW1.jpg""style=""height:400px;""></img>",1,html-button-response,119,668549,0.0-14.0-13.0,10793,List2A,white,man,,TRUE,1,,,,,
null,CORRECT,,html-keyboard-response,120,670058,0.0-14.0-14.0-0.0,10793,List2A,white,man,,,,null,,,,
1964,"<img src=""portrait/WW2.jpg""style=""height:400px;""></img>",3,html-button-response,121,672025,0.0-14.0-16.0,10793,List2A,white,man,,TRUE,3,,,,,
null,CORRECT,,html-keyboard-response,122,673529,0.0-14.0-17.0-0.0,10793,List2A,white,man,,,,null,,,,
1504,"<img src=""portrait/BM2.jpg""style=""height:400px;""></img>",5,html-button-response,123,675036,0.0-14.0-19.0,10793,List2A,white,man,,TRUE,5,,,,,
null,CORRECT,,html-keyboard-response,124,676545,0.0-14.0-20.0-0.0,10793,List2A,white,man,,,,null,,,,
2587,"<img src=""portrait/WM2.jpg""style=""height:400px;""></img>",7,html-button-response,125,679135,0.0-14.0-22.0,10793,List2A,white,man,,TRUE,7,,,,,
null,CORRECT,,html-keyboard-response,126,680641,0.0-14.0-23.0-0.0,10793,List2A,white,man,,,,null,,,,
1654,<p>You got 8 out of 8 right first time. Press Continue.</p>,0,html-button-response,127,682297,0.0-14.0-25.0,10793,List2A,white,man,,,,,,,,
null,"<div style=""font-size:60px;"">+</div>",,html-keyboard-response,128,683809,0.0-15.0-0.0,10793,List2A,white,man,,,,null,,,,
null,"<img src=""stim_listA/flirt1.gif""style=""height:400px;""></stim_listA>",,html-keyboard-response,129,685811,0.0-15.0-1.0,10793,List2A,white,man,,,,null,,,,
null,is flirting with,,html-keyboard-response,130,687813,0.0-15.0-2.0,10793,List2A,white,man,,,,null,,,,
14930,,,survey-text,131,702744,0.0-15.0-3.0,10793,List2A,white,man,,,,,"{""Q0"":""luke is flirting with jane""}","<img src=""stim_listA/flirt1.gif""style=""height:400px;""></stim_listA>",is flirting with,
null,"<div style=""font-size:60px;"">+</div>",,html-keyboard-response,132,703251,0.0-15.0-0.1,10793,List2A,white,man,,,,null,,,,
null,"<img src=""stim_listA/kiss4.gif""style=""height:400px;""></stim_listA>",,html-keyboard-response,133,705257,0.0-15.0-1.1,10793,List2A,white,man,,,,null,,,,
null,are kissing each other,,html-keyboard-response,134,707260,0.0-15.0-2.1,10793,List2A,white,man,,,,null,,,,
14135,,,survey-text,135,721397,0.0-15.0-3.1,10793,List2A,white,man,,,,,"{""Q0"":""mike and kate are kissing each other""}","<img src=""stim_listA/kiss4.gif""style=""height:400px;""></stim_listA>",are kissing each other,
null,"<div style=""font-size:60px;"">+</div>",,html-keyboard-response,136,721903,0.0-15.0-0.2,10793,List2A,white,man,,,,null,,,,
null,"<img src=""stim_listA/fight3.gif""style=""height:400px;""></stim_listA>",,html-keyboard-response,137,723910,0.0-15.0-1.2,10793,List2A,white,man,,,,null,,,,
null,is fighting,,html-keyboard-response,138,725911,0.0-15.0-2.2,10793,List2A,white,man,,,,null,,,,
7801,,,survey-text,139,733712,0.0-15.0-3.2,10793,List2A,white,man,,,,,"{""Q0"":""mike is fighting kate""}","<img src=""stim_listA/fight3.gif""style=""height:400px;""></stim_listA>",is fighting,
null,"<div style=""font-size:60px;"">+</div>",,html-keyboard-response,140,734215,0.0-15.0-0.3,10793,List2A,white,man,,,,null,,,,
null,"<img src=""stim_listA/marry1.gif""style=""height:400px;""></stim_listA>",,html-keyboard-response,141,736221,0.0-15.0-1.3,10793,List2A,white,man,,,,null,,,,
null,is marrying,,html-keyboard-response,142,738224,0.0-15.0-2.3,10793,List2A,white,man,,,,null,,,,
7656,,,survey-text,143,745882,0.0-15.0-3.3,10793,List2A,white,man,,,,,"{""Q0"":""ruth is marrying dave""}","<img src=""stim_listA/marry1.gif""style=""height:400px;""></stim_listA>",is marrying,
null,"<div style=""font-size:60px;"">+</div>",,html-keyboard-response,144,746388,0.0-15.0-0.4,10793,List2A,white,man,,,,null,,,,
null,"<img src=""stim_listA/marry3.gif""style=""height:400px;""></stim_listA>",,html-keyboard-response,145,748392,0.0-15.0-1.4,10793,List2A,white,man,,,,null,,,,
null,is marrying,,html-keyboard-response,146,750393,0.0-15.0-2.4,10793,List2A,white,man,,,,null,,,,
8383,,,survey-text,147,758778,0.0-15.0-3.4,10793,List2A,white,man,,,,,"{""Q0"":""mike is marrying beth""}","<img src=""stim_listA/marry3.gif""style=""height:400px;""></stim_listA>",is marrying,
null,"<div style=""font-size:60px;"">+</div>",,html-keyboard-response,148,759284,0.0-15.0-0.5,10793,List2A,white,man,,,,null,,,,
null,"<img src=""stim_listA/talk2.gif""style=""height:400px;""></stim_listA>",,html-keyboard-response,149,761291,0.0-15.0-1.5,10793,List2A,white,man,,,,null,,,,
null,are talking to each other,,html-keyboard-response,150,763292,0.0-15.0-2.5,10793,List2A,white,man,,,,null,,,,
14792,,,survey-text,151,778085,0.0-15.0-3.5,10793,List2A,white,man,,,,,"{""Q0"":""ruth and dave are talking to each other""}","<img src=""stim_listA/talk2.gif""style=""height:400px;""></stim_listA>",are talking to each other,
null,"<div style=""font-size:60px;"">+</div>",,html-keyboard-response,152,778591,0.0-15.0-0.6,10793,List2A,white,man,,,,null,,,,
null,"<img src=""stim_listA/play6.gif""style=""height:400px;""></stim_listA>",,html-keyboard-response,153,780594,0.0-15.0-1.6,10793,List2A,white,man,,,,null,,,,
null,are playing with each other,,html-keyboard-response,154,782595,0.0-15.0-2.6,10793,List2A,white,man,,,,null,,,,
15626,,,survey-text,155,798222,0.0-15.0-3.6,10793,List2A,white,man,,,,,"{""Q0"":""fred and luke are playing with each other""}","<img src=""stim_listA/play6.gif""style=""height:400px;""></stim_listA>",are playing with each other,
null,"<div style=""font-size:60px;"">+</div>",,html-keyboard-response,156,798726,0.0-15.0-0.7,10793,List2A,white,man,,,,null,,,,
null,"<img src=""stim_listA/talk8.gif""style=""height:400px;""></stim_listA>",,html-keyboard-response,157,800728,0.0-15.0-1.7,10793,List2A,white,man,,,,null,,,,
null,are talking to each other,,html-keyboard-response,158,802732,0.0-15.0-2.7,10793,List2A,white,man,,,,null,,,,
10520,,,survey-text,159,813253,0.0-15.0-3.7,10793,List2A,white,man,,,,,"{""Q0"":""beth and jane are talking to each other""}","<img src=""stim_listA/talk8.gif""style=""height:400px;""></stim_listA>",are talking to each other,
null,"<div style=""font-size:60px;"">+</div>",,html-keyboard-response,160,813755,0.0-15.0-0.8,10793,List2A,white,man,,,,null,,,,
null,"<img src=""stim_listA/kiss7.gif""style=""height:400px;""></stim_listA>",,html-keyboard-response,161,815757,0.0-15.0-1.8,10793,List2A,white,man,,,,null,,,,
null,is kissing,,html-keyboard-response,162,817758,0.0-15.0-2.8,10793,List2A,white,man,,,,null,,,,
6285,,,survey-text,163,824045,0.0-15.0-3.8,10793,List2A,white,man,,,,,"{""Q0"":""ruth is kissing beth""}","<img src=""stim_listA/kiss7.gif""style=""height:400px;""></stim_listA>",is kissing,
null,"<div style=""font-size:60px;"">+</div>",,html-keyboard-response,164,824547,0.0-15.0-0.9,10793,List2A,white,man,,,,null,,,,
null,"<img src=""stim_listA/fight8.gif""style=""height:400px;""></stim_listA>",,html-keyboard-response,165,826550,0.0-15.0-1.9,10793,List2A,white,man,,,,null,,,,
null,are fighting each other,,html-keyboard-response,166,828551,0.0-15.0-2.9,10793,List2A,white,man,,,,null,,,,
8602,,,survey-text,167,837155,0.0-15.0-3.9,10793,List2A,white,man,,,,,"{""Q0"":""beth and ruth are fighting each other""}","<img src=""stim_listA/fight8.gif""style=""height:400px;""></stim_listA>",are fighting each other,
null,"<div style=""font-size:60px;"">+</div>",,html-keyboard-response,168,837662,0.0-15.0-0.10,10793,List2A,white,man,,,,null,,,,
null,"<img src=""stim_listA/touch1.gif""style=""height:400px;""></stim_listA>",,html-keyboard-response,169,839669,0.0-15.0-1.10,10793,List2A,white,man,,,,null,,,,
null,is touching,,html-keyboard-response,170,841679,0.0-15.0-2.10,10793,List2A,white,man,,,,null,,,,
7814,,,survey-text,171,849494,0.0-15.0-3.10,10793,List2A,white,man,,,,,"{""Q0"":""fred is touching jane""}","<img src=""stim_listA/touch1.gif""style=""height:400px;""></stim_listA>",is touching,
null,"<div style=""font-size:60px;"">+</div>",,html-keyboard-response,172,849996,0.0-15.0-0.11,10793,List2A,white,man,,,,null,,,,
null,"<img src=""stim_listA/marry4.gif""style=""height:400px;""></stim_listA>",,html-keyboard-response,173,852002,0.0-15.0-1.11,10793,List2A,white,man,,,,null,,,,
null,are marrying each other,,html-keyboard-response,174,854004,0.0-15.0-2.11,10793,List2A,white,man,,,,null,,,,
12134,,,survey-text,175,866140,0.0-15.0-3.11,10793,List2A,white,man,,,,,"{""Q0"":""fred and kate are marrying each other""}","<img src=""stim_listA/marry4.gif""style=""height:400px;""></stim_listA>",are marrying each other,
null,"<div style=""font-size:60px;"">+</div>",,html-keyboard-response,176,866642,0.0-15.0-0.12,10793,List2A,white,man,,,,null,,,,
null,"<img src=""stim_listA/kiss1.gif""style=""height:400px;""></stim_listA>",,html-keyboard-response,177,868648,0.0-15.0-1.12,10793,List2A,white,man,,,,null,,,,
null,is kissing,,html-keyboard-response,178,870652,0.0-15.0-2.12,10793,List2A,white,man,,,,null,,,,
6106,,,survey-text,179,876760,0.0-15.0-3.12,10793,List2A,white,man,,,,,"{""Q0"":""luke is kissing ruth""}","<img src=""stim_listA/kiss1.gif""style=""height:400px;""></stim_listA>",is kissing,
null,"<div style=""font-size:60px;"">+</div>",,html-keyboard-response,180,877267,0.0-15.0-0.13,10793,List2A,white,man,,,,null,,,,
null,"<img src=""stim_listA/flirt3.gif""style=""height:400px;""></stim_listA>",,html-keyboard-response,181,879272,0.0-15.0-1.13,10793,List2A,white,man,,,,null,,,,
null,is flirting with,,html-keyboard-response,182,881277,0.0-15.0-2.13,10793,List2A,white,man,,,,null,,,,
10605,,,survey-text,183,891884,0.0-15.0-3.13,10793,List2A,white,man,,,,,"{""Q0"":""kate is flirting with fred""}","<img src=""stim_listA/flirt3.gif""style=""height:400px;""></stim_listA>",is flirting with,
null,"<div style=""font-size:60px;"">+</div>",,html-keyboard-response,184,892386,0.0-15.0-0.14,10793,List2A,white,man,,,,null,,,,
null,"<img src=""stim_listA/fight7.gif""style=""height:400px;""></stim_listA>",,html-keyboard-response,185,894388,0.0-15.0-1.14,10793,List2A,white,man,,,,null,,,,
null,is fighting,,html-keyboard-response,186,896389,0.0-15.0-2.14,10793,List2A,white,man,,,,null,,,,
6667,,,survey-text,187,903057,0.0-15.0-3.14,10793,List2A,white,man,,,,,"{""Q0"":""jane is fighting kate""}","<img src=""stim_listA/fight7.gif""style=""height:400px;""></stim_listA>",is fighting,
null,"<div style=""font-size:60px;"">+</div>",,html-keyboard-response,188,903564,0.0-15.0-0.15,10793,List2A,white,man,,,,null,,,,
null,"<img src=""stim_listA/dance7.gif""style=""height:400px;""></stim_listA>",,html-keyboard-response,189,905569,0.0-15.0-1.15,10793,List2A,white,man,,,,null,,,,
null,is dancing with,,html-keyboard-response,190,907570,0.0-15.0-2.15,10793,List2A,white,man,,,,null,,,,
8456,,,survey-text,191,916027,0.0-15.0-3.15,10793,List2A,white,man,,,,,"{""Q0"":""ruth is dancing with beth""}","<img src=""stim_listA/dance7.gif""style=""height:400px;""></stim_listA>",is dancing with,
null,"<div style=""font-size:60px;"">+</div>",,html-keyboard-response,192,916532,0.0-15.0-0.16,10793,List2A,white,man,,,,null,,,,
null,"<img src=""stim_listA/play4.gif""style=""height:400px;""></stim_listA>",,html-keyboard-response,193,918535,0.0-15.0-1.16,10793,List2A,white,man,,,,null,,,,
null,are playing with each other,,html-keyboard-response,194,920537,0.0-15.0-2.16,10793,List2A,white,man,,,,null,,,,
11826,,,survey-text,195,932363,0.0-15.0-3.16,10793,List2A,white,man,,,,,"{""Q0"":""fred and beth are playing with each other""}","<img src=""stim_listA/play4.gif""style=""height:400px;""></stim_listA>",are playing with each other,
null,"<div style=""font-size:60px;"">+</div>",,html-keyboard-response,196,932868,0.0-15.0-0.17,10793,List2A,white,man,,,,null,,,,
null,"<img src=""stim_listA/fight2.gif""style=""height:400px;""></stim_listA>",,html-keyboard-response,197,934871,0.0-15.0-1.17,10793,List2A,white,man,,,,null,,,,
null,are fighting each other,,html-keyboard-response,198,936874,0.0-15.0-2.17,10793,List2A,white,man,,,,null,,,,
10965,,,survey-text,199,947841,0.0-15.0-3.17,10793,List2A,white,man,,,,,"{""Q0"":""luke and ruth are fighting each other""}","<img src=""stim_listA/fight2.gif""style=""height:400px;""></stim_listA>",are fighting each other,
null,"<div style=""font-size:60px;"">+</div>",,html-keyboard-response,200,948347,0.0-15.0-0.18,10793,List2A,white,man,,,,null,,,,
null,"<img src=""stim_listA/argue3.gif""style=""height:400px;""></stim_listA>",,html-keyboard-response,201,950350,0.0-15.0-1.18,10793,List2A,white,man,,,,null,,,,
null,is arguing with,,html-keyboard-response,202,952351,0.0-15.0-2.18,10793,List2A,white,man,,,,null,,,,
10320,,,survey-text,203,962673,0.0-15.0-3.18,10793,List2A,white,man,,,,,"{""Q0"":""mike is arguing with beth""}","<img src=""stim_listA/argue3.gif""style=""height:400px;""></stim_listA>",is arguing with,
null,"<div style=""font-size:60px;"">+</div>",,html-keyboard-response,204,963180,0.0-15.0-0.19,10793,List2A,white,man,,,,null,,,,
null,"<img src=""stim_listA/play3.gif""style=""height:400px;""></stim_listA>",,html-keyboard-response,205,965183,0.0-15.0-1.19,10793,List2A,white,man,,,,null,,,,
null,is playing with,,html-keyboard-response,206,967188,0.0-15.0-2.19,10793,List2A,white,man,,,,null,,,,
8865,,,survey-text,207,976054,0.0-15.0-3.19,10793,List2A,white,man,,,,,"{""Q0"":""mike is playing with beth""}","<img src=""stim_listA/play3.gif""style=""height:400px;""></stim_listA>",is playing with,
7223,"<img src='img/portrait_matrix_list2.jpg' style='width:900px;height:500px;''></img><p>If you have memorised all the portraits and names and are ready to start, press Continue.</p><p><strong>Please note: Your memory of these faces will be tested 4 times during this experiment.</strong></p>",0,html-button-response,208,983279,0.0-16.0-0.0,10793,List2A,white,man,,,,,,,,
1875,"<img src=""portrait/BM1.jpg""style=""height:400px;""></img>",4,html-button-response,209,986159,0.0-16.0-1.0,10793,List2A,white,man,,TRUE,4,,,,,
null,CORRECT,,html-keyboard-response,210,987668,0.0-16.0-2.0-0.0,10793,List2A,white,man,,,,null,,,,
3923,"<img src=""portrait/BW2.jpg""style=""height:400px;""></img>",2,html-button-response,211,991593,0.0-16.0-4.0,10793,List2A,white,man,,TRUE,2,,,,,
null,CORRECT,,html-keyboard-response,212,993100,0.0-16.0-5.0-0.0,10793,List2A,white,man,,,,null,,,,
2731,"<img src=""portrait/WW1.jpg""style=""height:400px;""></img>",1,html-button-response,213,995835,0.0-16.0-7.0,10793,List2A,white,man,,TRUE,1,,,,,
null,CORRECT,,html-keyboard-response,214,997341,0.0-16.0-8.0-0.0,10793,List2A,white,man,,,,null,,,,
2722,"<img src=""portrait/WM2.jpg""style=""height:400px;""></img>",7,html-button-response,215,1000065,0.0-16.0-10.0,10793,List2A,white,man,,TRUE,7,,,,,
null,CORRECT,,html-keyboard-response,216,1001573,0.0-16.0-11.0-0.0,10793,List2A,white,man,,,,null,,,,
6145,"<img src=""portrait/BM2.jpg""style=""height:400px;""></img>",5,html-button-response,217,1007719,0.0-16.0-13.0,10793,List2A,white,man,,TRUE,5,,,,,
null,CORRECT,,html-keyboard-response,218,1009231,0.0-16.0-14.0-0.0,10793,List2A,white,man,,,,null,,,,
2686,"<img src=""portrait/BW1.jpg""style=""height:400px;""></img>",0,html-button-response,219,1011919,0.0-16.0-16.0,10793,List2A,white,man,,TRUE,0,,,,,
null,CORRECT,,html-keyboard-response,220,1013431,0.0-16.0-17.0-0.0,10793,List2A,white,man,,,,null,,,,
2662,"<img src=""portrait/WM1.jpg""style=""height:400px;""></img>",6,html-button-response,221,1016095,0.0-16.0-19.0,10793,List2A,white,man,,TRUE,6,,,,,
null,CORRECT,,html-keyboard-response,222,1017604,0.0-16.0-20.0-0.0,10793,List2A,white,man,,,,null,,,,
1501,"<img src=""portrait/WW2.jpg""style=""height:400px;""></img>",3,html-button-response,223,1019107,0.0-16.0-22.0,10793,List2A,white,man,,TRUE,3,,,,,
null,CORRECT,,html-keyboard-response,224,1020614,0.0-16.0-23.0-0.0,10793,List2A,white,man,,,,null,,,,
2200,<p>You got 8 out of 8 right first time. Press Continue.</p>,0,html-button-response,225,1022816,0.0-16.0-25.0,10793,List2A,white,man,,,,,,,,
null,"<div style=""font-size:60px;"">+</div>",,html-keyboard-response,226,1024326,0.0-17.0-0.0,10793,List2A,white,man,,,,null,,,,
null,"<img src=""stim_listA/shout7.gif""style=""height:400px;""></stim_listA>",,html-keyboard-response,227,1026330,0.0-17.0-1.0,10793,List2A,white,man,,,,null,,,,
null,is shouting at,,html-keyboard-response,228,1028333,0.0-17.0-2.0,10793,List2A,white,man,,,,null,,,,
8766,,,survey-text,229,1037100,0.0-17.0-3.0,10793,List2A,white,man,,,,,"{""Q0"":""ruth is shouting at beth""}","<img src=""stim_listA/shout7.gif""style=""height:400px;""></stim_listA>",is shouting at,
null,"<div style=""font-size:60px;"">+</div>",,html-keyboard-response,230,1037606,0.0-17.0-0.1,10793,List2A,white,man,,,,null,,,,
null,"<img src=""stim_listA/touch4.gif""style=""height:400px;""></stim_listA>",,html-keyboard-response,231,1039612,0.0-17.0-1.1,10793,List2A,white,man,,,,null,,,,
null,are touching each other,,html-keyboard-response,232,1041617,0.0-17.0-2.1,10793,List2A,white,man,,,,null,,,,
12947,,,survey-text,233,1054566,0.0-17.0-3.1,10793,List2A,white,man,,,,,"{""Q0"":""beth and fred are touching each other""}","<img src=""stim_listA/touch4.gif""style=""height:400px;""></stim_listA>",are touching each other,
null,"<div style=""font-size:60px;"">+</div>",,html-keyboard-response,234,1055073,0.0-17.0-0.2,10793,List2A,white,man,,,,null,,,,
null,"<img src=""stim_listA/kiss2.gif""style=""height:400px;""></stim_listA>",,html-keyboard-response,235,1057079,0.0-17.0-1.2,10793,List2A,white,man,,,,null,,,,
null,are kissing each other,,html-keyboard-response,236,1059081,0.0-17.0-2.2,10793,List2A,white,man,,,,null,,,,
11316,,,survey-text,237,1070398,0.0-17.0-3.2,10793,List2A,white,man,,,,,"{""Q0"":""jane and dave are kissing each other""}","<img src=""stim_listA/kiss2.gif""style=""height:400px;""></stim_listA>",are kissing each other,
null,"<div style=""font-size:60px;"">+</div>",,html-keyboard-response,238,1070905,0.0-17.0-0.3,10793,List2A,white,man,,,,null,,,,
null,"<img src=""stim_listA/dance3.gif""style=""height:400px;""></stim_listA>",,html-keyboard-response,239,1072911,0.0-17.0-1.3,10793,List2A,white,man,,,,null,,,,
null,is dancing with,,html-keyboard-response,240,1074912,0.0-17.0-2.3,10793,List2A,white,man,,,,null,,,,
6446,,,survey-text,241,1081360,0.0-17.0-3.3,10793,List2A,white,man,,,,,"{""Q0"":""kate is dancing with fred""}","<img src=""stim_listA/dance3.gif""style=""height:400px;""></stim_listA>",is dancing with,
null,"<div style=""font-size:60px;"">+</div>",,html-keyboard-response,242,1081864,0.0-17.0-0.4,10793,List2A,white,man,,,,null,,,,
null,"<img src=""stim_listA/touch6.gif""style=""height:400px;""></stim_listA>",,html-keyboard-response,243,1083865,0.0-17.0-1.4,10793,List2A,white,man,,,,null,,,,
null,are touching each other,,html-keyboard-response,244,1085870,0.0-17.0-2.4,10793,List2A,white,man,,,,null,,,,
10651,,,survey-text,245,1096522,0.0-17.0-3.4,10793,List2A,white,man,,,,,"{""Q0"":""fred and luke are touching each other""}","<img src=""stim_listA/touch6.gif""style=""height:400px;""></stim_listA>",are touching each other,
null,"<div style=""font-size:60px;"">+</div>",,html-keyboard-response,246,1097029,0.0-17.0-0.5,10793,List2A,white,man,,,,null,,,,
null,"<img src=""stim_listA/fight6.gif""style=""height:400px;""></stim_listA>",,html-keyboard-response,247,1099031,0.0-17.0-1.5,10793,List2A,white,man,,,,null,,,,
null,are fighting each other,,html-keyboard-response,248,1101033,0.0-17.0-2.5,10793,List2A,white,man,,,,null,,,,
9870,,,survey-text,249,1110903,0.0-17.0-3.5,10793,List2A,white,man,,,,,"{""Q0"":""luke and fred are fighting each other""}","<img src=""stim_listA/fight6.gif""style=""height:400px;""></stim_listA>",are fighting each other,
null,"<div style=""font-size:60px;"">+</div>",,html-keyboard-response,250,1111408,0.0-17.0-0.6,10793,List2A,white,man,,,,null,,,,
null,"<img src=""stim_listA/talk1.gif""style=""height:400px;""></stim_listA>",,html-keyboard-response,251,1113410,0.0-17.0-1.6,10793,List2A,white,man,,,,null,,,,
null,is talking to,,html-keyboard-response,252,1115411,0.0-17.0-2.6,10793,List2A,white,man,,,,null,,,,
8208,,,survey-text,253,1123621,0.0-17.0-3.6,10793,List2A,white,man,,,,,"{""Q0"":""luke is talking to jane""}","<img src=""stim_listA/talk1.gif""style=""height:400px;""></stim_listA>",is talking to,
null,"<div style=""font-size:60px;"">+</div>",,html-keyboard-response,254,1124127,0.0-17.0-0.7,10793,List2A,white,man,,,,null,,,,
null,"<img src=""stim_listA/talk3.gif""style=""height:400px;""></stim_listA>",,html-keyboard-response,255,1126132,0.0-17.0-1.7,10793,List2A,white,man,,,,null,,,,
null,is talking to,,html-keyboard-response,256,1128134,0.0-17.0-2.7,10793,List2A,white,man,,,,null,,,,
9111,,,survey-text,257,1137245,0.0-17.0-3.7,10793,List2A,white,man,,,,,"{""Q0"":""fred is talking to kate""}","<img src=""stim_listA/talk3.gif""style=""height:400px;""></stim_listA>",is talking to,
null,"<div style=""font-size:60px;"">+</div>",,html-keyboard-response,258,1137748,0.0-17.0-0.8,10793,List2A,white,man,,,,null,,,,
null,"<img src=""stim_listA/argue8.gif""style=""height:400px;""></stim_listA>",,html-keyboard-response,259,1139752,0.0-17.0-1.8,10793,List2A,white,man,,,,null,,,,
null,are arguing with each other,,html-keyboard-response,260,1141758,0.0-17.0-2.8,10793,List2A,white,man,,,,null,,,,
14852,,,survey-text,261,1156611,0.0-17.0-3.8,10793,List2A,white,man,,,,,"{""Q0"":""kate and ruth are arguing with each other""}","<img src=""stim_listA/argue8.gif""style=""height:400px;""></stim_listA>",are arguing with each other,
null,"<div style=""font-size:60px;"">+</div>",,html-keyboard-response,262,1157118,0.0-17.0-0.9,10793,List2A,white,man,,,,null,,,,
null,"<img src=""stim_listA/argue2.gif""style=""height:400px;""></stim_listA>",,html-keyboard-response,263,1159121,0.0-17.0-1.9,10793,List2A,white,man,,,,null,,,,
null,are arguing with each other,,html-keyboard-response,264,1161124,0.0-17.0-2.9,10793,List2A,white,man,,,,null,,,,
9319,,,survey-text,265,1170445,0.0-17.0-3.9,10793,List2A,white,man,,,,,"{""Q0"":""luke and jane are arguing with each other""}","<img src=""stim_listA/argue2.gif""style=""height:400px;""></stim_listA>",are arguing with each other,
null,"<div style=""font-size:60px;"">+</div>",,html-keyboard-response,266,1170947,0.0-17.0-0.10,10793,List2A,white,man,,,,null,,,,
null,"<img src=""stim_listA/fight5.gif""style=""height:400px;""></stim_listA>",,html-keyboard-response,267,1172954,0.0-17.0-1.10,10793,List2A,white,man,,,,null,,,,
null,is fighting,,html-keyboard-response,268,1174958,0.0-17.0-2.10,10793,List2A,white,man,,,,null,,,,
6785,,,survey-text,269,1181745,0.0-17.0-3.10,10793,List2A,white,man,,,,,"{""Q0"":""mike is fighting dave""}","<img src=""stim_listA/fight5.gif""style=""height:400px;""></stim_listA>",is fighting,
null,"<div style=""font-size:60px;"">+</div>",,html-keyboard-response,270,1182251,0.0-17.0-0.11,10793,List2A,white,man,,,,null,,,,
null,"<img src=""stim_listA/talk5.gif""style=""height:400px;""></stim_listA>",,html-keyboard-response,271,1184257,0.0-17.0-1.11,10793,List2A,white,man,,,,null,,,,
null,is talking to,,html-keyboard-response,272,1186259,0.0-17.0-2.11,10793,List2A,white,man,,,,null,,,,
7134,,,survey-text,273,1193395,0.0-17.0-3.11,10793,List2A,white,man,,,,,"{""Q0"":""mike is talking to luke""}","<img src=""stim_listA/talk5.gif""style=""height:400px;""></stim_listA>",is talking to,
null,"<div style=""font-size:60px;"">+</div>",,html-keyboard-response,274,1193901,0.0-17.0-0.12,10793,List2A,white,man,,,,null,,,,
null,"<img src=""stim_listA/play2.gif""style=""height:400px;""></stim_listA>",,html-keyboard-response,275,1195907,0.0-17.0-1.12,10793,List2A,white,man,,,,null,,,,
null,are playing with each other,,html-keyboard-response,276,1197909,0.0-17.0-2.12,10793,List2A,white,man,,,,null,,,,
11082,,,survey-text,277,1208993,0.0-17.0-3.12,10793,List2A,white,man,,,,,"{""Q0"":""luke and ruth are playing with each other""}","<img src=""stim_listA/play2.gif""style=""height:400px;""></stim_listA>",are playing with each other,
null,"<div style=""font-size:60px;"">+</div>",,html-keyboard-response,278,1209499,0.0-17.0-0.13,10793,List2A,white,man,,,,null,,,,
null,"<img src=""stim_listA/shout3.gif""style=""height:400px;""></stim_listA>",,html-keyboard-response,279,1211506,0.0-17.0-1.13,10793,List2A,white,man,,,,null,,,,
null,is shouting at,,html-keyboard-response,280,1213507,0.0-17.0-2.13,10793,List2A,white,man,,,,null,,,,
7547,,,survey-text,281,1221055,0.0-17.0-3.13,10793,List2A,white,man,,,,,"{""Q0"":""fred is shouting at beth""}","<img src=""stim_listA/shout3.gif""style=""height:400px;""></stim_listA>",is shouting at,
null,"<div style=""font-size:60px;"">+</div>",,html-keyboard-response,282,1221558,0.0-17.0-0.14,10793,List2A,white,man,,,,null,,,,
null,"<img src=""stim_listA/flirt2.gif""style=""height:400px;""></stim_listA>",,html-keyboard-response,283,1223560,0.0-17.0-1.14,10793,List2A,white,man,,,,null,,,,
null,are flirting with each other,,html-keyboard-response,284,1225564,0.0-17.0-2.14,10793,List2A,white,man,,,,null,,,,
13860,,,survey-text,285,1239426,0.0-17.0-3.14,10793,List2A,white,man,,,,,"{""Q0"":""ruth and dave are flirting with each other""}","<img src=""stim_listA/flirt2.gif""style=""height:400px;""></stim_listA>",are flirting with each other,
null,"<div style=""font-size:60px;"">+</div>",,html-keyboard-response,286,1239932,0.0-17.0-0.15,10793,List2A,white,man,,,,null,,,,
null,"<img src=""stim_listA/talk7.gif""style=""height:400px;""></stim_listA>",,html-keyboard-response,287,1241938,0.0-17.0-1.15,10793,List2A,white,man,,,,null,,,,
null,is talking to,,html-keyboard-response,288,1243939,0.0-17.0-2.15,10793,List2A,white,man,,,,null,,,,
6846,,,survey-text,289,1250787,0.0-17.0-3.15,10793,List2A,white,man,,,,,"{""Q0"":""ruth is talking to kate""}","<img src=""stim_listA/talk7.gif""style=""height:400px;""></stim_listA>",is talking to,
null,"<div style=""font-size:60px;"">+</div>",,html-keyboard-response,290,1251290,0.0-17.0-0.16,10793,List2A,white,man,,,,null,,,,
null,"<img src=""stim_listA/shout2.gif""style=""height:400px;""></stim_listA>",,html-keyboard-response,291,1253295,0.0-17.0-1.16,10793,List2A,white,man,,,,null,,,,
null,are shouting at each other,,html-keyboard-response,292,1255296,0.0-17.0-2.16,10793,List2A,white,man,,,,null,,,,
15117,,,survey-text,293,1270415,0.0-17.0-3.16,10793,List2A,white,man,,,,,"{""Q0"":""jane and dave are shouting at each other""}","<img src=""stim_listA/shout2.gif""style=""height:400px;""></stim_listA>",are shouting at each other,
null,"<div style=""font-size:60px;"">+</div>",,html-keyboard-response,294,1270922,0.0-17.0-0.17,10793,List2A,white,man,,,,null,,,,
null,"<img src=""stim_listA/marry2.gif""style=""height:400px;""></stim_listA>",,html-keyboard-response,295,1272925,0.0-17.0-1.17,10793,List2A,white,man,,,,null,,,,
null,are marrying each other,,html-keyboard-response,296,1274926,0.0-17.0-2.17,10793,List2A,white,man,,,,null,,,,
10915,,,survey-text,297,1285843,0.0-17.0-3.17,10793,List2A,white,man,,,,,"{""Q0"":""jane and luke are marrying each other""}","<img src=""stim_listA/marry2.gif""style=""height:400px;""></stim_listA>",are marrying each other,
null,"<div style=""font-size:60px;"">+</div>",,html-keyboard-response,298,1286349,0.0-17.0-0.18,10793,List2A,white,man,,,,null,,,,
null,"<img src=""stim_listA/argue6.gif""style=""height:400px;""></stim_listA>",,html-keyboard-response,299,1288355,0.0-17.0-1.18,10793,List2A,white,man,,,,null,,,,
null,are arguing with each other,,html-keyboard-response,300,1290357,0.0-17.0-2.18,10793,List2A,white,man,,,,null,,,,
15046,,,survey-text,301,1305405,0.0-17.0-3.18,10793,List2A,white,man,,,,,"{""Q0"":""mike and luke are arguing with each other""}","<img src=""stim_listA/argue6.gif""style=""height:400px;""></stim_listA>",are arguing with each other,
null,"<div style=""font-size:60px;"">+</div>",,html-keyboard-response,302,1305907,0.0-17.0-0.19,10793,List2A,white,man,,,,null,,,,
null,"<img src=""stim_listA/touch7.gif""style=""height:400px;""></stim_listA>",,html-keyboard-response,303,1307909,0.0-17.0-1.19,10793,List2A,white,man,,,,null,,,,
null,is touching,,html-keyboard-response,304,1309915,0.0-17.0-2.19,10793,List2A,white,man,,,,null,,,,
6196,,,survey-text,305,1316113,0.0-17.0-3.19,10793,List2A,white,man,,,,,"{""Q0"":""jane is touching kate""}","<img src=""stim_listA/touch7.gif""style=""height:400px;""></stim_listA>",is touching,
3892,"<img src='img/portrait_matrix_list2.jpg' style='width:900px;height:500px;''></img><p>If you have memorised all the portraits and names and are ready to start, press Continue.</p><p><strong>Please note: Your memory of these faces will be tested 4 times during this experiment.</strong></p>",0,html-button-response,306,1320007,0.0-18.0-0.0,10793,List2A,white,man,,,,,,,,
2592,"<img src=""portrait/WM1.jpg""style=""height:400px;""></img>",6,html-button-response,307,1323607,0.0-18.0-1.0,10793,List2A,white,man,,TRUE,6,,,,,
null,CORRECT,,html-keyboard-response,308,1325119,0.0-18.0-2.0-0.0,10793,List2A,white,man,,,,null,,,,
1743,"<img src=""portrait/WM2.jpg""style=""height:400px;""></img>",7,html-button-response,309,1326864,0.0-18.0-4.0,10793,List2A,white,man,,TRUE,7,,,,,
null,CORRECT,,html-keyboard-response,310,1328370,0.0-18.0-5.0-0.0,10793,List2A,white,man,,,,null,,,,
2201,"<img src=""portrait/BW2.jpg""style=""height:400px;""></img>",2,html-button-response,311,1330573,0.0-18.0-7.0,10793,List2A,white,man,,TRUE,2,,,,,
null,CORRECT,,html-keyboard-response,312,1332080,0.0-18.0-8.0-0.0,10793,List2A,white,man,,,,null,,,,
1532,"<img src=""portrait/BM1.jpg""style=""height:400px;""></img>",4,html-button-response,313,1333615,0.0-18.0-10.0,10793,List2A,white,man,,TRUE,4,,,,,
null,CORRECT,,html-keyboard-response,314,1335122,0.0-18.0-11.0-0.0,10793,List2A,white,man,,,,null,,,,
1960,"<img src=""portrait/BM2.jpg""style=""height:400px;""></img>",5,html-button-response,315,1337084,0.0-18.0-13.0,10793,List2A,white,man,,TRUE,5,,,,,
null,CORRECT,,html-keyboard-response,316,1338593,0.0-18.0-14.0-0.0,10793,List2A,white,man,,,,null,,,,
1662,"<img src=""portrait/WW2.jpg""style=""height:400px;""></img>",3,html-button-response,317,1340257,0.0-18.0-16.0,10793,List2A,white,man,,TRUE,3,,,,,
null,CORRECT,,html-keyboard-response,318,1341769,0.0-18.0-17.0-0.0,10793,List2A,white,man,,,,null,,,,
1559,"<img src=""portrait/BW1.jpg""style=""height:400px;""></img>",0,html-button-response,319,1343330,0.0-18.0-19.0,10793,List2A,white,man,,TRUE,0,,,,,
null,CORRECT,,html-keyboard-response,320,1344837,0.0-18.0-20.0-0.0,10793,List2A,white,man,,,,null,,,,
2521,"<img src=""portrait/WW1.jpg""style=""height:400px;""></img>",1,html-button-response,321,1347360,0.0-18.0-22.0,10793,List2A,white,man,,TRUE,1,,,,,
null,CORRECT,,html-keyboard-response,322,1348870,0.0-18.0-23.0-0.0,10793,List2A,white,man,,,,null,,,,
1811,<p>You got 8 out of 8 right first time. Press Continue.</p>,0,html-button-response,323,1350683,0.0-18.0-25.0,10793,List2A,white,man,,,,,,,,
null,"<div style=""font-size:60px;"">+</div>",,html-keyboard-response,324,1352190,0.0-19.0-0.0,10793,List2A,white,man,,,,null,,,,
null,"<img src=""stim_listA/play7.gif""style=""height:400px;""></stim_listA>",,html-keyboard-response,325,1354192,0.0-19.0-1.0,10793,List2A,white,man,,,,null,,,,
null,is playing with,,html-keyboard-response,326,1356193,0.0-19.0-2.0,10793,List2A,white,man,,,,null,,,,
7870,,,survey-text,327,1364066,0.0-19.0-3.0,10793,List2A,white,man,,,,,"{""Q0"":""jane is playing with kate""}","<img src=""stim_listA/play7.gif""style=""height:400px;""></stim_listA>",is playing with,
null,"<div style=""font-size:60px;"">+</div>",,html-keyboard-response,328,1364568,0.0-19.0-0.1,10793,List2A,white,man,,,,null,,,,
null,"<img src=""stim_listA/kiss8.gif""style=""height:400px;""></stim_listA>",,html-keyboard-response,329,1366573,0.0-19.0-1.1,10793,List2A,white,man,,,,null,,,,
null,are kissing each other,,html-keyboard-response,330,1368574,0.0-19.0-2.1,10793,List2A,white,man,,,,null,,,,
9859,,,survey-text,331,1378436,0.0-19.0-3.1,10793,List2A,white,man,,,,,"{""Q0"":""jane and kate are kissing each other""}","<img src=""stim_listA/kiss8.gif""style=""height:400px;""></stim_listA>",are kissing each other,
null,"<div style=""font-size:60px;"">+</div>",,html-keyboard-response,332,1378953,0.0-19.0-0.2,10793,List2A,white,man,,,,null,,,,
null,"<img src=""stim_listA/dance4.gif""style=""height:400px;""></stim_listA>",,html-keyboard-response,333,1381054,0.0-19.0-1.2,10793,List2A,white,man,,,,null,,,,
null,are dancing with each other,,html-keyboard-response,334,1383055,0.0-19.0-2.2,10793,List2A,white,man,,,,null,,,,
9232,,,survey-text,335,1392289,0.0-19.0-3.2,10793,List2A,white,man,,,,,"{""Q0"":""mike and beth are dancing with each other""}","<img src=""stim_listA/dance4.gif""style=""height:400px;""></stim_listA>",are dancing with each other,
null,"<div style=""font-size:60px;"">+</div>",,html-keyboard-response,336,1392794,0.0-19.0-0.3,10793,List2A,white,man,,,,null,,,,
null,"<img src=""stim_listA/argue7.gif""style=""height:400px;""></stim_listA>",,html-keyboard-response,337,1394796,0.0-19.0-1.3,10793,List2A,white,man,,,,null,,,,
null,is arguing with,,html-keyboard-response,338,1396796,0.0-19.0-2.3,10793,List2A,white,man,,,,null,,,,
5703,,,survey-text,339,1402500,0.0-19.0-3.3,10793,List2A,white,man,,,,,"{""Q0"":""jane is arguing with beth""}","<img src=""stim_listA/argue7.gif""style=""height:400px;""></stim_listA>",is arguing with,
null,"<div style=""font-size:60px;"">+</div>",,html-keyboard-response,340,1403007,0.0-19.0-0.4,10793,List2A,white,man,,,,null,,,,
null,"<img src=""stim_listA/touch2.gif""style=""height:400px;""></stim_listA>",,html-keyboard-response,341,1405009,0.0-19.0-1.4,10793,List2A,white,man,,,,null,,,,
null,are touching each other,,html-keyboard-response,342,1407010,0.0-19.0-2.4,10793,List2A,white,man,,,,null,,,,
12760,,,survey-text,343,1419772,0.0-19.0-3.4,10793,List2A,white,man,,,,,"{""Q0"":""ruth and luke are touching each other""}","<img src=""stim_listA/touch2.gif""style=""height:400px;""></stim_listA>",are touching each other,
null,"<div style=""font-size:60px;"">+</div>",,html-keyboard-response,344,1420276,0.0-19.0-0.5,10793,List2A,white,man,,,,null,,,,
null,"<img src=""stim_listA/kiss6.gif""style=""height:400px;""></stim_listA>",,html-keyboard-response,345,1422278,0.0-19.0-1.5,10793,List2A,white,man,,,,null,,,,
null,are kissing each other,,html-keyboard-response,346,1424279,0.0-19.0-2.5,10793,List2A,white,man,,,,null,,,,
10404,,,survey-text,347,1434685,0.0-19.0-3.5,10793,List2A,white,man,,,,,"{""Q0"":""dave and mike are kissing each other""}","<img src=""stim_listA/kiss6.gif""style=""height:400px;""></stim_listA>",are kissing each other,
null,"<div style=""font-size:60px;"">+</div>",,html-keyboard-response,348,1435189,0.0-19.0-0.6,10793,List2A,white,man,,,,null,,,,
null,"<img src=""stim_listA/shout8.gif""style=""height:400px;""></stim_listA>",,html-keyboard-response,349,1437193,0.0-19.0-1.6,10793,List2A,white,man,,,,null,,,,
null,are shouting at each other,,html-keyboard-response,350,1439198,0.0-19.0-2.6,10793,List2A,white,man,,,,null,,,,
10298,,,survey-text,351,1449497,0.0-19.0-3.6,10793,List2A,white,man,,,,,"{""Q0"":""kate and jane are shouting at each other""}","<img src=""stim_listA/shout8.gif""style=""height:400px;""></stim_listA>",are shouting at each other,
null,"<div style=""font-size:60px;"">+</div>",,html-keyboard-response,352,1450002,0.0-19.0-0.7,10793,List2A,white,man,,,,null,,,,
null,"<img src=""stim_listA/marry8.gif""style=""height:400px;""></stim_listA>",,html-keyboard-response,353,1452004,0.0-19.0-1.7,10793,List2A,white,man,,,,null,,,,
null,are marrying each other,,html-keyboard-response,354,1454006,0.0-19.0-2.7,10793,List2A,white,man,,,,null,,,,
11045,,,survey-text,355,1465052,0.0-19.0-3.7,10793,List2A,white,man,,,,,"{""Q0"":""ruth and kate are marrying each other""}","<img src=""stim_listA/marry8.gif""style=""height:400px;""></stim_listA>",are marrying each other,
null,"<div style=""font-size:60px;"">+</div>",,html-keyboard-response,356,1465554,0.0-19.0-0.8,10793,List2A,white,man,,,,null,,,,
null,"<img src=""stim_listA/shout5.gif""style=""height:400px;""></stim_listA>",,html-keyboard-response,357,1467561,0.0-19.0-1.8,10793,List2A,white,man,,,,null,,,,
null,is shouting at,,html-keyboard-response,358,1469562,0.0-19.0-2.8,10793,List2A,white,man,,,,null,,,,
8525,,,survey-text,359,1478089,0.0-19.0-3.8,10793,List2A,white,man,,,,,"{""Q0"":""luke is shouting at fred""}","<img src=""stim_listA/shout5.gif""style=""height:400px;""></stim_listA>",is shouting at,
null,"<div style=""font-size:60px;"">+</div>",,html-keyboard-response,360,1478590,0.0-19.0-0.9,10793,List2A,white,man,,,,null,,,,
null,"<img src=""stim_listA/fight1.gif""style=""height:400px;""></stim_listA>",,html-keyboard-response,361,1480592,0.0-19.0-1.9,10793,List2A,white,man,,,,null,,,,
null,is fighting,,html-keyboard-response,362,1482595,0.0-19.0-2.9,10793,List2A,white,man,,,,null,,,,
8313,,,survey-text,363,1490910,0.0-19.0-3.9,10793,List2A,white,man,,,,,"{""Q0"":""dave is fighting jane""}","<img src=""stim_listA/fight1.gif""style=""height:400px;""></stim_listA>",is fighting,
null,"<div style=""font-size:60px;"">+</div>",,html-keyboard-response,364,1491416,0.0-19.0-0.10,10793,List2A,white,man,,,,null,,,,
null,"<img src=""stim_listA/talk4.gif""style=""height:400px;""></stim_listA>",,html-keyboard-response,365,1493422,0.0-19.0-1.10,10793,List2A,white,man,,,,null,,,,
null,are talking to each other,,html-keyboard-response,366,1495427,0.0-19.0-2.10,10793,List2A,white,man,,,,null,,,,
11865,,,survey-text,367,1507294,0.0-19.0-3.10,10793,List2A,white,man,,,,,"{""Q0"":""beth and mike are talking to each other""}","<img src=""stim_listA/talk4.gif""style=""height:400px;""></stim_listA>",are talking to each other,
null,"<div style=""font-size:60px;"">+</div>",,html-keyboard-response,368,1507801,0.0-19.0-0.11,10793,List2A,white,man,,,,null,,,,
null,"<img src=""stim_listA/flirt6.gif""style=""height:400px;""></stim_listA>",,html-keyboard-response,369,1509804,0.0-19.0-1.11,10793,List2A,white,man,,,,null,,,,
null,are flirting with each other,,html-keyboard-response,370,1511805,0.0-19.0-2.11,10793,List2A,white,man,,,,null,,,,
9954,,,survey-text,371,1521760,0.0-19.0-3.11,10793,List2A,white,man,,,,,"{""Q0"":""fred and dave are flirting with each other""}","<img src=""stim_listA/flirt6.gif""style=""height:400px;""></stim_listA>",are flirting with each other,
null,"<div style=""font-size:60px;"">+</div>",,html-keyboard-response,372,1522262,0.0-19.0-0.12,10793,List2A,white,man,,,,null,,,,
null,"<img src=""stim_listA/dance2.gif""style=""height:400px;""></stim_listA>",,html-keyboard-response,373,1524265,0.0-19.0-1.12,10793,List2A,white,man,,,,null,,,,
null,are dancing with each other,,html-keyboard-response,374,1526270,0.0-19.0-2.12,10793,List2A,white,man,,,,null,,,,
12468,,,survey-text,375,1538740,0.0-19.0-3.12,10793,List2A,white,man,,,,,"{""Q0"":""ruth and dave are dancing with each other""}","<img src=""stim_listA/dance2.gif""style=""height:400px;""></stim_listA>",are dancing with each other,
null,"<div style=""font-size:60px;"">+</div>",,html-keyboard-response,376,1539246,0.0-19.0-0.13,10793,List2A,white,man,,,,null,,,,
null,"<img src=""stim_listA/flirt7.gif""style=""height:400px;""></stim_listA>",,html-keyboard-response,377,1541248,0.0-19.0-1.13,10793,List2A,white,man,,,,null,,,,
null,is flirting with,,html-keyboard-response,378,1543252,0.0-19.0-2.13,10793,List2A,white,man,,,,null,,,,
10165,,,survey-text,379,1553419,0.0-19.0-3.13,10793,List2A,white,man,,,,,"{""Q0"":""ruth is flirting with kate""}","<img src=""stim_listA/flirt7.gif""style=""height:400px;""></stim_listA>",is flirting with,
null,"<div style=""font-size:60px;"">+</div>",,html-keyboard-response,380,1553926,0.0-19.0-0.14,10793,List2A,white,man,,,,null,,,,
null,"<img src=""stim_listA/flirt5.gif""style=""height:400px;""></stim_listA>",,html-keyboard-response,381,1555928,0.0-19.0-1.14,10793,List2A,white,man,,,,null,,,,
null,is flirting with,,html-keyboard-response,382,1557929,0.0-19.0-2.14,10793,List2A,white,man,,,,null,,,,
6627,,,survey-text,383,1564558,0.0-19.0-3.14,10793,List2A,white,man,,,,,"{""Q0"":""luke is flirting with mike""}","<img src=""stim_listA/flirt5.gif""style=""height:400px;""></stim_listA>",is flirting with,
null,"<div style=""font-size:60px;"">+</div>",,html-keyboard-response,384,1565061,0.0-19.0-0.15,10793,List2A,white,man,,,,null,,,,
null,"<img src=""stim_listA/play8.gif""style=""height:400px;""></stim_listA>",,html-keyboard-response,385,1567063,0.0-19.0-1.15,10793,List2A,white,man,,,,null,,,,
null,are playing with each other,,html-keyboard-response,386,1569064,0.0-19.0-2.15,10793,List2A,white,man,,,,null,,,,
10961,,,survey-text,387,1580027,0.0-19.0-3.15,10793,List2A,white,man,,,,,"{""Q0"":""beth and ruth are playing with each other""}","<img src=""stim_listA/play8.gif""style=""height:400px;""></stim_listA>",are playing with each other,
null,"<div style=""font-size:60px;"">+</div>",,html-keyboard-response,388,1580529,0.0-19.0-0.16,10793,List2A,white,man,,,,null,,,,
null,"<img src=""stim_listA/kiss3.gif""style=""height:400px;""></stim_listA>",,html-keyboard-response,389,1582534,0.0-19.0-1.16,10793,List2A,white,man,,,,null,,,,
null,is kissing,,html-keyboard-response,390,1584535,0.0-19.0-2.16,10793,List2A,white,man,,,,null,,,,
7234,,,survey-text,391,1591771,0.0-19.0-3.16,10793,List2A,white,man,,,,,"{""Q0"":""fred is kissing beth""}","<img src=""stim_listA/kiss3.gif""style=""height:400px;""></stim_listA>",is kissing,
null,"<div style=""font-size:60px;"">+</div>",,html-keyboard-response,392,1592277,0.0-19.0-0.17,10793,List2A,white,man,,,,null,,,,
null,"<img src=""stim_listA/play1.gif""style=""height:400px;""></stim_listA>",,html-keyboard-response,393,1594280,0.0-19.0-1.17,10793,List2A,white,man,,,,null,,,,
null,is playing with,,html-keyboard-response,394,1596285,0.0-19.0-2.17,10793,List2A,white,man,,,,null,,,,
7730,,,survey-text,395,1604016,0.0-19.0-3.17,10793,List2A,white,man,,,,,"{""Q0"":""jane is playing with dave""}","<img src=""stim_listA/play1.gif""style=""height:400px;""></stim_listA>",is playing with,
null,"<div style=""font-size:60px;"">+</div>",,html-keyboard-response,396,1604522,0.0-19.0-0.18,10793,List2A,white,man,,,,null,,,,
null,"<img src=""stim_listA/dance5.gif""style=""height:400px;""></stim_listA>",,html-keyboard-response,397,1606526,0.0-19.0-1.18,10793,List2A,white,man,,,,null,,,,
null,is dancing with,,html-keyboard-response,398,1608527,0.0-19.0-2.18,10793,List2A,white,man,,,,null,,,,
7253,,,survey-text,399,1615781,0.0-19.0-3.18,10793,List2A,white,man,,,,,"{""Q0"":""luke is dancing with mike""}","<img src=""stim_listA/dance5.gif""style=""height:400px;""></stim_listA>",is dancing with,
null,"<div style=""font-size:60px;"">+</div>",,html-keyboard-response,400,1616288,0.0-19.0-0.19,10793,List2A,white,man,,,,null,,,,
null,"<img src=""stim_listA/touch3.gif""style=""height:400px;""></stim_listA>",,html-keyboard-response,401,1618291,0.0-19.0-1.19,10793,List2A,white,man,,,,null,,,,
null,is touching,,html-keyboard-response,402,1620292,0.0-19.0-2.19,10793,List2A,white,man,,,,null,,,,
6525,,,survey-text,403,1626820,0.0-19.0-3.19,10793,List2A,white,man,,,,,"{""Q0"":""mike is touching kate""}","<img src=""stim_listA/touch3.gif""style=""height:400px;""></stim_listA>",is touching,
2523,<p>Thank you for completing that task.</p><p>The final part of this session is a short questionnaire.</p><p>Press Continue.</p>,0,html-button-response,404,1629344,0.0-20.0,10793,List2A,white,man,,,,,,,,
25478,,,survey-text,405,1655827,0.0-21.0,10793,List2A,white,man,,,,,"{""Q0"":""34"",""Q1"":""English"",""Q2"":""English"",""Q3"":""England"",""Q4"":""White"",""Q5"":""Male""}",,,demographics
6261,,,survey-likert,406,1662135,0.0-22.0,10793,List2A,white,man,,,,,"{""Q0"":4}",,,likert_ESS
7429,,,survey-likert,407,1669570,0.0-23.0,10793,List2A,white,man,,,,,"{""Q0"":4}",,,likert_NSSAL_Q1
3341,,,survey-likert,408,1672913,0.0-24.0,10793,List2A,white,man,,,,,"{""Q0"":4}",,,likert_NSSAL_Q2
3943,,,survey-likert,409,1676859,0.0-25.0,10793,List2A,white,man,,,,,"{""Q0"":4}",,,likert_CGRS_Q1
2704,,,survey-likert,410,1679566,0.0-26.0,10793,List2A,white,man,,,,,"{""Q0"":4}",,,likert_CGRS_Q2
2220,,,survey-likert,411,1681788,0.0-27.0,10793,List2A,white,man,,,,,"{""Q0"":4}",,,likert_CGRS_Q3
17842,,,survey-text,412,1699641,0.0-28.0,10793,List2A,white,man,,,,,"{""Q0"":""ccc""}",,,worker_id
12973,,,external-html,413,1712863,0.0-29.0,10793,List2A,white,man,debrief.html,,,,,,,
