rt,stimulus,button_pressed,trial_type,trial_index,time_elapsed,internal_node_id,subject,list,ppt_race,ppt_gender,url,first_guess,correct,key_press,responses,image_type,phrase_type,test_part
5783,Welcome to the experiment. Press Continue to begin.,0,html-button-response,0,5785,0.0-0.0,10870,List2A,white,woman,,,,,,,,
27671,,,external-html,1,34494,0.0-1.0,10870,List2A,white,woman,consent.html,,,,,,,
8756,"<p>On the next page, you will see portraits of 8 people and their names.</p><p>Your first task is to take a few minutes to memorise the names of these people.</p><p>You will have to recall their names during the rest of the experiment, so it is</p><p>essential that you try to memorise these people and their names as best as you can.</p><br><p><strong>You will then be tested on your memory of these names and portraits.</strong></p><br><p>The experiment will start after you have completed this memory test.</p><br><p>Ready?</p>",0,html-button-response,2,43251,0.0-2.0,10870,List2A,white,woman,,,,,,,,
40033,"<img src='img/portrait_matrix_list2.jpg' style='width:900px;height:500px;''></img><p>If you have memorised all the portraits and names and are ready to start, press Continue.</p><p><strong>Please note: Your memory of these faces will be tested 4 times during this experiment.</strong></p>",0,html-button-response,3,84287,0.0-3.0-0.0,10870,List2A,white,woman,,,,,,,,
2035,"<img src=""portrait/WM2.jpg""style=""height:400px;""></img>",7,html-button-response,4,87336,0.0-3.0-1.0,10870,List2A,white,woman,,TRUE,7,,,,,
null,CORRECT,,html-keyboard-response,5,88844,0.0-3.0-2.0-0.0,10870,List2A,white,woman,,,,null,,,,
2537,"<img src=""portrait/WW1.jpg""style=""height:400px;""></img>",1,html-button-response,6,91382,0.0-3.0-4.0,10870,List2A,white,woman,,TRUE,1,,,,,
null,CORRECT,,html-keyboard-response,7,92896,0.0-3.0-5.0-0.0,10870,List2A,white,woman,,,,null,,,,
8162,"<img src=""portrait/BW2.jpg""style=""height:400px;""></img>",2,html-button-response,8,101059,0.0-3.0-7.0,10870,List2A,white,woman,,TRUE,2,,,,,
null,CORRECT,,html-keyboard-response,9,102561,0.0-3.0-8.0-0.0,10870,List2A,white,woman,,,,null,,,,
7113,"<img src=""portrait/WW2.jpg""style=""height:400px;""></img>",0,html-button-response,10,109675,0.0-3.0-10.0,10870,List2A,white,woman,,TRUE,3,,,,,
2595,"<img src=""portrait/WW2.jpg""style=""height:400px;""></img>",3,html-button-response,11,113273,0.0-3.0-12.0-0.0,10870,List2A,white,woman,,FALSE,3,,,,,
null,CORRECT,,html-keyboard-response,12,114776,0.0-3.0-12.0-1.0-0.0,10870,List2A,white,woman,,,,null,,,,
2690,"<img src=""portrait/BM1.jpg""style=""height:400px;""></img>",4,html-button-response,13,117467,0.0-3.0-13.0,10870,List2A,white,woman,,TRUE,4,,,,,
null,CORRECT,,html-keyboard-response,14,118969,0.0-3.0-14.0-0.0,10870,List2A,white,woman,,,,null,,,,
2605,"<img src=""portrait/BM2.jpg""style=""height:400px;""></img>",5,html-button-response,15,121577,0.0-3.0-16.0,10870,List2A,white,woman,,TRUE,5,,,,,
null,CORRECT,,html-keyboard-response,16,123079,0.0-3.0-17.0-0.0,10870,List2A,white,woman,,,,null,,,,
4223,"<img src=""portrait/BW1.jpg""style=""height:400px;""></img>",0,html-button-response,17,127303,0.0-3.0-19.0,10870,List2A,white,woman,,TRUE,0,,,,,
null,CORRECT,,html-keyboard-response,18,128806,0.0-3.0-20.0-0.0,10870,List2A,white,woman,,,,null,,,,
2943,"<img src=""portrait/WM1.jpg""style=""height:400px;""></img>",6,html-button-response,19,131751,0.0-3.0-22.0,10870,List2A,white,woman,,TRUE,6,,,,,
null,CORRECT,,html-keyboard-response,20,133257,0.0-3.0-23.0-0.0,10870,List2A,white,woman,,,,null,,,,
1624,<p>You got 7 out of 8 right first time. Press Continue.</p>,0,html-button-response,21,134883,0.0-3.0-25.0,10870,List2A,white,woman,,,,,,,,
2604,"As you did not score 100%, the memory game will repeat. Press Continue.",0,html-button-response,22,138489,0.0-3.0-26.0-0.0,10870,List2A,white,woman,,,,,,,,
3678,"<img src='img/portrait_matrix_list2.jpg' style='width:900px;height:500px;''></img><p>If you have memorised all the portraits and names and are ready to start, press Continue.</p><p><strong>Please note: Your memory of these faces will be tested 4 times during this experiment.</strong></p>",0,html-button-response,23,143171,0.0-3.1-0.1,10870,List2A,white,woman,,,,,,,,
1067,"<img src=""portrait/WM2.jpg""style=""height:400px;""></img>",7,html-button-response,24,145239,0.0-3.1-1.1,10870,List2A,white,woman,,TRUE,7,,,,,
null,CORRECT,,html-keyboard-response,25,146742,0.0-3.1-2.1-0.1,10870,List2A,white,woman,,,,null,,,,
2989,"<img src=""portrait/WW1.jpg""style=""height:400px;""></img>",1,html-button-response,26,149733,0.0-3.1-4.1,10870,List2A,white,woman,,TRUE,1,,,,,
null,CORRECT,,html-keyboard-response,27,151242,0.0-3.1-5.1-0.1,10870,List2A,white,woman,,,,null,,,,
4409,"<img src=""portrait/BW2.jpg""style=""height:400px;""></img>",2,html-button-response,28,155653,0.0-3.1-7.1,10870,List2A,white,woman,,TRUE,2,,,,,
null,CORRECT,,html-keyboard-response,29,157160,0.0-3.1-8.1-0.1,10870,List2A,white,woman,,,,null,,,,
1150,"<img src=""portrait/WW2.jpg""style=""height:400px;""></img>",3,html-button-response,30,158311,0.0-3.1-10.1,10870,List2A,white,woman,,TRUE,3,,,,,
null,CORRECT,,html-keyboard-response,31,159813,0.0-3.1-11.1-0.1,10870,List2A,white,woman,,,,null,,,,
1769,"<img src=""portrait/BM1.jpg""style=""height:400px;""></img>",4,html-button-response,32,161585,0.0-3.1-13.1,10870,List2A,white,woman,,TRUE,4,,,,,
null,CORRECT,,html-keyboard-response,33,163088,0.0-3.1-14.1-0.1,10870,List2A,white,woman,,,,null,,,,
1507,"<img src=""portrait/BM2.jpg""style=""height:400px;""></img>",5,html-button-response,34,164597,0.0-3.1-16.1,10870,List2A,white,woman,,TRUE,5,,,,,
null,CORRECT,,html-keyboard-response,35,166100,0.0-3.1-17.1-0.1,10870,List2A,white,woman,,,,null,,,,
2268,"<img src=""portrait/BW1.jpg""style=""height:400px;""></img>",0,html-button-response,36,168371,0.0-3.1-19.1,10870,List2A,white,woman,,TRUE,0,,,,,
null,CORRECT,,html-keyboard-response,37,169874,0.0-3.1-20.1-0.1,10870,List2A,white,woman,,,,null,,,,
2853,"<img src=""portrait/WM1.jpg""style=""height:400px;""></img>",6,html-button-response,38,172729,0.0-3.1-22.1,10870,List2A,white,woman,,TRUE,6,,,,,
null,CORRECT,,html-keyboard-response,39,174231,0.0-3.1-23.1-0.1,10870,List2A,white,woman,,,,null,,,,
1100,<p>You got 8 out of 8 right first time. Press Continue.</p>,0,html-button-response,40,175333,0.0-3.1-25.1,10870,List2A,white,woman,,,,,,,,
25233,"<p>In this experiment, you will view photographs of the people from the memory game interacting.</p><p>By using the <strong>exact</strong> phrase given <i>after</i> the photograph appears and recalling the correct names of the people in the photographs, form a sentence describing the interaction. You do not need to capitalise names.</p><p>Type your answer in the space provided. Please complete every sentence before moving onto the next trial.</p><p>You will only have a few seconds to memorise each given photograph and phrase before you can respond, so try your best to focus.</p><p>An example is given below. Press 'Continue' when you are ready.</p><img src='img/speaking_example.jpg' style='width:800px;height:460px;''></img>",0,html-button-response,41,201569,0.0-4.0,10870,List2A,white,woman,,,,,,,,
2460,"<p>Before the experiment starts, you will watch two example trials. Press 'Continue'.</p>",0,html-button-response,42,205030,0.0-5.0,10870,List2A,white,woman,,,,,,,,
null,<img src='img/meet_eg.gif' style='height:400px;''></img>,,html-keyboard-response,43,208034,0.0-6.0,10870,List2A,white,woman,,,,null,,,,
null,<p>is meeting</p>,,html-keyboard-response,44,210035,0.0-7.0,10870,List2A,white,woman,,,,null,,,,
3362,<p><b>Answer:</b> jane is meeting ruth</p>,0,html-button-response,45,213399,0.0-8.0,10870,List2A,white,woman,,,,,,,,
null,<img src='img/look_eg.gif' style='height:400px;''></img>,,html-keyboard-response,46,216404,0.0-9.0,10870,List2A,white,woman,,,,null,,,,
null,<p>are looking at each other</p>,,html-keyboard-response,47,218405,0.0-10.0,10870,List2A,white,woman,,,,null,,,,
1479,<p><b>Answer:</b> fred and mike are looking at each other</p>,0,html-button-response,48,219885,0.0-11.0,10870,List2A,white,woman,,,,,,,,
3458,"<p>Ready to start the experiment?</p><br><p><strong>Remember to describe the picture using a full sentence,</strong></p><p><strong>that combines the names of the people with the <i>exact</i> phrase given.</strong></p><p><strong>To receive full payment you must do this correctly.</strong></p><p><strong> You do not need to capitalise names or use punctuation.</strong></p><br><p>Press 'Continue' to begin.</p>",0,html-button-response,49,224345,0.0-12.0,10870,List2A,white,woman,,,,,,,,
null,"<div style=""font-size:60px;"">+</div>",,html-keyboard-response,50,225848,0.0-13.0-0.0,10870,List2A,white,woman,,,,null,,,,
null,"<img src=""stim_listA/touch2.gif""style=""height:400px;""></stim_listA>",,html-keyboard-response,51,227852,0.0-13.0-1.0,10870,List2A,white,woman,,,,null,,,,
null,are touching each other,,html-keyboard-response,52,229854,0.0-13.0-2.0,10870,List2A,white,woman,,,,null,,,,
9713,,,survey-text,53,239569,0.0-13.0-3.0,10870,List2A,white,woman,,,,,"{""Q0"":""luke and ruth are touching each other""}","<img src=""stim_listA/touch2.gif""style=""height:400px;""></stim_listA>",are touching each other,
null,"<div style=""font-size:60px;"">+</div>",,html-keyboard-response,54,240072,0.0-13.0-0.1,10870,List2A,white,woman,,,,null,,,,
null,"<img src=""stim_listA/shout6.gif""style=""height:400px;""></stim_listA>",,html-keyboard-response,55,242074,0.0-13.0-1.1,10870,List2A,white,woman,,,,null,,,,
null,are shouting at each other,,html-keyboard-response,56,244075,0.0-13.0-2.1,10870,List2A,white,woman,,,,null,,,,
10647,,,survey-text,57,254723,0.0-13.0-3.1,10870,List2A,white,woman,,,,,"{""Q0"":""mike and dave are shouting at each other""}","<img src=""stim_listA/shout6.gif""style=""height:400px;""></stim_listA>",are shouting at each other,
null,"<div style=""font-size:60px;"">+</div>",,html-keyboard-response,58,255224,0.0-13.0-0.2,10870,List2A,white,woman,,,,null,,,,
null,"<img src=""stim_listA/talk8.gif""style=""height:400px;""></stim_listA>",,html-keyboard-response,59,257231,0.0-13.0-1.2,10870,List2A,white,woman,,,,null,,,,
null,are talking to each other,,html-keyboard-response,60,259244,0.0-13.0-2.2,10870,List2A,white,woman,,,,null,,,,
15048,,,survey-text,61,274293,0.0-13.0-3.2,10870,List2A,white,woman,,,,,"{""Q0"":""beth and jane are talking to each other""}","<img src=""stim_listA/talk8.gif""style=""height:400px;""></stim_listA>",are talking to each other,
null,"<div style=""font-size:60px;"">+</div>",,html-keyboard-response,62,274794,0.0-13.0-0.3,10870,List2A,white,woman,,,,null,,,,
null,"<img src=""stim_listA/shout7.gif""style=""height:400px;""></stim_listA>",,html-keyboard-response,63,276796,0.0-13.0-1.3,10870,List2A,white,woman,,,,null,,,,
null,is shouting at,,html-keyboard-response,64,278796,0.0-13.0-2.3,10870,List2A,white,woman,,,,null,,,,
9078,,,survey-text,65,287875,0.0-13.0-3.3,10870,List2A,white,woman,,,,,"{""Q0"":""beth is shouting at ruth""}","<img src=""stim_listA/shout7.gif""style=""height:400px;""></stim_listA>",is shouting at,
null,"<div style=""font-size:60px;"">+</div>",,html-keyboard-response,66,288377,0.0-13.0-0.4,10870,List2A,white,woman,,,,null,,,,
null,"<img src=""stim_listA/play2.gif""style=""height:400px;""></stim_listA>",,html-keyboard-response,67,290380,0.0-13.0-1.4,10870,List2A,white,woman,,,,null,,,,
null,are playing with each other,,html-keyboard-response,68,292382,0.0-13.0-2.4,10870,List2A,white,woman,,,,null,,,,
12002,,,survey-text,69,304385,0.0-13.0-3.4,10870,List2A,white,woman,,,,,"{""Q0"":""ruth and luke are playing each other""}","<img src=""stim_listA/play2.gif""style=""height:400px;""></stim_listA>",are playing with each other,
null,"<div style=""font-size:60px;"">+</div>",,html-keyboard-response,70,304887,0.0-13.0-0.5,10870,List2A,white,woman,,,,null,,,,
null,"<img src=""stim_listA/dance4.gif""style=""height:400px;""></stim_listA>",,html-keyboard-response,71,306889,0.0-13.0-1.5,10870,List2A,white,woman,,,,null,,,,
null,are dancing with each other,,html-keyboard-response,72,308890,0.0-13.0-2.5,10870,List2A,white,woman,,,,null,,,,
14326,,,survey-text,73,323217,0.0-13.0-3.5,10870,List2A,white,woman,,,,,"{""Q0"":""mike and beth are dancing with each other""}","<img src=""stim_listA/dance4.gif""style=""height:400px;""></stim_listA>",are dancing with each other,
null,"<div style=""font-size:60px;"">+</div>",,html-keyboard-response,74,323719,0.0-13.0-0.6,10870,List2A,white,woman,,,,null,,,,
null,"<img src=""stim_listA/marry2.gif""style=""height:400px;""></stim_listA>",,html-keyboard-response,75,325721,0.0-13.0-1.6,10870,List2A,white,woman,,,,null,,,,
null,are marrying each other,,html-keyboard-response,76,327723,0.0-13.0-2.6,10870,List2A,white,woman,,,,null,,,,
9149,,,survey-text,77,336874,0.0-13.0-3.6,10870,List2A,white,woman,,,,,"{""Q0"":""jane and luke are marrying each other""}","<img src=""stim_listA/marry2.gif""style=""height:400px;""></stim_listA>",are marrying each other,
null,"<div style=""font-size:60px;"">+</div>",,html-keyboard-response,78,337384,0.0-13.0-0.7,10870,List2A,white,woman,,,,null,,,,
null,"<img src=""stim_listA/flirt3.gif""style=""height:400px;""></stim_listA>",,html-keyboard-response,79,339388,0.0-13.0-1.7,10870,List2A,white,woman,,,,null,,,,
null,is flirting with,,html-keyboard-response,80,341390,0.0-13.0-2.7,10870,List2A,white,woman,,,,null,,,,
7234,,,survey-text,81,348626,0.0-13.0-3.7,10870,List2A,white,woman,,,,,"{""Q0"":""fred is flirting with kate""}","<img src=""stim_listA/flirt3.gif""style=""height:400px;""></stim_listA>",is flirting with,
null,"<div style=""font-size:60px;"">+</div>",,html-keyboard-response,82,349128,0.0-13.0-0.8,10870,List2A,white,woman,,,,null,,,,
null,"<img src=""stim_listA/dance1.gif""style=""height:400px;""></stim_listA>",,html-keyboard-response,83,351130,0.0-13.0-1.8,10870,List2A,white,woman,,,,null,,,,
null,is dancing with,,html-keyboard-response,84,353132,0.0-13.0-2.8,10870,List2A,white,woman,,,,null,,,,
5478,,,survey-text,85,358612,0.0-13.0-3.8,10870,List2A,white,woman,,,,,"{""Q0"":""jane is dancing with luke""}","<img src=""stim_listA/dance1.gif""style=""height:400px;""></stim_listA>",is dancing with,
null,"<div style=""font-size:60px;"">+</div>",,html-keyboard-response,86,359113,0.0-13.0-0.9,10870,List2A,white,woman,,,,null,,,,
null,"<img src=""stim_listA/kiss7.gif""style=""height:400px;""></stim_listA>",,html-keyboard-response,87,361115,0.0-13.0-1.9,10870,List2A,white,woman,,,,null,,,,
null,is kissing,,html-keyboard-response,88,363118,0.0-13.0-2.9,10870,List2A,white,woman,,,,null,,,,
7002,,,survey-text,89,370122,0.0-13.0-3.9,10870,List2A,white,woman,,,,,"{""Q0"":""beth is kissing ruth""}","<img src=""stim_listA/kiss7.gif""style=""height:400px;""></stim_listA>",is kissing,
null,"<div style=""font-size:60px;"">+</div>",,html-keyboard-response,90,370623,0.0-13.0-0.10,10870,List2A,white,woman,,,,null,,,,
null,"<img src=""stim_listA/kiss5.gif""style=""height:400px;""></stim_listA>",,html-keyboard-response,91,372627,0.0-13.0-1.10,10870,List2A,white,woman,,,,null,,,,
null,is kissing,,html-keyboard-response,92,374628,0.0-13.0-2.10,10870,List2A,white,woman,,,,null,,,,
6262,,,survey-text,93,380892,0.0-13.0-3.10,10870,List2A,white,woman,,,,,"{""Q0"":""luke is kissing fred""}","<img src=""stim_listA/kiss5.gif""style=""height:400px;""></stim_listA>",is kissing,
null,"<div style=""font-size:60px;"">+</div>",,html-keyboard-response,94,381393,0.0-13.0-0.11,10870,List2A,white,woman,,,,null,,,,
null,"<img src=""stim_listA/dance5.gif""style=""height:400px;""></stim_listA>",,html-keyboard-response,95,383395,0.0-13.0-1.11,10870,List2A,white,woman,,,,null,,,,
null,is dancing with,,html-keyboard-response,96,385397,0.0-13.0-2.11,10870,List2A,white,woman,,,,null,,,,
5705,,,survey-text,97,391104,0.0-13.0-3.11,10870,List2A,white,woman,,,,,"{""Q0"":""mike is dancing with luke""}","<img src=""stim_listA/dance5.gif""style=""height:400px;""></stim_listA>",is dancing with,
null,"<div style=""font-size:60px;"">+</div>",,html-keyboard-response,98,391605,0.0-13.0-0.12,10870,List2A,white,woman,,,,null,,,,
null,"<img src=""stim_listA/argue4.gif""style=""height:400px;""></stim_listA>",,html-keyboard-response,99,393607,0.0-13.0-1.12,10870,List2A,white,woman,,,,null,,,,
null,are arguing with each other,,html-keyboard-response,100,395608,0.0-13.0-2.12,10870,List2A,white,woman,,,,null,,,,
10206,,,survey-text,101,405816,0.0-13.0-3.12,10870,List2A,white,woman,,,,,"{""Q0"":""jane and fred are arguing with each other""}","<img src=""stim_listA/argue4.gif""style=""height:400px;""></stim_listA>",are arguing with each other,
null,"<div style=""font-size:60px;"">+</div>",,html-keyboard-response,102,406317,0.0-13.0-0.13,10870,List2A,white,woman,,,,null,,,,
null,"<img src=""stim_listA/play3.gif""style=""height:400px;""></stim_listA>",,html-keyboard-response,103,408320,0.0-13.0-1.13,10870,List2A,white,woman,,,,null,,,,
null,is playing with,,html-keyboard-response,104,410322,0.0-13.0-2.13,10870,List2A,white,woman,,,,null,,,,
6170,,,survey-text,105,416494,0.0-13.0-3.13,10870,List2A,white,woman,,,,,"{""Q0"":""mike is playing with kate""}","<img src=""stim_listA/play3.gif""style=""height:400px;""></stim_listA>",is playing with,
null,"<div style=""font-size:60px;"">+</div>",,html-keyboard-response,106,416995,0.0-13.0-0.14,10870,List2A,white,woman,,,,null,,,,
null,"<img src=""stim_listA/talk4.gif""style=""height:400px;""></stim_listA>",,html-keyboard-response,107,418998,0.0-13.0-1.14,10870,List2A,white,woman,,,,null,,,,
null,are talking to each other,,html-keyboard-response,108,420999,0.0-13.0-2.14,10870,List2A,white,woman,,,,null,,,,
10831,,,survey-text,109,431832,0.0-13.0-3.14,10870,List2A,white,woman,,,,,"{""Q0"":""beth and mike are talking to each other""}","<img src=""stim_listA/talk4.gif""style=""height:400px;""></stim_listA>",are talking to each other,
null,"<div style=""font-size:60px;"">+</div>",,html-keyboard-response,110,432333,0.0-13.0-0.15,10870,List2A,white,woman,,,,null,,,,
null,"<img src=""stim_listA/argue3.gif""style=""height:400px;""></stim_listA>",,html-keyboard-response,111,434335,0.0-13.0-1.15,10870,List2A,white,woman,,,,null,,,,
null,is arguing with,,html-keyboard-response,112,436341,0.0-13.0-2.15,10870,List2A,white,woman,,,,null,,,,
5627,,,survey-text,113,441970,0.0-13.0-3.15,10870,List2A,white,woman,,,,,"{""Q0"":""beth is arguing with mike""}","<img src=""stim_listA/argue3.gif""style=""height:400px;""></stim_listA>",is arguing with,
null,"<div style=""font-size:60px;"">+</div>",,html-keyboard-response,114,442471,0.0-13.0-0.16,10870,List2A,white,woman,,,,null,,,,
null,"<img src=""stim_listA/flirt4.gif""style=""height:400px;""></stim_listA>",,html-keyboard-response,115,444474,0.0-13.0-1.16,10870,List2A,white,woman,,,,null,,,,
null,are flirting with each other,,html-keyboard-response,116,446475,0.0-13.0-2.16,10870,List2A,white,woman,,,,null,,,,
11223,,,survey-text,117,457699,0.0-13.0-3.16,10870,List2A,white,woman,,,,,"{""Q0"":""beth and mike are flirting with each other""}","<img src=""stim_listA/flirt4.gif""style=""height:400px;""></stim_listA>",are flirting with each other,
null,"<div style=""font-size:60px;"">+</div>",,html-keyboard-response,118,458201,0.0-13.0-0.17,10870,List2A,white,woman,,,,null,,,,
null,"<img src=""stim_listA/talk6.gif""style=""height:400px;""></stim_listA>",,html-keyboard-response,119,460204,0.0-13.0-1.17,10870,List2A,white,woman,,,,null,,,,
null,are talking to each other,,html-keyboard-response,120,462206,0.0-13.0-2.17,10870,List2A,white,woman,,,,null,,,,
7507,,,survey-text,121,469715,0.0-13.0-3.17,10870,List2A,white,woman,,,,,"{""Q0"":""fred and dave are talking to each other""}","<img src=""stim_listA/talk6.gif""style=""height:400px;""></stim_listA>",are talking to each other,
null,"<div style=""font-size:60px;"">+</div>",,html-keyboard-response,122,470216,0.0-13.0-0.18,10870,List2A,white,woman,,,,null,,,,
null,"<img src=""stim_listA/touch5.gif""style=""height:400px;""></stim_listA>",,html-keyboard-response,123,472220,0.0-13.0-1.18,10870,List2A,white,woman,,,,null,,,,
null,is touching,,html-keyboard-response,124,474222,0.0-13.0-2.18,10870,List2A,white,woman,,,,null,,,,
5558,,,survey-text,125,479781,0.0-13.0-3.18,10870,List2A,white,woman,,,,,"{""Q0"":""dave is touching mike""}","<img src=""stim_listA/touch5.gif""style=""height:400px;""></stim_listA>",is touching,
null,"<div style=""font-size:60px;"">+</div>",,html-keyboard-response,126,480282,0.0-13.0-0.19,10870,List2A,white,woman,,,,null,,,,
null,"<img src=""stim_listA/marry7.gif""style=""height:400px;""></stim_listA>",,html-keyboard-response,127,482285,0.0-13.0-1.19,10870,List2A,white,woman,,,,null,,,,
null,is marrying,,html-keyboard-response,128,484288,0.0-13.0-2.19,10870,List2A,white,woman,,,,null,,,,
4585,,,survey-text,129,488875,0.0-13.0-3.19,10870,List2A,white,woman,,,,,"{""Q0"":""jane is marrying beth""}","<img src=""stim_listA/marry7.gif""style=""height:400px;""></stim_listA>",is marrying,
6718,"<img src='img/portrait_matrix_list2.jpg' style='width:900px;height:500px;''></img><p>If you have memorised all the portraits and names and are ready to start, press Continue.</p><p><strong>Please note: Your memory of these faces will be tested 4 times during this experiment.</strong></p>",0,html-button-response,130,495593,0.0-14.0-0.0,10870,List2A,white,woman,,,,,,,,
3734,"<img src=""portrait/BW1.jpg""style=""height:400px;""></img>",0,html-button-response,131,500329,0.0-14.0-1.0,10870,List2A,white,woman,,TRUE,0,,,,,
null,CORRECT,,html-keyboard-response,132,501831,0.0-14.0-2.0-0.0,10870,List2A,white,woman,,,,null,,,,
1994,"<img src=""portrait/WM1.jpg""style=""height:400px;""></img>",6,html-button-response,133,503827,0.0-14.0-4.0,10870,List2A,white,woman,,TRUE,6,,,,,
null,CORRECT,,html-keyboard-response,134,505330,0.0-14.0-5.0-0.0,10870,List2A,white,woman,,,,null,,,,
1272,"<img src=""portrait/WW2.jpg""style=""height:400px;""></img>",3,html-button-response,135,506603,0.0-14.0-7.0,10870,List2A,white,woman,,TRUE,3,,,,,
null,CORRECT,,html-keyboard-response,136,508106,0.0-14.0-8.0-0.0,10870,List2A,white,woman,,,,null,,,,
1356,"<img src=""portrait/WM2.jpg""style=""height:400px;""></img>",7,html-button-response,137,509464,0.0-14.0-10.0,10870,List2A,white,woman,,TRUE,7,,,,,
null,CORRECT,,html-keyboard-response,138,510966,0.0-14.0-11.0-0.0,10870,List2A,white,woman,,,,null,,,,
2403,"<img src=""portrait/WW1.jpg""style=""height:400px;""></img>",1,html-button-response,139,513369,0.0-14.0-13.0,10870,List2A,white,woman,,TRUE,1,,,,,
null,CORRECT,,html-keyboard-response,140,514873,0.0-14.0-14.0-0.0,10870,List2A,white,woman,,,,null,,,,
1379,"<img src=""portrait/BW2.jpg""style=""height:400px;""></img>",2,html-button-response,141,516253,0.0-14.0-16.0,10870,List2A,white,woman,,TRUE,2,,,,,
null,CORRECT,,html-keyboard-response,142,517757,0.0-14.0-17.0-0.0,10870,List2A,white,woman,,,,null,,,,
1243,"<img src=""portrait/BM1.jpg""style=""height:400px;""></img>",4,html-button-response,143,519000,0.0-14.0-19.0,10870,List2A,white,woman,,TRUE,4,,,,,
null,CORRECT,,html-keyboard-response,144,520510,0.0-14.0-20.0-0.0,10870,List2A,white,woman,,,,null,,,,
1303,"<img src=""portrait/BM2.jpg""style=""height:400px;""></img>",5,html-button-response,145,521815,0.0-14.0-22.0,10870,List2A,white,woman,,TRUE,5,,,,,
null,CORRECT,,html-keyboard-response,146,523318,0.0-14.0-23.0-0.0,10870,List2A,white,woman,,,,null,,,,
619,<p>You got 8 out of 8 right first time. Press Continue.</p>,0,html-button-response,147,523939,0.0-14.0-25.0,10870,List2A,white,woman,,,,,,,,
null,"<div style=""font-size:60px;"">+</div>",,html-keyboard-response,148,525441,0.0-15.0-0.0,10870,List2A,white,woman,,,,null,,,,
null,"<img src=""stim_listA/kiss1.gif""style=""height:400px;""></stim_listA>",,html-keyboard-response,149,527445,0.0-15.0-1.0,10870,List2A,white,woman,,,,null,,,,
null,is kissing,,html-keyboard-response,150,529446,0.0-15.0-2.0,10870,List2A,white,woman,,,,null,,,,
5800,,,survey-text,151,535247,0.0-15.0-3.0,10870,List2A,white,woman,,,,,"{""Q0"":""luke is kissing ruth""}","<img src=""stim_listA/kiss1.gif""style=""height:400px;""></stim_listA>",is kissing,
null,"<div style=""font-size:60px;"">+</div>",,html-keyboard-response,152,535748,0.0-15.0-0.1,10870,List2A,white,woman,,,,null,,,,
null,"<img src=""stim_listA/marry3.gif""style=""height:400px;""></stim_listA>",,html-keyboard-response,153,537749,0.0-15.0-1.1,10870,List2A,white,woman,,,,null,,,,
null,is marrying,,html-keyboard-response,154,539749,0.0-15.0-2.1,10870,List2A,white,woman,,,,null,,,,
5319,,,survey-text,155,545070,0.0-15.0-3.1,10870,List2A,white,woman,,,,,"{""Q0"":""beth is marrying mike""}","<img src=""stim_listA/marry3.gif""style=""height:400px;""></stim_listA>",is marrying,
null,"<div style=""font-size:60px;"">+</div>",,html-keyboard-response,156,545571,0.0-15.0-0.2,10870,List2A,white,woman,,,,null,,,,
null,"<img src=""stim_listA/play4.gif""style=""height:400px;""></stim_listA>",,html-keyboard-response,157,547573,0.0-15.0-1.2,10870,List2A,white,woman,,,,null,,,,
null,are playing with each other,,html-keyboard-response,158,549575,0.0-15.0-2.2,10870,List2A,white,woman,,,,null,,,,
9171,,,survey-text,159,558747,0.0-15.0-3.2,10870,List2A,white,woman,,,,,"{""Q0"":""beth and fred are playing with each other""}","<img src=""stim_listA/play4.gif""style=""height:400px;""></stim_listA>",are playing with each other,
null,"<div style=""font-size:60px;"">+</div>",,html-keyboard-response,160,559249,0.0-15.0-0.3,10870,List2A,white,woman,,,,null,,,,
null,"<img src=""stim_listA/fight1.gif""style=""height:400px;""></stim_listA>",,html-keyboard-response,161,561252,0.0-15.0-1.3,10870,List2A,white,woman,,,,null,,,,
null,is fighting,,html-keyboard-response,162,563255,0.0-15.0-2.3,10870,List2A,white,woman,,,,null,,,,
6113,,,survey-text,163,569370,0.0-15.0-3.3,10870,List2A,white,woman,,,,,"{""Q0"":""jane is fighting dave""}","<img src=""stim_listA/fight1.gif""style=""height:400px;""></stim_listA>",is fighting,
null,"<div style=""font-size:60px;"">+</div>",,html-keyboard-response,164,569871,0.0-15.0-0.4,10870,List2A,white,woman,,,,null,,,,
null,"<img src=""stim_listA/play7.gif""style=""height:400px;""></stim_listA>",,html-keyboard-response,165,571874,0.0-15.0-1.4,10870,List2A,white,woman,,,,null,,,,
null,is playing with,,html-keyboard-response,166,573875,0.0-15.0-2.4,10870,List2A,white,woman,,,,null,,,,
5465,,,survey-text,167,579341,0.0-15.0-3.4,10870,List2A,white,woman,,,,,"{""Q0"":""jane is playing with kate""}","<img src=""stim_listA/play7.gif""style=""height:400px;""></stim_listA>",is playing with,
null,"<div style=""font-size:60px;"">+</div>",,html-keyboard-response,168,579842,0.0-15.0-0.5,10870,List2A,white,woman,,,,null,,,,
null,"<img src=""stim_listA/argue8.gif""style=""height:400px;""></stim_listA>",,html-keyboard-response,169,581845,0.0-15.0-1.5,10870,List2A,white,woman,,,,null,,,,
null,are arguing with each other,,html-keyboard-response,170,583847,0.0-15.0-2.5,10870,List2A,white,woman,,,,null,,,,
11052,,,survey-text,171,594901,0.0-15.0-3.5,10870,List2A,white,woman,,,,,"{""Q0"":""kate and ruth are arguing with each other""}","<img src=""stim_listA/argue8.gif""style=""height:400px;""></stim_listA>",are arguing with each other,
null,"<div style=""font-size:60px;"">+</div>",,html-keyboard-response,172,595403,0.0-15.0-0.6,10870,List2A,white,woman,,,,null,,,,
null,"<img src=""stim_listA/shout3.gif""style=""height:400px;""></stim_listA>",,html-keyboard-response,173,597406,0.0-15.0-1.6,10870,List2A,white,woman,,,,null,,,,
null,is shouting at,,html-keyboard-response,174,599408,0.0-15.0-2.6,10870,List2A,white,woman,,,,null,,,,
4988,,,survey-text,175,604397,0.0-15.0-3.6,10870,List2A,white,woman,,,,,"{""Q0"":""fred is shouting at beth""}","<img src=""stim_listA/shout3.gif""style=""height:400px;""></stim_listA>",is shouting at,
null,"<div style=""font-size:60px;"">+</div>",,html-keyboard-response,176,604907,0.0-15.0-0.7,10870,List2A,white,woman,,,,null,,,,
null,"<img src=""stim_listA/shout1.gif""style=""height:400px;""></stim_listA>",,html-keyboard-response,177,606908,0.0-15.0-1.7,10870,List2A,white,woman,,,,null,,,,
null,is shouting at,,html-keyboard-response,178,608909,0.0-15.0-2.7,10870,List2A,white,woman,,,,null,,,,
6507,,,survey-text,179,615417,0.0-15.0-3.7,10870,List2A,white,woman,,,,,"{""Q0"":""luke is shouting at ruth""}","<img src=""stim_listA/shout1.gif""style=""height:400px;""></stim_listA>",is shouting at,
null,"<div style=""font-size:60px;"">+</div>",,html-keyboard-response,180,615919,0.0-15.0-0.8,10870,List2A,white,woman,,,,null,,,,
null,"<img src=""stim_listA/kiss2.gif""style=""height:400px;""></stim_listA>",,html-keyboard-response,181,617921,0.0-15.0-1.8,10870,List2A,white,woman,,,,null,,,,
null,are kissing each other,,html-keyboard-response,182,619923,0.0-15.0-2.8,10870,List2A,white,woman,,,,null,,,,
7866,,,survey-text,183,627789,0.0-15.0-3.8,10870,List2A,white,woman,,,,,"{""Q0"":""jane and dave are kissing each other""}","<img src=""stim_listA/kiss2.gif""style=""height:400px;""></stim_listA>",are kissing each other,
null,"<div style=""font-size:60px;"">+</div>",,html-keyboard-response,184,628291,0.0-15.0-0.9,10870,List2A,white,woman,,,,null,,,,
null,"<img src=""stim_listA/talk7.gif""style=""height:400px;""></stim_listA>",,html-keyboard-response,185,630294,0.0-15.0-1.9,10870,List2A,white,woman,,,,null,,,,
null,is talking to,,html-keyboard-response,186,632295,0.0-15.0-2.9,10870,List2A,white,woman,,,,null,,,,
5067,,,survey-text,187,637363,0.0-15.0-3.9,10870,List2A,white,woman,,,,,"{""Q0"":""ruth is talking to kate""}","<img src=""stim_listA/talk7.gif""style=""height:400px;""></stim_listA>",is talking to,
null,"<div style=""font-size:60px;"">+</div>",,html-keyboard-response,188,637864,0.0-15.0-0.10,10870,List2A,white,woman,,,,null,,,,
null,"<img src=""stim_listA/flirt7.gif""style=""height:400px;""></stim_listA>",,html-keyboard-response,189,639867,0.0-15.0-1.10,10870,List2A,white,woman,,,,null,,,,
null,is flirting with,,html-keyboard-response,190,641869,0.0-15.0-2.10,10870,List2A,white,woman,,,,null,,,,
7141,,,survey-text,191,649011,0.0-15.0-3.10,10870,List2A,white,woman,,,,,"{""Q0"":""ruth is flirting with kate""}","<img src=""stim_listA/flirt7.gif""style=""height:400px;""></stim_listA>",is flirting with,
null,"<div style=""font-size:60px;"">+</div>",,html-keyboard-response,192,649513,0.0-15.0-0.11,10870,List2A,white,woman,,,,null,,,,
null,"<img src=""stim_listA/marry4.gif""style=""height:400px;""></stim_listA>",,html-keyboard-response,193,651515,0.0-15.0-1.11,10870,List2A,white,woman,,,,null,,,,
null,are marrying each other,,html-keyboard-response,194,653518,0.0-15.0-2.11,10870,List2A,white,woman,,,,null,,,,
8484,,,survey-text,195,662003,0.0-15.0-3.11,10870,List2A,white,woman,,,,,"{""Q0"":""kate and fred are marrying each other""}","<img src=""stim_listA/marry4.gif""style=""height:400px;""></stim_listA>",are marrying each other,
null,"<div style=""font-size:60px;"">+</div>",,html-keyboard-response,196,662504,0.0-15.0-0.12,10870,List2A,white,woman,,,,null,,,,
null,"<img src=""stim_listA/talk5.gif""style=""height:400px;""></stim_listA>",,html-keyboard-response,197,664507,0.0-15.0-1.12,10870,List2A,white,woman,,,,null,,,,
null,is talking to,,html-keyboard-response,198,666509,0.0-15.0-2.12,10870,List2A,white,woman,,,,null,,,,
7957,,,survey-text,199,674467,0.0-15.0-3.12,10870,List2A,white,woman,,,,,"{""Q0"":""luke is talking to mike""}","<img src=""stim_listA/talk5.gif""style=""height:400px;""></stim_listA>",is talking to,
null,"<div style=""font-size:60px;"">+</div>",,html-keyboard-response,200,674969,0.0-15.0-0.13,10870,List2A,white,woman,,,,null,,,,
null,"<img src=""stim_listA/dance6.gif""style=""height:400px;""></stim_listA>",,html-keyboard-response,201,676972,0.0-15.0-1.13,10870,List2A,white,woman,,,,null,,,,
null,are dancing with each other,,html-keyboard-response,202,678975,0.0-15.0-2.13,10870,List2A,white,woman,,,,null,,,,
11062,,,survey-text,203,690037,0.0-15.0-3.13,10870,List2A,white,woman,,,,,"{""Q0"":""fred and dave are dancing with each other""}","<img src=""stim_listA/dance6.gif""style=""height:400px;""></stim_listA>",are dancing with each other,
null,"<div style=""font-size:60px;"">+</div>",,html-keyboard-response,204,690538,0.0-15.0-0.14,10870,List2A,white,woman,,,,null,,,,
null,"<img src=""stim_listA/flirt2.gif""style=""height:400px;""></stim_listA>",,html-keyboard-response,205,692541,0.0-15.0-1.14,10870,List2A,white,woman,,,,null,,,,
null,are flirting with each other,,html-keyboard-response,206,694543,0.0-15.0-2.14,10870,List2A,white,woman,,,,null,,,,
7425,,,survey-text,207,701969,0.0-15.0-3.14,10870,List2A,white,woman,,,,,"{""Q0"":""ruth and dave are flirting with each other""}","<img src=""stim_listA/flirt2.gif""style=""height:400px;""></stim_listA>",are flirting with each other,
null,"<div style=""font-size:60px;"">+</div>",,html-keyboard-response,208,702471,0.0-15.0-0.15,10870,List2A,white,woman,,,,null,,,,
null,"<img src=""stim_listA/kiss6.gif""style=""height:400px;""></stim_listA>",,html-keyboard-response,209,704474,0.0-15.0-1.15,10870,List2A,white,woman,,,,null,,,,
null,are kissing each other,,html-keyboard-response,210,706475,0.0-15.0-2.15,10870,List2A,white,woman,,,,null,,,,
8205,,,survey-text,211,714681,0.0-15.0-3.15,10870,List2A,white,woman,,,,,"{""Q0"":""dave and mike are kissing each other""}","<img src=""stim_listA/kiss6.gif""style=""height:400px;""></stim_listA>",are kissing each other,
null,"<div style=""font-size:60px;"">+</div>",,html-keyboard-response,212,715183,0.0-15.0-0.16,10870,List2A,white,woman,,,,null,,,,
null,"<img src=""stim_listA/touch1.gif""style=""height:400px;""></stim_listA>",,html-keyboard-response,213,717186,0.0-15.0-1.16,10870,List2A,white,woman,,,,null,,,,
null,is touching,,html-keyboard-response,214,719188,0.0-15.0-2.16,10870,List2A,white,woman,,,,null,,,,
6750,,,survey-text,215,725939,0.0-15.0-3.16,10870,List2A,white,woman,,,,,"{""Q0"":""dave is touching jane""}","<img src=""stim_listA/touch1.gif""style=""height:400px;""></stim_listA>",is touching,
null,"<div style=""font-size:60px;"">+</div>",,html-keyboard-response,216,726440,0.0-15.0-0.17,10870,List2A,white,woman,,,,null,,,,
null,"<img src=""stim_listA/shout8.gif""style=""height:400px;""></stim_listA>",,html-keyboard-response,217,728444,0.0-15.0-1.17,10870,List2A,white,woman,,,,null,,,,
null,are shouting at each other,,html-keyboard-response,218,730446,0.0-15.0-2.17,10870,List2A,white,woman,,,,null,,,,
7889,,,survey-text,219,738335,0.0-15.0-3.17,10870,List2A,white,woman,,,,,"{""Q0"":""kate and jane are shouting at each other""}","<img src=""stim_listA/shout8.gif""style=""height:400px;""></stim_listA>",are shouting at each other,
null,"<div style=""font-size:60px;"">+</div>",,html-keyboard-response,220,738837,0.0-15.0-0.18,10870,List2A,white,woman,,,,null,,,,
null,"<img src=""stim_listA/touch3.gif""style=""height:400px;""></stim_listA>",,html-keyboard-response,221,740839,0.0-15.0-1.18,10870,List2A,white,woman,,,,null,,,,
null,is touching,,html-keyboard-response,222,742841,0.0-15.0-2.18,10870,List2A,white,woman,,,,null,,,,
5555,,,survey-text,223,748397,0.0-15.0-3.18,10870,List2A,white,woman,,,,,"{""Q0"":""mike is touching kate""}","<img src=""stim_listA/touch3.gif""style=""height:400px;""></stim_listA>",is touching,
null,"<div style=""font-size:60px;"">+</div>",,html-keyboard-response,224,748898,0.0-15.0-0.19,10870,List2A,white,woman,,,,null,,,,
null,"<img src=""stim_listA/play6.gif""style=""height:400px;""></stim_listA>",,html-keyboard-response,225,750901,0.0-15.0-1.19,10870,List2A,white,woman,,,,null,,,,
null,are playing with each other,,html-keyboard-response,226,752904,0.0-15.0-2.19,10870,List2A,white,woman,,,,null,,,,
8354,,,survey-text,227,761260,0.0-15.0-3.19,10870,List2A,white,woman,,,,,"{""Q0"":""fred and luke are playing with each other""}","<img src=""stim_listA/play6.gif""style=""height:400px;""></stim_listA>",are playing with each other,
16199,"<img src='img/portrait_matrix_list2.jpg' style='width:900px;height:500px;''></img><p>If you have memorised all the portraits and names and are ready to start, press Continue.</p><p><strong>Please note: Your memory of these faces will be tested 4 times during this experiment.</strong></p>",0,html-button-response,228,777460,0.0-16.0-0.0,10870,List2A,white,woman,,,,,,,,
2240,"<img src=""portrait/BM2.jpg""style=""height:400px;""></img>",5,html-button-response,229,780704,0.0-16.0-1.0,10870,List2A,white,woman,,TRUE,5,,,,,
null,CORRECT,,html-keyboard-response,230,782222,0.0-16.0-2.0-0.0,10870,List2A,white,woman,,,,null,,,,
2849,"<img src=""portrait/WW2.jpg""style=""height:400px;""></img>",3,html-button-response,231,785072,0.0-16.0-4.0,10870,List2A,white,woman,,TRUE,3,,,,,
null,CORRECT,,html-keyboard-response,232,786574,0.0-16.0-5.0-0.0,10870,List2A,white,woman,,,,null,,,,
1149,"<img src=""portrait/BM1.jpg""style=""height:400px;""></img>",4,html-button-response,233,787724,0.0-16.0-7.0,10870,List2A,white,woman,,TRUE,4,,,,,
null,CORRECT,,html-keyboard-response,234,789227,0.0-16.0-8.0-0.0,10870,List2A,white,woman,,,,null,,,,
1654,"<img src=""portrait/WW1.jpg""style=""height:400px;""></img>",1,html-button-response,235,790882,0.0-16.0-10.0,10870,List2A,white,woman,,TRUE,1,,,,,
null,CORRECT,,html-keyboard-response,236,792384,0.0-16.0-11.0-0.0,10870,List2A,white,woman,,,,null,,,,
1700,"<img src=""portrait/BW1.jpg""style=""height:400px;""></img>",0,html-button-response,237,794086,0.0-16.0-13.0,10870,List2A,white,woman,,TRUE,0,,,,,
null,CORRECT,,html-keyboard-response,238,795589,0.0-16.0-14.0-0.0,10870,List2A,white,woman,,,,null,,,,
2130,"<img src=""portrait/WM2.jpg""style=""height:400px;""></img>",7,html-button-response,239,797722,0.0-16.0-16.0,10870,List2A,white,woman,,TRUE,7,,,,,
null,CORRECT,,html-keyboard-response,240,799225,0.0-16.0-17.0-0.0,10870,List2A,white,woman,,,,null,,,,
1270,"<img src=""portrait/WM1.jpg""style=""height:400px;""></img>",6,html-button-response,241,800496,0.0-16.0-19.0,10870,List2A,white,woman,,TRUE,6,,,,,
null,CORRECT,,html-keyboard-response,242,801999,0.0-16.0-20.0-0.0,10870,List2A,white,woman,,,,null,,,,
1017,"<img src=""portrait/BW2.jpg""style=""height:400px;""></img>",2,html-button-response,243,803018,0.0-16.0-22.0,10870,List2A,white,woman,,TRUE,2,,,,,
null,CORRECT,,html-keyboard-response,244,804521,0.0-16.0-23.0-0.0,10870,List2A,white,woman,,,,null,,,,
1299,<p>You got 8 out of 8 right first time. Press Continue.</p>,0,html-button-response,245,805822,0.0-16.0-25.0,10870,List2A,white,woman,,,,,,,,
null,"<div style=""font-size:60px;"">+</div>",,html-keyboard-response,246,807325,0.0-17.0-0.0,10870,List2A,white,woman,,,,null,,,,
null,"<img src=""stim_listA/fight6.gif""style=""height:400px;""></stim_listA>",,html-keyboard-response,247,809328,0.0-17.0-1.0,10870,List2A,white,woman,,,,null,,,,
null,are fighting each other,,html-keyboard-response,248,811330,0.0-17.0-2.0,10870,List2A,white,woman,,,,null,,,,
12437,,,survey-text,249,823768,0.0-17.0-3.0,10870,List2A,white,woman,,,,,"{""Q0"":""luke and fred are fighting each other""}","<img src=""stim_listA/fight6.gif""style=""height:400px;""></stim_listA>",are fighting each other,
null,"<div style=""font-size:60px;"">+</div>",,html-keyboard-response,250,824269,0.0-17.0-0.1,10870,List2A,white,woman,,,,null,,,,
null,"<img src=""stim_listA/fight3.gif""style=""height:400px;""></stim_listA>",,html-keyboard-response,251,826273,0.0-17.0-1.1,10870,List2A,white,woman,,,,null,,,,
null,is fighting,,html-keyboard-response,252,828275,0.0-17.0-2.1,10870,List2A,white,woman,,,,null,,,,
6528,,,survey-text,253,834804,0.0-17.0-3.1,10870,List2A,white,woman,,,,,"{""Q0"":""mike is fighting kate""}","<img src=""stim_listA/fight3.gif""style=""height:400px;""></stim_listA>",is fighting,
null,"<div style=""font-size:60px;"">+</div>",,html-keyboard-response,254,835305,0.0-17.0-0.2,10870,List2A,white,woman,,,,null,,,,
null,"<img src=""stim_listA/flirt8.gif""style=""height:400px;""></stim_listA>",,html-keyboard-response,255,837308,0.0-17.0-1.2,10870,List2A,white,woman,,,,null,,,,
null,are flirting with each other,,html-keyboard-response,256,839310,0.0-17.0-2.2,10870,List2A,white,woman,,,,null,,,,
7911,,,survey-text,257,847222,0.0-17.0-3.2,10870,List2A,white,woman,,,,,"{""Q0"":""beth and jane are flirting with each other""}","<img src=""stim_listA/flirt8.gif""style=""height:400px;""></stim_listA>",are flirting with each other,
null,"<div style=""font-size:60px;"">+</div>",,html-keyboard-response,258,847724,0.0-17.0-0.3,10870,List2A,white,woman,,,,null,,,,
null,"<img src=""stim_listA/kiss3.gif""style=""height:400px;""></stim_listA>",,html-keyboard-response,259,849727,0.0-17.0-1.3,10870,List2A,white,woman,,,,null,,,,
null,is kissing,,html-keyboard-response,260,851729,0.0-17.0-2.3,10870,List2A,white,woman,,,,null,,,,
6658,,,survey-text,261,858388,0.0-17.0-3.3,10870,List2A,white,woman,,,,,"{""Q0"":""beth is kissing fred""}","<img src=""stim_listA/kiss3.gif""style=""height:400px;""></stim_listA>",is kissing,
null,"<div style=""font-size:60px;"">+</div>",,html-keyboard-response,262,858890,0.0-17.0-0.4,10870,List2A,white,woman,,,,null,,,,
null,"<img src=""stim_listA/fight8.gif""style=""height:400px;""></stim_listA>",,html-keyboard-response,263,860893,0.0-17.0-1.4,10870,List2A,white,woman,,,,null,,,,
null,are fighting each other,,html-keyboard-response,264,862895,0.0-17.0-2.4,10870,List2A,white,woman,,,,null,,,,
11617,,,survey-text,265,874514,0.0-17.0-3.4,10870,List2A,white,woman,,,,,"{""Q0"":""beth and ruth are fighting each other""}","<img src=""stim_listA/fight8.gif""style=""height:400px;""></stim_listA>",are fighting each other,
null,"<div style=""font-size:60px;"">+</div>",,html-keyboard-response,266,875016,0.0-17.0-0.5,10870,List2A,white,woman,,,,null,,,,
null,"<img src=""stim_listA/talk2.gif""style=""height:400px;""></stim_listA>",,html-keyboard-response,267,877018,0.0-17.0-1.5,10870,List2A,white,woman,,,,null,,,,
null,are talking to each other,,html-keyboard-response,268,879019,0.0-17.0-2.5,10870,List2A,white,woman,,,,null,,,,
7203,,,survey-text,269,886224,0.0-17.0-3.5,10870,List2A,white,woman,,,,,"{""Q0"":""ruth and dave are talking to each other""}","<img src=""stim_listA/talk2.gif""style=""height:400px;""></stim_listA>",are talking to each other,
null,"<div style=""font-size:60px;"">+</div>",,html-keyboard-response,270,886725,0.0-17.0-0.6,10870,List2A,white,woman,,,,null,,,,
null,"<img src=""stim_listA/marry1.gif""style=""height:400px;""></stim_listA>",,html-keyboard-response,271,888728,0.0-17.0-1.6,10870,List2A,white,woman,,,,null,,,,
null,is marrying,,html-keyboard-response,272,890730,0.0-17.0-2.6,10870,List2A,white,woman,,,,null,,,,
6378,,,survey-text,273,897110,0.0-17.0-3.6,10870,List2A,white,woman,,,,,"{""Q0"":""dave is marrying ruth""}","<img src=""stim_listA/marry1.gif""style=""height:400px;""></stim_listA>",is marrying,
null,"<div style=""font-size:60px;"">+</div>",,html-keyboard-response,274,897611,0.0-17.0-0.7,10870,List2A,white,woman,,,,null,,,,
null,"<img src=""stim_listA/fight7.gif""style=""height:400px;""></stim_listA>",,html-keyboard-response,275,899613,0.0-17.0-1.7,10870,List2A,white,woman,,,,null,,,,
null,is fighting,,html-keyboard-response,276,901616,0.0-17.0-2.7,10870,List2A,white,woman,,,,null,,,,
4848,,,survey-text,277,906466,0.0-17.0-3.7,10870,List2A,white,woman,,,,,"{""Q0"":""jane is fighting kate""}","<img src=""stim_listA/fight7.gif""style=""height:400px;""></stim_listA>",is fighting,
null,"<div style=""font-size:60px;"">+</div>",,html-keyboard-response,278,906967,0.0-17.0-0.8,10870,List2A,white,woman,,,,null,,,,
null,"<img src=""stim_listA/touch8.gif""style=""height:400px;""></stim_listA>",,html-keyboard-response,279,908971,0.0-17.0-1.8,10870,List2A,white,woman,,,,null,,,,
null,are touching each other,,html-keyboard-response,280,910973,0.0-17.0-2.8,10870,List2A,white,woman,,,,null,,,,
9503,,,survey-text,281,920478,0.0-17.0-3.8,10870,List2A,white,woman,,,,,"{""Q0"":""ruth and beth are touching each other""}","<img src=""stim_listA/touch8.gif""style=""height:400px;""></stim_listA>",are touching each other,
null,"<div style=""font-size:60px;"">+</div>",,html-keyboard-response,282,920979,0.0-17.0-0.9,10870,List2A,white,woman,,,,null,,,,
null,"<img src=""stim_listA/fight4.gif""style=""height:400px;""></stim_listA>",,html-keyboard-response,283,922984,0.0-17.0-1.9,10870,List2A,white,woman,,,,null,,,,
null,are fighting each other,,html-keyboard-response,284,924986,0.0-17.0-2.9,10870,List2A,white,woman,,,,null,,,,
9456,,,survey-text,285,934443,0.0-17.0-3.9,10870,List2A,white,woman,,,,,"{""Q0"":""fred and beth are fighting each other""}","<img src=""stim_listA/fight4.gif""style=""height:400px;""></stim_listA>",are fighting each other,
null,"<div style=""font-size:60px;"">+</div>",,html-keyboard-response,286,934959,0.0-17.0-0.10,10870,List2A,white,woman,,,,null,,,,
null,"<img src=""stim_listA/touch4.gif""style=""height:400px;""></stim_listA>",,html-keyboard-response,287,936962,0.0-17.0-1.10,10870,List2A,white,woman,,,,null,,,,
null,are touching each other,,html-keyboard-response,288,938964,0.0-17.0-2.10,10870,List2A,white,woman,,,,null,,,,
9010,,,survey-text,289,947976,0.0-17.0-3.10,10870,List2A,white,woman,,,,,"{""Q0"":""beth and fred are touching each other""}","<img src=""stim_listA/touch4.gif""style=""height:400px;""></stim_listA>",are touching each other,
null,"<div style=""font-size:60px;"">+</div>",,html-keyboard-response,290,948477,0.0-17.0-0.11,10870,List2A,white,woman,,,,null,,,,
null,"<img src=""stim_listA/play8.gif""style=""height:400px;""></stim_listA>",,html-keyboard-response,291,950480,0.0-17.0-1.11,10870,List2A,white,woman,,,,null,,,,
null,are playing with each other,,html-keyboard-response,292,952481,0.0-17.0-2.11,10870,List2A,white,woman,,,,null,,,,
9385,,,survey-text,293,961868,0.0-17.0-3.11,10870,List2A,white,woman,,,,,"{""Q0"":""beth and ruth are playing with each other""}","<img src=""stim_listA/play8.gif""style=""height:400px;""></stim_listA>",are playing with each other,
null,"<div style=""font-size:60px;"">+</div>",,html-keyboard-response,294,962369,0.0-17.0-0.12,10870,List2A,white,woman,,,,null,,,,
null,"<img src=""stim_listA/flirt1.gif""style=""height:400px;""></stim_listA>",,html-keyboard-response,295,964373,0.0-17.0-1.12,10870,List2A,white,woman,,,,null,,,,
null,is flirting with,,html-keyboard-response,296,966374,0.0-17.0-2.12,10870,List2A,white,woman,,,,null,,,,
6729,,,survey-text,297,973104,0.0-17.0-3.12,10870,List2A,white,woman,,,,,"{""Q0"":""luke is flirting with jane""}","<img src=""stim_listA/flirt1.gif""style=""height:400px;""></stim_listA>",is flirting with,
null,"<div style=""font-size:60px;"">+</div>",,html-keyboard-response,298,973605,0.0-17.0-0.13,10870,List2A,white,woman,,,,null,,,,
null,"<img src=""stim_listA/argue2.gif""style=""height:400px;""></stim_listA>",,html-keyboard-response,299,975608,0.0-17.0-1.13,10870,List2A,white,woman,,,,null,,,,
null,are arguing with each other,,html-keyboard-response,300,977612,0.0-17.0-2.13,10870,List2A,white,woman,,,,null,,,,
8412,,,survey-text,301,986026,0.0-17.0-3.13,10870,List2A,white,woman,,,,,"{""Q0"":""jane and luke are arguing with each other""}","<img src=""stim_listA/argue2.gif""style=""height:400px;""></stim_listA>",are arguing with each other,
null,"<div style=""font-size:60px;"">+</div>",,html-keyboard-response,302,986527,0.0-17.0-0.14,10870,List2A,white,woman,,,,null,,,,
null,"<img src=""stim_listA/play5.gif""style=""height:400px;""></stim_listA>",,html-keyboard-response,303,988529,0.0-17.0-1.14,10870,List2A,white,woman,,,,null,,,,
null,is playing with,,html-keyboard-response,304,990531,0.0-17.0-2.14,10870,List2A,white,woman,,,,null,,,,
4839,,,survey-text,305,995372,0.0-17.0-3.14,10870,List2A,white,woman,,,,,"{""Q0"":""dave is playing with mike""}","<img src=""stim_listA/play5.gif""style=""height:400px;""></stim_listA>",is playing with,
null,"<div style=""font-size:60px;"">+</div>",,html-keyboard-response,306,995873,0.0-17.0-0.15,10870,List2A,white,woman,,,,null,,,,
null,"<img src=""stim_listA/kiss8.gif""style=""height:400px;""></stim_listA>",,html-keyboard-response,307,997876,0.0-17.0-1.15,10870,List2A,white,woman,,,,null,,,,
null,are kissing each other,,html-keyboard-response,308,999880,0.0-17.0-2.15,10870,List2A,white,woman,,,,null,,,,
7594,,,survey-text,309,1007476,0.0-17.0-3.15,10870,List2A,white,woman,,,,,"{""Q0"":""kate and jane are kissing each other""}","<img src=""stim_listA/kiss8.gif""style=""height:400px;""></stim_listA>",are kissing each other,
null,"<div style=""font-size:60px;"">+</div>",,html-keyboard-response,310,1007977,0.0-17.0-0.16,10870,List2A,white,woman,,,,null,,,,
null,"<img src=""stim_listA/fight5.gif""style=""height:400px;""></stim_listA>",,html-keyboard-response,311,1009980,0.0-17.0-1.16,10870,List2A,white,woman,,,,null,,,,
null,is fighting,,html-keyboard-response,312,1011983,0.0-17.0-2.16,10870,List2A,white,woman,,,,null,,,,
7204,,,survey-text,313,1019188,0.0-17.0-3.16,10870,List2A,white,woman,,,,,"{""Q0"":""dave is fighting mike""}","<img src=""stim_listA/fight5.gif""style=""height:400px;""></stim_listA>",is fighting,
null,"<div style=""font-size:60px;"">+</div>",,html-keyboard-response,314,1019689,0.0-17.0-0.17,10870,List2A,white,woman,,,,null,,,,
null,"<img src=""stim_listA/shout2.gif""style=""height:400px;""></stim_listA>",,html-keyboard-response,315,1021692,0.0-17.0-1.17,10870,List2A,white,woman,,,,null,,,,
null,are shouting at each other,,html-keyboard-response,316,1023694,0.0-17.0-2.17,10870,List2A,white,woman,,,,null,,,,
7867,,,survey-text,317,1031562,0.0-17.0-3.17,10870,List2A,white,woman,,,,,"{""Q0"":""jane and dave are shouting at each other""}","<img src=""stim_listA/shout2.gif""style=""height:400px;""></stim_listA>",are shouting at each other,
null,"<div style=""font-size:60px;"">+</div>",,html-keyboard-response,318,1032063,0.0-17.0-0.18,10870,List2A,white,woman,,,,null,,,,
null,"<img src=""stim_listA/kiss4.gif""style=""height:400px;""></stim_listA>",,html-keyboard-response,319,1034066,0.0-17.0-1.18,10870,List2A,white,woman,,,,null,,,,
null,are kissing each other,,html-keyboard-response,320,1036067,0.0-17.0-2.18,10870,List2A,white,woman,,,,null,,,,
7541,,,survey-text,321,1043610,0.0-17.0-3.18,10870,List2A,white,woman,,,,,"{""Q0"":""kate and mike are kissing each other""}","<img src=""stim_listA/kiss4.gif""style=""height:400px;""></stim_listA>",are kissing each other,
null,"<div style=""font-size:60px;"">+</div>",,html-keyboard-response,322,1044112,0.0-17.0-0.19,10870,List2A,white,woman,,,,null,,,,
null,"<img src=""stim_listA/dance2.gif""style=""height:400px;""></stim_listA>",,html-keyboard-response,323,1046124,0.0-17.0-1.19,10870,List2A,white,woman,,,,null,,,,
null,are dancing with each other,,html-keyboard-response,324,1048126,0.0-17.0-2.19,10870,List2A,white,woman,,,,null,,,,
8762,,,survey-text,325,1056890,0.0-17.0-3.19,10870,List2A,white,woman,,,,,"{""Q0"":""ruth and dave are dancing with each other""}","<img src=""stim_listA/dance2.gif""style=""height:400px;""></stim_listA>",are dancing with each other,
11288,"<img src='img/portrait_matrix_list2.jpg' style='width:900px;height:500px;''></img><p>If you have memorised all the portraits and names and are ready to start, press Continue.</p><p><strong>Please note: Your memory of these faces will be tested 4 times during this experiment.</strong></p>",0,html-button-response,326,1068178,0.0-18.0-0.0,10870,List2A,white,woman,,,,,,,,
1148,"<img src=""portrait/WW1.jpg""style=""height:400px;""></img>",1,html-button-response,327,1070328,0.0-18.0-1.0,10870,List2A,white,woman,,TRUE,1,,,,,
null,CORRECT,,html-keyboard-response,328,1071832,0.0-18.0-2.0-0.0,10870,List2A,white,woman,,,,null,,,,
1425,"<img src=""portrait/WM2.jpg""style=""height:400px;""></img>",7,html-button-response,329,1073258,0.0-18.0-4.0,10870,List2A,white,woman,,TRUE,7,,,,,
null,CORRECT,,html-keyboard-response,330,1074761,0.0-18.0-5.0-0.0,10870,List2A,white,woman,,,,null,,,,
1277,"<img src=""portrait/BW2.jpg""style=""height:400px;""></img>",2,html-button-response,331,1076038,0.0-18.0-7.0,10870,List2A,white,woman,,TRUE,2,,,,,
null,CORRECT,,html-keyboard-response,332,1077542,0.0-18.0-8.0-0.0,10870,List2A,white,woman,,,,null,,,,
1243,"<img src=""portrait/BM2.jpg""style=""height:400px;""></img>",5,html-button-response,333,1078786,0.0-18.0-10.0,10870,List2A,white,woman,,TRUE,5,,,,,
null,CORRECT,,html-keyboard-response,334,1080289,0.0-18.0-11.0-0.0,10870,List2A,white,woman,,,,null,,,,
2172,"<img src=""portrait/BM1.jpg""style=""height:400px;""></img>",4,html-button-response,335,1082462,0.0-18.0-13.0,10870,List2A,white,woman,,TRUE,4,,,,,
null,CORRECT,,html-keyboard-response,336,1083966,0.0-18.0-14.0-0.0,10870,List2A,white,woman,,,,null,,,,
975,"<img src=""portrait/WW2.jpg""style=""height:400px;""></img>",3,html-button-response,337,1084942,0.0-18.0-16.0,10870,List2A,white,woman,,TRUE,3,,,,,
null,CORRECT,,html-keyboard-response,338,1086444,0.0-18.0-17.0-0.0,10870,List2A,white,woman,,,,null,,,,
1700,"<img src=""portrait/BW1.jpg""style=""height:400px;""></img>",0,html-button-response,339,1088146,0.0-18.0-19.0,10870,List2A,white,woman,,TRUE,0,,,,,
null,CORRECT,,html-keyboard-response,340,1089649,0.0-18.0-20.0-0.0,10870,List2A,white,woman,,,,null,,,,
1617,"<img src=""portrait/WM1.jpg""style=""height:400px;""></img>",6,html-button-response,341,1091268,0.0-18.0-22.0,10870,List2A,white,woman,,TRUE,6,,,,,
null,CORRECT,,html-keyboard-response,342,1092771,0.0-18.0-23.0-0.0,10870,List2A,white,woman,,,,null,,,,
1109,<p>You got 8 out of 8 right first time. Press Continue.</p>,0,html-button-response,343,1093880,0.0-18.0-25.0,10870,List2A,white,woman,,,,,,,,
null,"<div style=""font-size:60px;"">+</div>",,html-keyboard-response,344,1095383,0.0-19.0-0.0,10870,List2A,white,woman,,,,null,,,,
null,"<img src=""stim_listA/shout5.gif""style=""height:400px;""></stim_listA>",,html-keyboard-response,345,1097386,0.0-19.0-1.0,10870,List2A,white,woman,,,,null,,,,
null,is shouting at,,html-keyboard-response,346,1099389,0.0-19.0-2.0,10870,List2A,white,woman,,,,null,,,,
6150,,,survey-text,347,1105540,0.0-19.0-3.0,10870,List2A,white,woman,,,,,"{""Q0"":""luke is shouting at fred""}","<img src=""stim_listA/shout5.gif""style=""height:400px;""></stim_listA>",is shouting at,
null,"<div style=""font-size:60px;"">+</div>",,html-keyboard-response,348,1106042,0.0-19.0-0.1,10870,List2A,white,woman,,,,null,,,,
null,"<img src=""stim_listA/touch6.gif""style=""height:400px;""></stim_listA>",,html-keyboard-response,349,1108046,0.0-19.0-1.1,10870,List2A,white,woman,,,,null,,,,
null,are touching each other,,html-keyboard-response,350,1110048,0.0-19.0-2.1,10870,List2A,white,woman,,,,null,,,,
7805,,,survey-text,351,1117854,0.0-19.0-3.1,10870,List2A,white,woman,,,,,"{""Q0"":""luke and fred are touching each other""}","<img src=""stim_listA/touch6.gif""style=""height:400px;""></stim_listA>",are touching each other,
null,"<div style=""font-size:60px;"">+</div>",,html-keyboard-response,352,1118356,0.0-19.0-0.2,10870,List2A,white,woman,,,,null,,,,
null,"<img src=""stim_listA/play1.gif""style=""height:400px;""></stim_listA>",,html-keyboard-response,353,1120359,0.0-19.0-1.2,10870,List2A,white,woman,,,,null,,,,
null,is playing with,,html-keyboard-response,354,1122362,0.0-19.0-2.2,10870,List2A,white,woman,,,,null,,,,
5380,,,survey-text,355,1127742,0.0-19.0-3.2,10870,List2A,white,woman,,,,,"{""Q0"":""jane is playing with dave""}","<img src=""stim_listA/play1.gif""style=""height:400px;""></stim_listA>",is playing with,
null,"<div style=""font-size:60px;"">+</div>",,html-keyboard-response,356,1128243,0.0-19.0-0.3,10870,List2A,white,woman,,,,null,,,,
null,"<img src=""stim_listA/argue6.gif""style=""height:400px;""></stim_listA>",,html-keyboard-response,357,1130245,0.0-19.0-1.3,10870,List2A,white,woman,,,,null,,,,
null,are arguing with each other,,html-keyboard-response,358,1132247,0.0-19.0-2.3,10870,List2A,white,woman,,,,null,,,,
7399,,,survey-text,359,1139647,0.0-19.0-3.3,10870,List2A,white,woman,,,,,"{""Q0"":""mike and luke are arguing with each other""}","<img src=""stim_listA/argue6.gif""style=""height:400px;""></stim_listA>",are arguing with each other,
null,"<div style=""font-size:60px;"">+</div>",,html-keyboard-response,360,1140149,0.0-19.0-0.4,10870,List2A,white,woman,,,,null,,,,
null,"<img src=""stim_listA/dance8.gif""style=""height:400px;""></stim_listA>",,html-keyboard-response,361,1142152,0.0-19.0-1.4,10870,List2A,white,woman,,,,null,,,,
null,are dancing with each other,,html-keyboard-response,362,1144153,0.0-19.0-2.4,10870,List2A,white,woman,,,,null,,,,
7114,,,survey-text,363,1151268,0.0-19.0-3.4,10870,List2A,white,woman,,,,,"{""Q0"":""jane and beth are dancing with each other""}","<img src=""stim_listA/dance8.gif""style=""height:400px;""></stim_listA>",are dancing with each other,
null,"<div style=""font-size:60px;"">+</div>",,html-keyboard-response,364,1151769,0.0-19.0-0.5,10870,List2A,white,woman,,,,null,,,,
null,"<img src=""stim_listA/talk1.gif""style=""height:400px;""></stim_listA>",,html-keyboard-response,365,1153770,0.0-19.0-1.5,10870,List2A,white,woman,,,,null,,,,
null,is talking to,,html-keyboard-response,366,1155772,0.0-19.0-2.5,10870,List2A,white,woman,,,,null,,,,
6815,,,survey-text,367,1162588,0.0-19.0-3.5,10870,List2A,white,woman,,,,,"{""Q0"":""luke is talking to jane""}","<img src=""stim_listA/talk1.gif""style=""height:400px;""></stim_listA>",is talking to,
null,"<div style=""font-size:60px;"">+</div>",,html-keyboard-response,368,1163090,0.0-19.0-0.6,10870,List2A,white,woman,,,,null,,,,
null,"<img src=""stim_listA/dance3.gif""style=""height:400px;""></stim_listA>",,html-keyboard-response,369,1165093,0.0-19.0-1.6,10870,List2A,white,woman,,,,null,,,,
null,is dancing with,,html-keyboard-response,370,1167094,0.0-19.0-2.6,10870,List2A,white,woman,,,,null,,,,
8372,,,survey-text,371,1175468,0.0-19.0-3.6,10870,List2A,white,woman,,,,,"{""Q0"":""kate is dancing with fred""}","<img src=""stim_listA/dance3.gif""style=""height:400px;""></stim_listA>",is dancing with,
null,"<div style=""font-size:60px;"">+</div>",,html-keyboard-response,372,1175970,0.0-19.0-0.7,10870,List2A,white,woman,,,,null,,,,
null,"<img src=""stim_listA/flirt6.gif""style=""height:400px;""></stim_listA>",,html-keyboard-response,373,1177972,0.0-19.0-1.7,10870,List2A,white,woman,,,,null,,,,
null,are flirting with each other,,html-keyboard-response,374,1179974,0.0-19.0-2.7,10870,List2A,white,woman,,,,null,,,,
8112,,,survey-text,375,1188088,0.0-19.0-3.7,10870,List2A,white,woman,,,,,"{""Q0"":""dave and fred are flirting with each other""}","<img src=""stim_listA/flirt6.gif""style=""height:400px;""></stim_listA>",are flirting with each other,
null,"<div style=""font-size:60px;"">+</div>",,html-keyboard-response,376,1188589,0.0-19.0-0.8,10870,List2A,white,woman,,,,null,,,,
null,"<img src=""stim_listA/argue7.gif""style=""height:400px;""></stim_listA>",,html-keyboard-response,377,1190592,0.0-19.0-1.8,10870,List2A,white,woman,,,,null,,,,
null,is arguing with,,html-keyboard-response,378,1192608,0.0-19.0-2.8,10870,List2A,white,woman,,,,null,,,,
5148,,,survey-text,379,1197758,0.0-19.0-3.8,10870,List2A,white,woman,,,,,"{""Q0"":""jane is arguing with beth""}","<img src=""stim_listA/argue7.gif""style=""height:400px;""></stim_listA>",is arguing with,
null,"<div style=""font-size:60px;"">+</div>",,html-keyboard-response,380,1198260,0.0-19.0-0.9,10870,List2A,white,woman,,,,null,,,,
null,"<img src=""stim_listA/touch7.gif""style=""height:400px;""></stim_listA>",,html-keyboard-response,381,1200262,0.0-19.0-1.9,10870,List2A,white,woman,,,,null,,,,
null,is touching,,html-keyboard-response,382,1202274,0.0-19.0-2.9,10870,List2A,white,woman,,,,null,,,,
4955,,,survey-text,383,1207230,0.0-19.0-3.9,10870,List2A,white,woman,,,,,"{""Q0"":""jane is touching kate""}","<img src=""stim_listA/touch7.gif""style=""height:400px;""></stim_listA>",is touching,
null,"<div style=""font-size:60px;"">+</div>",,html-keyboard-response,384,1207732,0.0-19.0-0.10,10870,List2A,white,woman,,,,null,,,,
null,"<img src=""stim_listA/flirt5.gif""style=""height:400px;""></stim_listA>",,html-keyboard-response,385,1209736,0.0-19.0-1.10,10870,List2A,white,woman,,,,null,,,,
null,is flirting with,,html-keyboard-response,386,1211738,0.0-19.0-2.10,10870,List2A,white,woman,,,,null,,,,
12614,,,survey-text,387,1224353,0.0-19.0-3.10,10870,List2A,white,woman,,,,,"{""Q0"":""luke is flirting with mike""}","<img src=""stim_listA/flirt5.gif""style=""height:400px;""></stim_listA>",is flirting with,
null,"<div style=""font-size:60px;"">+</div>",,html-keyboard-response,388,1224854,0.0-19.0-0.11,10870,List2A,white,woman,,,,null,,,,
null,"<img src=""stim_listA/marry6.gif""style=""height:400px;""></stim_listA>",,html-keyboard-response,389,1226857,0.0-19.0-1.11,10870,List2A,white,woman,,,,null,,,,
null,are marrying each other,,html-keyboard-response,390,1228859,0.0-19.0-2.11,10870,List2A,white,woman,,,,null,,,,
6543,,,survey-text,391,1235404,0.0-19.0-3.11,10870,List2A,white,woman,,,,,"{""Q0"":""mike and luke are marrying each other""}","<img src=""stim_listA/marry6.gif""style=""height:400px;""></stim_listA>",are marrying each other,
null,"<div style=""font-size:60px;"">+</div>",,html-keyboard-response,392,1235905,0.0-19.0-0.12,10870,List2A,white,woman,,,,null,,,,
null,"<img src=""stim_listA/dance7.gif""style=""height:400px;""></stim_listA>",,html-keyboard-response,393,1237908,0.0-19.0-1.12,10870,List2A,white,woman,,,,null,,,,
null,is dancing with,,html-keyboard-response,394,1239909,0.0-19.0-2.12,10870,List2A,white,woman,,,,null,,,,
5536,,,survey-text,395,1245446,0.0-19.0-3.12,10870,List2A,white,woman,,,,,"{""Q0"":""kate is dancing with ruth""}","<img src=""stim_listA/dance7.gif""style=""height:400px;""></stim_listA>",is dancing with,
null,"<div style=""font-size:60px;"">+</div>",,html-keyboard-response,396,1245947,0.0-19.0-0.13,10870,List2A,white,woman,,,,null,,,,
null,"<img src=""stim_listA/argue5.gif""style=""height:400px;""></stim_listA>",,html-keyboard-response,397,1247951,0.0-19.0-1.13,10870,List2A,white,woman,,,,null,,,,
null,is arguing with,,html-keyboard-response,398,1249953,0.0-19.0-2.13,10870,List2A,white,woman,,,,null,,,,
6505,,,survey-text,399,1256458,0.0-19.0-3.13,10870,List2A,white,woman,,,,,"{""Q0"":""dave is arguing with fred""}","<img src=""stim_listA/argue5.gif""style=""height:400px;""></stim_listA>",is arguing with,
null,"<div style=""font-size:60px;"">+</div>",,html-keyboard-response,400,1256960,0.0-19.0-0.14,10870,List2A,white,woman,,,,null,,,,
null,"<img src=""stim_listA/marry8.gif""style=""height:400px;""></stim_listA>",,html-keyboard-response,401,1258964,0.0-19.0-1.14,10870,List2A,white,woman,,,,null,,,,
null,are marrying each other,,html-keyboard-response,402,1260966,0.0-19.0-2.14,10870,List2A,white,woman,,,,null,,,,
8655,,,survey-text,403,1269622,0.0-19.0-3.14,10870,List2A,white,woman,,,,,"{""Q0"":""kate and ruth are marrying each other""}","<img src=""stim_listA/marry8.gif""style=""height:400px;""></stim_listA>",are marrying each other,
null,"<div style=""font-size:60px;"">+</div>",,html-keyboard-response,404,1270124,0.0-19.0-0.15,10870,List2A,white,woman,,,,null,,,,
null,"<img src=""stim_listA/fight2.gif""style=""height:400px;""></stim_listA>",,html-keyboard-response,405,1272127,0.0-19.0-1.15,10870,List2A,white,woman,,,,null,,,,
null,are fighting each other,,html-keyboard-response,406,1274128,0.0-19.0-2.15,10870,List2A,white,woman,,,,null,,,,
8288,,,survey-text,407,1282418,0.0-19.0-3.15,10870,List2A,white,woman,,,,,"{""Q0"":""ruth and luke are fighting each other""}","<img src=""stim_listA/fight2.gif""style=""height:400px;""></stim_listA>",are fighting each other,
null,"<div style=""font-size:60px;"">+</div>",,html-keyboard-response,408,1282919,0.0-19.0-0.16,10870,List2A,white,woman,,,,null,,,,
null,"<img src=""stim_listA/marry5.gif""style=""height:400px;""></stim_listA>",,html-keyboard-response,409,1284924,0.0-19.0-1.16,10870,List2A,white,woman,,,,null,,,,
null,is marrying,,html-keyboard-response,410,1286926,0.0-19.0-2.16,10870,List2A,white,woman,,,,null,,,,
5385,,,survey-text,411,1292312,0.0-19.0-3.16,10870,List2A,white,woman,,,,,"{""Q0"":""dave is marrying fred""}","<img src=""stim_listA/marry5.gif""style=""height:400px;""></stim_listA>",is marrying,
null,"<div style=""font-size:60px;"">+</div>",,html-keyboard-response,412,1292814,0.0-19.0-0.17,10870,List2A,white,woman,,,,null,,,,
null,"<img src=""stim_listA/argue1.gif""style=""height:400px;""></stim_listA>",,html-keyboard-response,413,1294816,0.0-19.0-1.17,10870,List2A,white,woman,,,,null,,,,
null,is arguing with,,html-keyboard-response,414,1296820,0.0-19.0-2.17,10870,List2A,white,woman,,,,null,,,,
5958,,,survey-text,415,1302778,0.0-19.0-3.17,10870,List2A,white,woman,,,,,"{""Q0"":""dave is arguing with ruth""}","<img src=""stim_listA/argue1.gif""style=""height:400px;""></stim_listA>",is arguing with,
null,"<div style=""font-size:60px;"">+</div>",,html-keyboard-response,416,1303279,0.0-19.0-0.18,10870,List2A,white,woman,,,,null,,,,
null,"<img src=""stim_listA/talk3.gif""style=""height:400px;""></stim_listA>",,html-keyboard-response,417,1305282,0.0-19.0-1.18,10870,List2A,white,woman,,,,null,,,,
null,is talking to,,html-keyboard-response,418,1307284,0.0-19.0-2.18,10870,List2A,white,woman,,,,null,,,,
5596,,,survey-text,419,1312881,0.0-19.0-3.18,10870,List2A,white,woman,,,,,"{""Q0"":""kate is talking to fred""}","<img src=""stim_listA/talk3.gif""style=""height:400px;""></stim_listA>",is talking to,
null,"<div style=""font-size:60px;"">+</div>",,html-keyboard-response,420,1313382,0.0-19.0-0.19,10870,List2A,white,woman,,,,null,,,,
null,"<img src=""stim_listA/shout4.gif""style=""height:400px;""></stim_listA>",,html-keyboard-response,421,1315386,0.0-19.0-1.19,10870,List2A,white,woman,,,,null,,,,
null,are shouting at each other,,html-keyboard-response,422,1317388,0.0-19.0-2.19,10870,List2A,white,woman,,,,null,,,,
8737,,,survey-text,423,1326127,0.0-19.0-3.19,10870,List2A,white,woman,,,,,"{""Q0"":""kate and mike are shouting at each other""}","<img src=""stim_listA/shout4.gif""style=""height:400px;""></stim_listA>",are shouting at each other,
2788,<p>Thank you for completing that task.</p><p>The final part of this session is a short questionnaire.</p><p>Press Continue.</p>,0,html-button-response,424,1328915,0.0-20.0,10870,List2A,white,woman,,,,,,,,
15803,,,survey-text,425,1345721,0.0-21.0,10870,List2A,white,woman,,,,,"{""Q0"":""27"",""Q1"":""English"",""Q2"":""English"",""Q3"":""Scotland"",""Q4"":""White"",""Q5"":""Female""}",,,demographics
9708,,,survey-likert,426,1355432,0.0-22.0,10870,List2A,white,woman,,,,,"{""Q0"":4}",,,likert_ESS
8234,,,survey-likert,427,1363668,0.0-23.0,10870,List2A,white,woman,,,,,"{""Q0"":4}",,,likert_NSSAL_Q1
36299,,,survey-likert,428,1399968,0.0-24.0,10870,List2A,white,woman,,,,,"{""Q0"":4}",,,likert_NSSAL_Q2
5485,,,survey-likert,429,1405455,0.0-25.0,10870,List2A,white,woman,,,,,"{""Q0"":4}",,,likert_CGRS_Q1
2865,,,survey-likert,430,1408320,0.0-26.0,10870,List2A,white,woman,,,,,"{""Q0"":4}",,,likert_CGRS_Q2
2773,,,survey-likert,431,1411094,0.0-27.0,10870,List2A,white,woman,,,,,"{""Q0"":4}",,,likert_CGRS_Q3
11637,,,survey-text,432,1422732,0.0-28.0,10870,List2A,white,woman,,,,,"{""Q0"":""ccc""}",,,worker_id
5125,,,external-html,433,1427884,0.0-29.0,10870,List2A,white,woman,debrief.html,,,,,,,
