rt,stimulus,button_pressed,trial_type,trial_index,time_elapsed,internal_node_id,subject,list,ppt_race,ppt_gender,url,first_guess,correct,key_press,responses,image_type,phrase_type,test_part
5317,Welcome to the experiment. Press Continue to begin.,0,html-button-response,0,5327,0.0-0.0,11034,List2B,black,man,,,,,,,,
224694,,,external-html,1,231274,0.0-1.0,11034,List2B,black,man,consent.html,,,,,,,
79785,"<p>On the next page, you will see portraits of 8 people and their names.</p><p>Your first task is to take a few minutes to memorise the names of these people.</p><p>You will have to recall their names during the rest of the experiment, so it is</p><p>essential that you try to memorise these people and their names as best as you can.</p><br><p><strong>You will then be tested on your memory of these names and portraits.</strong></p><br><p>The experiment will start after you have completed this memory test.</p><br><p>Ready?</p>",0,html-button-response,2,311063,0.0-2.0,11034,List2B,black,man,,,,,,,,
49100,"<img src='img/portrait_matrix_list2.jpg' style='width:900px;height:500px;''></img><p>If you have memorised all the portraits and names and are ready to start, press Continue.</p><p><strong>Please note: Your memory of these faces will be tested 4 times during this experiment.</strong></p>",0,html-button-response,3,361166,0.0-3.0-0.0,11034,List2B,black,man,,,,,,,,
8731,"<img src=""portrait/WM1.jpg""style=""height:400px;""></img>",6,html-button-response,4,370902,0.0-3.0-1.0,11034,List2B,black,man,,TRUE,6,,,,,
null,CORRECT,,html-keyboard-response,5,372415,0.0-3.0-2.0-0.0,11034,List2B,black,man,,,,null,,,,
7352,"<img src=""portrait/WM2.jpg""style=""height:400px;""></img>",7,html-button-response,6,379771,0.0-3.0-4.0,11034,List2B,black,man,,TRUE,7,,,,,
null,CORRECT,,html-keyboard-response,7,381277,0.0-3.0-5.0-0.0,11034,List2B,black,man,,,,null,,,,
4488,"<img src=""portrait/WW1.jpg""style=""height:400px;""></img>",1,html-button-response,8,385768,0.0-3.0-7.0,11034,List2B,black,man,,TRUE,1,,,,,
null,CORRECT,,html-keyboard-response,9,387273,0.0-3.0-8.0-0.0,11034,List2B,black,man,,,,null,,,,
6378,"<img src=""portrait/BM1.jpg""style=""height:400px;""></img>",4,html-button-response,10,393655,0.0-3.0-10.0,11034,List2B,black,man,,TRUE,4,,,,,
null,CORRECT,,html-keyboard-response,11,395159,0.0-3.0-11.0-0.0,11034,List2B,black,man,,,,null,,,,
4978,"<img src=""portrait/WW2.jpg""style=""height:400px;""></img>",3,html-button-response,12,400141,0.0-3.0-13.0,11034,List2B,black,man,,TRUE,3,,,,,
null,CORRECT,,html-keyboard-response,13,401646,0.0-3.0-14.0-0.0,11034,List2B,black,man,,,,null,,,,
4082,"<img src=""portrait/BW2.jpg""style=""height:400px;""></img>",2,html-button-response,14,405732,0.0-3.0-16.0,11034,List2B,black,man,,TRUE,2,,,,,
null,CORRECT,,html-keyboard-response,15,407236,0.0-3.0-17.0-0.0,11034,List2B,black,man,,,,null,,,,
4625,"<img src=""portrait/BW1.jpg""style=""height:400px;""></img>",0,html-button-response,16,411866,0.0-3.0-19.0,11034,List2B,black,man,,TRUE,0,,,,,
null,CORRECT,,html-keyboard-response,17,413369,0.0-3.0-20.0-0.0,11034,List2B,black,man,,,,null,,,,
4307,"<img src=""portrait/BM2.jpg""style=""height:400px;""></img>",5,html-button-response,18,417679,0.0-3.0-22.0,11034,List2B,black,man,,TRUE,5,,,,,
null,CORRECT,,html-keyboard-response,19,419183,0.0-3.0-23.0-0.0,11034,List2B,black,man,,,,null,,,,
2269,<p>You got 8 out of 8 right first time. Press Continue.</p>,0,html-button-response,20,421457,0.0-3.0-25.0,11034,List2B,black,man,,,,,,,,
36237,"<p>In this experiment, you will view photographs of the people from the memory game interacting.</p><p>By using the <strong>exact</strong> phrase given <i>after</i> the photograph appears and recalling the correct names of the people in the photographs, form a sentence describing the interaction. You do not need to capitalise names.</p><p>Type your answer in the space provided. Please complete every sentence before moving onto the next trial.</p><p>You will only have a few seconds to memorise each given photograph and phrase before you can respond, so try your best to focus.</p><p>An example is given below. Press 'Continue' when you are ready.</p><img src='img/speaking_example.jpg' style='width:800px;height:460px;''></img>",0,html-button-response,21,458700,0.0-4.0,11034,List2B,black,man,,,,,,,,
2024,"<p>Before the experiment starts, you will watch two example trials. Press 'Continue'.</p>",0,html-button-response,22,461727,0.0-5.0,11034,List2B,black,man,,,,,,,,
null,<img src='img/meet_eg.gif' style='height:400px;''></img>,,html-keyboard-response,23,464732,0.0-6.0,11034,List2B,black,man,,,,null,,,,
null,<p>is meeting</p>,,html-keyboard-response,24,466735,0.0-7.0,11034,List2B,black,man,,,,null,,,,
2870,<p><b>Answer:</b> jane is meeting ruth</p>,0,html-button-response,25,469607,0.0-8.0,11034,List2B,black,man,,,,,,,,
null,<img src='img/look_eg.gif' style='height:400px;''></img>,,html-keyboard-response,26,472611,0.0-9.0,11034,List2B,black,man,,,,null,,,,
null,<p>are looking at each other</p>,,html-keyboard-response,27,474615,0.0-10.0,11034,List2B,black,man,,,,null,,,,
3298,<p><b>Answer:</b> fred and mike are looking at each other</p>,0,html-button-response,28,477916,0.0-11.0,11034,List2B,black,man,,,,,,,,
21634,"<p>Ready to start the experiment?</p><br><p><strong>Remember to describe the picture using a full sentence,</strong></p><p><strong>that combines the names of the people with the <i>exact</i> phrase given.</strong></p><p><strong>To receive full payment you must do this correctly.</strong></p><p><strong> You do not need to capitalise names or use punctuation.</strong></p><br><p>Press 'Continue' to begin.</p>",0,html-button-response,29,500553,0.0-12.0,11034,List2B,black,man,,,,,,,,
null,"<div style=""font-size:60px;"">+</div>",,html-keyboard-response,30,502056,0.0-13.0-0.0,11034,List2B,black,man,,,,null,,,,
null,"<img src=""stim_listB/fight7.gif""style=""height:400px;""></stim_listB>",,html-keyboard-response,31,504060,0.0-13.0-1.0,11034,List2B,black,man,,,,null,,,,
null,is fighting,,html-keyboard-response,32,506063,0.0-13.0-2.0,11034,List2B,black,man,,,,null,,,,
26184,,,survey-text,33,532250,0.0-13.0-3.0,11034,List2B,black,man,,,,,"{""Q0"":""Beth is fighting jane""}","<img src=""stim_listB/fight7.gif""style=""height:400px;""></stim_listB>",is fighting,
null,"<div style=""font-size:60px;"">+</div>",,html-keyboard-response,34,532756,0.0-13.0-0.1,11034,List2B,black,man,,,,null,,,,
null,"<img src=""stim_listB/argue5.gif""style=""height:400px;""></stim_listB>",,html-keyboard-response,35,534759,0.0-13.0-1.1,11034,List2B,black,man,,,,null,,,,
null,is arguing with,,html-keyboard-response,36,536761,0.0-13.0-2.1,11034,List2B,black,man,,,,null,,,,
29580,,,survey-text,37,566344,0.0-13.0-3.1,11034,List2B,black,man,,,,,"{""Q0"":""fred is arguing with dave""}","<img src=""stim_listB/argue5.gif""style=""height:400px;""></stim_listB>",is arguing with,
null,"<div style=""font-size:60px;"">+</div>",,html-keyboard-response,38,566847,0.0-13.0-0.2,11034,List2B,black,man,,,,null,,,,
null,"<img src=""stim_listB/argue3.gif""style=""height:400px;""></stim_listB>",,html-keyboard-response,39,568852,0.0-13.0-1.2,11034,List2B,black,man,,,,null,,,,
null,is arguing with,,html-keyboard-response,40,570855,0.0-13.0-2.2,11034,List2B,black,man,,,,null,,,,
26970,,,survey-text,41,597827,0.0-13.0-3.2,11034,List2B,black,man,,,,,"{""Q0"":""mike is arguing with luke""}","<img src=""stim_listB/argue3.gif""style=""height:400px;""></stim_listB>",is arguing with,
null,"<div style=""font-size:60px;"">+</div>",,html-keyboard-response,42,598330,0.0-13.0-0.3,11034,List2B,black,man,,,,null,,,,
null,"<img src=""stim_listB/talk8.gif""style=""height:400px;""></stim_listB>",,html-keyboard-response,43,600333,0.0-13.0-1.3,11034,List2B,black,man,,,,null,,,,
null,are talking to each other,,html-keyboard-response,44,602337,0.0-13.0-2.3,11034,List2B,black,man,,,,null,,,,
17158,,,survey-text,45,619498,0.0-13.0-3.3,11034,List2B,black,man,,,,,"{""Q0"":""jane is talking to kate""}","<img src=""stim_listB/talk8.gif""style=""height:400px;""></stim_listB>",are talking to each other,
null,"<div style=""font-size:60px;"">+</div>",,html-keyboard-response,46,620002,0.0-13.0-0.4,11034,List2B,black,man,,,,null,,,,
null,"<img src=""stim_listB/marry3.gif""style=""height:400px;""></stim_listB>",,html-keyboard-response,47,622006,0.0-13.0-1.4,11034,List2B,black,man,,,,null,,,,
null,is marrying,,html-keyboard-response,48,624008,0.0-13.0-2.4,11034,List2B,black,man,,,,null,,,,
20365,,,survey-text,49,644375,0.0-13.0-3.4,11034,List2B,black,man,,,,,"{""Q0"":""Kate is marrying Mike""}","<img src=""stim_listB/marry3.gif""style=""height:400px;""></stim_listB>",is marrying,
null,"<div style=""font-size:60px;"">+</div>",,html-keyboard-response,50,644878,0.0-13.0-0.5,11034,List2B,black,man,,,,null,,,,
null,"<img src=""stim_listB/play1.gif""style=""height:400px;""></stim_listB>",,html-keyboard-response,51,646880,0.0-13.0-1.5,11034,List2B,black,man,,,,null,,,,
null,is playing with,,html-keyboard-response,52,648885,0.0-13.0-2.5,11034,List2B,black,man,,,,null,,,,
20238,,,survey-text,53,669126,0.0-13.0-3.5,11034,List2B,black,man,,,,,"{""Q0"":""Ruth is playing with Dave""}","<img src=""stim_listB/play1.gif""style=""height:400px;""></stim_listB>",is playing with,
null,"<div style=""font-size:60px;"">+</div>",,html-keyboard-response,54,669629,0.0-13.0-0.6,11034,List2B,black,man,,,,null,,,,
null,"<img src=""stim_listB/kiss5.gif""style=""height:400px;""></stim_listB>",,html-keyboard-response,55,671631,0.0-13.0-1.6,11034,List2B,black,man,,,,null,,,,
null,is kissing,,html-keyboard-response,56,673635,0.0-13.0-2.6,11034,List2B,black,man,,,,null,,,,
12535,,,survey-text,57,686172,0.0-13.0-3.6,11034,List2B,black,man,,,,,"{""Q0"":""Luke is kissing Fred""}","<img src=""stim_listB/kiss5.gif""style=""height:400px;""></stim_listB>",is kissing,
null,"<div style=""font-size:60px;"">+</div>",,html-keyboard-response,58,686676,0.0-13.0-0.7,11034,List2B,black,man,,,,null,,,,
null,"<img src=""stim_listB/kiss3.gif""style=""height:400px;""></stim_listB>",,html-keyboard-response,59,688679,0.0-13.0-1.7,11034,List2B,black,man,,,,null,,,,
null,is kissing,,html-keyboard-response,60,690682,0.0-13.0-2.7,11034,List2B,black,man,,,,null,,,,
16458,,,survey-text,61,707143,0.0-13.0-3.7,11034,List2B,black,man,,,,,"{""Q0"":""Fred is kissing Beth""}","<img src=""stim_listB/kiss3.gif""style=""height:400px;""></stim_listB>",is kissing,
null,"<div style=""font-size:60px;"">+</div>",,html-keyboard-response,62,707645,0.0-13.0-0.8,11034,List2B,black,man,,,,null,,,,
null,"<img src=""stim_listB/fight2.gif""style=""height:400px;""></stim_listB>",,html-keyboard-response,63,709649,0.0-13.0-1.8,11034,List2B,black,man,,,,null,,,,
null,are fighting each other,,html-keyboard-response,64,711652,0.0-13.0-2.8,11034,List2B,black,man,,,,null,,,,
23643,,,survey-text,65,735298,0.0-13.0-3.8,11034,List2B,black,man,,,,,"{""Q0"":""Luke and Beth are fighting each other""}","<img src=""stim_listB/fight2.gif""style=""height:400px;""></stim_listB>",are fighting each other,
null,"<div style=""font-size:60px;"">+</div>",,html-keyboard-response,66,735808,0.0-13.0-0.9,11034,List2B,black,man,,,,null,,,,
null,"<img src=""stim_listB/talk3.gif""style=""height:400px;""></stim_listB>",,html-keyboard-response,67,737812,0.0-13.0-1.9,11034,List2B,black,man,,,,null,,,,
null,is talking to,,html-keyboard-response,68,739814,0.0-13.0-2.9,11034,List2B,black,man,,,,null,,,,
18913,,,survey-text,69,758729,0.0-13.0-3.9,11034,List2B,black,man,,,,,"{""Q0"":""Fred and Kate are talking to each other""}","<img src=""stim_listB/talk3.gif""style=""height:400px;""></stim_listB>",is talking to,
null,"<div style=""font-size:60px;"">+</div>",,html-keyboard-response,70,759231,0.0-13.0-0.10,11034,List2B,black,man,,,,null,,,,
null,"<img src=""stim_listB/touch7.gif""style=""height:400px;""></stim_listB>",,html-keyboard-response,71,761234,0.0-13.0-1.10,11034,List2B,black,man,,,,null,,,,
null,is touching,,html-keyboard-response,72,763238,0.0-13.0-2.10,11034,List2B,black,man,,,,null,,,,
17529,,,survey-text,73,780770,0.0-13.0-3.10,11034,List2B,black,man,,,,,"{""Q0"":""Kate and jane are touching""}","<img src=""stim_listB/touch7.gif""style=""height:400px;""></stim_listB>",is touching,
null,"<div style=""font-size:60px;"">+</div>",,html-keyboard-response,74,781274,0.0-13.0-0.11,11034,List2B,black,man,,,,null,,,,
null,"<img src=""stim_listB/play6.gif""style=""height:400px;""></stim_listB>",,html-keyboard-response,75,783279,0.0-13.0-1.11,11034,List2B,black,man,,,,null,,,,
null,are playing with each other,,html-keyboard-response,76,785282,0.0-13.0-2.11,11034,List2B,black,man,,,,null,,,,
14904,,,survey-text,77,800189,0.0-13.0-3.11,11034,List2B,black,man,,,,,"{""Q0"":""Luke and Fred are playing with each other""}","<img src=""stim_listB/play6.gif""style=""height:400px;""></stim_listB>",are playing with each other,
null,"<div style=""font-size:60px;"">+</div>",,html-keyboard-response,78,800694,0.0-13.0-0.12,11034,List2B,black,man,,,,null,,,,
null,"<img src=""stim_listB/dance3.gif""style=""height:400px;""></stim_listB>",,html-keyboard-response,79,802697,0.0-13.0-1.12,11034,List2B,black,man,,,,null,,,,
null,is dancing with,,html-keyboard-response,80,804699,0.0-13.0-2.12,11034,List2B,black,man,,,,null,,,,
19922,,,survey-text,81,824624,0.0-13.0-3.12,11034,List2B,black,man,,,,,"{""Q0"":""Fred is dancing with Kate""}","<img src=""stim_listB/dance3.gif""style=""height:400px;""></stim_listB>",is dancing with,
null,"<div style=""font-size:60px;"">+</div>",,html-keyboard-response,82,825127,0.0-13.0-0.13,11034,List2B,black,man,,,,null,,,,
null,"<img src=""stim_listB/fight6.gif""style=""height:400px;""></stim_listB>",,html-keyboard-response,83,827131,0.0-13.0-1.13,11034,List2B,black,man,,,,null,,,,
null,are fighting each other,,html-keyboard-response,84,829133,0.0-13.0-2.13,11034,List2B,black,man,,,,null,,,,
13029,,,survey-text,85,842164,0.0-13.0-3.13,11034,List2B,black,man,,,,,"{""Q0"":""Luke and Fred are fighting each other""}","<img src=""stim_listB/fight6.gif""style=""height:400px;""></stim_listB>",are fighting each other,
null,"<div style=""font-size:60px;"">+</div>",,html-keyboard-response,86,842667,0.0-13.0-0.14,11034,List2B,black,man,,,,null,,,,
null,"<img src=""stim_listB/shout6.gif""style=""height:400px;""></stim_listB>",,html-keyboard-response,87,844669,0.0-13.0-1.14,11034,List2B,black,man,,,,null,,,,
null,are shouting at each other,,html-keyboard-response,88,846671,0.0-13.0-2.14,11034,List2B,black,man,,,,null,,,,
22068,,,survey-text,89,868742,0.0-13.0-3.14,11034,List2B,black,man,,,,,"{""Q0"":""nothing is shouting at each other""}","<img src=""stim_listB/shout6.gif""style=""height:400px;""></stim_listB>",are shouting at each other,
null,"<div style=""font-size:60px;"">+</div>",,html-keyboard-response,90,869247,0.0-13.0-0.15,11034,List2B,black,man,,,,null,,,,
null,"<img src=""stim_listB/flirt3.gif""style=""height:400px;""></stim_listB>",,html-keyboard-response,91,871250,0.0-13.0-1.15,11034,List2B,black,man,,,,null,,,,
null,is flirting with,,html-keyboard-response,92,873253,0.0-13.0-2.15,11034,List2B,black,man,,,,null,,,,
17203,,,survey-text,93,890460,0.0-13.0-3.15,11034,List2B,black,man,,,,,"{""Q0"":""Fred and Kate are flirting with each other""}","<img src=""stim_listB/flirt3.gif""style=""height:400px;""></stim_listB>",is flirting with,
null,"<div style=""font-size:60px;"">+</div>",,html-keyboard-response,94,890963,0.0-13.0-0.16,11034,List2B,black,man,,,,null,,,,
null,"<img src=""stim_listB/flirt4.gif""style=""height:400px;""></stim_listB>",,html-keyboard-response,95,892971,0.0-13.0-1.16,11034,List2B,black,man,,,,null,,,,
null,are flirting with each other,,html-keyboard-response,96,894974,0.0-13.0-2.16,11034,List2B,black,man,,,,null,,,,
20224,,,survey-text,97,915202,0.0-13.0-3.16,11034,List2B,black,man,,,,,"{""Q0"":""Mike and Beth are flirting with each other""}","<img src=""stim_listB/flirt4.gif""style=""height:400px;""></stim_listB>",are flirting with each other,
null,"<div style=""font-size:60px;"">+</div>",,html-keyboard-response,98,915705,0.0-13.0-0.17,11034,List2B,black,man,,,,null,,,,
null,"<img src=""stim_listB/shout5.gif""style=""height:400px;""></stim_listB>",,html-keyboard-response,99,917707,0.0-13.0-1.17,11034,List2B,black,man,,,,null,,,,
null,is shouting at,,html-keyboard-response,100,919710,0.0-13.0-2.17,11034,List2B,black,man,,,,null,,,,
13385,,,survey-text,101,933098,0.0-13.0-3.17,11034,List2B,black,man,,,,,"{""Q0"":""Luke is shouting at Fred""}","<img src=""stim_listB/shout5.gif""style=""height:400px;""></stim_listB>",is shouting at,
null,"<div style=""font-size:60px;"">+</div>",,html-keyboard-response,102,933601,0.0-13.0-0.18,11034,List2B,black,man,,,,null,,,,
null,"<img src=""stim_listB/marry5.gif""style=""height:400px;""></stim_listB>",,html-keyboard-response,103,935604,0.0-13.0-1.18,11034,List2B,black,man,,,,null,,,,
null,is marrying,,html-keyboard-response,104,937606,0.0-13.0-2.18,11034,List2B,black,man,,,,null,,,,
19599,,,survey-text,105,957207,0.0-13.0-3.18,11034,List2B,black,man,,,,,"{""Q0"":""Dave and Fred are marrying each other""}","<img src=""stim_listB/marry5.gif""style=""height:400px;""></stim_listB>",is marrying,
null,"<div style=""font-size:60px;"">+</div>",,html-keyboard-response,106,957711,0.0-13.0-0.19,11034,List2B,black,man,,,,null,,,,
null,"<img src=""stim_listB/argue6.gif""style=""height:400px;""></stim_listB>",,html-keyboard-response,107,959714,0.0-13.0-1.19,11034,List2B,black,man,,,,null,,,,
null,are arguing with each other,,html-keyboard-response,108,961717,0.0-13.0-2.19,11034,List2B,black,man,,,,null,,,,
23264,,,survey-text,109,984984,0.0-13.0-3.19,11034,List2B,black,man,,,,,"{""Q0"":""Mike and Luke are arguing with each other""}","<img src=""stim_listB/argue6.gif""style=""height:400px;""></stim_listB>",are arguing with each other,
8993,"<img src='img/portrait_matrix_list2.jpg' style='width:900px;height:500px;''></img><p>If you have memorised all the portraits and names and are ready to start, press Continue.</p><p><strong>Please note: Your memory of these faces will be tested 4 times during this experiment.</strong></p>",0,html-button-response,110,993981,0.0-14.0-0.0,11034,List2B,black,man,,,,,,,,
4723,"<img src=""portrait/BW2.jpg""style=""height:400px;""></img>",2,html-button-response,111,999710,0.0-14.0-1.0,11034,List2B,black,man,,TRUE,2,,,,,
null,CORRECT,,html-keyboard-response,112,1001216,0.0-14.0-2.0-0.0,11034,List2B,black,man,,,,null,,,,
2673,"<img src=""portrait/WM1.jpg""style=""height:400px;""></img>",6,html-button-response,113,1003892,0.0-14.0-4.0,11034,List2B,black,man,,TRUE,6,,,,,
null,CORRECT,,html-keyboard-response,114,1005396,0.0-14.0-5.0-0.0,11034,List2B,black,man,,,,null,,,,
6843,"<img src=""portrait/WW1.jpg""style=""height:400px;""></img>",1,html-button-response,115,1012243,0.0-14.0-7.0,11034,List2B,black,man,,TRUE,1,,,,,
null,CORRECT,,html-keyboard-response,116,1013750,0.0-14.0-8.0-0.0,11034,List2B,black,man,,,,null,,,,
4428,"<img src=""portrait/WM2.jpg""style=""height:400px;""></img>",7,html-button-response,117,1018182,0.0-14.0-10.0,11034,List2B,black,man,,TRUE,7,,,,,
null,CORRECT,,html-keyboard-response,118,1019687,0.0-14.0-11.0-0.0,11034,List2B,black,man,,,,null,,,,
3687,"<img src=""portrait/WW2.jpg""style=""height:400px;""></img>",3,html-button-response,119,1023376,0.0-14.0-13.0,11034,List2B,black,man,,TRUE,3,,,,,
null,CORRECT,,html-keyboard-response,120,1024882,0.0-14.0-14.0-0.0,11034,List2B,black,man,,,,null,,,,
7179,"<img src=""portrait/BW1.jpg""style=""height:400px;""></img>",0,html-button-response,121,1032065,0.0-14.0-16.0,11034,List2B,black,man,,TRUE,0,,,,,
null,CORRECT,,html-keyboard-response,122,1033571,0.0-14.0-17.0-0.0,11034,List2B,black,man,,,,null,,,,
2381,"<img src=""portrait/BM2.jpg""style=""height:400px;""></img>",5,html-button-response,123,1035955,0.0-14.0-19.0,11034,List2B,black,man,,TRUE,5,,,,,
null,CORRECT,,html-keyboard-response,124,1037459,0.0-14.0-20.0-0.0,11034,List2B,black,man,,,,null,,,,
1673,"<img src=""portrait/BM1.jpg""style=""height:400px;""></img>",4,html-button-response,125,1039136,0.0-14.0-22.0,11034,List2B,black,man,,TRUE,4,,,,,
null,CORRECT,,html-keyboard-response,126,1040641,0.0-14.0-23.0-0.0,11034,List2B,black,man,,,,null,,,,
1562,<p>You got 8 out of 8 right first time. Press Continue.</p>,0,html-button-response,127,1042206,0.0-14.0-25.0,11034,List2B,black,man,,,,,,,,
null,"<div style=""font-size:60px;"">+</div>",,html-keyboard-response,128,1043709,0.0-15.0-0.0,11034,List2B,black,man,,,,null,,,,
null,"<img src=""stim_listB/talk4.gif""style=""height:400px;""></stim_listB>",,html-keyboard-response,129,1045714,0.0-15.0-1.0,11034,List2B,black,man,,,,null,,,,
null,are talking to each other,,html-keyboard-response,130,1047718,0.0-15.0-2.0,11034,List2B,black,man,,,,null,,,,
21574,,,survey-text,131,1069295,0.0-15.0-3.0,11034,List2B,black,man,,,,,"{""Q0"":""Mike and Kate are arguing with each other""}","<img src=""stim_listB/talk4.gif""style=""height:400px;""></stim_listB>",are talking to each other,
null,"<div style=""font-size:60px;"">+</div>",,html-keyboard-response,132,1069799,0.0-15.0-0.1,11034,List2B,black,man,,,,null,,,,
null,"<img src=""stim_listB/fight8.gif""style=""height:400px;""></stim_listB>",,html-keyboard-response,133,1071803,0.0-15.0-1.1,11034,List2B,black,man,,,,null,,,,
null,are fighting each other,,html-keyboard-response,134,1073805,0.0-15.0-2.1,11034,List2B,black,man,,,,null,,,,
17028,,,survey-text,135,1090837,0.0-15.0-3.1,11034,List2B,black,man,,,,,"{""Q0"":""Jane and kate are arguing with each other""}","<img src=""stim_listB/fight8.gif""style=""height:400px;""></stim_listB>",are fighting each other,
null,"<div style=""font-size:60px;"">+</div>",,html-keyboard-response,136,1091339,0.0-15.0-0.2,11034,List2B,black,man,,,,null,,,,
null,"<img src=""stim_listB/play2.gif""style=""height:400px;""></stim_listB>",,html-keyboard-response,137,1093341,0.0-15.0-1.2,11034,List2B,black,man,,,,null,,,,
null,are playing with each other,,html-keyboard-response,138,1095343,0.0-15.0-2.2,11034,List2B,black,man,,,,null,,,,
19848,,,survey-text,139,1115193,0.0-15.0-3.2,11034,List2B,black,man,,,,,"{""Q0"":""Luke and Ruth are playing with each other""}","<img src=""stim_listB/play2.gif""style=""height:400px;""></stim_listB>",are playing with each other,
null,"<div style=""font-size:60px;"">+</div>",,html-keyboard-response,140,1115696,0.0-15.0-0.3,11034,List2B,black,man,,,,null,,,,
null,"<img src=""stim_listB/flirt1.gif""style=""height:400px;""></stim_listB>",,html-keyboard-response,141,1117701,0.0-15.0-1.3,11034,List2B,black,man,,,,null,,,,
null,is flirting with,,html-keyboard-response,142,1119704,0.0-15.0-2.3,11034,List2B,black,man,,,,null,,,,
15819,,,survey-text,143,1135525,0.0-15.0-3.3,11034,List2B,black,man,,,,,"{""Q0"":""Luke is flirting with Jane""}","<img src=""stim_listB/flirt1.gif""style=""height:400px;""></stim_listB>",is flirting with,
null,"<div style=""font-size:60px;"">+</div>",,html-keyboard-response,144,1136028,0.0-15.0-0.4,11034,List2B,black,man,,,,null,,,,
null,"<img src=""stim_listB/touch8.gif""style=""height:400px;""></stim_listB>",,html-keyboard-response,145,1138031,0.0-15.0-1.4,11034,List2B,black,man,,,,null,,,,
null,are touching each other,,html-keyboard-response,146,1140035,0.0-15.0-2.4,11034,List2B,black,man,,,,null,,,,
8033,,,survey-text,147,1148070,0.0-15.0-3.4,11034,List2B,black,man,,,,,"{""Q0"":""Beth and Ruth""}","<img src=""stim_listB/touch8.gif""style=""height:400px;""></stim_listB>",are touching each other,
null,"<div style=""font-size:60px;"">+</div>",,html-keyboard-response,148,1148575,0.0-15.0-0.5,11034,List2B,black,man,,,,null,,,,
null,"<img src=""stim_listB/fight1.gif""style=""height:400px;""></stim_listB>",,html-keyboard-response,149,1150577,0.0-15.0-1.5,11034,List2B,black,man,,,,null,,,,
null,is fighting,,html-keyboard-response,150,1152579,0.0-15.0-2.5,11034,List2B,black,man,,,,null,,,,
10236,,,survey-text,151,1162818,0.0-15.0-3.5,11034,List2B,black,man,,,,,"{""Q0"":""Dave is fighting Jane""}","<img src=""stim_listB/fight1.gif""style=""height:400px;""></stim_listB>",is fighting,
null,"<div style=""font-size:60px;"">+</div>",,html-keyboard-response,152,1163321,0.0-15.0-0.6,11034,List2B,black,man,,,,null,,,,
null,"<img src=""stim_listB/talk5.gif""style=""height:400px;""></stim_listB>",,html-keyboard-response,153,1165325,0.0-15.0-1.6,11034,List2B,black,man,,,,null,,,,
null,is talking to,,html-keyboard-response,154,1167327,0.0-15.0-2.6,11034,List2B,black,man,,,,null,,,,
11513,,,survey-text,155,1178842,0.0-15.0-3.6,11034,List2B,black,man,,,,,"{""Q0"":""Mike is talking to Luke""}","<img src=""stim_listB/talk5.gif""style=""height:400px;""></stim_listB>",is talking to,
null,"<div style=""font-size:60px;"">+</div>",,html-keyboard-response,156,1179345,0.0-15.0-0.7,11034,List2B,black,man,,,,null,,,,
null,"<img src=""stim_listB/fight4.gif""style=""height:400px;""></stim_listB>",,html-keyboard-response,157,1181348,0.0-15.0-1.7,11034,List2B,black,man,,,,null,,,,
null,are fighting each other,,html-keyboard-response,158,1183352,0.0-15.0-2.7,11034,List2B,black,man,,,,null,,,,
13348,,,survey-text,159,1196703,0.0-15.0-3.7,11034,List2B,black,man,,,,,"{""Q0"":""Fred and Beth are fighting each other""}","<img src=""stim_listB/fight4.gif""style=""height:400px;""></stim_listB>",are fighting each other,
null,"<div style=""font-size:60px;"">+</div>",,html-keyboard-response,160,1197206,0.0-15.0-0.8,11034,List2B,black,man,,,,null,,,,
null,"<img src=""stim_listB/shout7.gif""style=""height:400px;""></stim_listB>",,html-keyboard-response,161,1199210,0.0-15.0-1.8,11034,List2B,black,man,,,,null,,,,
null,is shouting at,,html-keyboard-response,162,1201213,0.0-15.0-2.8,11034,List2B,black,man,,,,null,,,,
17271,,,survey-text,163,1218487,0.0-15.0-3.8,11034,List2B,black,man,,,,,"{""Q0"":""Beth is arguing with ruth""}","<img src=""stim_listB/shout7.gif""style=""height:400px;""></stim_listB>",is shouting at,
null,"<div style=""font-size:60px;"">+</div>",,html-keyboard-response,164,1218990,0.0-15.0-0.9,11034,List2B,black,man,,,,null,,,,
null,"<img src=""stim_listB/dance6.gif""style=""height:400px;""></stim_listB>",,html-keyboard-response,165,1220995,0.0-15.0-1.9,11034,List2B,black,man,,,,null,,,,
null,are dancing with each other,,html-keyboard-response,166,1222997,0.0-15.0-2.9,11034,List2B,black,man,,,,null,,,,
16964,,,survey-text,167,1239963,0.0-15.0-3.9,11034,List2B,black,man,,,,,"{""Q0"":""Fred and Dave are dancing with each other""}","<img src=""stim_listB/dance6.gif""style=""height:400px;""></stim_listB>",are dancing with each other,
null,"<div style=""font-size:60px;"">+</div>",,html-keyboard-response,168,1240466,0.0-15.0-0.10,11034,List2B,black,man,,,,null,,,,
null,"<img src=""stim_listB/kiss7.gif""style=""height:400px;""></stim_listB>",,html-keyboard-response,169,1242468,0.0-15.0-1.10,11034,List2B,black,man,,,,null,,,,
null,is kissing,,html-keyboard-response,170,1244472,0.0-15.0-2.10,11034,List2B,black,man,,,,null,,,,
17069,,,survey-text,171,1261546,0.0-15.0-3.10,11034,List2B,black,man,,,,,"{""Q0"":""Ruth and Beth are kissing""}","<img src=""stim_listB/kiss7.gif""style=""height:400px;""></stim_listB>",is kissing,
null,"<div style=""font-size:60px;"">+</div>",,html-keyboard-response,172,1262048,0.0-15.0-0.11,11034,List2B,black,man,,,,null,,,,
null,"<img src=""stim_listB/argue4.gif""style=""height:400px;""></stim_listB>",,html-keyboard-response,173,1264051,0.0-15.0-1.11,11034,List2B,black,man,,,,null,,,,
null,are arguing with each other,,html-keyboard-response,174,1266056,0.0-15.0-2.11,11034,List2B,black,man,,,,null,,,,
13728,,,survey-text,175,1279786,0.0-15.0-3.11,11034,List2B,black,man,,,,,"{""Q0"":""Fred and Kate are arguing with each other""}","<img src=""stim_listB/argue4.gif""style=""height:400px;""></stim_listB>",are arguing with each other,
null,"<div style=""font-size:60px;"">+</div>",,html-keyboard-response,176,1280292,0.0-15.0-0.12,11034,List2B,black,man,,,,null,,,,
null,"<img src=""stim_listB/dance7.gif""style=""height:400px;""></stim_listB>",,html-keyboard-response,177,1282295,0.0-15.0-1.12,11034,List2B,black,man,,,,null,,,,
null,is dancing with,,html-keyboard-response,178,1284297,0.0-15.0-2.12,11034,List2B,black,man,,,,null,,,,
25403,,,survey-text,179,1309702,0.0-15.0-3.12,11034,List2B,black,man,,,,,"{""Q0"":""Ruth and Kate are dancing with each other""}","<img src=""stim_listB/dance7.gif""style=""height:400px;""></stim_listB>",is dancing with,
null,"<div style=""font-size:60px;"">+</div>",,html-keyboard-response,180,1310206,0.0-15.0-0.13,11034,List2B,black,man,,,,null,,,,
null,"<img src=""stim_listB/shout8.gif""style=""height:400px;""></stim_listB>",,html-keyboard-response,181,1312210,0.0-15.0-1.13,11034,List2B,black,man,,,,null,,,,
null,are shouting at each other,,html-keyboard-response,182,1314213,0.0-15.0-2.13,11034,List2B,black,man,,,,null,,,,
23617,,,survey-text,183,1337833,0.0-15.0-3.13,11034,List2B,black,man,,,,,"{""Q0"":""Jane and Kate are shouting at each other""}","<img src=""stim_listB/shout8.gif""style=""height:400px;""></stim_listB>",are shouting at each other,
null,"<div style=""font-size:60px;"">+</div>",,html-keyboard-response,184,1338335,0.0-15.0-0.14,11034,List2B,black,man,,,,null,,,,
null,"<img src=""stim_listB/kiss8.gif""style=""height:400px;""></stim_listB>",,html-keyboard-response,185,1340340,0.0-15.0-1.14,11034,List2B,black,man,,,,null,,,,
null,are kissing each other,,html-keyboard-response,186,1342342,0.0-15.0-2.14,11034,List2B,black,man,,,,null,,,,
13819,,,survey-text,187,1356164,0.0-15.0-3.14,11034,List2B,black,man,,,,,"{""Q0"":""Jane and kate are kissing ""}","<img src=""stim_listB/kiss8.gif""style=""height:400px;""></stim_listB>",are kissing each other,
null,"<div style=""font-size:60px;"">+</div>",,html-keyboard-response,188,1356667,0.0-15.0-0.15,11034,List2B,black,man,,,,null,,,,
null,"<img src=""stim_listB/talk2.gif""style=""height:400px;""></stim_listB>",,html-keyboard-response,189,1358670,0.0-15.0-1.15,11034,List2B,black,man,,,,null,,,,
null,are talking to each other,,html-keyboard-response,190,1360672,0.0-15.0-2.15,11034,List2B,black,man,,,,null,,,,
18011,,,survey-text,191,1378686,0.0-15.0-3.15,11034,List2B,black,man,,,,,"{""Q0"":""Dave and Ruth are talking to each other""}","<img src=""stim_listB/talk2.gif""style=""height:400px;""></stim_listB>",are talking to each other,
null,"<div style=""font-size:60px;"">+</div>",,html-keyboard-response,192,1379189,0.0-15.0-0.16,11034,List2B,black,man,,,,null,,,,
null,"<img src=""stim_listB/fight3.gif""style=""height:400px;""></stim_listB>",,html-keyboard-response,193,1381192,0.0-15.0-1.16,11034,List2B,black,man,,,,null,,,,
null,is fighting,,html-keyboard-response,194,1383195,0.0-15.0-2.16,11034,List2B,black,man,,,,null,,,,
11569,,,survey-text,195,1394768,0.0-15.0-3.16,11034,List2B,black,man,,,,,"{""Q0"":""Mike and Kate is fighting""}","<img src=""stim_listB/fight3.gif""style=""height:400px;""></stim_listB>",is fighting,
null,"<div style=""font-size:60px;"">+</div>",,html-keyboard-response,196,1395271,0.0-15.0-0.17,11034,List2B,black,man,,,,null,,,,
null,"<img src=""stim_listB/shout1.gif""style=""height:400px;""></stim_listB>",,html-keyboard-response,197,1397274,0.0-15.0-1.17,11034,List2B,black,man,,,,null,,,,
null,is shouting at,,html-keyboard-response,198,1399279,0.0-15.0-2.17,11034,List2B,black,man,,,,null,,,,
9477,,,survey-text,199,1408759,0.0-15.0-3.17,11034,List2B,black,man,,,,,"{""Q0"":""Ruth is shouting at Luke""}","<img src=""stim_listB/shout1.gif""style=""height:400px;""></stim_listB>",is shouting at,
null,"<div style=""font-size:60px;"">+</div>",,html-keyboard-response,200,1409263,0.0-15.0-0.18,11034,List2B,black,man,,,,null,,,,
null,"<img src=""stim_listB/argue2.gif""style=""height:400px;""></stim_listB>",,html-keyboard-response,201,1411267,0.0-15.0-1.18,11034,List2B,black,man,,,,null,,,,
null,are arguing with each other,,html-keyboard-response,202,1413270,0.0-15.0-2.18,11034,List2B,black,man,,,,null,,,,
14995,,,survey-text,203,1428267,0.0-15.0-3.18,11034,List2B,black,man,,,,,"{""Q0"":""Luke and Jane are arguing with each other""}","<img src=""stim_listB/argue2.gif""style=""height:400px;""></stim_listB>",are arguing with each other,
null,"<div style=""font-size:60px;"">+</div>",,html-keyboard-response,204,1428770,0.0-15.0-0.19,11034,List2B,black,man,,,,null,,,,
null,"<img src=""stim_listB/shout4.gif""style=""height:400px;""></stim_listB>",,html-keyboard-response,205,1430773,0.0-15.0-1.19,11034,List2B,black,man,,,,null,,,,
null,are shouting at each other,,html-keyboard-response,206,1432777,0.0-15.0-2.19,11034,List2B,black,man,,,,null,,,,
14206,,,survey-text,207,1446985,0.0-15.0-3.19,11034,List2B,black,man,,,,,"{""Q0"":""Kate and Mike are shouting at each other""}","<img src=""stim_listB/shout4.gif""style=""height:400px;""></stim_listB>",are shouting at each other,
12168,"<img src='img/portrait_matrix_list2.jpg' style='width:900px;height:500px;''></img><p>If you have memorised all the portraits and names and are ready to start, press Continue.</p><p><strong>Please note: Your memory of these faces will be tested 4 times during this experiment.</strong></p>",0,html-button-response,208,1459156,0.0-16.0-0.0,11034,List2B,black,man,,,,,,,,
6757,"<img src=""portrait/BM1.jpg""style=""height:400px;""></img>",4,html-button-response,209,1466918,0.0-16.0-1.0,11034,List2B,black,man,,TRUE,4,,,,,
null,CORRECT,,html-keyboard-response,210,1468423,0.0-16.0-2.0-0.0,11034,List2B,black,man,,,,null,,,,
2800,"<img src=""portrait/WW1.jpg""style=""height:400px;""></img>",1,html-button-response,211,1471228,0.0-16.0-4.0,11034,List2B,black,man,,TRUE,1,,,,,
null,CORRECT,,html-keyboard-response,212,1472733,0.0-16.0-5.0-0.0,11034,List2B,black,man,,,,null,,,,
6679,"<img src=""portrait/BW2.jpg""style=""height:400px;""></img>",2,html-button-response,213,1479416,0.0-16.0-7.0,11034,List2B,black,man,,TRUE,2,,,,,
null,CORRECT,,html-keyboard-response,214,1480920,0.0-16.0-8.0-0.0,11034,List2B,black,man,,,,null,,,,
2899,"<img src=""portrait/WM2.jpg""style=""height:400px;""></img>",7,html-button-response,215,1483823,0.0-16.0-10.0,11034,List2B,black,man,,TRUE,7,,,,,
null,CORRECT,,html-keyboard-response,216,1485328,0.0-16.0-11.0-0.0,11034,List2B,black,man,,,,null,,,,
6848,"<img src=""portrait/BW1.jpg""style=""height:400px;""></img>",0,html-button-response,217,1492180,0.0-16.0-13.0,11034,List2B,black,man,,TRUE,0,,,,,
null,CORRECT,,html-keyboard-response,218,1493684,0.0-16.0-14.0-0.0,11034,List2B,black,man,,,,null,,,,
2383,"<img src=""portrait/WW2.jpg""style=""height:400px;""></img>",3,html-button-response,219,1496070,0.0-16.0-16.0,11034,List2B,black,man,,TRUE,3,,,,,
null,CORRECT,,html-keyboard-response,220,1497574,0.0-16.0-17.0-0.0,11034,List2B,black,man,,,,null,,,,
2771,"<img src=""portrait/WM1.jpg""style=""height:400px;""></img>",6,html-button-response,221,1500350,0.0-16.0-19.0,11034,List2B,black,man,,TRUE,6,,,,,
null,CORRECT,,html-keyboard-response,222,1501853,0.0-16.0-20.0-0.0,11034,List2B,black,man,,,,null,,,,
2463,"<img src=""portrait/BM2.jpg""style=""height:400px;""></img>",5,html-button-response,223,1504320,0.0-16.0-22.0,11034,List2B,black,man,,TRUE,5,,,,,
null,CORRECT,,html-keyboard-response,224,1505825,0.0-16.0-23.0-0.0,11034,List2B,black,man,,,,null,,,,
1612,<p>You got 8 out of 8 right first time. Press Continue.</p>,0,html-button-response,225,1507440,0.0-16.0-25.0,11034,List2B,black,man,,,,,,,,
null,"<div style=""font-size:60px;"">+</div>",,html-keyboard-response,226,1508946,0.0-17.0-0.0,11034,List2B,black,man,,,,null,,,,
null,"<img src=""stim_listB/fight5.gif""style=""height:400px;""></stim_listB>",,html-keyboard-response,227,1510950,0.0-17.0-1.0,11034,List2B,black,man,,,,null,,,,
null,is fighting,,html-keyboard-response,228,1512953,0.0-17.0-2.0,11034,List2B,black,man,,,,null,,,,
15706,,,survey-text,229,1528661,0.0-17.0-3.0,11034,List2B,black,man,,,,,"{""Q0"":""Mike and Dave is fighting""}","<img src=""stim_listB/fight5.gif""style=""height:400px;""></stim_listB>",is fighting,
null,"<div style=""font-size:60px;"">+</div>",,html-keyboard-response,230,1529165,0.0-17.0-0.1,11034,List2B,black,man,,,,null,,,,
null,"<img src=""stim_listB/play3.gif""style=""height:400px;""></stim_listB>",,html-keyboard-response,231,1531169,0.0-17.0-1.1,11034,List2B,black,man,,,,null,,,,
null,is playing with,,html-keyboard-response,232,1533171,0.0-17.0-2.1,11034,List2B,black,man,,,,null,,,,
15906,,,survey-text,233,1549081,0.0-17.0-3.1,11034,List2B,black,man,,,,,"{""Q0"":""Mike is playing with Kate""}","<img src=""stim_listB/play3.gif""style=""height:400px;""></stim_listB>",is playing with,
null,"<div style=""font-size:60px;"">+</div>",,html-keyboard-response,234,1549584,0.0-17.0-0.2,11034,List2B,black,man,,,,null,,,,
null,"<img src=""stim_listB/dance8.gif""style=""height:400px;""></stim_listB>",,html-keyboard-response,235,1551587,0.0-17.0-1.2,11034,List2B,black,man,,,,null,,,,
null,are dancing with each other,,html-keyboard-response,236,1553589,0.0-17.0-2.2,11034,List2B,black,man,,,,null,,,,
18757,,,survey-text,237,1572349,0.0-17.0-3.2,11034,List2B,black,man,,,,,"{""Q0"":""Beth and Jane are dancing with each other""}","<img src=""stim_listB/dance8.gif""style=""height:400px;""></stim_listB>",are dancing with each other,
null,"<div style=""font-size:60px;"">+</div>",,html-keyboard-response,238,1572853,0.0-17.0-0.3,11034,List2B,black,man,,,,null,,,,
null,"<img src=""stim_listB/kiss6.gif""style=""height:400px;""></stim_listB>",,html-keyboard-response,239,1574856,0.0-17.0-1.3,11034,List2B,black,man,,,,null,,,,
null,are kissing each other,,html-keyboard-response,240,1576859,0.0-17.0-2.3,11034,List2B,black,man,,,,null,,,,
9807,,,survey-text,241,1586668,0.0-17.0-3.3,11034,List2B,black,man,,,,,"{""Q0"":""Mike and dave are kissing""}","<img src=""stim_listB/kiss6.gif""style=""height:400px;""></stim_listB>",are kissing each other,
null,"<div style=""font-size:60px;"">+</div>",,html-keyboard-response,242,1587171,0.0-17.0-0.4,11034,List2B,black,man,,,,null,,,,
null,"<img src=""stim_listB/talk6.gif""style=""height:400px;""></stim_listB>",,html-keyboard-response,243,1589174,0.0-17.0-1.4,11034,List2B,black,man,,,,null,,,,
null,are talking to each other,,html-keyboard-response,244,1591175,0.0-17.0-2.4,11034,List2B,black,man,,,,null,,,,
10262,,,survey-text,245,1601439,0.0-17.0-3.4,11034,List2B,black,man,,,,,"{""Q0"":""Dave and Fred are talking to each other""}","<img src=""stim_listB/talk6.gif""style=""height:400px;""></stim_listB>",are talking to each other,
null,"<div style=""font-size:60px;"">+</div>",,html-keyboard-response,246,1601941,0.0-17.0-0.5,11034,List2B,black,man,,,,null,,,,
null,"<img src=""stim_listB/marry4.gif""style=""height:400px;""></stim_listB>",,html-keyboard-response,247,1603944,0.0-17.0-1.5,11034,List2B,black,man,,,,null,,,,
null,are marrying each other,,html-keyboard-response,248,1605947,0.0-17.0-2.5,11034,List2B,black,man,,,,null,,,,
13472,,,survey-text,249,1619422,0.0-17.0-3.5,11034,List2B,black,man,,,,,"{""Q0"":""Kate and fred are marrying each other""}","<img src=""stim_listB/marry4.gif""style=""height:400px;""></stim_listB>",are marrying each other,
null,"<div style=""font-size:60px;"">+</div>",,html-keyboard-response,250,1619925,0.0-17.0-0.6,11034,List2B,black,man,,,,null,,,,
null,"<img src=""stim_listB/argue8.gif""style=""height:400px;""></stim_listB>",,html-keyboard-response,251,1621928,0.0-17.0-1.6,11034,List2B,black,man,,,,null,,,,
null,are arguing with each other,,html-keyboard-response,252,1623930,0.0-17.0-2.6,11034,List2B,black,man,,,,null,,,,
22984,,,survey-text,253,1646917,0.0-17.0-3.6,11034,List2B,black,man,,,,,"{""Q0"":""Ruth and Kate are arguing with each other""}","<img src=""stim_listB/argue8.gif""style=""height:400px;""></stim_listB>",are arguing with each other,
null,"<div style=""font-size:60px;"">+</div>",,html-keyboard-response,254,1647421,0.0-17.0-0.7,11034,List2B,black,man,,,,null,,,,
null,"<img src=""stim_listB/marry2.gif""style=""height:400px;""></stim_listB>",,html-keyboard-response,255,1649425,0.0-17.0-1.7,11034,List2B,black,man,,,,null,,,,
null,are marrying each other,,html-keyboard-response,256,1651428,0.0-17.0-2.7,11034,List2B,black,man,,,,null,,,,
10907,,,survey-text,257,1662337,0.0-17.0-3.7,11034,List2B,black,man,,,,,"{""Q0"":""Luke and Jane are marrying each other""}","<img src=""stim_listB/marry2.gif""style=""height:400px;""></stim_listB>",are marrying each other,
null,"<div style=""font-size:60px;"">+</div>",,html-keyboard-response,258,1662841,0.0-17.0-0.8,11034,List2B,black,man,,,,null,,,,
null,"<img src=""stim_listB/flirt8.gif""style=""height:400px;""></stim_listB>",,html-keyboard-response,259,1664845,0.0-17.0-1.8,11034,List2B,black,man,,,,null,,,,
null,are flirting with each other,,html-keyboard-response,260,1666847,0.0-17.0-2.8,11034,List2B,black,man,,,,null,,,,
14867,,,survey-text,261,1681716,0.0-17.0-3.8,11034,List2B,black,man,,,,,"{""Q0"":""Jane and Beth are flirting with each other""}","<img src=""stim_listB/flirt8.gif""style=""height:400px;""></stim_listB>",are flirting with each other,
null,"<div style=""font-size:60px;"">+</div>",,html-keyboard-response,262,1682221,0.0-17.0-0.9,11034,List2B,black,man,,,,null,,,,
null,"<img src=""stim_listB/play5.gif""style=""height:400px;""></stim_listB>",,html-keyboard-response,263,1684225,0.0-17.0-1.9,11034,List2B,black,man,,,,null,,,,
null,is playing with,,html-keyboard-response,264,1686227,0.0-17.0-2.9,11034,List2B,black,man,,,,null,,,,
10056,,,survey-text,265,1696286,0.0-17.0-3.9,11034,List2B,black,man,,,,,"{""Q0"":""Mike is playing with dave""}","<img src=""stim_listB/play5.gif""style=""height:400px;""></stim_listB>",is playing with,
null,"<div style=""font-size:60px;"">+</div>",,html-keyboard-response,266,1696789,0.0-17.0-0.10,11034,List2B,black,man,,,,null,,,,
null,"<img src=""stim_listB/kiss2.gif""style=""height:400px;""></stim_listB>",,html-keyboard-response,267,1698792,0.0-17.0-1.10,11034,List2B,black,man,,,,null,,,,
null,are kissing each other,,html-keyboard-response,268,1700794,0.0-17.0-2.10,11034,List2B,black,man,,,,null,,,,
14849,,,survey-text,269,1715645,0.0-17.0-3.10,11034,List2B,black,man,,,,,"{""Q0"":""Dave and Jane are kissing each other""}","<img src=""stim_listB/kiss2.gif""style=""height:400px;""></stim_listB>",are kissing each other,
null,"<div style=""font-size:60px;"">+</div>",,html-keyboard-response,270,1716150,0.0-17.0-0.11,11034,List2B,black,man,,,,null,,,,
null,"<img src=""stim_listB/kiss4.gif""style=""height:400px;""></stim_listB>",,html-keyboard-response,271,1718154,0.0-17.0-1.11,11034,List2B,black,man,,,,null,,,,
null,are kissing each other,,html-keyboard-response,272,1720157,0.0-17.0-2.11,11034,List2B,black,man,,,,null,,,,
10583,,,survey-text,273,1730743,0.0-17.0-3.11,11034,List2B,black,man,,,,,"{""Q0"":""Mike and Kate are kissing each other""}","<img src=""stim_listB/kiss4.gif""style=""height:400px;""></stim_listB>",are kissing each other,
null,"<div style=""font-size:60px;"">+</div>",,html-keyboard-response,274,1731245,0.0-17.0-0.12,11034,List2B,black,man,,,,null,,,,
null,"<img src=""stim_listB/touch2.gif""style=""height:400px;""></stim_listB>",,html-keyboard-response,275,1733249,0.0-17.0-1.12,11034,List2B,black,man,,,,null,,,,
null,are touching each other,,html-keyboard-response,276,1735252,0.0-17.0-2.12,11034,List2B,black,man,,,,null,,,,
22719,,,survey-text,277,1757975,0.0-17.0-3.12,11034,List2B,black,man,,,,,"{""Q0"":""Luke and ruth are touching each other""}","<img src=""stim_listB/touch2.gif""style=""height:400px;""></stim_listB>",are touching each other,
null,"<div style=""font-size:60px;"">+</div>",,html-keyboard-response,278,1758478,0.0-17.0-0.13,11034,List2B,black,man,,,,null,,,,
null,"<img src=""stim_listB/shout3.gif""style=""height:400px;""></stim_listB>",,html-keyboard-response,279,1760481,0.0-17.0-1.13,11034,List2B,black,man,,,,null,,,,
null,is shouting at,,html-keyboard-response,280,1762484,0.0-17.0-2.13,11034,List2B,black,man,,,,null,,,,
10588,,,survey-text,281,1773075,0.0-17.0-3.13,11034,List2B,black,man,,,,,"{""Q0"":""Fred is shouting at Beth""}","<img src=""stim_listB/shout3.gif""style=""height:400px;""></stim_listB>",is shouting at,
null,"<div style=""font-size:60px;"">+</div>",,html-keyboard-response,282,1773578,0.0-17.0-0.14,11034,List2B,black,man,,,,null,,,,
null,"<img src=""stim_listB/play7.gif""style=""height:400px;""></stim_listB>",,html-keyboard-response,283,1775582,0.0-17.0-1.14,11034,List2B,black,man,,,,null,,,,
null,is playing with,,html-keyboard-response,284,1777584,0.0-17.0-2.14,11034,List2B,black,man,,,,null,,,,
7703,,,survey-text,285,1785289,0.0-17.0-3.14,11034,List2B,black,man,,,,,"{""Q0"":""Jane is playing with Kate""}","<img src=""stim_listB/play7.gif""style=""height:400px;""></stim_listB>",is playing with,
null,"<div style=""font-size:60px;"">+</div>",,html-keyboard-response,286,1785793,0.0-17.0-0.15,11034,List2B,black,man,,,,null,,,,
null,"<img src=""stim_listB/flirt7.gif""style=""height:400px;""></stim_listB>",,html-keyboard-response,287,1787797,0.0-17.0-1.15,11034,List2B,black,man,,,,null,,,,
null,is flirting with,,html-keyboard-response,288,1789799,0.0-17.0-2.15,11034,List2B,black,man,,,,null,,,,
9770,,,survey-text,289,1799573,0.0-17.0-3.15,11034,List2B,black,man,,,,,"{""Q0"":""Kate is flirting with ruth""}","<img src=""stim_listB/flirt7.gif""style=""height:400px;""></stim_listB>",is flirting with,
null,"<div style=""font-size:60px;"">+</div>",,html-keyboard-response,290,1800076,0.0-17.0-0.16,11034,List2B,black,man,,,,null,,,,
null,"<img src=""stim_listB/dance2.gif""style=""height:400px;""></stim_listB>",,html-keyboard-response,291,1802079,0.0-17.0-1.16,11034,List2B,black,man,,,,null,,,,
null,are dancing with each other,,html-keyboard-response,292,1804081,0.0-17.0-2.16,11034,List2B,black,man,,,,null,,,,
18539,,,survey-text,293,1822623,0.0-17.0-3.16,11034,List2B,black,man,,,,,"{""Q0"":""Ruth and Dave are dancing with each other""}","<img src=""stim_listB/dance2.gif""style=""height:400px;""></stim_listB>",are dancing with each other,
null,"<div style=""font-size:60px;"">+</div>",,html-keyboard-response,294,1823126,0.0-17.0-0.17,11034,List2B,black,man,,,,null,,,,
null,"<img src=""stim_listB/touch3.gif""style=""height:400px;""></stim_listB>",,html-keyboard-response,295,1825129,0.0-17.0-1.17,11034,List2B,black,man,,,,null,,,,
null,is touching,,html-keyboard-response,296,1827131,0.0-17.0-2.17,11034,List2B,black,man,,,,null,,,,
12596,,,survey-text,297,1839729,0.0-17.0-3.17,11034,List2B,black,man,,,,,"{""Q0"":""Kate and Mike is touching ""}","<img src=""stim_listB/touch3.gif""style=""height:400px;""></stim_listB>",is touching,
null,"<div style=""font-size:60px;"">+</div>",,html-keyboard-response,298,1840233,0.0-17.0-0.18,11034,List2B,black,man,,,,null,,,,
null,"<img src=""stim_listB/touch1.gif""style=""height:400px;""></stim_listB>",,html-keyboard-response,299,1842236,0.0-17.0-1.18,11034,List2B,black,man,,,,null,,,,
null,is touching,,html-keyboard-response,300,1844240,0.0-17.0-2.18,11034,List2B,black,man,,,,null,,,,
10547,,,survey-text,301,1854790,0.0-17.0-3.18,11034,List2B,black,man,,,,,"{""Q0"":""Jane and Dave is touching ""}","<img src=""stim_listB/touch1.gif""style=""height:400px;""></stim_listB>",is touching,
null,"<div style=""font-size:60px;"">+</div>",,html-keyboard-response,302,1855293,0.0-17.0-0.19,11034,List2B,black,man,,,,null,,,,
null,"<img src=""stim_listB/dance4.gif""style=""height:400px;""></stim_listB>",,html-keyboard-response,303,1857297,0.0-17.0-1.19,11034,List2B,black,man,,,,null,,,,
null,are dancing with each other,,html-keyboard-response,304,1859299,0.0-17.0-2.19,11034,List2B,black,man,,,,null,,,,
13947,,,survey-text,305,1873249,0.0-17.0-3.19,11034,List2B,black,man,,,,,"{""Q0"":""Mike and Beth are dancing with each other""}","<img src=""stim_listB/dance4.gif""style=""height:400px;""></stim_listB>",are dancing with each other,
3902,"<img src='img/portrait_matrix_list2.jpg' style='width:900px;height:500px;''></img><p>If you have memorised all the portraits and names and are ready to start, press Continue.</p><p><strong>Please note: Your memory of these faces will be tested 4 times during this experiment.</strong></p>",0,html-button-response,306,1877154,0.0-18.0-0.0,11034,List2B,black,man,,,,,,,,
3200,"<img src=""portrait/WW1.jpg""style=""height:400px;""></img>",1,html-button-response,307,1881360,0.0-18.0-1.0,11034,List2B,black,man,,TRUE,1,,,,,
null,CORRECT,,html-keyboard-response,308,1882864,0.0-18.0-2.0-0.0,11034,List2B,black,man,,,,null,,,,
2980,"<img src=""portrait/WW2.jpg""style=""height:400px;""></img>",3,html-button-response,309,1885848,0.0-18.0-4.0,11034,List2B,black,man,,TRUE,3,,,,,
null,CORRECT,,html-keyboard-response,310,1887351,0.0-18.0-5.0-0.0,11034,List2B,black,man,,,,null,,,,
1528,"<img src=""portrait/BM1.jpg""style=""height:400px;""></img>",4,html-button-response,311,1888882,0.0-18.0-7.0,11034,List2B,black,man,,TRUE,4,,,,,
null,CORRECT,,html-keyboard-response,312,1890385,0.0-18.0-8.0-0.0,11034,List2B,black,man,,,,null,,,,
1440,"<img src=""portrait/BM2.jpg""style=""height:400px;""></img>",5,html-button-response,313,1891830,0.0-18.0-10.0,11034,List2B,black,man,,TRUE,5,,,,,
null,CORRECT,,html-keyboard-response,314,1893334,0.0-18.0-11.0-0.0,11034,List2B,black,man,,,,null,,,,
1616,"<img src=""portrait/WM1.jpg""style=""height:400px;""></img>",6,html-button-response,315,1894953,0.0-18.0-13.0,11034,List2B,black,man,,TRUE,6,,,,,
null,CORRECT,,html-keyboard-response,316,1896456,0.0-18.0-14.0-0.0,11034,List2B,black,man,,,,null,,,,
2143,"<img src=""portrait/BW2.jpg""style=""height:400px;""></img>",2,html-button-response,317,1898604,0.0-18.0-16.0,11034,List2B,black,man,,TRUE,2,,,,,
null,CORRECT,,html-keyboard-response,318,1900107,0.0-18.0-17.0-0.0,11034,List2B,black,man,,,,null,,,,
2203,"<img src=""portrait/BW1.jpg""style=""height:400px;""></img>",0,html-button-response,319,1902315,0.0-18.0-19.0,11034,List2B,black,man,,TRUE,0,,,,,
null,CORRECT,,html-keyboard-response,320,1903818,0.0-18.0-20.0-0.0,11034,List2B,black,man,,,,null,,,,
1792,"<img src=""portrait/WM2.jpg""style=""height:400px;""></img>",7,html-button-response,321,1905613,0.0-18.0-22.0,11034,List2B,black,man,,TRUE,7,,,,,
null,CORRECT,,html-keyboard-response,322,1907118,0.0-18.0-23.0-0.0,11034,List2B,black,man,,,,null,,,,
1672,<p>You got 8 out of 8 right first time. Press Continue.</p>,0,html-button-response,323,1908794,0.0-18.0-25.0,11034,List2B,black,man,,,,,,,,
null,"<div style=""font-size:60px;"">+</div>",,html-keyboard-response,324,1910299,0.0-19.0-0.0,11034,List2B,black,man,,,,null,,,,
null,"<img src=""stim_listB/dance5.gif""style=""height:400px;""></stim_listB>",,html-keyboard-response,325,1912302,0.0-19.0-1.0,11034,List2B,black,man,,,,null,,,,
null,is dancing with,,html-keyboard-response,326,1914304,0.0-19.0-2.0,11034,List2B,black,man,,,,null,,,,
9015,,,survey-text,327,1923323,0.0-19.0-3.0,11034,List2B,black,man,,,,,"{""Q0"":""Mike is dancing with luke""}","<img src=""stim_listB/dance5.gif""style=""height:400px;""></stim_listB>",is dancing with,
null,"<div style=""font-size:60px;"">+</div>",,html-keyboard-response,328,1923827,0.0-19.0-0.1,11034,List2B,black,man,,,,null,,,,
null,"<img src=""stim_listB/argue1.gif""style=""height:400px;""></stim_listB>",,html-keyboard-response,329,1925832,0.0-19.0-1.1,11034,List2B,black,man,,,,null,,,,
null,is arguing with,,html-keyboard-response,330,1927834,0.0-19.0-2.1,11034,List2B,black,man,,,,null,,,,
8647,,,survey-text,331,1936485,0.0-19.0-3.1,11034,List2B,black,man,,,,,"{""Q0"":""Dave is arguing with ruth""}","<img src=""stim_listB/argue1.gif""style=""height:400px;""></stim_listB>",is arguing with,
null,"<div style=""font-size:60px;"">+</div>",,html-keyboard-response,332,1936987,0.0-19.0-0.2,11034,List2B,black,man,,,,null,,,,
null,"<img src=""stim_listB/flirt5.gif""style=""height:400px;""></stim_listB>",,html-keyboard-response,333,1938990,0.0-19.0-1.2,11034,List2B,black,man,,,,null,,,,
null,is flirting with,,html-keyboard-response,334,1940992,0.0-19.0-2.2,11034,List2B,black,man,,,,null,,,,
8376,,,survey-text,335,1949373,0.0-19.0-3.2,11034,List2B,black,man,,,,,"{""Q0"":""Mike is flirting with luke""}","<img src=""stim_listB/flirt5.gif""style=""height:400px;""></stim_listB>",is flirting with,
null,"<div style=""font-size:60px;"">+</div>",,html-keyboard-response,336,1949876,0.0-19.0-0.3,11034,List2B,black,man,,,,null,,,,
null,"<img src=""stim_listB/flirt6.gif""style=""height:400px;""></stim_listB>",,html-keyboard-response,337,1951881,0.0-19.0-1.3,11034,List2B,black,man,,,,null,,,,
null,are flirting with each other,,html-keyboard-response,338,1953884,0.0-19.0-2.3,11034,List2B,black,man,,,,null,,,,
13050,,,survey-text,339,1966937,0.0-19.0-3.3,11034,List2B,black,man,,,,,"{""Q0"":""Dave and fred are flirting with each other""}","<img src=""stim_listB/flirt6.gif""style=""height:400px;""></stim_listB>",are flirting with each other,
null,"<div style=""font-size:60px;"">+</div>",,html-keyboard-response,340,1967439,0.0-19.0-0.4,11034,List2B,black,man,,,,null,,,,
null,"<img src=""stim_listB/marry1.gif""style=""height:400px;""></stim_listB>",,html-keyboard-response,341,1969444,0.0-19.0-1.4,11034,List2B,black,man,,,,null,,,,
null,is marrying,,html-keyboard-response,342,1971448,0.0-19.0-2.4,11034,List2B,black,man,,,,null,,,,
6771,,,survey-text,343,1978221,0.0-19.0-3.4,11034,List2B,black,man,,,,,"{""Q0"":""Dave is marrying ruth""}","<img src=""stim_listB/marry1.gif""style=""height:400px;""></stim_listB>",is marrying,
null,"<div style=""font-size:60px;"">+</div>",,html-keyboard-response,344,1978723,0.0-19.0-0.5,11034,List2B,black,man,,,,null,,,,
null,"<img src=""stim_listB/marry6.gif""style=""height:400px;""></stim_listB>",,html-keyboard-response,345,1980727,0.0-19.0-1.5,11034,List2B,black,man,,,,null,,,,
null,are marrying each other,,html-keyboard-response,346,1982731,0.0-19.0-2.5,11034,List2B,black,man,,,,null,,,,
12602,,,survey-text,347,1995336,0.0-19.0-3.5,11034,List2B,black,man,,,,,"{""Q0"":""Mike and Luke are marrying each other""}","<img src=""stim_listB/marry6.gif""style=""height:400px;""></stim_listB>",are marrying each other,
null,"<div style=""font-size:60px;"">+</div>",,html-keyboard-response,348,1995839,0.0-19.0-0.6,11034,List2B,black,man,,,,null,,,,
null,"<img src=""stim_listB/touch6.gif""style=""height:400px;""></stim_listB>",,html-keyboard-response,349,1997843,0.0-19.0-1.6,11034,List2B,black,man,,,,null,,,,
null,are touching each other,,html-keyboard-response,350,1999846,0.0-19.0-2.6,11034,List2B,black,man,,,,null,,,,
12028,,,survey-text,351,2011876,0.0-19.0-3.6,11034,List2B,black,man,,,,,"{""Q0"":""Luke and Fred are touching each other""}","<img src=""stim_listB/touch6.gif""style=""height:400px;""></stim_listB>",are touching each other,
null,"<div style=""font-size:60px;"">+</div>",,html-keyboard-response,352,2012379,0.0-19.0-0.7,11034,List2B,black,man,,,,null,,,,
null,"<img src=""stim_listB/argue7.gif""style=""height:400px;""></stim_listB>",,html-keyboard-response,353,2014383,0.0-19.0-1.7,11034,List2B,black,man,,,,null,,,,
null,is arguing with,,html-keyboard-response,354,2016386,0.0-19.0-2.7,11034,List2B,black,man,,,,null,,,,
8282,,,survey-text,355,2024670,0.0-19.0-3.7,11034,List2B,black,man,,,,,"{""Q0"":""Beth is arguing with Jane""}","<img src=""stim_listB/argue7.gif""style=""height:400px;""></stim_listB>",is arguing with,
null,"<div style=""font-size:60px;"">+</div>",,html-keyboard-response,356,2025174,0.0-19.0-0.8,11034,List2B,black,man,,,,null,,,,
null,"<img src=""stim_listB/touch4.gif""style=""height:400px;""></stim_listB>",,html-keyboard-response,357,2027176,0.0-19.0-1.8,11034,List2B,black,man,,,,null,,,,
null,are touching each other,,html-keyboard-response,358,2029180,0.0-19.0-2.8,11034,List2B,black,man,,,,null,,,,
15551,,,survey-text,359,2044733,0.0-19.0-3.8,11034,List2B,black,man,,,,,"{""Q0"":""""}","<img src=""stim_listB/touch4.gif""style=""height:400px;""></stim_listB>",are touching each other,
null,"<div style=""font-size:60px;"">+</div>",,html-keyboard-response,360,2045236,0.0-19.0-0.9,11034,List2B,black,man,,,,null,,,,
null,"<img src=""stim_listB/dance1.gif""style=""height:400px;""></stim_listB>",,html-keyboard-response,361,2047239,0.0-19.0-1.9,11034,List2B,black,man,,,,null,,,,
null,is dancing with,,html-keyboard-response,362,2049242,0.0-19.0-2.9,11034,List2B,black,man,,,,null,,,,
7521,,,survey-text,363,2056765,0.0-19.0-3.9,11034,List2B,black,man,,,,,"{""Q0"":""Luke is dancing with Jane""}","<img src=""stim_listB/dance1.gif""style=""height:400px;""></stim_listB>",is dancing with,
null,"<div style=""font-size:60px;"">+</div>",,html-keyboard-response,364,2057269,0.0-19.0-0.10,11034,List2B,black,man,,,,null,,,,
null,"<img src=""stim_listB/marry8.gif""style=""height:400px;""></stim_listB>",,html-keyboard-response,365,2059272,0.0-19.0-1.10,11034,List2B,black,man,,,,null,,,,
null,are marrying each other,,html-keyboard-response,366,2061275,0.0-19.0-2.10,11034,List2B,black,man,,,,null,,,,
12769,,,survey-text,367,2074047,0.0-19.0-3.10,11034,List2B,black,man,,,,,"{""Q0"":""Ruth and Kate are marrying each other""}","<img src=""stim_listB/marry8.gif""style=""height:400px;""></stim_listB>",are marrying each other,
null,"<div style=""font-size:60px;"">+</div>",,html-keyboard-response,368,2074549,0.0-19.0-0.11,11034,List2B,black,man,,,,null,,,,
null,"<img src=""stim_listB/shout2.gif""style=""height:400px;""></stim_listB>",,html-keyboard-response,369,2076553,0.0-19.0-1.11,11034,List2B,black,man,,,,null,,,,
null,are shouting at each other,,html-keyboard-response,370,2078555,0.0-19.0-2.11,11034,List2B,black,man,,,,null,,,,
11300,,,survey-text,371,2089857,0.0-19.0-3.11,11034,List2B,black,man,,,,,"{""Q0"":""Dave and Jane are shouting at each other""}","<img src=""stim_listB/shout2.gif""style=""height:400px;""></stim_listB>",are shouting at each other,
null,"<div style=""font-size:60px;"">+</div>",,html-keyboard-response,372,2090360,0.0-19.0-0.12,11034,List2B,black,man,,,,null,,,,
null,"<img src=""stim_listB/talk7.gif""style=""height:400px;""></stim_listB>",,html-keyboard-response,373,2092364,0.0-19.0-1.12,11034,List2B,black,man,,,,null,,,,
null,is talking to,,html-keyboard-response,374,2094368,0.0-19.0-2.12,11034,List2B,black,man,,,,null,,,,
7090,,,survey-text,375,2101460,0.0-19.0-3.12,11034,List2B,black,man,,,,,"{""Q0"":""Kate is talking to Ruth""}","<img src=""stim_listB/talk7.gif""style=""height:400px;""></stim_listB>",is talking to,
null,"<div style=""font-size:60px;"">+</div>",,html-keyboard-response,376,2101963,0.0-19.0-0.13,11034,List2B,black,man,,,,null,,,,
null,"<img src=""stim_listB/play4.gif""style=""height:400px;""></stim_listB>",,html-keyboard-response,377,2103968,0.0-19.0-1.13,11034,List2B,black,man,,,,null,,,,
null,are playing with each other,,html-keyboard-response,378,2105971,0.0-19.0-2.13,11034,List2B,black,man,,,,null,,,,
12911,,,survey-text,379,2118884,0.0-19.0-3.13,11034,List2B,black,man,,,,,"{""Q0"":""Fred and Beth are playing with each other""}","<img src=""stim_listB/play4.gif""style=""height:400px;""></stim_listB>",are playing with each other,
null,"<div style=""font-size:60px;"">+</div>",,html-keyboard-response,380,2119388,0.0-19.0-0.14,11034,List2B,black,man,,,,null,,,,
null,"<img src=""stim_listB/touch5.gif""style=""height:400px;""></stim_listB>",,html-keyboard-response,381,2121391,0.0-19.0-1.14,11034,List2B,black,man,,,,null,,,,
null,is touching,,html-keyboard-response,382,2123394,0.0-19.0-2.14,11034,List2B,black,man,,,,null,,,,
9307,,,survey-text,383,2132703,0.0-19.0-3.14,11034,List2B,black,man,,,,,"{""Q0"":""Mike and Dave is touching""}","<img src=""stim_listB/touch5.gif""style=""height:400px;""></stim_listB>",is touching,
null,"<div style=""font-size:60px;"">+</div>",,html-keyboard-response,384,2133207,0.0-19.0-0.15,11034,List2B,black,man,,,,null,,,,
null,"<img src=""stim_listB/kiss1.gif""style=""height:400px;""></stim_listB>",,html-keyboard-response,385,2135210,0.0-19.0-1.15,11034,List2B,black,man,,,,null,,,,
null,is kissing,,html-keyboard-response,386,2137212,0.0-19.0-2.15,11034,List2B,black,man,,,,null,,,,
7953,,,survey-text,387,2145167,0.0-19.0-3.15,11034,List2B,black,man,,,,,"{""Q0"":""Luke and Ruth is kissing""}","<img src=""stim_listB/kiss1.gif""style=""height:400px;""></stim_listB>",is kissing,
null,"<div style=""font-size:60px;"">+</div>",,html-keyboard-response,388,2145671,0.0-19.0-0.16,11034,List2B,black,man,,,,null,,,,
null,"<img src=""stim_listB/flirt2.gif""style=""height:400px;""></stim_listB>",,html-keyboard-response,389,2147675,0.0-19.0-1.16,11034,List2B,black,man,,,,null,,,,
null,are flirting with each other,,html-keyboard-response,390,2149677,0.0-19.0-2.16,11034,List2B,black,man,,,,null,,,,
12563,,,survey-text,391,2162243,0.0-19.0-3.16,11034,List2B,black,man,,,,,"{""Q0"":""Dave and Ruth are flirting with each other""}","<img src=""stim_listB/flirt2.gif""style=""height:400px;""></stim_listB>",are flirting with each other,
null,"<div style=""font-size:60px;"">+</div>",,html-keyboard-response,392,2162745,0.0-19.0-0.17,11034,List2B,black,man,,,,null,,,,
null,"<img src=""stim_listB/play8.gif""style=""height:400px;""></stim_listB>",,html-keyboard-response,393,2164750,0.0-19.0-1.17,11034,List2B,black,man,,,,null,,,,
null,are playing with each other,,html-keyboard-response,394,2166753,0.0-19.0-2.17,11034,List2B,black,man,,,,null,,,,
15288,,,survey-text,395,2182043,0.0-19.0-3.17,11034,List2B,black,man,,,,,"{""Q0"":""Ruth and Beth are playing with each other""}","<img src=""stim_listB/play8.gif""style=""height:400px;""></stim_listB>",are playing with each other,
null,"<div style=""font-size:60px;"">+</div>",,html-keyboard-response,396,2182546,0.0-19.0-0.18,11034,List2B,black,man,,,,null,,,,
null,"<img src=""stim_listB/talk1.gif""style=""height:400px;""></stim_listB>",,html-keyboard-response,397,2184549,0.0-19.0-1.18,11034,List2B,black,man,,,,null,,,,
null,is talking to,,html-keyboard-response,398,2186551,0.0-19.0-2.18,11034,List2B,black,man,,,,null,,,,
8427,,,survey-text,399,2194981,0.0-19.0-3.18,11034,List2B,black,man,,,,,"{""Q0"":""Jane is talking to Luke""}","<img src=""stim_listB/talk1.gif""style=""height:400px;""></stim_listB>",is talking to,
null,"<div style=""font-size:60px;"">+</div>",,html-keyboard-response,400,2195483,0.0-19.0-0.19,11034,List2B,black,man,,,,null,,,,
null,"<img src=""stim_listB/marry7.gif""style=""height:400px;""></stim_listB>",,html-keyboard-response,401,2197488,0.0-19.0-1.19,11034,List2B,black,man,,,,null,,,,
null,is marrying,,html-keyboard-response,402,2199491,0.0-19.0-2.19,11034,List2B,black,man,,,,null,,,,
8439,,,survey-text,403,2207932,0.0-19.0-3.19,11034,List2B,black,man,,,,,"{""Q0"":""Beth and Jane is marrying ""}","<img src=""stim_listB/marry7.gif""style=""height:400px;""></stim_listB>",is marrying,
1374,<p>Thank you for completing that task.</p><p>The final part of this session is a short questionnaire.</p><p>Press Continue.</p>,0,html-button-response,404,2209310,0.0-20.0,11034,List2B,black,man,,,,,,,,
31950,,,survey-text,405,2242265,0.0-21.0,11034,List2B,black,man,,,,,"{""Q0"":""36"",""Q1"":""English"",""Q2"":""English"",""Q3"":""United States"",""Q4"":""African American"",""Q5"":""Male""}",,,demographics
9832,,,survey-likert,406,2252114,0.0-22.0,11034,List2B,black,man,,,,,"{""Q0"":4}",,,likert_ESS
9009,,,survey-likert,407,2261140,0.0-23.0,11034,List2B,black,man,,,,,"{""Q0"":4}",,,likert_NSSAL_Q1
4327,,,survey-likert,408,2265484,0.0-24.0,11034,List2B,black,man,,,,,"{""Q0"":4}",,,likert_NSSAL_Q2
7212,,,survey-likert,409,2272712,0.0-25.0,11034,List2B,black,man,,,,,"{""Q0"":4}",,,likert_CGRS_Q1
5442,,,survey-likert,410,2278171,0.0-26.0,11034,List2B,black,man,,,,,"{""Q0"":4}",,,likert_CGRS_Q2
3081,,,survey-likert,411,2281267,0.0-27.0,11034,List2B,black,man,,,,,"{""Q0"":4}",,,likert_CGRS_Q3
37434,,,survey-text,412,2318717,0.0-28.0,11034,List2B,black,man,,,,,"{""Q0"":""ccc""}",,,worker_id
3172,,,external-html,413,2322554,0.0-29.0,11034,List2B,black,man,debrief.html,,,,,,,
