rt,stimulus,button_pressed,trial_type,trial_index,time_elapsed,internal_node_id,subject,list,ppt_race,ppt_gender,url,first_guess,correct,key_press,responses,image_type,phrase_type,test_part
5109,Welcome to the experiment. Press Continue to begin.,0,html-button-response,0,5114,0.0-0.0,11458,List1A,black,man,,,,,,,,
102711,,,external-html,1,108973,0.0-1.0,11458,List1A,black,man,consent.html,,,,,,,
25650,"<p>On the next page, you will see portraits of 8 people and their names.</p><p>Your first task is to take a few minutes to memorise the names of these people.</p><p>You will have to recall their names during the rest of the experiment, so it is</p><p>essential that you try to memorise these people and their names as best as you can.</p><br><p><strong>You will then be tested on your memory of these names and portraits.</strong></p><br><p>The experiment will start after you have completed this memory test.</p><br><p>Ready?</p>",0,html-button-response,2,134628,0.0-2.0,11458,List1A,black,man,,,,,,,,
57021,"<img src='img/portrait_matrix_list1.jpg' style='width:900px;height:500px;''></img><p>If you have memorised all the portraits and names and are ready to start, press Continue.</p><p><strong>Please note: Your memory of these faces will be tested 4 times during this experiment.</strong></p>",0,html-button-response,3,192654,0.0-3.0-0.0,11458,List1A,black,man,,,,,,,,
19259,"<img src=""portrait/BW1.jpg""style=""height:400px;""></img>",0,html-button-response,4,212918,0.0-3.0-1.0,11458,List1A,black,man,,TRUE,0,,,,,
null,CORRECT,,html-keyboard-response,5,214435,0.0-3.0-2.0-0.0,11458,List1A,black,man,,,,null,,,,
10801,"<img src=""portrait/BW2.jpg""style=""height:400px;""></img>",2,html-button-response,6,225246,0.0-3.0-4.0,11458,List1A,black,man,,TRUE,2,,,,,
null,CORRECT,,html-keyboard-response,7,226765,0.0-3.0-5.0-0.0,11458,List1A,black,man,,,,null,,,,
11446,"<img src=""portrait/WW2.jpg""style=""height:400px;""></img>",3,html-button-response,8,238219,0.0-3.0-7.0,11458,List1A,black,man,,TRUE,3,,,,,
null,CORRECT,,html-keyboard-response,9,239730,0.0-3.0-8.0-0.0,11458,List1A,black,man,,,,null,,,,
18442,"<img src=""portrait/WM1.jpg""style=""height:400px;""></img>",6,html-button-response,10,258183,0.0-3.0-10.0,11458,List1A,black,man,,TRUE,6,,,,,
null,CORRECT,,html-keyboard-response,11,259702,0.0-3.0-11.0-0.0,11458,List1A,black,man,,,,null,,,,
24460,"<img src=""portrait/WM2.jpg""style=""height:400px;""></img>",7,html-button-response,12,284174,0.0-3.0-13.0,11458,List1A,black,man,,TRUE,7,,,,,
null,CORRECT,,html-keyboard-response,13,285692,0.0-3.0-14.0-0.0,11458,List1A,black,man,,,,null,,,,
22810,"<img src=""portrait/BM1.jpg""style=""height:400px;""></img>",6,html-button-response,14,308511,0.0-3.0-16.0,11458,List1A,black,man,,TRUE,4,,,,,
6720,"<img src=""portrait/BM1.jpg""style=""height:400px;""></img>",4,html-button-response,15,316242,0.0-3.0-18.0-0.0,11458,List1A,black,man,,FALSE,4,,,,,
null,CORRECT,,html-keyboard-response,16,317751,0.0-3.0-18.0-1.0-0.0,11458,List1A,black,man,,,,null,,,,
12991,"<img src=""portrait/BM2.jpg""style=""height:400px;""></img>",5,html-button-response,17,330747,0.0-3.0-19.0,11458,List1A,black,man,,TRUE,5,,,,,
null,CORRECT,,html-keyboard-response,18,332252,0.0-3.0-20.0-0.0,11458,List1A,black,man,,,,null,,,,
10275,"<img src=""portrait/WW1.jpg""style=""height:400px;""></img>",1,html-button-response,19,342532,0.0-3.0-22.0,11458,List1A,black,man,,TRUE,1,,,,,
null,CORRECT,,html-keyboard-response,20,344050,0.0-3.0-23.0-0.0,11458,List1A,black,man,,,,null,,,,
4264,<p>You got 7 out of 8 right first time. Press Continue.</p>,0,html-button-response,21,348323,0.0-3.0-25.0,11458,List1A,black,man,,,,,,,,
7973,"As you did not score 100%, the memory game will repeat. Press Continue.",0,html-button-response,22,357311,0.0-3.0-26.0-0.0,11458,List1A,black,man,,,,,,,,
16529,"<img src='img/portrait_matrix_list1.jpg' style='width:900px;height:500px;''></img><p>If you have memorised all the portraits and names and are ready to start, press Continue.</p><p><strong>Please note: Your memory of these faces will be tested 4 times during this experiment.</strong></p>",0,html-button-response,23,374844,0.0-3.1-0.1,11458,List1A,black,man,,,,,,,,
15481,"<img src=""portrait/BW1.jpg""style=""height:400px;""></img>",0,html-button-response,24,391334,0.0-3.1-1.1,11458,List1A,black,man,,TRUE,0,,,,,
null,CORRECT,,html-keyboard-response,25,392853,0.0-3.1-2.1-0.1,11458,List1A,black,man,,,,null,,,,
10053,"<img src=""portrait/BW2.jpg""style=""height:400px;""></img>",2,html-button-response,26,402917,0.0-3.1-4.1,11458,List1A,black,man,,TRUE,2,,,,,
null,CORRECT,,html-keyboard-response,27,404436,0.0-3.1-5.1-0.1,11458,List1A,black,man,,,,null,,,,
9715,"<img src=""portrait/WW2.jpg""style=""height:400px;""></img>",3,html-button-response,28,414159,0.0-3.1-7.1,11458,List1A,black,man,,TRUE,3,,,,,
null,CORRECT,,html-keyboard-response,29,415663,0.0-3.1-8.1-0.1,11458,List1A,black,man,,,,null,,,,
11278,"<img src=""portrait/WM1.jpg""style=""height:400px;""></img>",6,html-button-response,30,426944,0.0-3.1-10.1,11458,List1A,black,man,,TRUE,6,,,,,
null,CORRECT,,html-keyboard-response,31,428449,0.0-3.1-11.1-0.1,11458,List1A,black,man,,,,null,,,,
53876,"<img src=""portrait/WM2.jpg""style=""height:400px;""></img>",7,html-button-response,32,482332,0.0-3.1-13.1,11458,List1A,black,man,,TRUE,7,,,,,
null,CORRECT,,html-keyboard-response,33,483851,0.0-3.1-14.1-0.1,11458,List1A,black,man,,,,null,,,,
10234,"<img src=""portrait/BM1.jpg""style=""height:400px;""></img>",4,html-button-response,34,494096,0.0-3.1-16.1,11458,List1A,black,man,,TRUE,4,,,,,
null,CORRECT,,html-keyboard-response,35,495615,0.0-3.1-17.1-0.1,11458,List1A,black,man,,,,null,,,,
10540,"<img src=""portrait/BM2.jpg""style=""height:400px;""></img>",5,html-button-response,36,506165,0.0-3.1-19.1,11458,List1A,black,man,,TRUE,5,,,,,
null,CORRECT,,html-keyboard-response,37,507680,0.0-3.1-20.1-0.1,11458,List1A,black,man,,,,null,,,,
10462,"<img src=""portrait/WW1.jpg""style=""height:400px;""></img>",1,html-button-response,38,518154,0.0-3.1-22.1,11458,List1A,black,man,,TRUE,1,,,,,
null,CORRECT,,html-keyboard-response,39,519673,0.0-3.1-23.1-0.1,11458,List1A,black,man,,,,null,,,,
6283,<p>You got 8 out of 8 right first time. Press Continue.</p>,0,html-button-response,40,525971,0.0-3.1-25.1,11458,List1A,black,man,,,,,,,,
224199,"<p>In this experiment, you will view photographs of the people from the memory game interacting.</p><p>By using the <strong>exact</strong> phrase given <i>after</i> the photograph appears and recalling the correct names of the people in the photographs, form a sentence describing the interaction. You do not need to capitalise names.</p><p>Type your answer in the space provided. Please complete every sentence before moving onto the next trial.</p><p>You will only have a few seconds to memorise each given photograph and phrase before you can respond, so try your best to focus.</p><p>An example is given below. Press 'Continue' when you are ready.</p><img src='img/speaking_example.jpg' style='width:800px;height:460px;''></img>",0,html-button-response,41,751184,0.0-4.0,11458,List1A,black,man,,,,,,,,
9867,"<p>Before the experiment starts, you will watch two example trials. Press 'Continue'.</p>",0,html-button-response,42,762067,0.0-5.0,11458,List1A,black,man,,,,,,,,
null,<img src='img/meet_eg.gif' style='height:400px;''></img>,,html-keyboard-response,43,765074,0.0-6.0,11458,List1A,black,man,,,,null,,,,
null,<p>is meeting</p>,,html-keyboard-response,44,767078,0.0-7.0,11458,List1A,black,man,,,,null,,,,
19162,<p><b>Answer:</b> kate is meeting beth</p>,0,html-button-response,45,786245,0.0-8.0,11458,List1A,black,man,,,,,,,,
null,<img src='img/look_eg.gif' style='height:400px;''></img>,,html-keyboard-response,46,789250,0.0-9.0,11458,List1A,black,man,,,,null,,,,
null,<p>are looking at each other</p>,,html-keyboard-response,47,791254,0.0-10.0,11458,List1A,black,man,,,,null,,,,
29115,<p><b>Answer:</b> luke and dave are looking at each other</p>,0,html-button-response,48,820372,0.0-11.0,11458,List1A,black,man,,,,,,,,
36787,"<p>Ready to start the experiment?</p><br><p><strong>Remember to describe the picture using a full sentence,</strong></p><p><strong>that combines the names of the people with the <i>exact</i> phrase given.</strong></p><p><strong>To receive full payment you must do this correctly.</strong></p><p><strong> You do not need to capitalise names or use punctuation.</strong></p><br><p>Press 'Continue' to begin.</p>",0,html-button-response,49,858164,0.0-12.0,11458,List1A,black,man,,,,,,,,
null,"<div style=""font-size:60px;"">+</div>",,html-keyboard-response,50,859668,0.0-13.0-0.0,11458,List1A,black,man,,,,null,,,,
null,"<img src=""stim_listA/marry8.gif""style=""height:400px;""></stim_listA>",,html-keyboard-response,51,861675,0.0-13.0-1.0,11458,List1A,black,man,,,,null,,,,
null,are marrying each other,,html-keyboard-response,52,863681,0.0-13.0-2.0,11458,List1A,black,man,,,,null,,,,
34740,,,survey-text,53,898427,0.0-13.0-3.0,11458,List1A,black,man,,,,,"{""Q0"":""Kate and Jane are marrying each other""}","<img src=""stim_listA/marry8.gif""style=""height:400px;""></stim_listA>",are marrying each other,
null,"<div style=""font-size:60px;"">+</div>",,html-keyboard-response,54,898932,0.0-13.0-0.1,11458,List1A,black,man,,,,null,,,,
null,"<img src=""stim_listA/fight7.gif""style=""height:400px;""></stim_listA>",,html-keyboard-response,55,900936,0.0-13.0-1.1,11458,List1A,black,man,,,,null,,,,
null,is fighting,,html-keyboard-response,56,902941,0.0-13.0-2.1,11458,List1A,black,man,,,,null,,,,
24031,,,survey-text,57,926977,0.0-13.0-3.1,11458,List1A,black,man,,,,,"{""Q0"":""Kate and Jane are fighting""}","<img src=""stim_listA/fight7.gif""style=""height:400px;""></stim_listA>",is fighting,
null,"<div style=""font-size:60px;"">+</div>",,html-keyboard-response,58,927482,0.0-13.0-0.2,11458,List1A,black,man,,,,null,,,,
null,"<img src=""stim_listA/marry5.gif""style=""height:400px;""></stim_listA>",,html-keyboard-response,59,929487,0.0-13.0-1.2,11458,List1A,black,man,,,,null,,,,
null,is marrying,,html-keyboard-response,60,931491,0.0-13.0-2.2,11458,List1A,black,man,,,,null,,,,
26791,,,survey-text,61,958286,0.0-13.0-3.2,11458,List1A,black,man,,,,,"{""Q0"":""Like and mike are marrying ""}","<img src=""stim_listA/marry5.gif""style=""height:400px;""></stim_listA>",is marrying,
null,"<div style=""font-size:60px;"">+</div>",,html-keyboard-response,62,958791,0.0-13.0-0.3,11458,List1A,black,man,,,,null,,,,
null,"<img src=""stim_listA/fight3.gif""style=""height:400px;""></stim_listA>",,html-keyboard-response,63,960796,0.0-13.0-1.3,11458,List1A,black,man,,,,null,,,,
null,is fighting,,html-keyboard-response,64,962800,0.0-13.0-2.3,11458,List1A,black,man,,,,null,,,,
26654,,,survey-text,65,989458,0.0-13.0-3.3,11458,List1A,black,man,,,,,"{""Q0"":""Fred and Jane fighting ""}","<img src=""stim_listA/fight3.gif""style=""height:400px;""></stim_listA>",is fighting,
null,"<div style=""font-size:60px;"">+</div>",,html-keyboard-response,66,989961,0.0-13.0-0.4,11458,List1A,black,man,,,,null,,,,
null,"<img src=""stim_listA/dance2.gif""style=""height:400px;""></stim_listA>",,html-keyboard-response,67,991965,0.0-13.0-1.4,11458,List1A,black,man,,,,null,,,,
null,are dancing with each other,,html-keyboard-response,68,993970,0.0-13.0-2.4,11458,List1A,black,man,,,,null,,,,
66156,,,survey-text,69,1060131,0.0-13.0-3.4,11458,List1A,black,man,,,,,"{""Q0"":""Beth and mike dancing""}","<img src=""stim_listA/dance2.gif""style=""height:400px;""></stim_listA>",are dancing with each other,
null,"<div style=""font-size:60px;"">+</div>",,html-keyboard-response,70,1060635,0.0-13.0-0.5,11458,List1A,black,man,,,,null,,,,
null,"<img src=""stim_listA/flirt7.gif""style=""height:400px;""></stim_listA>",,html-keyboard-response,71,1062640,0.0-13.0-1.5,11458,List1A,black,man,,,,null,,,,
null,is flirting with,,html-keyboard-response,72,1064644,0.0-13.0-2.5,11458,List1A,black,man,,,,null,,,,
26136,,,survey-text,73,1090784,0.0-13.0-3.5,11458,List1A,black,man,,,,,"{""Q0"":""Jane is flirting beth""}","<img src=""stim_listA/flirt7.gif""style=""height:400px;""></stim_listA>",is flirting with,
null,"<div style=""font-size:60px;"">+</div>",,html-keyboard-response,74,1091287,0.0-13.0-0.6,11458,List1A,black,man,,,,null,,,,
null,"<img src=""stim_listA/shout7.gif""style=""height:400px;""></stim_listA>",,html-keyboard-response,75,1093291,0.0-13.0-1.6,11458,List1A,black,man,,,,null,,,,
null,is shouting at,,html-keyboard-response,76,1095295,0.0-13.0-2.6,11458,List1A,black,man,,,,null,,,,
29340,,,survey-text,77,1124639,0.0-13.0-3.6,11458,List1A,black,man,,,,,"{""Q0"":""Ruth is shouting at kate""}","<img src=""stim_listA/shout7.gif""style=""height:400px;""></stim_listA>",is shouting at,
null,"<div style=""font-size:60px;"">+</div>",,html-keyboard-response,78,1125144,0.0-13.0-0.7,11458,List1A,black,man,,,,null,,,,
null,"<img src=""stim_listA/shout2.gif""style=""height:400px;""></stim_listA>",,html-keyboard-response,79,1127147,0.0-13.0-1.7,11458,List1A,black,man,,,,null,,,,
null,are shouting at each other,,html-keyboard-response,80,1129151,0.0-13.0-2.7,11458,List1A,black,man,,,,null,,,,
37724,,,survey-text,81,1166879,0.0-13.0-3.7,11458,List1A,black,man,,,,,"{""Q0"":""Kate and mike are chatting ""}","<img src=""stim_listA/shout2.gif""style=""height:400px;""></stim_listA>",are shouting at each other,
null,"<div style=""font-size:60px;"">+</div>",,html-keyboard-response,82,1167381,0.0-13.0-0.8,11458,List1A,black,man,,,,null,,,,
null,"<img src=""stim_listA/fight6.gif""style=""height:400px;""></stim_listA>",,html-keyboard-response,83,1169385,0.0-13.0-1.8,11458,List1A,black,man,,,,null,,,,
null,are fighting each other,,html-keyboard-response,84,1171389,0.0-13.0-2.8,11458,List1A,black,man,,,,null,,,,
22119,,,survey-text,85,1193513,0.0-13.0-3.8,11458,List1A,black,man,,,,,"{""Q0"":""Luke and Fred are fighting ""}","<img src=""stim_listA/fight6.gif""style=""height:400px;""></stim_listA>",are fighting each other,
null,"<div style=""font-size:60px;"">+</div>",,html-keyboard-response,86,1194016,0.0-13.0-0.9,11458,List1A,black,man,,,,null,,,,
null,"<img src=""stim_listA/argue4.gif""style=""height:400px;""></stim_listA>",,html-keyboard-response,87,1196020,0.0-13.0-1.9,11458,List1A,black,man,,,,null,,,,
null,are arguing with each other,,html-keyboard-response,88,1198024,0.0-13.0-2.9,11458,List1A,black,man,,,,null,,,,
22603,,,survey-text,89,1220629,0.0-13.0-3.9,11458,List1A,black,man,,,,,"{""Q0"":""Luke and Kate are arguing ""}","<img src=""stim_listA/argue4.gif""style=""height:400px;""></stim_listA>",are arguing with each other,
null,"<div style=""font-size:60px;"">+</div>",,html-keyboard-response,90,1221135,0.0-13.0-0.10,11458,List1A,black,man,,,,null,,,,
null,"<img src=""stim_listA/argue3.gif""style=""height:400px;""></stim_listA>",,html-keyboard-response,91,1223138,0.0-13.0-1.10,11458,List1A,black,man,,,,null,,,,
null,is arguing with,,html-keyboard-response,92,1225142,0.0-13.0-2.10,11458,List1A,black,man,,,,null,,,,
25727,,,survey-text,93,1250873,0.0-13.0-3.10,11458,List1A,black,man,,,,,"{""Q0"":""Fred and Ruth are fighting ""}","<img src=""stim_listA/argue3.gif""style=""height:400px;""></stim_listA>",is arguing with,
null,"<div style=""font-size:60px;"">+</div>",,html-keyboard-response,94,1251377,0.0-13.0-0.11,11458,List1A,black,man,,,,null,,,,
null,"<img src=""stim_listA/argue2.gif""style=""height:400px;""></stim_listA>",,html-keyboard-response,95,1253380,0.0-13.0-1.11,11458,List1A,black,man,,,,null,,,,
null,are arguing with each other,,html-keyboard-response,96,1255384,0.0-13.0-2.11,11458,List1A,black,man,,,,null,,,,
29738,,,survey-text,97,1285125,0.0-13.0-3.11,11458,List1A,black,man,,,,,"{""Q0"":""Fred and Kate are arguing""}","<img src=""stim_listA/argue2.gif""style=""height:400px;""></stim_listA>",are arguing with each other,
null,"<div style=""font-size:60px;"">+</div>",,html-keyboard-response,98,1285628,0.0-13.0-0.12,11458,List1A,black,man,,,,null,,,,
null,"<img src=""stim_listA/talk2.gif""style=""height:400px;""></stim_listA>",,html-keyboard-response,99,1287631,0.0-13.0-1.12,11458,List1A,black,man,,,,null,,,,
null,are talking to each other,,html-keyboard-response,100,1289635,0.0-13.0-2.12,11458,List1A,black,man,,,,null,,,,
29492,,,survey-text,101,1319131,0.0-13.0-3.12,11458,List1A,black,man,,,,,"{""Q0"":""Fred and Kate are talking to each other ""}","<img src=""stim_listA/talk2.gif""style=""height:400px;""></stim_listA>",are talking to each other,
null,"<div style=""font-size:60px;"">+</div>",,html-keyboard-response,102,1319635,0.0-13.0-0.13,11458,List1A,black,man,,,,null,,,,
null,"<img src=""stim_listA/kiss7.gif""style=""height:400px;""></stim_listA>",,html-keyboard-response,103,1321639,0.0-13.0-1.13,11458,List1A,black,man,,,,null,,,,
null,is kissing,,html-keyboard-response,104,1323644,0.0-13.0-2.13,11458,List1A,black,man,,,,null,,,,
43988,,,survey-text,105,1367636,0.0-13.0-3.13,11458,List1A,black,man,,,,,"{""Q0"":""Ruth Kate are kissing""}","<img src=""stim_listA/kiss7.gif""style=""height:400px;""></stim_listA>",is kissing,
null,"<div style=""font-size:60px;"">+</div>",,html-keyboard-response,106,1368139,0.0-13.0-0.14,11458,List1A,black,man,,,,null,,,,
null,"<img src=""stim_listA/marry4.gif""style=""height:400px;""></stim_listA>",,html-keyboard-response,107,1370143,0.0-13.0-1.14,11458,List1A,black,man,,,,null,,,,
null,are marrying each other,,html-keyboard-response,108,1372147,0.0-13.0-2.14,11458,List1A,black,man,,,,null,,,,
26774,,,survey-text,109,1398926,0.0-13.0-3.14,11458,List1A,black,man,,,,,"{""Q0"":""Luke and Jane are getting married ""}","<img src=""stim_listA/marry4.gif""style=""height:400px;""></stim_listA>",are marrying each other,
null,"<div style=""font-size:60px;"">+</div>",,html-keyboard-response,110,1399430,0.0-13.0-0.15,11458,List1A,black,man,,,,null,,,,
null,"<img src=""stim_listA/touch6.gif""style=""height:400px;""></stim_listA>",,html-keyboard-response,111,1401433,0.0-13.0-1.15,11458,List1A,black,man,,,,null,,,,
null,are touching each other,,html-keyboard-response,112,1403437,0.0-13.0-2.15,11458,List1A,black,man,,,,null,,,,
20504,,,survey-text,113,1423945,0.0-13.0-3.15,11458,List1A,black,man,,,,,"{""Q0"":""Fred and Luke are touching each other""}","<img src=""stim_listA/touch6.gif""style=""height:400px;""></stim_listA>",are touching each other,
null,"<div style=""font-size:60px;"">+</div>",,html-keyboard-response,114,1424447,0.0-13.0-0.16,11458,List1A,black,man,,,,null,,,,
null,"<img src=""stim_listA/talk6.gif""style=""height:400px;""></stim_listA>",,html-keyboard-response,115,1426450,0.0-13.0-1.16,11458,List1A,black,man,,,,null,,,,
null,are talking to each other,,html-keyboard-response,116,1428455,0.0-13.0-2.16,11458,List1A,black,man,,,,null,,,,
36892,,,survey-text,117,1465351,0.0-13.0-3.16,11458,List1A,black,man,,,,,"{""Q0"":""Luke and mike are talking to each other""}","<img src=""stim_listA/talk6.gif""style=""height:400px;""></stim_listA>",are talking to each other,
null,"<div style=""font-size:60px;"">+</div>",,html-keyboard-response,118,1465855,0.0-13.0-0.17,11458,List1A,black,man,,,,null,,,,
null,"<img src=""stim_listA/marry6.gif""style=""height:400px;""></stim_listA>",,html-keyboard-response,119,1467858,0.0-13.0-1.17,11458,List1A,black,man,,,,null,,,,
null,are marrying each other,,html-keyboard-response,120,1469863,0.0-13.0-2.17,11458,List1A,black,man,,,,null,,,,
32755,,,survey-text,121,1502621,0.0-13.0-3.17,11458,List1A,black,man,,,,,"{""Q0"":""Fred and Dave are marrying each other""}","<img src=""stim_listA/marry6.gif""style=""height:400px;""></stim_listA>",are marrying each other,
null,"<div style=""font-size:60px;"">+</div>",,html-keyboard-response,122,1503125,0.0-13.0-0.18,11458,List1A,black,man,,,,null,,,,
null,"<img src=""stim_listA/dance3.gif""style=""height:400px;""></stim_listA>",,html-keyboard-response,123,1505130,0.0-13.0-1.18,11458,List1A,black,man,,,,null,,,,
null,is dancing with,,html-keyboard-response,124,1507134,0.0-13.0-2.18,11458,List1A,black,man,,,,null,,,,
50326,,,survey-text,125,1557464,0.0-13.0-3.18,11458,List1A,black,man,,,,,"{""Q0"":""Jane Luke are dancing with each other""}","<img src=""stim_listA/dance3.gif""style=""height:400px;""></stim_listA>",is dancing with,
null,"<div style=""font-size:60px;"">+</div>",,html-keyboard-response,126,1557966,0.0-13.0-0.19,11458,List1A,black,man,,,,null,,,,
null,"<img src=""stim_listA/touch4.gif""style=""height:400px;""></stim_listA>",,html-keyboard-response,127,1559969,0.0-13.0-1.19,11458,List1A,black,man,,,,null,,,,
null,are touching each other,,html-keyboard-response,128,1561974,0.0-13.0-2.19,11458,List1A,black,man,,,,null,,,,
22322,,,survey-text,129,1584300,0.0-13.0-3.19,11458,List1A,black,man,,,,,"{""Q0"":""Luke and Ruth are touching each other""}","<img src=""stim_listA/touch4.gif""style=""height:400px;""></stim_listA>",are touching each other,
59986,"<img src='img/portrait_matrix_list1.jpg' style='width:900px;height:500px;''></img><p>If you have memorised all the portraits and names and are ready to start, press Continue.</p><p><strong>Please note: Your memory of these faces will be tested 4 times during this experiment.</strong></p>",0,html-button-response,130,1644290,0.0-14.0-0.0,11458,List1A,black,man,,,,,,,,
22224,"<img src=""portrait/BW1.jpg""style=""height:400px;""></img>",0,html-button-response,131,1667522,0.0-14.0-1.0,11458,List1A,black,man,,TRUE,0,,,,,
null,CORRECT,,html-keyboard-response,132,1669030,0.0-14.0-2.0-0.0,11458,List1A,black,man,,,,null,,,,
14374,"<img src=""portrait/BM1.jpg""style=""height:400px;""></img>",4,html-button-response,133,1683410,0.0-14.0-4.0,11458,List1A,black,man,,TRUE,4,,,,,
null,CORRECT,,html-keyboard-response,134,1684925,0.0-14.0-5.0-0.0,11458,List1A,black,man,,,,null,,,,
14990,"<img src=""portrait/WM2.jpg""style=""height:400px;""></img>",7,html-button-response,135,1699923,0.0-14.0-7.0,11458,List1A,black,man,,TRUE,7,,,,,
null,CORRECT,,html-keyboard-response,136,1701440,0.0-14.0-8.0-0.0,11458,List1A,black,man,,,,null,,,,
13740,"<img src=""portrait/BW2.jpg""style=""height:400px;""></img>",2,html-button-response,137,1715193,0.0-14.0-10.0,11458,List1A,black,man,,TRUE,2,,,,,
null,CORRECT,,html-keyboard-response,138,1716710,0.0-14.0-11.0-0.0,11458,List1A,black,man,,,,null,,,,
9226,"<img src=""portrait/BM2.jpg""style=""height:400px;""></img>",5,html-button-response,139,1725948,0.0-14.0-13.0,11458,List1A,black,man,,TRUE,5,,,,,
null,CORRECT,,html-keyboard-response,140,1727463,0.0-14.0-14.0-0.0,11458,List1A,black,man,,,,null,,,,
9037,"<img src=""portrait/WW2.jpg""style=""height:400px;""></img>",3,html-button-response,141,1736513,0.0-14.0-16.0,11458,List1A,black,man,,TRUE,3,,,,,
null,CORRECT,,html-keyboard-response,142,1738027,0.0-14.0-17.0-0.0,11458,List1A,black,man,,,,null,,,,
17418,"<img src=""portrait/WM1.jpg""style=""height:400px;""></img>",6,html-button-response,143,1755451,0.0-14.0-19.0,11458,List1A,black,man,,TRUE,6,,,,,
null,CORRECT,,html-keyboard-response,144,1756969,0.0-14.0-20.0-0.0,11458,List1A,black,man,,,,null,,,,
11215,"<img src=""portrait/WW1.jpg""style=""height:400px;""></img>",1,html-button-response,145,1768195,0.0-14.0-22.0,11458,List1A,black,man,,TRUE,1,,,,,
null,CORRECT,,html-keyboard-response,146,1769710,0.0-14.0-23.0-0.0,11458,List1A,black,man,,,,null,,,,
3657,<p>You got 8 out of 8 right first time. Press Continue.</p>,0,html-button-response,147,1773373,0.0-14.0-25.0,11458,List1A,black,man,,,,,,,,
null,"<div style=""font-size:60px;"">+</div>",,html-keyboard-response,148,1774882,0.0-15.0-0.0,11458,List1A,black,man,,,,null,,,,
null,"<img src=""stim_listA/play5.gif""style=""height:400px;""></stim_listA>",,html-keyboard-response,149,1776889,0.0-15.0-1.0,11458,List1A,black,man,,,,null,,,,
null,is playing with,,html-keyboard-response,150,1778894,0.0-15.0-2.0,11458,List1A,black,man,,,,null,,,,
38049,,,survey-text,151,1816949,0.0-15.0-3.0,11458,List1A,black,man,,,,,"{""Q0"":""Fred and Luke are playing""}","<img src=""stim_listA/play5.gif""style=""height:400px;""></stim_listA>",is playing with,
null,"<div style=""font-size:60px;"">+</div>",,html-keyboard-response,152,1817456,0.0-15.0-0.1,11458,List1A,black,man,,,,null,,,,
null,"<img src=""stim_listA/dance5.gif""style=""height:400px;""></stim_listA>",,html-keyboard-response,153,1819460,0.0-15.0-1.1,11458,List1A,black,man,,,,null,,,,
null,is dancing with,,html-keyboard-response,154,1821464,0.0-15.0-2.1,11458,List1A,black,man,,,,null,,,,
30516,,,survey-text,155,1851985,0.0-15.0-3.1,11458,List1A,black,man,,,,,"{""Q0"":""Fred is dancing with dave""}","<img src=""stim_listA/dance5.gif""style=""height:400px;""></stim_listA>",is dancing with,
null,"<div style=""font-size:60px;"">+</div>",,html-keyboard-response,156,1852488,0.0-15.0-0.2,11458,List1A,black,man,,,,null,,,,
null,"<img src=""stim_listA/talk4.gif""style=""height:400px;""></stim_listA>",,html-keyboard-response,157,1854492,0.0-15.0-1.2,11458,List1A,black,man,,,,null,,,,
null,are talking to each other,,html-keyboard-response,158,1856496,0.0-15.0-2.2,11458,List1A,black,man,,,,null,,,,
30876,,,survey-text,159,1887376,0.0-15.0-3.2,11458,List1A,black,man,,,,,"{""Q0"":""Ruth and Fred are talking to each other""}","<img src=""stim_listA/talk4.gif""style=""height:400px;""></stim_listA>",are talking to each other,
null,"<div style=""font-size:60px;"">+</div>",,html-keyboard-response,160,1887879,0.0-15.0-0.3,11458,List1A,black,man,,,,null,,,,
null,"<img src=""stim_listA/flirt8.gif""style=""height:400px;""></stim_listA>",,html-keyboard-response,161,1889882,0.0-15.0-1.3,11458,List1A,black,man,,,,null,,,,
null,are flirting with each other,,html-keyboard-response,162,1891887,0.0-15.0-2.3,11458,List1A,black,man,,,,null,,,,
30091,,,survey-text,163,1921984,0.0-15.0-3.3,11458,List1A,black,man,,,,,"{""Q0"":""Kate and Ruth are flirting with each other ""}","<img src=""stim_listA/flirt8.gif""style=""height:400px;""></stim_listA>",are flirting with each other,
null,"<div style=""font-size:60px;"">+</div>",,html-keyboard-response,164,1922487,0.0-15.0-0.4,11458,List1A,black,man,,,,null,,,,
null,"<img src=""stim_listA/touch7.gif""style=""height:400px;""></stim_listA>",,html-keyboard-response,165,1924491,0.0-15.0-1.4,11458,List1A,black,man,,,,null,,,,
null,is touching,,html-keyboard-response,166,1926494,0.0-15.0-2.4,11458,List1A,black,man,,,,null,,,,
22116,,,survey-text,167,1948615,0.0-15.0-3.4,11458,List1A,black,man,,,,,"{""Q0"":""Kate and Jane are touching ""}","<img src=""stim_listA/touch7.gif""style=""height:400px;""></stim_listA>",is touching,
null,"<div style=""font-size:60px;"">+</div>",,html-keyboard-response,168,1949118,0.0-15.0-0.5,11458,List1A,black,man,,,,null,,,,
null,"<img src=""stim_listA/kiss4.gif""style=""height:400px;""></stim_listA>",,html-keyboard-response,169,1951122,0.0-15.0-1.5,11458,List1A,black,man,,,,null,,,,
null,are kissing each other,,html-keyboard-response,170,1953127,0.0-15.0-2.5,11458,List1A,black,man,,,,null,,,,
23406,,,survey-text,171,1976537,0.0-15.0-3.5,11458,List1A,black,man,,,,,"{""Q0"":""Dave and Jane are kissing""}","<img src=""stim_listA/kiss4.gif""style=""height:400px;""></stim_listA>",are kissing each other,
null,"<div style=""font-size:60px;"">+</div>",,html-keyboard-response,172,1977040,0.0-15.0-0.6,11458,List1A,black,man,,,,null,,,,
null,"<img src=""stim_listA/play3.gif""style=""height:400px;""></stim_listA>",,html-keyboard-response,173,1979044,0.0-15.0-1.6,11458,List1A,black,man,,,,null,,,,
null,is playing with,,html-keyboard-response,174,1981048,0.0-15.0-2.6,11458,List1A,black,man,,,,null,,,,
50682,,,survey-text,175,2031735,0.0-15.0-3.6,11458,List1A,black,man,,,,,"{""Q0"":""Beth and Dave are playing""}","<img src=""stim_listA/play3.gif""style=""height:400px;""></stim_listA>",is playing with,
null,"<div style=""font-size:60px;"">+</div>",,html-keyboard-response,176,2032250,0.0-15.0-0.7,11458,List1A,black,man,,,,null,,,,
null,"<img src=""stim_listA/play4.gif""style=""height:400px;""></stim_listA>",,html-keyboard-response,177,2034255,0.0-15.0-1.7,11458,List1A,black,man,,,,null,,,,
null,are playing with each other,,html-keyboard-response,178,2036260,0.0-15.0-2.7,11458,List1A,black,man,,,,null,,,,
26345,,,survey-text,179,2062610,0.0-15.0-3.7,11458,List1A,black,man,,,,,"{""Q0"":""Ruth and Luke are playing with each other""}","<img src=""stim_listA/play4.gif""style=""height:400px;""></stim_listA>",are playing with each other,
null,"<div style=""font-size:60px;"">+</div>",,html-keyboard-response,180,2063117,0.0-15.0-0.8,11458,List1A,black,man,,,,null,,,,
null,"<img src=""stim_listA/shout6.gif""style=""height:400px;""></stim_listA>",,html-keyboard-response,181,2065123,0.0-15.0-1.8,11458,List1A,black,man,,,,null,,,,
null,are shouting at each other,,html-keyboard-response,182,2067127,0.0-15.0-2.8,11458,List1A,black,man,,,,null,,,,
31281,,,survey-text,183,2098414,0.0-15.0-3.8,11458,List1A,black,man,,,,,"{""Q0"":""Dave and mike are fighting peach other""}","<img src=""stim_listA/shout6.gif""style=""height:400px;""></stim_listA>",are shouting at each other,
null,"<div style=""font-size:60px;"">+</div>",,html-keyboard-response,184,2098926,0.0-15.0-0.9,11458,List1A,black,man,,,,null,,,,
null,"<img src=""stim_listA/argue1.gif""style=""height:400px;""></stim_listA>",,html-keyboard-response,185,2100932,0.0-15.0-1.9,11458,List1A,black,man,,,,null,,,,
null,is arguing with,,html-keyboard-response,186,2102937,0.0-15.0-2.9,11458,List1A,black,man,,,,null,,,,
41406,,,survey-text,187,2144352,0.0-15.0-3.9,11458,List1A,black,man,,,,,"{""Q0"":""Mike and Beth are arguing with each other""}","<img src=""stim_listA/argue1.gif""style=""height:400px;""></stim_listA>",is arguing with,
null,"<div style=""font-size:60px;"">+</div>",,html-keyboard-response,188,2144870,0.0-15.0-0.10,11458,List1A,black,man,,,,null,,,,
null,"<img src=""stim_listA/play8.gif""style=""height:400px;""></stim_listA>",,html-keyboard-response,189,2146873,0.0-15.0-1.10,11458,List1A,black,man,,,,null,,,,
null,are playing with each other,,html-keyboard-response,190,2148876,0.0-15.0-2.10,11458,List1A,black,man,,,,null,,,,
26457,,,survey-text,191,2175342,0.0-15.0-3.10,11458,List1A,black,man,,,,,"{""Q0"":""Ruth and Beth are playing with each other""}","<img src=""stim_listA/play8.gif""style=""height:400px;""></stim_listA>",are playing with each other,
null,"<div style=""font-size:60px;"">+</div>",,html-keyboard-response,192,2175857,0.0-15.0-0.11,11458,List1A,black,man,,,,null,,,,
null,"<img src=""stim_listA/flirt2.gif""style=""height:400px;""></stim_listA>",,html-keyboard-response,193,2177862,0.0-15.0-1.11,11458,List1A,black,man,,,,null,,,,
null,are flirting with each other,,html-keyboard-response,194,2179866,0.0-15.0-2.11,11458,List1A,black,man,,,,null,,,,
27471,,,survey-text,195,2207344,0.0-15.0-3.11,11458,List1A,black,man,,,,,"{""Q0"":""Mike and Beth are flirting with each other""}","<img src=""stim_listA/flirt2.gif""style=""height:400px;""></stim_listA>",are flirting with each other,
null,"<div style=""font-size:60px;"">+</div>",,html-keyboard-response,196,2207855,0.0-15.0-0.12,11458,List1A,black,man,,,,null,,,,
null,"<img src=""stim_listA/dance4.gif""style=""height:400px;""></stim_listA>",,html-keyboard-response,197,2209857,0.0-15.0-1.12,11458,List1A,black,man,,,,null,,,,
null,are dancing with each other,,html-keyboard-response,198,2211859,0.0-15.0-2.12,11458,List1A,black,man,,,,null,,,,
29401,,,survey-text,199,2241264,0.0-15.0-3.12,11458,List1A,black,man,,,,,"{""Q0"":""Dave and Ruth are dancing with each other""}","<img src=""stim_listA/dance4.gif""style=""height:400px;""></stim_listA>",are dancing with each other,
null,"<div style=""font-size:60px;"">+</div>",,html-keyboard-response,200,2241777,0.0-15.0-0.13,11458,List1A,black,man,,,,null,,,,
null,"<img src=""stim_listA/touch1.gif""style=""height:400px;""></stim_listA>",,html-keyboard-response,201,2243782,0.0-15.0-1.13,11458,List1A,black,man,,,,null,,,,
null,is touching,,html-keyboard-response,202,2245787,0.0-15.0-2.13,11458,List1A,black,man,,,,null,,,,
27838,,,survey-text,203,2273633,0.0-15.0-3.13,11458,List1A,black,man,,,,,"{""Q0"":""Mike and Kate are shouting ""}","<img src=""stim_listA/touch1.gif""style=""height:400px;""></stim_listA>",is touching,
null,"<div style=""font-size:60px;"">+</div>",,html-keyboard-response,204,2274147,0.0-15.0-0.14,11458,List1A,black,man,,,,null,,,,
null,"<img src=""stim_listA/shout3.gif""style=""height:400px;""></stim_listA>",,html-keyboard-response,205,2276152,0.0-15.0-1.14,11458,List1A,black,man,,,,null,,,,
null,is shouting at,,html-keyboard-response,206,2278156,0.0-15.0-2.14,11458,List1A,black,man,,,,null,,,,
35433,,,survey-text,207,2313593,0.0-15.0-3.14,11458,List1A,black,man,,,,,"{""Q0"":""Ruth is shouting at luke""}","<img src=""stim_listA/shout3.gif""style=""height:400px;""></stim_listA>",is shouting at,
null,"<div style=""font-size:60px;"">+</div>",,html-keyboard-response,208,2314107,0.0-15.0-0.15,11458,List1A,black,man,,,,null,,,,
null,"<img src=""stim_listA/play6.gif""style=""height:400px;""></stim_listA>",,html-keyboard-response,209,2316113,0.0-15.0-1.15,11458,List1A,black,man,,,,null,,,,
null,are playing with each other,,html-keyboard-response,210,2318118,0.0-15.0-2.15,11458,List1A,black,man,,,,null,,,,
25865,,,survey-text,211,2343994,0.0-15.0-3.15,11458,List1A,black,man,,,,,"{""Q0"":""Fred and Luke are playing each other""}","<img src=""stim_listA/play6.gif""style=""height:400px;""></stim_listA>",are playing with each other,
null,"<div style=""font-size:60px;"">+</div>",,html-keyboard-response,212,2344508,0.0-15.0-0.16,11458,List1A,black,man,,,,null,,,,
null,"<img src=""stim_listA/kiss3.gif""style=""height:400px;""></stim_listA>",,html-keyboard-response,213,2346512,0.0-15.0-1.16,11458,List1A,black,man,,,,null,,,,
null,is kissing,,html-keyboard-response,214,2348517,0.0-15.0-2.16,11458,List1A,black,man,,,,null,,,,
39510,,,survey-text,215,2388034,0.0-15.0-3.16,11458,List1A,black,man,,,,,"{""Q0"":""Ruth and Luke are kissing""}","<img src=""stim_listA/kiss3.gif""style=""height:400px;""></stim_listA>",is kissing,
null,"<div style=""font-size:60px;"">+</div>",,html-keyboard-response,216,2388548,0.0-15.0-0.17,11458,List1A,black,man,,,,null,,,,
null,"<img src=""stim_listA/marry3.gif""style=""height:400px;""></stim_listA>",,html-keyboard-response,217,2390552,0.0-15.0-1.17,11458,List1A,black,man,,,,null,,,,
null,is marrying,,html-keyboard-response,218,2392557,0.0-15.0-2.17,11458,List1A,black,man,,,,null,,,,
29760,,,survey-text,219,2422322,0.0-15.0-3.17,11458,List1A,black,man,,,,,"{""Q0"":""Dave and Ruth are marrying ""}","<img src=""stim_listA/marry3.gif""style=""height:400px;""></stim_listA>",is marrying,
null,"<div style=""font-size:60px;"">+</div>",,html-keyboard-response,220,2422835,0.0-15.0-0.18,11458,List1A,black,man,,,,null,,,,
null,"<img src=""stim_listA/touch8.gif""style=""height:400px;""></stim_listA>",,html-keyboard-response,221,2424840,0.0-15.0-1.18,11458,List1A,black,man,,,,null,,,,
null,are touching each other,,html-keyboard-response,222,2426845,0.0-15.0-2.18,11458,List1A,black,man,,,,null,,,,
22055,,,survey-text,223,2448908,0.0-15.0-3.18,11458,List1A,black,man,,,,,"{""Q0"":""Beth and Ruth are touching ""}","<img src=""stim_listA/touch8.gif""style=""height:400px;""></stim_listA>",are touching each other,
null,"<div style=""font-size:60px;"">+</div>",,html-keyboard-response,224,2449423,0.0-15.0-0.19,11458,List1A,black,man,,,,null,,,,
null,"<img src=""stim_listA/fight4.gif""style=""height:400px;""></stim_listA>",,html-keyboard-response,225,2451425,0.0-15.0-1.19,11458,List1A,black,man,,,,null,,,,
null,are fighting each other,,html-keyboard-response,226,2453427,0.0-15.0-2.19,11458,List1A,black,man,,,,null,,,,
25449,,,survey-text,227,2478881,0.0-15.0-3.19,11458,List1A,black,man,,,,,"{""Q0"":""Ruth and Luke are fighting each other""}","<img src=""stim_listA/fight4.gif""style=""height:400px;""></stim_listA>",are fighting each other,
28955,"<img src='img/portrait_matrix_list1.jpg' style='width:900px;height:500px;''></img><p>If you have memorised all the portraits and names and are ready to start, press Continue.</p><p><strong>Please note: Your memory of these faces will be tested 4 times during this experiment.</strong></p>",0,html-button-response,228,2507848,0.0-16.0-0.0,11458,List1A,black,man,,,,,,,,
19566,"<img src=""portrait/WW2.jpg""style=""height:400px;""></img>",3,html-button-response,229,2528422,0.0-16.0-1.0,11458,List1A,black,man,,TRUE,3,,,,,
null,CORRECT,,html-keyboard-response,230,2529942,0.0-16.0-2.0-0.0,11458,List1A,black,man,,,,null,,,,
9553,"<img src=""portrait/BM1.jpg""style=""height:400px;""></img>",4,html-button-response,231,2539505,0.0-16.0-4.0,11458,List1A,black,man,,TRUE,4,,,,,
null,CORRECT,,html-keyboard-response,232,2541021,0.0-16.0-5.0-0.0,11458,List1A,black,man,,,,null,,,,
8894,"<img src=""portrait/BW2.jpg""style=""height:400px;""></img>",2,html-button-response,233,2549923,0.0-16.0-7.0,11458,List1A,black,man,,TRUE,2,,,,,
null,CORRECT,,html-keyboard-response,234,2551428,0.0-16.0-8.0-0.0,11458,List1A,black,man,,,,null,,,,
9775,"<img src=""portrait/BW1.jpg""style=""height:400px;""></img>",0,html-button-response,235,2561206,0.0-16.0-10.0,11458,List1A,black,man,,TRUE,0,,,,,
null,CORRECT,,html-keyboard-response,236,2562710,0.0-16.0-11.0-0.0,11458,List1A,black,man,,,,null,,,,
10167,"<img src=""portrait/WM1.jpg""style=""height:400px;""></img>",6,html-button-response,237,2572883,0.0-16.0-13.0,11458,List1A,black,man,,TRUE,6,,,,,
null,CORRECT,,html-keyboard-response,238,2574402,0.0-16.0-14.0-0.0,11458,List1A,black,man,,,,null,,,,
9241,"<img src=""portrait/WW1.jpg""style=""height:400px;""></img>",1,html-button-response,239,2583654,0.0-16.0-16.0,11458,List1A,black,man,,TRUE,1,,,,,
null,CORRECT,,html-keyboard-response,240,2585170,0.0-16.0-17.0-0.0,11458,List1A,black,man,,,,null,,,,
9266,"<img src=""portrait/BM2.jpg""style=""height:400px;""></img>",5,html-button-response,241,2594446,0.0-16.0-19.0,11458,List1A,black,man,,TRUE,5,,,,,
null,CORRECT,,html-keyboard-response,242,2595964,0.0-16.0-20.0-0.0,11458,List1A,black,man,,,,null,,,,
10000,"<img src=""portrait/WM2.jpg""style=""height:400px;""></img>",7,html-button-response,243,2605977,0.0-16.0-22.0,11458,List1A,black,man,,TRUE,7,,,,,
null,CORRECT,,html-keyboard-response,244,2607498,0.0-16.0-23.0-0.0,11458,List1A,black,man,,,,null,,,,
9479,<p>You got 8 out of 8 right first time. Press Continue.</p>,0,html-button-response,245,2616988,0.0-16.0-25.0,11458,List1A,black,man,,,,,,,,
null,"<div style=""font-size:60px;"">+</div>",,html-keyboard-response,246,2618498,0.0-17.0-0.0,11458,List1A,black,man,,,,null,,,,
null,"<img src=""stim_listA/fight5.gif""style=""height:400px;""></stim_listA>",,html-keyboard-response,247,2620505,0.0-17.0-1.0,11458,List1A,black,man,,,,null,,,,
null,is fighting,,html-keyboard-response,248,2622509,0.0-17.0-2.0,11458,List1A,black,man,,,,null,,,,
22401,,,survey-text,249,2644918,0.0-17.0-3.0,11458,List1A,black,man,,,,,"{""Q0"":""Mike and Dave are fighting ""}","<img src=""stim_listA/fight5.gif""style=""height:400px;""></stim_listA>",is fighting,
null,"<div style=""font-size:60px;"">+</div>",,html-keyboard-response,250,2645431,0.0-17.0-0.1,11458,List1A,black,man,,,,null,,,,
null,"<img src=""stim_listA/argue5.gif""style=""height:400px;""></stim_listA>",,html-keyboard-response,251,2647436,0.0-17.0-1.1,11458,List1A,black,man,,,,null,,,,
null,is arguing with,,html-keyboard-response,252,2649440,0.0-17.0-2.1,11458,List1A,black,man,,,,null,,,,
28816,,,survey-text,253,2678263,0.0-17.0-3.1,11458,List1A,black,man,,,,,"{""Q0"":""Mike and Luke are arguing ""}","<img src=""stim_listA/argue5.gif""style=""height:400px;""></stim_listA>",is arguing with,
null,"<div style=""font-size:60px;"">+</div>",,html-keyboard-response,254,2678778,0.0-17.0-0.2,11458,List1A,black,man,,,,null,,,,
null,"<img src=""stim_listA/dance8.gif""style=""height:400px;""></stim_listA>",,html-keyboard-response,255,2680783,0.0-17.0-1.2,11458,List1A,black,man,,,,null,,,,
null,are dancing with each other,,html-keyboard-response,256,2682788,0.0-17.0-2.2,11458,List1A,black,man,,,,null,,,,
27084,,,survey-text,257,2709878,0.0-17.0-3.2,11458,List1A,black,man,,,,,"{""Q0"":""Kate and Ruth are dancing with each other ""}","<img src=""stim_listA/dance8.gif""style=""height:400px;""></stim_listA>",are dancing with each other,
null,"<div style=""font-size:60px;"">+</div>",,html-keyboard-response,258,2710392,0.0-17.0-0.3,11458,List1A,black,man,,,,null,,,,
null,"<img src=""stim_listA/fight8.gif""style=""height:400px;""></stim_listA>",,html-keyboard-response,259,2712396,0.0-17.0-1.3,11458,List1A,black,man,,,,null,,,,
null,are fighting each other,,html-keyboard-response,260,2714401,0.0-17.0-2.3,11458,List1A,black,man,,,,null,,,,
22259,,,survey-text,261,2736665,0.0-17.0-3.3,11458,List1A,black,man,,,,,"{""Q0"":""Beth and Ruth are fighting each other""}","<img src=""stim_listA/fight8.gif""style=""height:400px;""></stim_listA>",are fighting each other,
null,"<div style=""font-size:60px;"">+</div>",,html-keyboard-response,262,2737176,0.0-17.0-0.4,11458,List1A,black,man,,,,null,,,,
null,"<img src=""stim_listA/flirt6.gif""style=""height:400px;""></stim_listA>",,html-keyboard-response,263,2739181,0.0-17.0-1.4,11458,List1A,black,man,,,,null,,,,
null,are flirting with each other,,html-keyboard-response,264,2741185,0.0-17.0-2.4,11458,List1A,black,man,,,,null,,,,
21785,,,survey-text,265,2762979,0.0-17.0-3.4,11458,List1A,black,man,,,,,"{""Q0"":""Luke and mike are flirting with each other ""}","<img src=""stim_listA/flirt6.gif""style=""height:400px;""></stim_listA>",are flirting with each other,
null,"<div style=""font-size:60px;"">+</div>",,html-keyboard-response,266,2763493,0.0-17.0-0.5,11458,List1A,black,man,,,,null,,,,
null,"<img src=""stim_listA/touch5.gif""style=""height:400px;""></stim_listA>",,html-keyboard-response,267,2765498,0.0-17.0-1.5,11458,List1A,black,man,,,,null,,,,
null,is touching,,html-keyboard-response,268,2767503,0.0-17.0-2.5,11458,List1A,black,man,,,,null,,,,
15855,,,survey-text,269,2783366,0.0-17.0-3.5,11458,List1A,black,man,,,,,"{""Q0"":""Dave and mike are touching ""}","<img src=""stim_listA/touch5.gif""style=""height:400px;""></stim_listA>",is touching,
null,"<div style=""font-size:60px;"">+</div>",,html-keyboard-response,270,2783873,0.0-17.0-0.6,11458,List1A,black,man,,,,null,,,,
null,"<img src=""stim_listA/talk7.gif""style=""height:400px;""></stim_listA>",,html-keyboard-response,271,2785875,0.0-17.0-1.6,11458,List1A,black,man,,,,null,,,,
null,is talking to,,html-keyboard-response,272,2787877,0.0-17.0-2.6,11458,List1A,black,man,,,,null,,,,
27965,,,survey-text,273,2815848,0.0-17.0-3.6,11458,List1A,black,man,,,,,"{""Q0"":""Jane is talking to beth""}","<img src=""stim_listA/talk7.gif""style=""height:400px;""></stim_listA>",is talking to,
null,"<div style=""font-size:60px;"">+</div>",,html-keyboard-response,274,2816363,0.0-17.0-0.7,11458,List1A,black,man,,,,null,,,,
null,"<img src=""stim_listA/talk3.gif""style=""height:400px;""></stim_listA>",,html-keyboard-response,275,2818368,0.0-17.0-1.7,11458,List1A,black,man,,,,null,,,,
null,is talking to,,html-keyboard-response,276,2820371,0.0-17.0-2.7,11458,List1A,black,man,,,,null,,,,
25241,,,survey-text,277,2845623,0.0-17.0-3.7,11458,List1A,black,man,,,,,"{""Q0"":""Jane is talking to luke""}","<img src=""stim_listA/talk3.gif""style=""height:400px;""></stim_listA>",is talking to,
null,"<div style=""font-size:60px;"">+</div>",,html-keyboard-response,278,2846134,0.0-17.0-0.8,11458,List1A,black,man,,,,null,,,,
null,"<img src=""stim_listA/argue6.gif""style=""height:400px;""></stim_listA>",,html-keyboard-response,279,2848138,0.0-17.0-1.8,11458,List1A,black,man,,,,null,,,,
null,are arguing with each other,,html-keyboard-response,280,2850141,0.0-17.0-2.8,11458,List1A,black,man,,,,null,,,,
21335,,,survey-text,281,2871487,0.0-17.0-3.8,11458,List1A,black,man,,,,,"{""Q0"":""Dave and Fred are arguing with each other ""}","<img src=""stim_listA/argue6.gif""style=""height:400px;""></stim_listA>",are arguing with each other,
null,"<div style=""font-size:60px;"">+</div>",,html-keyboard-response,282,2872004,0.0-17.0-0.9,11458,List1A,black,man,,,,null,,,,
null,"<img src=""stim_listA/play7.gif""style=""height:400px;""></stim_listA>",,html-keyboard-response,283,2874009,0.0-17.0-1.9,11458,List1A,black,man,,,,null,,,,
null,is playing with,,html-keyboard-response,284,2876015,0.0-17.0-2.9,11458,List1A,black,man,,,,null,,,,
18273,,,survey-text,285,2894297,0.0-17.0-3.9,11458,List1A,black,man,,,,,"{""Q0"":""Jane and Kate are playing ""}","<img src=""stim_listA/play7.gif""style=""height:400px;""></stim_listA>",is playing with,
null,"<div style=""font-size:60px;"">+</div>",,html-keyboard-response,286,2894809,0.0-17.0-0.10,11458,List1A,black,man,,,,null,,,,
null,"<img src=""stim_listA/shout8.gif""style=""height:400px;""></stim_listA>",,html-keyboard-response,287,2896814,0.0-17.0-1.10,11458,List1A,black,man,,,,null,,,,
null,are shouting at each other,,html-keyboard-response,288,2898819,0.0-17.0-2.10,11458,List1A,black,man,,,,null,,,,
27292,,,survey-text,289,2926121,0.0-17.0-3.10,11458,List1A,black,man,,,,,"{""Q0"":""Jane and mike are shouting at each other ""}","<img src=""stim_listA/shout8.gif""style=""height:400px;""></stim_listA>",are shouting at each other,
null,"<div style=""font-size:60px;"">+</div>",,html-keyboard-response,290,2926634,0.0-17.0-0.11,11458,List1A,black,man,,,,null,,,,
null,"<img src=""stim_listA/shout5.gif""style=""height:400px;""></stim_listA>",,html-keyboard-response,291,2928638,0.0-17.0-1.11,11458,List1A,black,man,,,,null,,,,
null,is shouting at,,html-keyboard-response,292,2930643,0.0-17.0-2.11,11458,List1A,black,man,,,,null,,,,
26551,,,survey-text,293,2957204,0.0-17.0-3.11,11458,List1A,black,man,,,,,"{""Q0"":""Fred is shouting at mike""}","<img src=""stim_listA/shout5.gif""style=""height:400px;""></stim_listA>",is shouting at,
null,"<div style=""font-size:60px;"">+</div>",,html-keyboard-response,294,2957716,0.0-17.0-0.12,11458,List1A,black,man,,,,null,,,,
null,"<img src=""stim_listA/dance1.gif""style=""height:400px;""></stim_listA>",,html-keyboard-response,295,2959720,0.0-17.0-1.12,11458,List1A,black,man,,,,null,,,,
null,is dancing with,,html-keyboard-response,296,2961724,0.0-17.0-2.12,11458,List1A,black,man,,,,null,,,,
28054,,,survey-text,297,2989789,0.0-17.0-3.12,11458,List1A,black,man,,,,,"{""Q0"":""Fred and Kate are dancing with each other ""}","<img src=""stim_listA/dance1.gif""style=""height:400px;""></stim_listA>",is dancing with,
null,"<div style=""font-size:60px;"">+</div>",,html-keyboard-response,298,2990304,0.0-17.0-0.13,11458,List1A,black,man,,,,null,,,,
null,"<img src=""stim_listA/marry1.gif""style=""height:400px;""></stim_listA>",,html-keyboard-response,299,2992309,0.0-17.0-1.13,11458,List1A,black,man,,,,null,,,,
null,is marrying,,html-keyboard-response,300,2994314,0.0-17.0-2.13,11458,List1A,black,man,,,,null,,,,
20270,,,survey-text,301,3014595,0.0-17.0-3.13,11458,List1A,black,man,,,,,"{""Q0"":""Fred and Beth are marrying ""}","<img src=""stim_listA/marry1.gif""style=""height:400px;""></stim_listA>",is marrying,
null,"<div style=""font-size:60px;"">+</div>",,html-keyboard-response,302,3015111,0.0-17.0-0.14,11458,List1A,black,man,,,,null,,,,
null,"<img src=""stim_listA/play1.gif""style=""height:400px;""></stim_listA>",,html-keyboard-response,303,3017116,0.0-17.0-1.14,11458,List1A,black,man,,,,null,,,,
null,is playing with,,html-keyboard-response,304,3019120,0.0-17.0-2.14,11458,List1A,black,man,,,,null,,,,
20220,,,survey-text,305,3039350,0.0-17.0-3.14,11458,List1A,black,man,,,,,"{""Q0"":""Mike and Kate are playing ""}","<img src=""stim_listA/play1.gif""style=""height:400px;""></stim_listA>",is playing with,
null,"<div style=""font-size:60px;"">+</div>",,html-keyboard-response,306,3039864,0.0-17.0-0.15,11458,List1A,black,man,,,,null,,,,
null,"<img src=""stim_listA/marry2.gif""style=""height:400px;""></stim_listA>",,html-keyboard-response,307,3041869,0.0-17.0-1.15,11458,List1A,black,man,,,,null,,,,
null,are marrying each other,,html-keyboard-response,308,3043875,0.0-17.0-2.15,11458,List1A,black,man,,,,null,,,,
21340,,,survey-text,309,3065220,0.0-17.0-3.15,11458,List1A,black,man,,,,,"{""Q0"":""Fred and Kate are marrying each other ""}","<img src=""stim_listA/marry2.gif""style=""height:400px;""></stim_listA>",are marrying each other,
null,"<div style=""font-size:60px;"">+</div>",,html-keyboard-response,310,3065732,0.0-17.0-0.16,11458,List1A,black,man,,,,null,,,,
null,"<img src=""stim_listA/flirt3.gif""style=""height:400px;""></stim_listA>",,html-keyboard-response,311,3067737,0.0-17.0-1.16,11458,List1A,black,man,,,,null,,,,
null,is flirting with,,html-keyboard-response,312,3069742,0.0-17.0-2.16,11458,List1A,black,man,,,,null,,,,
24356,,,survey-text,313,3094106,0.0-17.0-3.16,11458,List1A,black,man,,,,,"{""Q0"":""Luke and Jane are flirting ""}","<img src=""stim_listA/flirt3.gif""style=""height:400px;""></stim_listA>",is flirting with,
null,"<div style=""font-size:60px;"">+</div>",,html-keyboard-response,314,3094616,0.0-17.0-0.17,11458,List1A,black,man,,,,null,,,,
null,"<img src=""stim_listA/kiss6.gif""style=""height:400px;""></stim_listA>",,html-keyboard-response,315,3096618,0.0-17.0-1.17,11458,List1A,black,man,,,,null,,,,
null,are kissing each other,,html-keyboard-response,316,3098619,0.0-17.0-2.17,11458,List1A,black,man,,,,null,,,,
15019,,,survey-text,317,3113641,0.0-17.0-3.17,11458,List1A,black,man,,,,,"{""Q0"":""Dave and mike are kissing ""}","<img src=""stim_listA/kiss6.gif""style=""height:400px;""></stim_listA>",are kissing each other,
null,"<div style=""font-size:60px;"">+</div>",,html-keyboard-response,318,3114154,0.0-17.0-0.18,11458,List1A,black,man,,,,null,,,,
null,"<img src=""stim_listA/play2.gif""style=""height:400px;""></stim_listA>",,html-keyboard-response,319,3116159,0.0-17.0-1.18,11458,List1A,black,man,,,,null,,,,
null,are playing with each other,,html-keyboard-response,320,3118164,0.0-17.0-2.18,11458,List1A,black,man,,,,null,,,,
28546,,,survey-text,321,3146714,0.0-17.0-3.18,11458,List1A,black,man,,,,,"{""Q0"":""Fred and Beth are playing with each other""}","<img src=""stim_listA/play2.gif""style=""height:400px;""></stim_listA>",are playing with each other,
null,"<div style=""font-size:60px;"">+</div>",,html-keyboard-response,322,3147226,0.0-17.0-0.19,11458,List1A,black,man,,,,null,,,,
null,"<img src=""stim_listA/touch3.gif""style=""height:400px;""></stim_listA>",,html-keyboard-response,323,3149231,0.0-17.0-1.19,11458,List1A,black,man,,,,null,,,,
null,is touching,,html-keyboard-response,324,3151236,0.0-17.0-2.19,11458,List1A,black,man,,,,null,,,,
22989,,,survey-text,325,3174233,0.0-17.0-3.19,11458,List1A,black,man,,,,,"{""Q0"":""Dave and Jane are touching ""}","<img src=""stim_listA/touch3.gif""style=""height:400px;""></stim_listA>",is touching,
11687,"<img src='img/portrait_matrix_list1.jpg' style='width:900px;height:500px;''></img><p>If you have memorised all the portraits and names and are ready to start, press Continue.</p><p><strong>Please note: Your memory of these faces will be tested 4 times during this experiment.</strong></p>",0,html-button-response,326,3185931,0.0-18.0-0.0,11458,List1A,black,man,,,,,,,,
15366,"<img src=""portrait/BM1.jpg""style=""height:400px;""></img>",4,html-button-response,327,3202306,0.0-18.0-1.0,11458,List1A,black,man,,TRUE,4,,,,,
null,CORRECT,,html-keyboard-response,328,3203825,0.0-18.0-2.0-0.0,11458,List1A,black,man,,,,null,,,,
10472,"<img src=""portrait/BW1.jpg""style=""height:400px;""></img>",0,html-button-response,329,3214309,0.0-18.0-4.0,11458,List1A,black,man,,TRUE,0,,,,,
null,CORRECT,,html-keyboard-response,330,3215817,0.0-18.0-5.0-0.0,11458,List1A,black,man,,,,null,,,,
9114,"<img src=""portrait/WM2.jpg""style=""height:400px;""></img>",7,html-button-response,331,3224939,0.0-18.0-7.0,11458,List1A,black,man,,TRUE,7,,,,,
null,CORRECT,,html-keyboard-response,332,3226467,0.0-18.0-8.0-0.0,11458,List1A,black,man,,,,null,,,,
10123,"<img src=""portrait/WM1.jpg""style=""height:400px;""></img>",6,html-button-response,333,3236603,0.0-18.0-10.0,11458,List1A,black,man,,TRUE,6,,,,,
null,CORRECT,,html-keyboard-response,334,3238119,0.0-18.0-11.0-0.0,11458,List1A,black,man,,,,null,,,,
7422,"<img src=""portrait/WW1.jpg""style=""height:400px;""></img>",1,html-button-response,335,3245547,0.0-18.0-13.0,11458,List1A,black,man,,TRUE,1,,,,,
null,CORRECT,,html-keyboard-response,336,3247065,0.0-18.0-14.0-0.0,11458,List1A,black,man,,,,null,,,,
8268,"<img src=""portrait/BM2.jpg""style=""height:400px;""></img>",5,html-button-response,337,3255346,0.0-18.0-16.0,11458,List1A,black,man,,TRUE,5,,,,,
null,CORRECT,,html-keyboard-response,338,3256865,0.0-18.0-17.0-0.0,11458,List1A,black,man,,,,null,,,,
7801,"<img src=""portrait/WW2.jpg""style=""height:400px;""></img>",3,html-button-response,339,3264678,0.0-18.0-19.0,11458,List1A,black,man,,TRUE,3,,,,,
null,CORRECT,,html-keyboard-response,340,3266198,0.0-18.0-20.0-0.0,11458,List1A,black,man,,,,null,,,,
12354,"<img src=""portrait/BW2.jpg""style=""height:400px;""></img>",2,html-button-response,341,3278565,0.0-18.0-22.0,11458,List1A,black,man,,TRUE,2,,,,,
null,CORRECT,,html-keyboard-response,342,3280081,0.0-18.0-23.0-0.0,11458,List1A,black,man,,,,null,,,,
3082,<p>You got 8 out of 8 right first time. Press Continue.</p>,0,html-button-response,343,3283172,0.0-18.0-25.0,11458,List1A,black,man,,,,,,,,
null,"<div style=""font-size:60px;"">+</div>",,html-keyboard-response,344,3284683,0.0-19.0-0.0,11458,List1A,black,man,,,,null,,,,
null,"<img src=""stim_listA/kiss8.gif""style=""height:400px;""></stim_listA>",,html-keyboard-response,345,3286689,0.0-19.0-1.0,11458,List1A,black,man,,,,null,,,,
null,are kissing each other,,html-keyboard-response,346,3288694,0.0-19.0-2.0,11458,List1A,black,man,,,,null,,,,
22933,,,survey-text,347,3311633,0.0-19.0-3.0,11458,List1A,black,man,,,,,"{""Q0"":""Jane and Kate are kissing each other ""}","<img src=""stim_listA/kiss8.gif""style=""height:400px;""></stim_listA>",are kissing each other,
null,"<div style=""font-size:60px;"">+</div>",,html-keyboard-response,348,3312146,0.0-19.0-0.1,11458,List1A,black,man,,,,null,,,,
null,"<img src=""stim_listA/marry7.gif""style=""height:400px;""></stim_listA>",,html-keyboard-response,349,3314151,0.0-19.0-1.1,11458,List1A,black,man,,,,null,,,,
null,is marrying,,html-keyboard-response,350,3316155,0.0-19.0-2.1,11458,List1A,black,man,,,,null,,,,
19691,,,survey-text,351,3335851,0.0-19.0-3.1,11458,List1A,black,man,,,,,"{""Q0"":""Kate and Ruth are marrying ""}","<img src=""stim_listA/marry7.gif""style=""height:400px;""></stim_listA>",is marrying,
null,"<div style=""font-size:60px;"">+</div>",,html-keyboard-response,352,3336363,0.0-19.0-0.2,11458,List1A,black,man,,,,null,,,,
null,"<img src=""stim_listA/flirt5.gif""style=""height:400px;""></stim_listA>",,html-keyboard-response,353,3338369,0.0-19.0-1.2,11458,List1A,black,man,,,,null,,,,
null,is flirting with,,html-keyboard-response,354,3340416,0.0-19.0-2.2,11458,List1A,black,man,,,,null,,,,
16525,,,survey-text,355,3356945,0.0-19.0-3.2,11458,List1A,black,man,,,,,"{""Q0"":""Fred and Dave are flirting ""}","<img src=""stim_listA/flirt5.gif""style=""height:400px;""></stim_listA>",is flirting with,
null,"<div style=""font-size:60px;"">+</div>",,html-keyboard-response,356,3357461,0.0-19.0-0.3,11458,List1A,black,man,,,,null,,,,
null,"<img src=""stim_listA/shout1.gif""style=""height:400px;""></stim_listA>",,html-keyboard-response,357,3359466,0.0-19.0-1.3,11458,List1A,black,man,,,,null,,,,
null,is shouting at,,html-keyboard-response,358,3361505,0.0-19.0-2.3,11458,List1A,black,man,,,,null,,,,
27636,,,survey-text,359,3389146,0.0-19.0-3.3,11458,List1A,black,man,,,,,"{""Q0"":""Dave and Beth are shouting ""}","<img src=""stim_listA/shout1.gif""style=""height:400px;""></stim_listA>",is shouting at,
null,"<div style=""font-size:60px;"">+</div>",,html-keyboard-response,360,3389660,0.0-19.0-0.4,11458,List1A,black,man,,,,null,,,,
null,"<img src=""stim_listA/kiss5.gif""style=""height:400px;""></stim_listA>",,html-keyboard-response,361,3391665,0.0-19.0-1.4,11458,List1A,black,man,,,,null,,,,
null,is kissing,,html-keyboard-response,362,3393672,0.0-19.0-2.4,11458,List1A,black,man,,,,null,,,,
17074,,,survey-text,363,3410760,0.0-19.0-3.4,11458,List1A,black,man,,,,,"{""Q0"":""Fred and Luke are kissing ""}","<img src=""stim_listA/kiss5.gif""style=""height:400px;""></stim_listA>",is kissing,
null,"<div style=""font-size:60px;"">+</div>",,html-keyboard-response,364,3411274,0.0-19.0-0.5,11458,List1A,black,man,,,,null,,,,
null,"<img src=""stim_listA/touch2.gif""style=""height:400px;""></stim_listA>",,html-keyboard-response,365,3413279,0.0-19.0-1.5,11458,List1A,black,man,,,,null,,,,
null,are touching each other,,html-keyboard-response,366,3415284,0.0-19.0-2.5,11458,List1A,black,man,,,,null,,,,
19657,,,survey-text,367,3434948,0.0-19.0-3.5,11458,List1A,black,man,,,,,"{""Q0"":""Beth and Fred are touching ""}","<img src=""stim_listA/touch2.gif""style=""height:400px;""></stim_listA>",are touching each other,
null,"<div style=""font-size:60px;"">+</div>",,html-keyboard-response,368,3435455,0.0-19.0-0.6,11458,List1A,black,man,,,,null,,,,
null,"<img src=""stim_listA/talk1.gif""style=""height:400px;""></stim_listA>",,html-keyboard-response,369,3437459,0.0-19.0-1.6,11458,List1A,black,man,,,,null,,,,
null,is talking to,,html-keyboard-response,370,3439465,0.0-19.0-2.6,11458,List1A,black,man,,,,null,,,,
24683,,,survey-text,371,3464152,0.0-19.0-3.6,11458,List1A,black,man,,,,,"{""Q0"":""Kate is talking to fred""}","<img src=""stim_listA/talk1.gif""style=""height:400px;""></stim_listA>",is talking to,
null,"<div style=""font-size:60px;"">+</div>",,html-keyboard-response,372,3464655,0.0-19.0-0.7,11458,List1A,black,man,,,,null,,,,
null,"<img src=""stim_listA/dance6.gif""style=""height:400px;""></stim_listA>",,html-keyboard-response,373,3466657,0.0-19.0-1.7,11458,List1A,black,man,,,,null,,,,
null,are dancing with each other,,html-keyboard-response,374,3468658,0.0-19.0-2.7,11458,List1A,black,man,,,,null,,,,
22127,,,survey-text,375,3490790,0.0-19.0-3.7,11458,List1A,black,man,,,,,"{""Q0"":""Luke and mike are dancing with each other ""}","<img src=""stim_listA/dance6.gif""style=""height:400px;""></stim_listA>",are dancing with each other,
null,"<div style=""font-size:60px;"">+</div>",,html-keyboard-response,376,3491302,0.0-19.0-0.8,11458,List1A,black,man,,,,null,,,,
null,"<img src=""stim_listA/flirt4.gif""style=""height:400px;""></stim_listA>",,html-keyboard-response,377,3493307,0.0-19.0-1.8,11458,List1A,black,man,,,,null,,,,
null,are flirting with each other,,html-keyboard-response,378,3495310,0.0-19.0-2.8,11458,List1A,black,man,,,,null,,,,
23110,,,survey-text,379,3518426,0.0-19.0-3.8,11458,List1A,black,man,,,,,"{""Q0"":""Dave and Ruth are flirting with each other ""}","<img src=""stim_listA/flirt4.gif""style=""height:400px;""></stim_listA>",are flirting with each other,
null,"<div style=""font-size:60px;"">+</div>",,html-keyboard-response,380,3518939,0.0-19.0-0.9,11458,List1A,black,man,,,,null,,,,
null,"<img src=""stim_listA/dance7.gif""style=""height:400px;""></stim_listA>",,html-keyboard-response,381,3520944,0.0-19.0-1.9,11458,List1A,black,man,,,,null,,,,
null,is dancing with,,html-keyboard-response,382,3522950,0.0-19.0-2.9,11458,List1A,black,man,,,,null,,,,
26457,,,survey-text,383,3549415,0.0-19.0-3.9,11458,List1A,black,man,,,,,"{""Q0"":""Beth is dancing with kate""}","<img src=""stim_listA/dance7.gif""style=""height:400px;""></stim_listA>",is dancing with,
null,"<div style=""font-size:60px;"">+</div>",,html-keyboard-response,384,3549932,0.0-19.0-0.10,11458,List1A,black,man,,,,null,,,,
null,"<img src=""stim_listA/argue8.gif""style=""height:400px;""></stim_listA>",,html-keyboard-response,385,3551937,0.0-19.0-1.10,11458,List1A,black,man,,,,null,,,,
null,are arguing with each other,,html-keyboard-response,386,3553943,0.0-19.0-2.10,11458,List1A,black,man,,,,null,,,,
27298,,,survey-text,387,3581249,0.0-19.0-3.10,11458,List1A,black,man,,,,,"{""Q0"":""Beth and Jane are arguing with each other ""}","<img src=""stim_listA/argue8.gif""style=""height:400px;""></stim_listA>",are arguing with each other,
null,"<div style=""font-size:60px;"">+</div>",,html-keyboard-response,388,3581762,0.0-19.0-0.11,11458,List1A,black,man,,,,null,,,,
null,"<img src=""stim_listA/argue7.gif""style=""height:400px;""></stim_listA>",,html-keyboard-response,389,3583767,0.0-19.0-1.11,11458,List1A,black,man,,,,null,,,,
null,is arguing with,,html-keyboard-response,390,3585772,0.0-19.0-2.11,11458,List1A,black,man,,,,null,,,,
27677,,,survey-text,391,3613455,0.0-19.0-3.11,11458,List1A,black,man,,,,,"{""Q0"":""Kate and Ruth are arguing ""}","<img src=""stim_listA/argue7.gif""style=""height:400px;""></stim_listA>",is arguing with,
null,"<div style=""font-size:60px;"">+</div>",,html-keyboard-response,392,3613965,0.0-19.0-0.12,11458,List1A,black,man,,,,null,,,,
null,"<img src=""stim_listA/talk8.gif""style=""height:400px;""></stim_listA>",,html-keyboard-response,393,3615967,0.0-19.0-1.12,11458,List1A,black,man,,,,null,,,,
null,are talking to each other,,html-keyboard-response,394,3617969,0.0-19.0-2.12,11458,List1A,black,man,,,,null,,,,
24665,,,survey-text,395,3642640,0.0-19.0-3.12,11458,List1A,black,man,,,,,"{""Q0"":""Ruth and Kate are talking to each other ""}","<img src=""stim_listA/talk8.gif""style=""height:400px;""></stim_listA>",are talking to each other,
null,"<div style=""font-size:60px;"">+</div>",,html-keyboard-response,396,3643154,0.0-19.0-0.13,11458,List1A,black,man,,,,null,,,,
null,"<img src=""stim_listA/fight2.gif""style=""height:400px;""></stim_listA>",,html-keyboard-response,397,3645159,0.0-19.0-1.13,11458,List1A,black,man,,,,null,,,,
null,are fighting each other,,html-keyboard-response,398,3647165,0.0-19.0-2.13,11458,List1A,black,man,,,,null,,,,
30324,,,survey-text,399,3677496,0.0-19.0-3.13,11458,List1A,black,man,,,,,"{""Q0"":""Fred and Beth are fighting each other ""}","<img src=""stim_listA/fight2.gif""style=""height:400px;""></stim_listA>",are fighting each other,
null,"<div style=""font-size:60px;"">+</div>",,html-keyboard-response,400,3678009,0.0-19.0-0.14,11458,List1A,black,man,,,,null,,,,
null,"<img src=""stim_listA/flirt1.gif""style=""height:400px;""></stim_listA>",,html-keyboard-response,401,3680013,0.0-19.0-1.14,11458,List1A,black,man,,,,null,,,,
null,is flirting with,,html-keyboard-response,402,3682017,0.0-19.0-2.14,11458,List1A,black,man,,,,null,,,,
20304,,,survey-text,403,3702330,0.0-19.0-3.14,11458,List1A,black,man,,,,,"{""Q0"":""Fred and Beth are flirting ""}","<img src=""stim_listA/flirt1.gif""style=""height:400px;""></stim_listA>",is flirting with,
null,"<div style=""font-size:60px;"">+</div>",,html-keyboard-response,404,3702842,0.0-19.0-0.15,11458,List1A,black,man,,,,null,,,,
null,"<img src=""stim_listA/kiss1.gif""style=""height:400px;""></stim_listA>",,html-keyboard-response,405,3704847,0.0-19.0-1.15,11458,List1A,black,man,,,,null,,,,
null,is kissing,,html-keyboard-response,406,3706852,0.0-19.0-2.15,11458,List1A,black,man,,,,null,,,,
22333,,,survey-text,407,3729189,0.0-19.0-3.15,11458,List1A,black,man,,,,,"{""Q0"":""Fred and Beth are kissing ""}","<img src=""stim_listA/kiss1.gif""style=""height:400px;""></stim_listA>",is kissing,
null,"<div style=""font-size:60px;"">+</div>",,html-keyboard-response,408,3729701,0.0-19.0-0.16,11458,List1A,black,man,,,,null,,,,
null,"<img src=""stim_listA/kiss2.gif""style=""height:400px;""></stim_listA>",,html-keyboard-response,409,3731706,0.0-19.0-1.16,11458,List1A,black,man,,,,null,,,,
null,are kissing each other,,html-keyboard-response,410,3733711,0.0-19.0-2.16,11458,List1A,black,man,,,,null,,,,
23737,,,survey-text,411,3757455,0.0-19.0-3.16,11458,List1A,black,man,,,,,"{""Q0"":""Kate and mike are kissing each other ""}","<img src=""stim_listA/kiss2.gif""style=""height:400px;""></stim_listA>",are kissing each other,
null,"<div style=""font-size:60px;"">+</div>",,html-keyboard-response,412,3757970,0.0-19.0-0.17,11458,List1A,black,man,,,,null,,,,
null,"<img src=""stim_listA/shout4.gif""style=""height:400px;""></stim_listA>",,html-keyboard-response,413,3759975,0.0-19.0-1.17,11458,List1A,black,man,,,,null,,,,
null,are shouting at each other,,html-keyboard-response,414,3761980,0.0-19.0-2.17,11458,List1A,black,man,,,,null,,,,
28427,,,survey-text,415,3790419,0.0-19.0-3.17,11458,List1A,black,man,,,,,"{""Q0"":""Dave and Jane are arguing with each other ""}","<img src=""stim_listA/shout4.gif""style=""height:400px;""></stim_listA>",are shouting at each other,
null,"<div style=""font-size:60px;"">+</div>",,html-keyboard-response,416,3790936,0.0-19.0-0.18,11458,List1A,black,man,,,,null,,,,
null,"<img src=""stim_listA/fight1.gif""style=""height:400px;""></stim_listA>",,html-keyboard-response,417,3792941,0.0-19.0-1.18,11458,List1A,black,man,,,,null,,,,
null,is fighting,,html-keyboard-response,418,3794945,0.0-19.0-2.18,11458,List1A,black,man,,,,null,,,,
22374,,,survey-text,419,3817327,0.0-19.0-3.18,11458,List1A,black,man,,,,,"{""Q0"":""Mike and Kate are fighting ""}","<img src=""stim_listA/fight1.gif""style=""height:400px;""></stim_listA>",is fighting,
null,"<div style=""font-size:60px;"">+</div>",,html-keyboard-response,420,3817843,0.0-19.0-0.19,11458,List1A,black,man,,,,null,,,,
null,"<img src=""stim_listA/talk5.gif""style=""height:400px;""></stim_listA>",,html-keyboard-response,421,3819850,0.0-19.0-1.19,11458,List1A,black,man,,,,null,,,,
null,is talking to,,html-keyboard-response,422,3821866,0.0-19.0-2.19,11458,List1A,black,man,,,,null,,,,
25398,,,survey-text,423,3847267,0.0-19.0-3.19,11458,List1A,black,man,,,,,"{""Q0"":""Fred is talking to dave""}","<img src=""stim_listA/talk5.gif""style=""height:400px;""></stim_listA>",is talking to,
5757,<p>Thank you for completing that task.</p><p>The final part of this session is a short questionnaire.</p><p>Press Continue.</p>,0,html-button-response,424,3853033,0.0-20.0,11458,List1A,black,man,,,,,,,,
62592,,,survey-text,425,3916630,0.0-21.0,11458,List1A,black,man,,,,,"{""Q0"":""52"",""Q1"":""English "",""Q2"":""English "",""Q3"":""United Kingdom "",""Q4"":""Black British "",""Q5"":""Male""}",,,demographics
23922,,,survey-likert,426,3940559,0.0-22.0,11458,List1A,black,man,,,,,"{""Q0"":4}",,,likert_ESS
13955,,,survey-likert,427,3954520,0.0-23.0,11458,List1A,black,man,,,,,"{""Q0"":4}",,,likert_NSSAL_Q1
11641,,,survey-likert,428,3966170,0.0-24.0,11458,List1A,black,man,,,,,"{""Q0"":4}",,,likert_NSSAL_Q2
11309,,,survey-likert,429,3977488,0.0-25.0,11458,List1A,black,man,,,,,"{""Q0"":4}",,,likert_CGRS_Q1
7108,,,survey-likert,430,3984607,0.0-26.0,11458,List1A,black,man,,,,,"{""Q0"":4}",,,likert_CGRS_Q2
5108,,,survey-likert,431,3989725,0.0-27.0,11458,List1A,black,man,,,,,"{""Q0"":4}",,,likert_CGRS_Q3
21390,,,survey-text,432,4011126,0.0-28.0,11458,List1A,black,man,,,,,"{""Q0"":""ccc""}",,,worker_id
13008,,,external-html,433,4024312,0.0-29.0,11458,List1A,black,man,debrief.html,,,,,,,
