rt,stimulus,button_pressed,trial_type,trial_index,time_elapsed,internal_node_id,subject,list,ppt_race,ppt_gender,url,first_guess,correct,key_press,responses,image_type,phrase_type,test_part
2294,Welcome to the experiment. Press Continue to begin.,0,html-button-response,0,2300,0.0-0.0,11621,List2A,white,woman,,,,,,,,
35490,,,external-html,1,38850,0.0-1.0,11621,List2A,white,woman,consent.html,,,,,,,
34445,"<p>On the next page, you will see portraits of 8 people and their names.</p><p>Your first task is to take a few minutes to memorise the names of these people.</p><p>You will have to recall their names during the rest of the experiment, so it is</p><p>essential that you try to memorise these people and their names as best as you can.</p><br><p><strong>You will then be tested on your memory of these names and portraits.</strong></p><br><p>The experiment will start after you have completed this memory test.</p><br><p>Ready?</p>",0,html-button-response,2,73296,0.0-2.0,11621,List2A,white,woman,,,,,,,,
87839,"<img src='img/portrait_matrix_list2.jpg' style='width:900px;height:500px;''></img><p>If you have memorised all the portraits and names and are ready to start, press Continue.</p><p><strong>Please note: Your memory of these faces will be tested 4 times during this experiment.</strong></p>",0,html-button-response,3,162138,0.0-3.0-0.0,11621,List2A,white,woman,,,,,,,,
5748,"<img src=""portrait/BW1.jpg""style=""height:400px;""></img>",0,html-button-response,4,168888,0.0-3.0-1.0,11621,List2A,white,woman,,TRUE,0,,,,,
null,CORRECT,,html-keyboard-response,5,170392,0.0-3.0-2.0-0.0,11621,List2A,white,woman,,,,null,,,,
6695,"<img src=""portrait/WW1.jpg""style=""height:400px;""></img>",1,html-button-response,6,177089,0.0-3.0-4.0,11621,List2A,white,woman,,TRUE,1,,,,,
null,CORRECT,,html-keyboard-response,7,178593,0.0-3.0-5.0-0.0,11621,List2A,white,woman,,,,null,,,,
6279,"<img src=""portrait/BW2.jpg""style=""height:400px;""></img>",2,html-button-response,8,184874,0.0-3.0-7.0,11621,List2A,white,woman,,TRUE,2,,,,,
null,CORRECT,,html-keyboard-response,9,186377,0.0-3.0-8.0-0.0,11621,List2A,white,woman,,,,null,,,,
3693,"<img src=""portrait/BM2.jpg""style=""height:400px;""></img>",5,html-button-response,10,190072,0.0-3.0-10.0,11621,List2A,white,woman,,TRUE,5,,,,,
null,CORRECT,,html-keyboard-response,11,191575,0.0-3.0-11.0-0.0,11621,List2A,white,woman,,,,null,,,,
3591,"<img src=""portrait/BM1.jpg""style=""height:400px;""></img>",4,html-button-response,12,195168,0.0-3.0-13.0,11621,List2A,white,woman,,TRUE,4,,,,,
null,CORRECT,,html-keyboard-response,13,196672,0.0-3.0-14.0-0.0,11621,List2A,white,woman,,,,null,,,,
8902,"<img src=""portrait/WM2.jpg""style=""height:400px;""></img>",7,html-button-response,14,205575,0.0-3.0-16.0,11621,List2A,white,woman,,TRUE,7,,,,,
null,CORRECT,,html-keyboard-response,15,207078,0.0-3.0-17.0-0.0,11621,List2A,white,woman,,,,null,,,,
6403,"<img src=""portrait/WM1.jpg""style=""height:400px;""></img>",6,html-button-response,16,213483,0.0-3.0-19.0,11621,List2A,white,woman,,TRUE,6,,,,,
null,CORRECT,,html-keyboard-response,17,214987,0.0-3.0-20.0-0.0,11621,List2A,white,woman,,,,null,,,,
4582,"<img src=""portrait/WW2.jpg""style=""height:400px;""></img>",3,html-button-response,18,219570,0.0-3.0-22.0,11621,List2A,white,woman,,TRUE,3,,,,,
null,CORRECT,,html-keyboard-response,19,221073,0.0-3.0-23.0-0.0,11621,List2A,white,woman,,,,null,,,,
3298,<p>You got 8 out of 8 right first time. Press Continue.</p>,0,html-button-response,20,224373,0.0-3.0-25.0,11621,List2A,white,woman,,,,,,,,
25975,"<p>In this experiment, you will view photographs of the people from the memory game interacting.</p><p>By using the <strong>exact</strong> phrase given <i>after</i> the photograph appears and recalling the correct names of the people in the photographs, form a sentence describing the interaction. You do not need to capitalise names.</p><p>Type your answer in the space provided. Please complete every sentence before moving onto the next trial.</p><p>You will only have a few seconds to memorise each given photograph and phrase before you can respond, so try your best to focus.</p><p>An example is given below. Press 'Continue' when you are ready.</p><img src='img/speaking_example.jpg' style='width:800px;height:460px;''></img>",0,html-button-response,21,251351,0.0-4.0,11621,List2A,white,woman,,,,,,,,
4071,"<p>Before the experiment starts, you will watch two example trials. Press 'Continue'.</p>",0,html-button-response,22,256424,0.0-5.0,11621,List2A,white,woman,,,,,,,,
null,<img src='img/meet_eg.gif' style='height:400px;''></img>,,html-keyboard-response,23,259428,0.0-6.0,11621,List2A,white,woman,,,,null,,,,
null,<p>is meeting</p>,,html-keyboard-response,24,261430,0.0-7.0,11621,List2A,white,woman,,,,null,,,,
4881,<p><b>Answer:</b> jane is meeting ruth</p>,0,html-button-response,25,266313,0.0-8.0,11621,List2A,white,woman,,,,,,,,
null,<img src='img/look_eg.gif' style='height:400px;''></img>,,html-keyboard-response,26,269316,0.0-9.0,11621,List2A,white,woman,,,,null,,,,
null,<p>are looking at each other</p>,,html-keyboard-response,27,271319,0.0-10.0,11621,List2A,white,woman,,,,null,,,,
2070,<p><b>Answer:</b> fred and mike are looking at each other</p>,0,html-button-response,28,273389,0.0-11.0,11621,List2A,white,woman,,,,,,,,
18483,"<p>Ready to start the experiment?</p><br><p><strong>Remember to describe the picture using a full sentence,</strong></p><p><strong>that combines the names of the people with the <i>exact</i> phrase given.</strong></p><p><strong>To receive full payment you must do this correctly.</strong></p><p><strong> You do not need to capitalise names or use punctuation.</strong></p><br><p>Press 'Continue' to begin.</p>",0,html-button-response,29,292875,0.0-12.0,11621,List2A,white,woman,,,,,,,,
null,"<div style=""font-size:60px;"">+</div>",,html-keyboard-response,30,294378,0.0-13.0-0.0,11621,List2A,white,woman,,,,null,,,,
null,"<img src=""stim_listA/shout1.gif""style=""height:400px;""></stim_listA>",,html-keyboard-response,31,296381,0.0-13.0-1.0,11621,List2A,white,woman,,,,null,,,,
null,is shouting at,,html-keyboard-response,32,298383,0.0-13.0-2.0,11621,List2A,white,woman,,,,null,,,,
16945,,,survey-text,33,315330,0.0-13.0-3.0,11621,List2A,white,woman,,,,,"{""Q0"":""luke and ruth are arguing""}","<img src=""stim_listA/shout1.gif""style=""height:400px;""></stim_listA>",is shouting at,
null,"<div style=""font-size:60px;"">+</div>",,html-keyboard-response,34,315832,0.0-13.0-0.1,11621,List2A,white,woman,,,,null,,,,
null,"<img src=""stim_listA/marry2.gif""style=""height:400px;""></stim_listA>",,html-keyboard-response,35,317835,0.0-13.0-1.1,11621,List2A,white,woman,,,,null,,,,
null,are marrying each other,,html-keyboard-response,36,319837,0.0-13.0-2.1,11621,List2A,white,woman,,,,null,,,,
14357,,,survey-text,37,334196,0.0-13.0-3.1,11621,List2A,white,woman,,,,,"{""Q0"":""luke and jane are romantic""}","<img src=""stim_listA/marry2.gif""style=""height:400px;""></stim_listA>",are marrying each other,
null,"<div style=""font-size:60px;"">+</div>",,html-keyboard-response,38,334698,0.0-13.0-0.2,11621,List2A,white,woman,,,,null,,,,
null,"<img src=""stim_listA/shout6.gif""style=""height:400px;""></stim_listA>",,html-keyboard-response,39,336700,0.0-13.0-1.2,11621,List2A,white,woman,,,,null,,,,
null,are shouting at each other,,html-keyboard-response,40,338703,0.0-13.0-2.2,11621,List2A,white,woman,,,,null,,,,
18803,,,survey-text,41,357506,0.0-13.0-3.2,11621,List2A,white,woman,,,,,"{""Q0"":""dave and mike are play fighting""}","<img src=""stim_listA/shout6.gif""style=""height:400px;""></stim_listA>",are shouting at each other,
null,"<div style=""font-size:60px;"">+</div>",,html-keyboard-response,42,358008,0.0-13.0-0.3,11621,List2A,white,woman,,,,null,,,,
null,"<img src=""stim_listA/dance5.gif""style=""height:400px;""></stim_listA>",,html-keyboard-response,43,360011,0.0-13.0-1.3,11621,List2A,white,woman,,,,null,,,,
null,is dancing with,,html-keyboard-response,44,362014,0.0-13.0-2.3,11621,List2A,white,woman,,,,null,,,,
15528,,,survey-text,45,377542,0.0-13.0-3.3,11621,List2A,white,woman,,,,,"{""Q0"":""luke and mike are playing around""}","<img src=""stim_listA/dance5.gif""style=""height:400px;""></stim_listA>",is dancing with,
null,"<div style=""font-size:60px;"">+</div>",,html-keyboard-response,46,378045,0.0-13.0-0.4,11621,List2A,white,woman,,,,null,,,,
null,"<img src=""stim_listA/touch1.gif""style=""height:400px;""></stim_listA>",,html-keyboard-response,47,380047,0.0-13.0-1.4,11621,List2A,white,woman,,,,null,,,,
null,is touching,,html-keyboard-response,48,382050,0.0-13.0-2.4,11621,List2A,white,woman,,,,null,,,,
15404,,,survey-text,49,397455,0.0-13.0-3.4,11621,List2A,white,woman,,,,,"{""Q0"":""dave and jane are touching""}","<img src=""stim_listA/touch1.gif""style=""height:400px;""></stim_listA>",is touching,
null,"<div style=""font-size:60px;"">+</div>",,html-keyboard-response,50,397957,0.0-13.0-0.5,11621,List2A,white,woman,,,,null,,,,
null,"<img src=""stim_listA/shout7.gif""style=""height:400px;""></stim_listA>",,html-keyboard-response,51,399960,0.0-13.0-1.5,11621,List2A,white,woman,,,,null,,,,
null,is shouting at,,html-keyboard-response,52,401962,0.0-13.0-2.5,11621,List2A,white,woman,,,,null,,,,
27757,,,survey-text,53,429720,0.0-13.0-3.5,11621,List2A,white,woman,,,,,"{""Q0"":""luke and beth are touching""}","<img src=""stim_listA/shout7.gif""style=""height:400px;""></stim_listA>",is shouting at,
null,"<div style=""font-size:60px;"">+</div>",,html-keyboard-response,54,430222,0.0-13.0-0.6,11621,List2A,white,woman,,,,null,,,,
null,"<img src=""stim_listA/talk8.gif""style=""height:400px;""></stim_listA>",,html-keyboard-response,55,432225,0.0-13.0-1.6,11621,List2A,white,woman,,,,null,,,,
null,are talking to each other,,html-keyboard-response,56,434227,0.0-13.0-2.6,11621,List2A,white,woman,,,,null,,,,
16079,,,survey-text,57,450308,0.0-13.0-3.6,11621,List2A,white,woman,,,,,"{""Q0"":""kate and jane are talking to each other""}","<img src=""stim_listA/talk8.gif""style=""height:400px;""></stim_listA>",are talking to each other,
null,"<div style=""font-size:60px;"">+</div>",,html-keyboard-response,58,450810,0.0-13.0-0.7,11621,List2A,white,woman,,,,null,,,,
null,"<img src=""stim_listA/touch8.gif""style=""height:400px;""></stim_listA>",,html-keyboard-response,59,452813,0.0-13.0-1.7,11621,List2A,white,woman,,,,null,,,,
null,are touching each other,,html-keyboard-response,60,454815,0.0-13.0-2.7,11621,List2A,white,woman,,,,null,,,,
16034,,,survey-text,61,470850,0.0-13.0-3.7,11621,List2A,white,woman,,,,,"{""Q0"":""beth and ruth are touching each other""}","<img src=""stim_listA/touch8.gif""style=""height:400px;""></stim_listA>",are touching each other,
null,"<div style=""font-size:60px;"">+</div>",,html-keyboard-response,62,471353,0.0-13.0-0.8,11621,List2A,white,woman,,,,null,,,,
null,"<img src=""stim_listA/marry5.gif""style=""height:400px;""></stim_listA>",,html-keyboard-response,63,473355,0.0-13.0-1.8,11621,List2A,white,woman,,,,null,,,,
null,is marrying,,html-keyboard-response,64,475358,0.0-13.0-2.8,11621,List2A,white,woman,,,,null,,,,
19487,,,survey-text,65,494846,0.0-13.0-3.8,11621,List2A,white,woman,,,,,"{""Q0"":""dave and fred are marrying""}","<img src=""stim_listA/marry5.gif""style=""height:400px;""></stim_listA>",is marrying,
null,"<div style=""font-size:60px;"">+</div>",,html-keyboard-response,66,495349,0.0-13.0-0.9,11621,List2A,white,woman,,,,null,,,,
null,"<img src=""stim_listA/marry1.gif""style=""height:400px;""></stim_listA>",,html-keyboard-response,67,497351,0.0-13.0-1.9,11621,List2A,white,woman,,,,null,,,,
null,is marrying,,html-keyboard-response,68,499353,0.0-13.0-2.9,11621,List2A,white,woman,,,,null,,,,
13132,,,survey-text,69,512486,0.0-13.0-3.9,11621,List2A,white,woman,,,,,"{""Q0"":""dave and ruth are marrying""}","<img src=""stim_listA/marry1.gif""style=""height:400px;""></stim_listA>",is marrying,
null,"<div style=""font-size:60px;"">+</div>",,html-keyboard-response,70,512989,0.0-13.0-0.10,11621,List2A,white,woman,,,,null,,,,
null,"<img src=""stim_listA/marry3.gif""style=""height:400px;""></stim_listA>",,html-keyboard-response,71,514992,0.0-13.0-1.10,11621,List2A,white,woman,,,,null,,,,
null,is marrying,,html-keyboard-response,72,516994,0.0-13.0-2.10,11621,List2A,white,woman,,,,null,,,,
12929,,,survey-text,73,529924,0.0-13.0-3.10,11621,List2A,white,woman,,,,,"{""Q0"":""mike and beth is marrying""}","<img src=""stim_listA/marry3.gif""style=""height:400px;""></stim_listA>",is marrying,
null,"<div style=""font-size:60px;"">+</div>",,html-keyboard-response,74,530427,0.0-13.0-0.11,11621,List2A,white,woman,,,,null,,,,
null,"<img src=""stim_listA/talk3.gif""style=""height:400px;""></stim_listA>",,html-keyboard-response,75,532430,0.0-13.0-1.11,11621,List2A,white,woman,,,,null,,,,
null,is talking to,,html-keyboard-response,76,534432,0.0-13.0-2.11,11621,List2A,white,woman,,,,null,,,,
15156,,,survey-text,77,549589,0.0-13.0-3.11,11621,List2A,white,woman,,,,,"{""Q0"":""kate and fred is talking to""}","<img src=""stim_listA/talk3.gif""style=""height:400px;""></stim_listA>",is talking to,
null,"<div style=""font-size:60px;"">+</div>",,html-keyboard-response,78,550091,0.0-13.0-0.12,11621,List2A,white,woman,,,,null,,,,
null,"<img src=""stim_listA/dance2.gif""style=""height:400px;""></stim_listA>",,html-keyboard-response,79,552094,0.0-13.0-1.12,11621,List2A,white,woman,,,,null,,,,
null,are dancing with each other,,html-keyboard-response,80,554096,0.0-13.0-2.12,11621,List2A,white,woman,,,,null,,,,
13604,,,survey-text,81,567701,0.0-13.0-3.12,11621,List2A,white,woman,,,,,"{""Q0"":""ruth and dave is dancing with each other""}","<img src=""stim_listA/dance2.gif""style=""height:400px;""></stim_listA>",are dancing with each other,
null,"<div style=""font-size:60px;"">+</div>",,html-keyboard-response,82,568204,0.0-13.0-0.13,11621,List2A,white,woman,,,,null,,,,
null,"<img src=""stim_listA/kiss1.gif""style=""height:400px;""></stim_listA>",,html-keyboard-response,83,570207,0.0-13.0-1.13,11621,List2A,white,woman,,,,null,,,,
null,is kissing,,html-keyboard-response,84,572209,0.0-13.0-2.13,11621,List2A,white,woman,,,,null,,,,
10465,,,survey-text,85,582676,0.0-13.0-3.13,11621,List2A,white,woman,,,,,"{""Q0"":""luke and ruth is kissing""}","<img src=""stim_listA/kiss1.gif""style=""height:400px;""></stim_listA>",is kissing,
null,"<div style=""font-size:60px;"">+</div>",,html-keyboard-response,86,583178,0.0-13.0-0.14,11621,List2A,white,woman,,,,null,,,,
null,"<img src=""stim_listA/dance3.gif""style=""height:400px;""></stim_listA>",,html-keyboard-response,87,585181,0.0-13.0-1.14,11621,List2A,white,woman,,,,null,,,,
null,is dancing with,,html-keyboard-response,88,587183,0.0-13.0-2.14,11621,List2A,white,woman,,,,null,,,,
14088,,,survey-text,89,601272,0.0-13.0-3.14,11621,List2A,white,woman,,,,,"{""Q0"":""fred and beth is dancing ""}","<img src=""stim_listA/dance3.gif""style=""height:400px;""></stim_listA>",is dancing with,
null,"<div style=""font-size:60px;"">+</div>",,html-keyboard-response,90,601774,0.0-13.0-0.15,11621,List2A,white,woman,,,,null,,,,
null,"<img src=""stim_listA/flirt7.gif""style=""height:400px;""></stim_listA>",,html-keyboard-response,91,603777,0.0-13.0-1.15,11621,List2A,white,woman,,,,null,,,,
null,is flirting with,,html-keyboard-response,92,605780,0.0-13.0-2.15,11621,List2A,white,woman,,,,null,,,,
13458,,,survey-text,93,619238,0.0-13.0-3.15,11621,List2A,white,woman,,,,,"{""Q0"":""ruth and beth is flirting with""}","<img src=""stim_listA/flirt7.gif""style=""height:400px;""></stim_listA>",is flirting with,
null,"<div style=""font-size:60px;"">+</div>",,html-keyboard-response,94,619741,0.0-13.0-0.16,11621,List2A,white,woman,,,,null,,,,
null,"<img src=""stim_listA/argue3.gif""style=""height:400px;""></stim_listA>",,html-keyboard-response,95,621743,0.0-13.0-1.16,11621,List2A,white,woman,,,,null,,,,
null,is arguing with,,html-keyboard-response,96,623746,0.0-13.0-2.16,11621,List2A,white,woman,,,,null,,,,
14358,,,survey-text,97,638104,0.0-13.0-3.16,11621,List2A,white,woman,,,,,"{""Q0"":""beth and fred are arguing with""}","<img src=""stim_listA/argue3.gif""style=""height:400px;""></stim_listA>",is arguing with,
null,"<div style=""font-size:60px;"">+</div>",,html-keyboard-response,98,638607,0.0-13.0-0.17,11621,List2A,white,woman,,,,null,,,,
null,"<img src=""stim_listA/argue6.gif""style=""height:400px;""></stim_listA>",,html-keyboard-response,99,640610,0.0-13.0-1.17,11621,List2A,white,woman,,,,null,,,,
null,are arguing with each other,,html-keyboard-response,100,642612,0.0-13.0-2.17,11621,List2A,white,woman,,,,null,,,,
19330,,,survey-text,101,661943,0.0-13.0-3.17,11621,List2A,white,woman,,,,,"{""Q0"":""luke and mike are arguing with each other""}","<img src=""stim_listA/argue6.gif""style=""height:400px;""></stim_listA>",are arguing with each other,
null,"<div style=""font-size:60px;"">+</div>",,html-keyboard-response,102,662446,0.0-13.0-0.18,11621,List2A,white,woman,,,,null,,,,
null,"<img src=""stim_listA/touch4.gif""style=""height:400px;""></stim_listA>",,html-keyboard-response,103,664448,0.0-13.0-1.18,11621,List2A,white,woman,,,,null,,,,
null,are touching each other,,html-keyboard-response,104,666451,0.0-13.0-2.18,11621,List2A,white,woman,,,,null,,,,
13616,,,survey-text,105,680067,0.0-13.0-3.18,11621,List2A,white,woman,,,,,"{""Q0"":""beth and fred are touching each other""}","<img src=""stim_listA/touch4.gif""style=""height:400px;""></stim_listA>",are touching each other,
null,"<div style=""font-size:60px;"">+</div>",,html-keyboard-response,106,680570,0.0-13.0-0.19,11621,List2A,white,woman,,,,null,,,,
null,"<img src=""stim_listA/fight8.gif""style=""height:400px;""></stim_listA>",,html-keyboard-response,107,682573,0.0-13.0-1.19,11621,List2A,white,woman,,,,null,,,,
null,are fighting each other,,html-keyboard-response,108,684575,0.0-13.0-2.19,11621,List2A,white,woman,,,,null,,,,
13491,,,survey-text,109,698067,0.0-13.0-3.19,11621,List2A,white,woman,,,,,"{""Q0"":""ruth and beth are fighting each other""}","<img src=""stim_listA/fight8.gif""style=""height:400px;""></stim_listA>",are fighting each other,
10169,"<img src='img/portrait_matrix_list2.jpg' style='width:900px;height:500px;''></img><p>If you have memorised all the portraits and names and are ready to start, press Continue.</p><p><strong>Please note: Your memory of these faces will be tested 4 times during this experiment.</strong></p>",0,html-button-response,110,708238,0.0-14.0-0.0,11621,List2A,white,woman,,,,,,,,
6255,"<img src=""portrait/BM1.jpg""style=""height:400px;""></img>",4,html-button-response,111,715495,0.0-14.0-1.0,11621,List2A,white,woman,,TRUE,4,,,,,
null,CORRECT,,html-keyboard-response,112,716998,0.0-14.0-2.0-0.0,11621,List2A,white,woman,,,,null,,,,
3275,"<img src=""portrait/BM2.jpg""style=""height:400px;""></img>",5,html-button-response,113,720275,0.0-14.0-4.0,11621,List2A,white,woman,,TRUE,5,,,,,
null,CORRECT,,html-keyboard-response,114,721779,0.0-14.0-5.0-0.0,11621,List2A,white,woman,,,,null,,,,
3714,"<img src=""portrait/BW2.jpg""style=""height:400px;""></img>",2,html-button-response,115,725495,0.0-14.0-7.0,11621,List2A,white,woman,,TRUE,2,,,,,
null,CORRECT,,html-keyboard-response,116,726998,0.0-14.0-8.0-0.0,11621,List2A,white,woman,,,,null,,,,
4414,"<img src=""portrait/WM2.jpg""style=""height:400px;""></img>",7,html-button-response,117,731413,0.0-14.0-10.0,11621,List2A,white,woman,,TRUE,7,,,,,
null,CORRECT,,html-keyboard-response,118,732917,0.0-14.0-11.0-0.0,11621,List2A,white,woman,,,,null,,,,
4412,"<img src=""portrait/BW1.jpg""style=""height:400px;""></img>",0,html-button-response,119,737331,0.0-14.0-13.0,11621,List2A,white,woman,,TRUE,0,,,,,
null,CORRECT,,html-keyboard-response,120,738834,0.0-14.0-14.0-0.0,11621,List2A,white,woman,,,,null,,,,
5594,"<img src=""portrait/WW1.jpg""style=""height:400px;""></img>",1,html-button-response,121,744429,0.0-14.0-16.0,11621,List2A,white,woman,,TRUE,1,,,,,
null,CORRECT,,html-keyboard-response,122,745932,0.0-14.0-17.0-0.0,11621,List2A,white,woman,,,,null,,,,
5841,"<img src=""portrait/WM1.jpg""style=""height:400px;""></img>",6,html-button-response,123,751775,0.0-14.0-19.0,11621,List2A,white,woman,,TRUE,6,,,,,
null,CORRECT,,html-keyboard-response,124,753279,0.0-14.0-20.0-0.0,11621,List2A,white,woman,,,,null,,,,
4413,"<img src=""portrait/WW2.jpg""style=""height:400px;""></img>",3,html-button-response,125,757693,0.0-14.0-22.0,11621,List2A,white,woman,,TRUE,3,,,,,
null,CORRECT,,html-keyboard-response,126,759196,0.0-14.0-23.0-0.0,11621,List2A,white,woman,,,,null,,,,
2241,<p>You got 8 out of 8 right first time. Press Continue.</p>,0,html-button-response,127,761439,0.0-14.0-25.0,11621,List2A,white,woman,,,,,,,,
null,"<div style=""font-size:60px;"">+</div>",,html-keyboard-response,128,762943,0.0-15.0-0.0,11621,List2A,white,woman,,,,null,,,,
null,"<img src=""stim_listA/flirt2.gif""style=""height:400px;""></stim_listA>",,html-keyboard-response,129,764946,0.0-15.0-1.0,11621,List2A,white,woman,,,,null,,,,
null,are flirting with each other,,html-keyboard-response,130,766948,0.0-15.0-2.0,11621,List2A,white,woman,,,,null,,,,
18137,,,survey-text,131,785087,0.0-15.0-3.0,11621,List2A,white,woman,,,,,"{""Q0"":""fred and jane are flirting with each other""}","<img src=""stim_listA/flirt2.gif""style=""height:400px;""></stim_listA>",are flirting with each other,
null,"<div style=""font-size:60px;"">+</div>",,html-keyboard-response,132,785589,0.0-15.0-0.1,11621,List2A,white,woman,,,,null,,,,
null,"<img src=""stim_listA/flirt1.gif""style=""height:400px;""></stim_listA>",,html-keyboard-response,133,787592,0.0-15.0-1.1,11621,List2A,white,woman,,,,null,,,,
null,is flirting with,,html-keyboard-response,134,789594,0.0-15.0-2.1,11621,List2A,white,woman,,,,null,,,,
11421,,,survey-text,135,801016,0.0-15.0-3.1,11621,List2A,white,woman,,,,,"{""Q0"":""luke and jane are flirting with""}","<img src=""stim_listA/flirt1.gif""style=""height:400px;""></stim_listA>",is flirting with,
null,"<div style=""font-size:60px;"">+</div>",,html-keyboard-response,136,801519,0.0-15.0-0.2,11621,List2A,white,woman,,,,null,,,,
null,"<img src=""stim_listA/argue8.gif""style=""height:400px;""></stim_listA>",,html-keyboard-response,137,803521,0.0-15.0-1.2,11621,List2A,white,woman,,,,null,,,,
null,are arguing with each other,,html-keyboard-response,138,805523,0.0-15.0-2.2,11621,List2A,white,woman,,,,null,,,,
12469,,,survey-text,139,817993,0.0-15.0-3.2,11621,List2A,white,woman,,,,,"{""Q0"":""beth and ruth are arguing with""}","<img src=""stim_listA/argue8.gif""style=""height:400px;""></stim_listA>",are arguing with each other,
null,"<div style=""font-size:60px;"">+</div>",,html-keyboard-response,140,818496,0.0-15.0-0.3,11621,List2A,white,woman,,,,null,,,,
null,"<img src=""stim_listA/marry4.gif""style=""height:400px;""></stim_listA>",,html-keyboard-response,141,820498,0.0-15.0-1.3,11621,List2A,white,woman,,,,null,,,,
null,are marrying each other,,html-keyboard-response,142,822501,0.0-15.0-2.3,11621,List2A,white,woman,,,,null,,,,
19972,,,survey-text,143,842473,0.0-15.0-3.3,11621,List2A,white,woman,,,,,"{""Q0"":""marrying kate and fred""}","<img src=""stim_listA/marry4.gif""style=""height:400px;""></stim_listA>",are marrying each other,
null,"<div style=""font-size:60px;"">+</div>",,html-keyboard-response,144,842976,0.0-15.0-0.4,11621,List2A,white,woman,,,,null,,,,
null,"<img src=""stim_listA/shout3.gif""style=""height:400px;""></stim_listA>",,html-keyboard-response,145,844979,0.0-15.0-1.4,11621,List2A,white,woman,,,,null,,,,
null,is shouting at,,html-keyboard-response,146,846981,0.0-15.0-2.4,11621,List2A,white,woman,,,,null,,,,
12164,,,survey-text,147,859146,0.0-15.0-3.4,11621,List2A,white,woman,,,,,"{""Q0"":""fred and beth is shouting at""}","<img src=""stim_listA/shout3.gif""style=""height:400px;""></stim_listA>",is shouting at,
null,"<div style=""font-size:60px;"">+</div>",,html-keyboard-response,148,859648,0.0-15.0-0.5,11621,List2A,white,woman,,,,null,,,,
null,"<img src=""stim_listA/play7.gif""style=""height:400px;""></stim_listA>",,html-keyboard-response,149,861650,0.0-15.0-1.5,11621,List2A,white,woman,,,,null,,,,
null,is playing with,,html-keyboard-response,150,863653,0.0-15.0-2.5,11621,List2A,white,woman,,,,null,,,,
13099,,,survey-text,151,876753,0.0-15.0-3.5,11621,List2A,white,woman,,,,,"{""Q0"":""jane and kate is playing with""}","<img src=""stim_listA/play7.gif""style=""height:400px;""></stim_listA>",is playing with,
null,"<div style=""font-size:60px;"">+</div>",,html-keyboard-response,152,877255,0.0-15.0-0.6,11621,List2A,white,woman,,,,null,,,,
null,"<img src=""stim_listA/touch7.gif""style=""height:400px;""></stim_listA>",,html-keyboard-response,153,879258,0.0-15.0-1.6,11621,List2A,white,woman,,,,null,,,,
null,is touching,,html-keyboard-response,154,881260,0.0-15.0-2.6,11621,List2A,white,woman,,,,null,,,,
12096,,,survey-text,155,893358,0.0-15.0-3.6,11621,List2A,white,woman,,,,,"{""Q0"":""jane and kale is touching""}","<img src=""stim_listA/touch7.gif""style=""height:400px;""></stim_listA>",is touching,
null,"<div style=""font-size:60px;"">+</div>",,html-keyboard-response,156,893860,0.0-15.0-0.7,11621,List2A,white,woman,,,,null,,,,
null,"<img src=""stim_listA/fight4.gif""style=""height:400px;""></stim_listA>",,html-keyboard-response,157,895862,0.0-15.0-1.7,11621,List2A,white,woman,,,,null,,,,
null,are fighting each other,,html-keyboard-response,158,897865,0.0-15.0-2.7,11621,List2A,white,woman,,,,null,,,,
11738,,,survey-text,159,909603,0.0-15.0-3.7,11621,List2A,white,woman,,,,,"{""Q0"":""fred and beth are fighting each other""}","<img src=""stim_listA/fight4.gif""style=""height:400px;""></stim_listA>",are fighting each other,
null,"<div style=""font-size:60px;"">+</div>",,html-keyboard-response,160,910105,0.0-15.0-0.8,11621,List2A,white,woman,,,,null,,,,
null,"<img src=""stim_listA/play4.gif""style=""height:400px;""></stim_listA>",,html-keyboard-response,161,912108,0.0-15.0-1.8,11621,List2A,white,woman,,,,null,,,,
null,are playing with each other,,html-keyboard-response,162,914111,0.0-15.0-2.8,11621,List2A,white,woman,,,,null,,,,
15292,,,survey-text,163,929403,0.0-15.0-3.8,11621,List2A,white,woman,,,,,"{""Q0"":""beth  and fred is playing with each other""}","<img src=""stim_listA/play4.gif""style=""height:400px;""></stim_listA>",are playing with each other,
null,"<div style=""font-size:60px;"">+</div>",,html-keyboard-response,164,929906,0.0-15.0-0.9,11621,List2A,white,woman,,,,null,,,,
null,"<img src=""stim_listA/fight7.gif""style=""height:400px;""></stim_listA>",,html-keyboard-response,165,931908,0.0-15.0-1.9,11621,List2A,white,woman,,,,null,,,,
null,is fighting,,html-keyboard-response,166,933910,0.0-15.0-2.9,11621,List2A,white,woman,,,,null,,,,
9981,,,survey-text,167,943892,0.0-15.0-3.9,11621,List2A,white,woman,,,,,"{""Q0"":""jane and kate is fighting""}","<img src=""stim_listA/fight7.gif""style=""height:400px;""></stim_listA>",is fighting,
null,"<div style=""font-size:60px;"">+</div>",,html-keyboard-response,168,944395,0.0-15.0-0.10,11621,List2A,white,woman,,,,null,,,,
null,"<img src=""stim_listA/dance8.gif""style=""height:400px;""></stim_listA>",,html-keyboard-response,169,946397,0.0-15.0-1.10,11621,List2A,white,woman,,,,null,,,,
null,are dancing with each other,,html-keyboard-response,170,948400,0.0-15.0-2.10,11621,List2A,white,woman,,,,null,,,,
14584,,,survey-text,171,962984,0.0-15.0-3.10,11621,List2A,white,woman,,,,,"{""Q0"":""beth and jane is dancing with each other""}","<img src=""stim_listA/dance8.gif""style=""height:400px;""></stim_listA>",are dancing with each other,
null,"<div style=""font-size:60px;"">+</div>",,html-keyboard-response,172,963487,0.0-15.0-0.11,11621,List2A,white,woman,,,,null,,,,
null,"<img src=""stim_listA/dance4.gif""style=""height:400px;""></stim_listA>",,html-keyboard-response,173,965489,0.0-15.0-1.11,11621,List2A,white,woman,,,,null,,,,
null,are dancing with each other,,html-keyboard-response,174,967492,0.0-15.0-2.11,11621,List2A,white,woman,,,,null,,,,
15810,,,survey-text,175,983303,0.0-15.0-3.11,11621,List2A,white,woman,,,,,"{""Q0"":""luke and beth is dancing with each other""}","<img src=""stim_listA/dance4.gif""style=""height:400px;""></stim_listA>",are dancing with each other,
null,"<div style=""font-size:60px;"">+</div>",,html-keyboard-response,176,983806,0.0-15.0-0.12,11621,List2A,white,woman,,,,null,,,,
null,"<img src=""stim_listA/marry8.gif""style=""height:400px;""></stim_listA>",,html-keyboard-response,177,985809,0.0-15.0-1.12,11621,List2A,white,woman,,,,null,,,,
null,are marrying each other,,html-keyboard-response,178,987811,0.0-15.0-2.12,11621,List2A,white,woman,,,,null,,,,
10599,,,survey-text,179,998411,0.0-15.0-3.12,11621,List2A,white,woman,,,,,"{""Q0"":""kate and ruth is marrying""}","<img src=""stim_listA/marry8.gif""style=""height:400px;""></stim_listA>",are marrying each other,
null,"<div style=""font-size:60px;"">+</div>",,html-keyboard-response,180,998913,0.0-15.0-0.13,11621,List2A,white,woman,,,,null,,,,
null,"<img src=""stim_listA/talk7.gif""style=""height:400px;""></stim_listA>",,html-keyboard-response,181,1000916,0.0-15.0-1.13,11621,List2A,white,woman,,,,null,,,,
null,is talking to,,html-keyboard-response,182,1002919,0.0-15.0-2.13,11621,List2A,white,woman,,,,null,,,,
11015,,,survey-text,183,1013936,0.0-15.0-3.13,11621,List2A,white,woman,,,,,"{""Q0"":""kate and ruth is talking""}","<img src=""stim_listA/talk7.gif""style=""height:400px;""></stim_listA>",is talking to,
null,"<div style=""font-size:60px;"">+</div>",,html-keyboard-response,184,1014439,0.0-15.0-0.14,11621,List2A,white,woman,,,,null,,,,
null,"<img src=""stim_listA/kiss8.gif""style=""height:400px;""></stim_listA>",,html-keyboard-response,185,1016441,0.0-15.0-1.14,11621,List2A,white,woman,,,,null,,,,
null,are kissing each other,,html-keyboard-response,186,1018444,0.0-15.0-2.14,11621,List2A,white,woman,,,,null,,,,
8350,,,survey-text,187,1026795,0.0-15.0-3.14,11621,List2A,white,woman,,,,,"{""Q0"":""kate and jane is kissing""}","<img src=""stim_listA/kiss8.gif""style=""height:400px;""></stim_listA>",are kissing each other,
null,"<div style=""font-size:60px;"">+</div>",,html-keyboard-response,188,1027297,0.0-15.0-0.15,11621,List2A,white,woman,,,,null,,,,
null,"<img src=""stim_listA/play5.gif""style=""height:400px;""></stim_listA>",,html-keyboard-response,189,1029300,0.0-15.0-1.15,11621,List2A,white,woman,,,,null,,,,
null,is playing with,,html-keyboard-response,190,1031302,0.0-15.0-2.15,11621,List2A,white,woman,,,,null,,,,
11388,,,survey-text,191,1042691,0.0-15.0-3.15,11621,List2A,white,woman,,,,,"{""Q0"":""dave and mike is playing""}","<img src=""stim_listA/play5.gif""style=""height:400px;""></stim_listA>",is playing with,
null,"<div style=""font-size:60px;"">+</div>",,html-keyboard-response,192,1043193,0.0-15.0-0.16,11621,List2A,white,woman,,,,null,,,,
null,"<img src=""stim_listA/fight6.gif""style=""height:400px;""></stim_listA>",,html-keyboard-response,193,1045196,0.0-15.0-1.16,11621,List2A,white,woman,,,,null,,,,
null,are fighting each other,,html-keyboard-response,194,1047199,0.0-15.0-2.16,11621,List2A,white,woman,,,,null,,,,
17913,,,survey-text,195,1065112,0.0-15.0-3.16,11621,List2A,white,woman,,,,,"{""Q0"":""fred and dave is fighting each other""}","<img src=""stim_listA/fight6.gif""style=""height:400px;""></stim_listA>",are fighting each other,
null,"<div style=""font-size:60px;"">+</div>",,html-keyboard-response,196,1065615,0.0-15.0-0.17,11621,List2A,white,woman,,,,null,,,,
null,"<img src=""stim_listA/fight5.gif""style=""height:400px;""></stim_listA>",,html-keyboard-response,197,1067618,0.0-15.0-1.17,11621,List2A,white,woman,,,,null,,,,
null,is fighting,,html-keyboard-response,198,1069620,0.0-15.0-2.17,11621,List2A,white,woman,,,,null,,,,
11130,,,survey-text,199,1080750,0.0-15.0-3.17,11621,List2A,white,woman,,,,,"{""Q0"":""luke and dave is fighting""}","<img src=""stim_listA/fight5.gif""style=""height:400px;""></stim_listA>",is fighting,
null,"<div style=""font-size:60px;"">+</div>",,html-keyboard-response,200,1081253,0.0-15.0-0.18,11621,List2A,white,woman,,,,null,,,,
null,"<img src=""stim_listA/play8.gif""style=""height:400px;""></stim_listA>",,html-keyboard-response,201,1083255,0.0-15.0-1.18,11621,List2A,white,woman,,,,null,,,,
null,are playing with each other,,html-keyboard-response,202,1085259,0.0-15.0-2.18,11621,List2A,white,woman,,,,null,,,,
13547,,,survey-text,203,1098806,0.0-15.0-3.18,11621,List2A,white,woman,,,,,"{""Q0"":""ruth and beth is playing with each other""}","<img src=""stim_listA/play8.gif""style=""height:400px;""></stim_listA>",are playing with each other,
null,"<div style=""font-size:60px;"">+</div>",,html-keyboard-response,204,1099309,0.0-15.0-0.19,11621,List2A,white,woman,,,,null,,,,
null,"<img src=""stim_listA/play6.gif""style=""height:400px;""></stim_listA>",,html-keyboard-response,205,1101312,0.0-15.0-1.19,11621,List2A,white,woman,,,,null,,,,
null,are playing with each other,,html-keyboard-response,206,1103314,0.0-15.0-2.19,11621,List2A,white,woman,,,,null,,,,
12714,,,survey-text,207,1116030,0.0-15.0-3.19,11621,List2A,white,woman,,,,,"{""Q0"":""luke and fred is playing with each other""}","<img src=""stim_listA/play6.gif""style=""height:400px;""></stim_listA>",are playing with each other,
8897,"<img src='img/portrait_matrix_list2.jpg' style='width:900px;height:500px;''></img><p>If you have memorised all the portraits and names and are ready to start, press Continue.</p><p><strong>Please note: Your memory of these faces will be tested 4 times during this experiment.</strong></p>",0,html-button-response,208,1124931,0.0-16.0-0.0,11621,List2A,white,woman,,,,,,,,
7005,"<img src=""portrait/WM2.jpg""style=""height:400px;""></img>",7,html-button-response,209,1132939,0.0-16.0-1.0,11621,List2A,white,woman,,TRUE,7,,,,,
null,CORRECT,,html-keyboard-response,210,1134443,0.0-16.0-2.0-0.0,11621,List2A,white,woman,,,,null,,,,
6751,"<img src=""portrait/BM1.jpg""style=""height:400px;""></img>",4,html-button-response,211,1141197,0.0-16.0-4.0,11621,List2A,white,woman,,TRUE,4,,,,,
null,CORRECT,,html-keyboard-response,212,1142701,0.0-16.0-5.0-0.0,11621,List2A,white,woman,,,,null,,,,
5683,"<img src=""portrait/WW1.jpg""style=""height:400px;""></img>",1,html-button-response,213,1148386,0.0-16.0-7.0,11621,List2A,white,woman,,TRUE,1,,,,,
null,CORRECT,,html-keyboard-response,214,1149889,0.0-16.0-8.0-0.0,11621,List2A,white,woman,,,,null,,,,
3073,"<img src=""portrait/BM2.jpg""style=""height:400px;""></img>",5,html-button-response,215,1152964,0.0-16.0-10.0,11621,List2A,white,woman,,TRUE,5,,,,,
null,CORRECT,,html-keyboard-response,216,1154469,0.0-16.0-11.0-0.0,11621,List2A,white,woman,,,,null,,,,
3871,"<img src=""portrait/WM1.jpg""style=""height:400px;""></img>",6,html-button-response,217,1158342,0.0-16.0-13.0,11621,List2A,white,woman,,TRUE,6,,,,,
null,CORRECT,,html-keyboard-response,218,1159845,0.0-16.0-14.0-0.0,11621,List2A,white,woman,,,,null,,,,
4109,"<img src=""portrait/BW1.jpg""style=""height:400px;""></img>",0,html-button-response,219,1163956,0.0-16.0-16.0,11621,List2A,white,woman,,TRUE,0,,,,,
null,CORRECT,,html-keyboard-response,220,1165459,0.0-16.0-17.0-0.0,11621,List2A,white,woman,,,,null,,,,
3310,"<img src=""portrait/WW2.jpg""style=""height:400px;""></img>",3,html-button-response,221,1168771,0.0-16.0-19.0,11621,List2A,white,woman,,TRUE,3,,,,,
null,CORRECT,,html-keyboard-response,222,1170274,0.0-16.0-20.0-0.0,11621,List2A,white,woman,,,,null,,,,
3580,"<img src=""portrait/BW2.jpg""style=""height:400px;""></img>",2,html-button-response,223,1173856,0.0-16.0-22.0,11621,List2A,white,woman,,TRUE,2,,,,,
null,CORRECT,,html-keyboard-response,224,1175359,0.0-16.0-23.0-0.0,11621,List2A,white,woman,,,,null,,,,
3343,<p>You got 8 out of 8 right first time. Press Continue.</p>,0,html-button-response,225,1178704,0.0-16.0-25.0,11621,List2A,white,woman,,,,,,,,
null,"<div style=""font-size:60px;"">+</div>",,html-keyboard-response,226,1180208,0.0-17.0-0.0,11621,List2A,white,woman,,,,null,,,,
null,"<img src=""stim_listA/kiss5.gif""style=""height:400px;""></stim_listA>",,html-keyboard-response,227,1182211,0.0-17.0-1.0,11621,List2A,white,woman,,,,null,,,,
null,is kissing,,html-keyboard-response,228,1184213,0.0-17.0-2.0,11621,List2A,white,woman,,,,null,,,,
16462,,,survey-text,229,1200676,0.0-17.0-3.0,11621,List2A,white,woman,,,,,"{""Q0"":""luke  and beth is kissing""}","<img src=""stim_listA/kiss5.gif""style=""height:400px;""></stim_listA>",is kissing,
null,"<div style=""font-size:60px;"">+</div>",,html-keyboard-response,230,1201179,0.0-17.0-0.1,11621,List2A,white,woman,,,,null,,,,
null,"<img src=""stim_listA/flirt5.gif""style=""height:400px;""></stim_listA>",,html-keyboard-response,231,1203181,0.0-17.0-1.1,11621,List2A,white,woman,,,,null,,,,
null,is flirting with,,html-keyboard-response,232,1205184,0.0-17.0-2.1,11621,List2A,white,woman,,,,null,,,,
13286,,,survey-text,233,1218473,0.0-17.0-3.1,11621,List2A,white,woman,,,,,"{""Q0"":""luke and mike is flirting with""}","<img src=""stim_listA/flirt5.gif""style=""height:400px;""></stim_listA>",is flirting with,
null,"<div style=""font-size:60px;"">+</div>",,html-keyboard-response,234,1218976,0.0-17.0-0.2,11621,List2A,white,woman,,,,null,,,,
null,"<img src=""stim_listA/flirt4.gif""style=""height:400px;""></stim_listA>",,html-keyboard-response,235,1220978,0.0-17.0-1.2,11621,List2A,white,woman,,,,null,,,,
null,are flirting with each other,,html-keyboard-response,236,1222981,0.0-17.0-2.2,11621,List2A,white,woman,,,,null,,,,
19286,,,survey-text,237,1242267,0.0-17.0-3.2,11621,List2A,white,woman,,,,,"{""Q0"":""luke and beth is flirting with""}","<img src=""stim_listA/flirt4.gif""style=""height:400px;""></stim_listA>",are flirting with each other,
null,"<div style=""font-size:60px;"">+</div>",,html-keyboard-response,238,1242770,0.0-17.0-0.3,11621,List2A,white,woman,,,,null,,,,
null,"<img src=""stim_listA/fight3.gif""style=""height:400px;""></stim_listA>",,html-keyboard-response,239,1244772,0.0-17.0-1.3,11621,List2A,white,woman,,,,null,,,,
null,is fighting,,html-keyboard-response,240,1246775,0.0-17.0-2.3,11621,List2A,white,woman,,,,null,,,,
17372,,,survey-text,241,1264148,0.0-17.0-3.3,11621,List2A,white,woman,,,,,"{""Q0"":""kate and luke is fighting""}","<img src=""stim_listA/fight3.gif""style=""height:400px;""></stim_listA>",is fighting,
null,"<div style=""font-size:60px;"">+</div>",,html-keyboard-response,242,1264650,0.0-17.0-0.4,11621,List2A,white,woman,,,,null,,,,
null,"<img src=""stim_listA/play2.gif""style=""height:400px;""></stim_listA>",,html-keyboard-response,243,1266653,0.0-17.0-1.4,11621,List2A,white,woman,,,,null,,,,
null,are playing with each other,,html-keyboard-response,244,1268655,0.0-17.0-2.4,11621,List2A,white,woman,,,,null,,,,
21918,,,survey-text,245,1290574,0.0-17.0-3.4,11621,List2A,white,woman,,,,,"{""Q0"":""ruth and luke are playing with each other""}","<img src=""stim_listA/play2.gif""style=""height:400px;""></stim_listA>",are playing with each other,
null,"<div style=""font-size:60px;"">+</div>",,html-keyboard-response,246,1291077,0.0-17.0-0.5,11621,List2A,white,woman,,,,null,,,,
null,"<img src=""stim_listA/talk1.gif""style=""height:400px;""></stim_listA>",,html-keyboard-response,247,1293080,0.0-17.0-1.5,11621,List2A,white,woman,,,,null,,,,
null,is talking to,,html-keyboard-response,248,1295082,0.0-17.0-2.5,11621,List2A,white,woman,,,,null,,,,
11411,,,survey-text,249,1306494,0.0-17.0-3.5,11621,List2A,white,woman,,,,,"{""Q0"":""jane and luke are talking to""}","<img src=""stim_listA/talk1.gif""style=""height:400px;""></stim_listA>",is talking to,
null,"<div style=""font-size:60px;"">+</div>",,html-keyboard-response,250,1306997,0.0-17.0-0.6,11621,List2A,white,woman,,,,null,,,,
null,"<img src=""stim_listA/touch2.gif""style=""height:400px;""></stim_listA>",,html-keyboard-response,251,1309000,0.0-17.0-1.6,11621,List2A,white,woman,,,,null,,,,
null,are touching each other,,html-keyboard-response,252,1311002,0.0-17.0-2.6,11621,List2A,white,woman,,,,null,,,,
13165,,,survey-text,253,1324167,0.0-17.0-3.6,11621,List2A,white,woman,,,,,"{""Q0"":""luke and ruth are touching each other""}","<img src=""stim_listA/touch2.gif""style=""height:400px;""></stim_listA>",are touching each other,
null,"<div style=""font-size:60px;"">+</div>",,html-keyboard-response,254,1324670,0.0-17.0-0.7,11621,List2A,white,woman,,,,null,,,,
null,"<img src=""stim_listA/shout4.gif""style=""height:400px;""></stim_listA>",,html-keyboard-response,255,1326673,0.0-17.0-1.7,11621,List2A,white,woman,,,,null,,,,
null,are shouting at each other,,html-keyboard-response,256,1328675,0.0-17.0-2.7,11621,List2A,white,woman,,,,null,,,,
26046,,,survey-text,257,1354722,0.0-17.0-3.7,11621,List2A,white,woman,,,,,"{""Q0"":""kate and fred are shouting at each other""}","<img src=""stim_listA/shout4.gif""style=""height:400px;""></stim_listA>",are shouting at each other,
null,"<div style=""font-size:60px;"">+</div>",,html-keyboard-response,258,1355225,0.0-17.0-0.8,11621,List2A,white,woman,,,,null,,,,
null,"<img src=""stim_listA/flirt3.gif""style=""height:400px;""></stim_listA>",,html-keyboard-response,259,1357227,0.0-17.0-1.8,11621,List2A,white,woman,,,,null,,,,
null,is flirting with,,html-keyboard-response,260,1359230,0.0-17.0-2.8,11621,List2A,white,woman,,,,null,,,,
20633,,,survey-text,261,1379867,0.0-17.0-3.8,11621,List2A,white,woman,,,,,"{""Q0"":""kate and fred are flirting with""}","<img src=""stim_listA/flirt3.gif""style=""height:400px;""></stim_listA>",is flirting with,
null,"<div style=""font-size:60px;"">+</div>",,html-keyboard-response,262,1380369,0.0-17.0-0.9,11621,List2A,white,woman,,,,null,,,,
null,"<img src=""stim_listA/argue5.gif""style=""height:400px;""></stim_listA>",,html-keyboard-response,263,1382372,0.0-17.0-1.9,11621,List2A,white,woman,,,,null,,,,
null,is arguing with,,html-keyboard-response,264,1384376,0.0-17.0-2.9,11621,List2A,white,woman,,,,null,,,,
13434,,,survey-text,265,1397811,0.0-17.0-3.9,11621,List2A,white,woman,,,,,"{""Q0"":""fred and dave are fighting""}","<img src=""stim_listA/argue5.gif""style=""height:400px;""></stim_listA>",is arguing with,
null,"<div style=""font-size:60px;"">+</div>",,html-keyboard-response,266,1398314,0.0-17.0-0.10,11621,List2A,white,woman,,,,null,,,,
null,"<img src=""stim_listA/kiss6.gif""style=""height:400px;""></stim_listA>",,html-keyboard-response,267,1400316,0.0-17.0-1.10,11621,List2A,white,woman,,,,null,,,,
null,are kissing each other,,html-keyboard-response,268,1402319,0.0-17.0-2.10,11621,List2A,white,woman,,,,null,,,,
12364,,,survey-text,269,1414685,0.0-17.0-3.10,11621,List2A,white,woman,,,,,"{""Q0"":""mike and dave are kissing""}","<img src=""stim_listA/kiss6.gif""style=""height:400px;""></stim_listA>",are kissing each other,
null,"<div style=""font-size:60px;"">+</div>",,html-keyboard-response,270,1415188,0.0-17.0-0.11,11621,List2A,white,woman,,,,null,,,,
null,"<img src=""stim_listA/flirt6.gif""style=""height:400px;""></stim_listA>",,html-keyboard-response,271,1417190,0.0-17.0-1.11,11621,List2A,white,woman,,,,null,,,,
null,are flirting with each other,,html-keyboard-response,272,1419193,0.0-17.0-2.11,11621,List2A,white,woman,,,,null,,,,
11039,,,survey-text,273,1430235,0.0-17.0-3.11,11621,List2A,white,woman,,,,,"{""Q0"":""fred and dave are flirting with each other""}","<img src=""stim_listA/flirt6.gif""style=""height:400px;""></stim_listA>",are flirting with each other,
null,"<div style=""font-size:60px;"">+</div>",,html-keyboard-response,274,1430737,0.0-17.0-0.12,11621,List2A,white,woman,,,,null,,,,
null,"<img src=""stim_listA/talk4.gif""style=""height:400px;""></stim_listA>",,html-keyboard-response,275,1432740,0.0-17.0-1.12,11621,List2A,white,woman,,,,null,,,,
null,are talking to each other,,html-keyboard-response,276,1434743,0.0-17.0-2.12,11621,List2A,white,woman,,,,null,,,,
13411,,,survey-text,277,1448154,0.0-17.0-3.12,11621,List2A,white,woman,,,,,"{""Q0"":""mike and kate are talking to each other""}","<img src=""stim_listA/talk4.gif""style=""height:400px;""></stim_listA>",are talking to each other,
null,"<div style=""font-size:60px;"">+</div>",,html-keyboard-response,278,1448657,0.0-17.0-0.13,11621,List2A,white,woman,,,,null,,,,
null,"<img src=""stim_listA/argue1.gif""style=""height:400px;""></stim_listA>",,html-keyboard-response,279,1450660,0.0-17.0-1.13,11621,List2A,white,woman,,,,null,,,,
null,is arguing with,,html-keyboard-response,280,1452662,0.0-17.0-2.13,11621,List2A,white,woman,,,,null,,,,
11127,,,survey-text,281,1463792,0.0-17.0-3.13,11621,List2A,white,woman,,,,,"{""Q0"":""ruth and dave are arguing with""}","<img src=""stim_listA/argue1.gif""style=""height:400px;""></stim_listA>",is arguing with,
null,"<div style=""font-size:60px;"">+</div>",,html-keyboard-response,282,1464295,0.0-17.0-0.14,11621,List2A,white,woman,,,,null,,,,
null,"<img src=""stim_listA/kiss2.gif""style=""height:400px;""></stim_listA>",,html-keyboard-response,283,1466297,0.0-17.0-1.14,11621,List2A,white,woman,,,,null,,,,
null,are kissing each other,,html-keyboard-response,284,1468299,0.0-17.0-2.14,11621,List2A,white,woman,,,,null,,,,
10061,,,survey-text,285,1478361,0.0-17.0-3.14,11621,List2A,white,woman,,,,,"{""Q0"":""ruth and dave are kissing with""}","<img src=""stim_listA/kiss2.gif""style=""height:400px;""></stim_listA>",are kissing each other,
null,"<div style=""font-size:60px;"">+</div>",,html-keyboard-response,286,1478863,0.0-17.0-0.15,11621,List2A,white,woman,,,,null,,,,
null,"<img src=""stim_listA/touch5.gif""style=""height:400px;""></stim_listA>",,html-keyboard-response,287,1480866,0.0-17.0-1.15,11621,List2A,white,woman,,,,null,,,,
null,is touching,,html-keyboard-response,288,1482869,0.0-17.0-2.15,11621,List2A,white,woman,,,,null,,,,
11587,,,survey-text,289,1494459,0.0-17.0-3.15,11621,List2A,white,woman,,,,,"{""Q0"":""dave and mike is touching""}","<img src=""stim_listA/touch5.gif""style=""height:400px;""></stim_listA>",is touching,
null,"<div style=""font-size:60px;"">+</div>",,html-keyboard-response,290,1494962,0.0-17.0-0.16,11621,List2A,white,woman,,,,null,,,,
null,"<img src=""stim_listA/kiss4.gif""style=""height:400px;""></stim_listA>",,html-keyboard-response,291,1496964,0.0-17.0-1.16,11621,List2A,white,woman,,,,null,,,,
null,are kissing each other,,html-keyboard-response,292,1498966,0.0-17.0-2.16,11621,List2A,white,woman,,,,null,,,,
14739,,,survey-text,293,1513708,0.0-17.0-3.16,11621,List2A,white,woman,,,,,"{""Q0"":""mike and kate is kissing""}","<img src=""stim_listA/kiss4.gif""style=""height:400px;""></stim_listA>",are kissing each other,
null,"<div style=""font-size:60px;"">+</div>",,html-keyboard-response,294,1514211,0.0-17.0-0.17,11621,List2A,white,woman,,,,null,,,,
null,"<img src=""stim_listA/talk2.gif""style=""height:400px;""></stim_listA>",,html-keyboard-response,295,1516214,0.0-17.0-1.17,11621,List2A,white,woman,,,,null,,,,
null,are talking to each other,,html-keyboard-response,296,1518216,0.0-17.0-2.17,11621,List2A,white,woman,,,,null,,,,
12758,,,survey-text,297,1530977,0.0-17.0-3.17,11621,List2A,white,woman,,,,,"{""Q0"":""ruth and dave are talking to""}","<img src=""stim_listA/talk2.gif""style=""height:400px;""></stim_listA>",are talking to each other,
null,"<div style=""font-size:60px;"">+</div>",,html-keyboard-response,298,1531480,0.0-17.0-0.18,11621,List2A,white,woman,,,,null,,,,
null,"<img src=""stim_listA/play3.gif""style=""height:400px;""></stim_listA>",,html-keyboard-response,299,1533483,0.0-17.0-1.18,11621,List2A,white,woman,,,,null,,,,
null,is playing with,,html-keyboard-response,300,1535485,0.0-17.0-2.18,11621,List2A,white,woman,,,,null,,,,
12107,,,survey-text,301,1547593,0.0-17.0-3.18,11621,List2A,white,woman,,,,,"{""Q0"":""kate and mike are playing with""}","<img src=""stim_listA/play3.gif""style=""height:400px;""></stim_listA>",is playing with,
null,"<div style=""font-size:60px;"">+</div>",,html-keyboard-response,302,1548096,0.0-17.0-0.19,11621,List2A,white,woman,,,,null,,,,
null,"<img src=""stim_listA/marry7.gif""style=""height:400px;""></stim_listA>",,html-keyboard-response,303,1550099,0.0-17.0-1.19,11621,List2A,white,woman,,,,null,,,,
null,is marrying,,html-keyboard-response,304,1552103,0.0-17.0-2.19,11621,List2A,white,woman,,,,null,,,,
10981,,,survey-text,305,1563085,0.0-17.0-3.19,11621,List2A,white,woman,,,,,"{""Q0"":""beth and jane are marrying with""}","<img src=""stim_listA/marry7.gif""style=""height:400px;""></stim_listA>",is marrying,
10822,"<img src='img/portrait_matrix_list2.jpg' style='width:900px;height:500px;''></img><p>If you have memorised all the portraits and names and are ready to start, press Continue.</p><p><strong>Please note: Your memory of these faces will be tested 4 times during this experiment.</strong></p>",0,html-button-response,306,1573908,0.0-18.0-0.0,11621,List2A,white,woman,,,,,,,,
5163,"<img src=""portrait/WW1.jpg""style=""height:400px;""></img>",1,html-button-response,307,1580073,0.0-18.0-1.0,11621,List2A,white,woman,,TRUE,1,,,,,
null,CORRECT,,html-keyboard-response,308,1581576,0.0-18.0-2.0-0.0,11621,List2A,white,woman,,,,null,,,,
4671,"<img src=""portrait/BW2.jpg""style=""height:400px;""></img>",2,html-button-response,309,1586249,0.0-18.0-4.0,11621,List2A,white,woman,,TRUE,2,,,,,
null,CORRECT,,html-keyboard-response,310,1587752,0.0-18.0-5.0-0.0,11621,List2A,white,woman,,,,null,,,,
4175,"<img src=""portrait/BW1.jpg""style=""height:400px;""></img>",0,html-button-response,311,1591930,0.0-18.0-7.0,11621,List2A,white,woman,,TRUE,0,,,,,
null,CORRECT,,html-keyboard-response,312,1593434,0.0-18.0-8.0-0.0,11621,List2A,white,woman,,,,null,,,,
2510,"<img src=""portrait/WW2.jpg""style=""height:400px;""></img>",3,html-button-response,313,1595946,0.0-18.0-10.0,11621,List2A,white,woman,,TRUE,3,,,,,
null,CORRECT,,html-keyboard-response,314,1597450,0.0-18.0-11.0-0.0,11621,List2A,white,woman,,,,null,,,,
2545,"<img src=""portrait/BM2.jpg""style=""height:400px;""></img>",5,html-button-response,315,1599997,0.0-18.0-13.0,11621,List2A,white,woman,,TRUE,5,,,,,
null,CORRECT,,html-keyboard-response,316,1601500,0.0-18.0-14.0-0.0,11621,List2A,white,woman,,,,null,,,,
5233,"<img src=""portrait/WM2.jpg""style=""height:400px;""></img>",7,html-button-response,317,1606735,0.0-18.0-16.0,11621,List2A,white,woman,,TRUE,7,,,,,
null,CORRECT,,html-keyboard-response,318,1608240,0.0-18.0-17.0-0.0,11621,List2A,white,woman,,,,null,,,,
4163,"<img src=""portrait/WM1.jpg""style=""height:400px;""></img>",6,html-button-response,319,1612405,0.0-18.0-19.0,11621,List2A,white,woman,,TRUE,6,,,,,
null,CORRECT,,html-keyboard-response,320,1613909,0.0-18.0-20.0-0.0,11621,List2A,white,woman,,,,null,,,,
2938,"<img src=""portrait/BM1.jpg""style=""height:400px;""></img>",4,html-button-response,321,1616849,0.0-18.0-22.0,11621,List2A,white,woman,,TRUE,4,,,,,
null,CORRECT,,html-keyboard-response,322,1618353,0.0-18.0-23.0-0.0,11621,List2A,white,woman,,,,null,,,,
2531,<p>You got 8 out of 8 right first time. Press Continue.</p>,0,html-button-response,323,1620888,0.0-18.0-25.0,11621,List2A,white,woman,,,,,,,,
null,"<div style=""font-size:60px;"">+</div>",,html-keyboard-response,324,1622392,0.0-19.0-0.0,11621,List2A,white,woman,,,,null,,,,
null,"<img src=""stim_listA/shout5.gif""style=""height:400px;""></stim_listA>",,html-keyboard-response,325,1624394,0.0-19.0-1.0,11621,List2A,white,woman,,,,null,,,,
null,is shouting at,,html-keyboard-response,326,1626396,0.0-19.0-2.0,11621,List2A,white,woman,,,,null,,,,
15405,,,survey-text,327,1641802,0.0-19.0-3.0,11621,List2A,white,woman,,,,,"{""Q0"":""fred and luke is shouting at""}","<img src=""stim_listA/shout5.gif""style=""height:400px;""></stim_listA>",is shouting at,
null,"<div style=""font-size:60px;"">+</div>",,html-keyboard-response,328,1642305,0.0-19.0-0.1,11621,List2A,white,woman,,,,null,,,,
null,"<img src=""stim_listA/touch3.gif""style=""height:400px;""></stim_listA>",,html-keyboard-response,329,1644307,0.0-19.0-1.1,11621,List2A,white,woman,,,,null,,,,
null,is touching,,html-keyboard-response,330,1646310,0.0-19.0-2.1,11621,List2A,white,woman,,,,null,,,,
12185,,,survey-text,331,1658496,0.0-19.0-3.1,11621,List2A,white,woman,,,,,"{""Q0"":""kate and fred is touching""}","<img src=""stim_listA/touch3.gif""style=""height:400px;""></stim_listA>",is touching,
null,"<div style=""font-size:60px;"">+</div>",,html-keyboard-response,332,1658999,0.0-19.0-0.2,11621,List2A,white,woman,,,,null,,,,
null,"<img src=""stim_listA/argue7.gif""style=""height:400px;""></stim_listA>",,html-keyboard-response,333,1661002,0.0-19.0-1.2,11621,List2A,white,woman,,,,null,,,,
null,is arguing with,,html-keyboard-response,334,1663005,0.0-19.0-2.2,11621,List2A,white,woman,,,,null,,,,
10139,,,survey-text,335,1673144,0.0-19.0-3.2,11621,List2A,white,woman,,,,,"{""Q0"":""jane and beth is arguing with""}","<img src=""stim_listA/argue7.gif""style=""height:400px;""></stim_listA>",is arguing with,
null,"<div style=""font-size:60px;"">+</div>",,html-keyboard-response,336,1673647,0.0-19.0-0.3,11621,List2A,white,woman,,,,null,,,,
null,"<img src=""stim_listA/fight1.gif""style=""height:400px;""></stim_listA>",,html-keyboard-response,337,1675650,0.0-19.0-1.3,11621,List2A,white,woman,,,,null,,,,
null,is fighting,,html-keyboard-response,338,1677652,0.0-19.0-2.3,11621,List2A,white,woman,,,,null,,,,
10949,,,survey-text,339,1688602,0.0-19.0-3.3,11621,List2A,white,woman,,,,,"{""Q0"":""jane and dave is fighting with""}","<img src=""stim_listA/fight1.gif""style=""height:400px;""></stim_listA>",is fighting,
null,"<div style=""font-size:60px;"">+</div>",,html-keyboard-response,340,1689104,0.0-19.0-0.4,11621,List2A,white,woman,,,,null,,,,
null,"<img src=""stim_listA/shout8.gif""style=""height:400px;""></stim_listA>",,html-keyboard-response,341,1691107,0.0-19.0-1.4,11621,List2A,white,woman,,,,null,,,,
null,are shouting at each other,,html-keyboard-response,342,1693111,0.0-19.0-2.4,11621,List2A,white,woman,,,,null,,,,
16381,,,survey-text,343,1709493,0.0-19.0-3.4,11621,List2A,white,woman,,,,,"{""Q0"":""jane and kate are shouting at each other""}","<img src=""stim_listA/shout8.gif""style=""height:400px;""></stim_listA>",are shouting at each other,
null,"<div style=""font-size:60px;"">+</div>",,html-keyboard-response,344,1709996,0.0-19.0-0.5,11621,List2A,white,woman,,,,null,,,,
null,"<img src=""stim_listA/touch6.gif""style=""height:400px;""></stim_listA>",,html-keyboard-response,345,1711998,0.0-19.0-1.5,11621,List2A,white,woman,,,,null,,,,
null,are touching each other,,html-keyboard-response,346,1714001,0.0-19.0-2.5,11621,List2A,white,woman,,,,null,,,,
13106,,,survey-text,347,1727111,0.0-19.0-3.5,11621,List2A,white,woman,,,,,"{""Q0"":""luke and fred are touching each other""}","<img src=""stim_listA/touch6.gif""style=""height:400px;""></stim_listA>",are touching each other,
null,"<div style=""font-size:60px;"">+</div>",,html-keyboard-response,348,1727613,0.0-19.0-0.6,11621,List2A,white,woman,,,,null,,,,
null,"<img src=""stim_listA/talk6.gif""style=""height:400px;""></stim_listA>",,html-keyboard-response,349,1729616,0.0-19.0-1.6,11621,List2A,white,woman,,,,null,,,,
null,are talking to each other,,html-keyboard-response,350,1731618,0.0-19.0-2.6,11621,List2A,white,woman,,,,null,,,,
13694,,,survey-text,351,1745316,0.0-19.0-3.6,11621,List2A,white,woman,,,,,"{""Q0"":""dave and fred are talking to each other""}","<img src=""stim_listA/talk6.gif""style=""height:400px;""></stim_listA>",are talking to each other,
null,"<div style=""font-size:60px;"">+</div>",,html-keyboard-response,352,1745818,0.0-19.0-0.7,11621,List2A,white,woman,,,,null,,,,
null,"<img src=""stim_listA/argue4.gif""style=""height:400px;""></stim_listA>",,html-keyboard-response,353,1747821,0.0-19.0-1.7,11621,List2A,white,woman,,,,null,,,,
null,are arguing with each other,,html-keyboard-response,354,1749823,0.0-19.0-2.7,11621,List2A,white,woman,,,,null,,,,
26145,,,survey-text,355,1775969,0.0-19.0-3.7,11621,List2A,white,woman,,,,,"{""Q0"":""fred and kate are arguing with each other""}","<img src=""stim_listA/argue4.gif""style=""height:400px;""></stim_listA>",are arguing with each other,
null,"<div style=""font-size:60px;"">+</div>",,html-keyboard-response,356,1776471,0.0-19.0-0.8,11621,List2A,white,woman,,,,null,,,,
null,"<img src=""stim_listA/kiss3.gif""style=""height:400px;""></stim_listA>",,html-keyboard-response,357,1778474,0.0-19.0-1.8,11621,List2A,white,woman,,,,null,,,,
null,is kissing,,html-keyboard-response,358,1780476,0.0-19.0-2.8,11621,List2A,white,woman,,,,null,,,,
11187,,,survey-text,359,1791664,0.0-19.0-3.8,11621,List2A,white,woman,,,,,"{""Q0"":""beth and fred are kissing""}","<img src=""stim_listA/kiss3.gif""style=""height:400px;""></stim_listA>",is kissing,
null,"<div style=""font-size:60px;"">+</div>",,html-keyboard-response,360,1792169,0.0-19.0-0.9,11621,List2A,white,woman,,,,null,,,,
null,"<img src=""stim_listA/talk5.gif""style=""height:400px;""></stim_listA>",,html-keyboard-response,361,1794171,0.0-19.0-1.9,11621,List2A,white,woman,,,,null,,,,
null,is talking to,,html-keyboard-response,362,1796174,0.0-19.0-2.9,11621,List2A,white,woman,,,,null,,,,
10249,,,survey-text,363,1806423,0.0-19.0-3.9,11621,List2A,white,woman,,,,,"{""Q0"":""luke and mike is talking to""}","<img src=""stim_listA/talk5.gif""style=""height:400px;""></stim_listA>",is talking to,
null,"<div style=""font-size:60px;"">+</div>",,html-keyboard-response,364,1806926,0.0-19.0-0.10,11621,List2A,white,woman,,,,null,,,,
null,"<img src=""stim_listA/marry6.gif""style=""height:400px;""></stim_listA>",,html-keyboard-response,365,1808929,0.0-19.0-1.10,11621,List2A,white,woman,,,,null,,,,
null,are marrying each other,,html-keyboard-response,366,1810931,0.0-19.0-2.10,11621,List2A,white,woman,,,,null,,,,
9858,,,survey-text,367,1820790,0.0-19.0-3.10,11621,List2A,white,woman,,,,,"{""Q0"":""luke and mike are marrying each other""}","<img src=""stim_listA/marry6.gif""style=""height:400px;""></stim_listA>",are marrying each other,
null,"<div style=""font-size:60px;"">+</div>",,html-keyboard-response,368,1821293,0.0-19.0-0.11,11621,List2A,white,woman,,,,null,,,,
null,"<img src=""stim_listA/dance1.gif""style=""height:400px;""></stim_listA>",,html-keyboard-response,369,1823295,0.0-19.0-1.11,11621,List2A,white,woman,,,,null,,,,
null,is dancing with,,html-keyboard-response,370,1825299,0.0-19.0-2.11,11621,List2A,white,woman,,,,null,,,,
11128,,,survey-text,371,1836428,0.0-19.0-3.11,11621,List2A,white,woman,,,,,"{""Q0"":""luke and jane are dancing with""}","<img src=""stim_listA/dance1.gif""style=""height:400px;""></stim_listA>",is dancing with,
null,"<div style=""font-size:60px;"">+</div>",,html-keyboard-response,372,1836931,0.0-19.0-0.12,11621,List2A,white,woman,,,,null,,,,
null,"<img src=""stim_listA/dance7.gif""style=""height:400px;""></stim_listA>",,html-keyboard-response,373,1838934,0.0-19.0-1.12,11621,List2A,white,woman,,,,null,,,,
null,is dancing with,,html-keyboard-response,374,1840936,0.0-19.0-2.12,11621,List2A,white,woman,,,,null,,,,
11735,,,survey-text,375,1852672,0.0-19.0-3.12,11621,List2A,white,woman,,,,,"{""Q0"":""ruth and kate are dancing with""}","<img src=""stim_listA/dance7.gif""style=""height:400px;""></stim_listA>",is dancing with,
null,"<div style=""font-size:60px;"">+</div>",,html-keyboard-response,376,1853175,0.0-19.0-0.13,11621,List2A,white,woman,,,,null,,,,
null,"<img src=""stim_listA/play1.gif""style=""height:400px;""></stim_listA>",,html-keyboard-response,377,1855178,0.0-19.0-1.13,11621,List2A,white,woman,,,,null,,,,
null,is playing with,,html-keyboard-response,378,1857182,0.0-19.0-2.13,11621,List2A,white,woman,,,,null,,,,
16673,,,survey-text,379,1873856,0.0-19.0-3.13,11621,List2A,white,woman,,,,,"{""Q0"":""dave and kate  are playing with""}","<img src=""stim_listA/play1.gif""style=""height:400px;""></stim_listA>",is playing with,
null,"<div style=""font-size:60px;"">+</div>",,html-keyboard-response,380,1874357,0.0-19.0-0.14,11621,List2A,white,woman,,,,null,,,,
null,"<img src=""stim_listA/kiss7.gif""style=""height:400px;""></stim_listA>",,html-keyboard-response,381,1876360,0.0-19.0-1.14,11621,List2A,white,woman,,,,null,,,,
null,is kissing,,html-keyboard-response,382,1878362,0.0-19.0-2.14,11621,List2A,white,woman,,,,null,,,,
12829,,,survey-text,383,1891193,0.0-19.0-3.14,11621,List2A,white,woman,,,,,"{""Q0"":""beth and ruth are kissing""}","<img src=""stim_listA/kiss7.gif""style=""height:400px;""></stim_listA>",is kissing,
null,"<div style=""font-size:60px;"">+</div>",,html-keyboard-response,384,1891695,0.0-19.0-0.15,11621,List2A,white,woman,,,,null,,,,
null,"<img src=""stim_listA/argue2.gif""style=""height:400px;""></stim_listA>",,html-keyboard-response,385,1893698,0.0-19.0-1.15,11621,List2A,white,woman,,,,null,,,,
null,are arguing with each other,,html-keyboard-response,386,1895701,0.0-19.0-2.15,11621,List2A,white,woman,,,,null,,,,
13008,,,survey-text,387,1908709,0.0-19.0-3.15,11621,List2A,white,woman,,,,,"{""Q0"":""luke and jane are arguing with each other""}","<img src=""stim_listA/argue2.gif""style=""height:400px;""></stim_listA>",are arguing with each other,
null,"<div style=""font-size:60px;"">+</div>",,html-keyboard-response,388,1909211,0.0-19.0-0.16,11621,List2A,white,woman,,,,null,,,,
null,"<img src=""stim_listA/flirt8.gif""style=""height:400px;""></stim_listA>",,html-keyboard-response,389,1911214,0.0-19.0-1.16,11621,List2A,white,woman,,,,null,,,,
null,are flirting with each other,,html-keyboard-response,390,1913216,0.0-19.0-2.16,11621,List2A,white,woman,,,,null,,,,
14504,,,survey-text,391,1927722,0.0-19.0-3.16,11621,List2A,white,woman,,,,,"{""Q0"":""beth and jane are flirting with each other""}","<img src=""stim_listA/flirt8.gif""style=""height:400px;""></stim_listA>",are flirting with each other,
null,"<div style=""font-size:60px;"">+</div>",,html-keyboard-response,392,1928226,0.0-19.0-0.17,11621,List2A,white,woman,,,,null,,,,
null,"<img src=""stim_listA/fight2.gif""style=""height:400px;""></stim_listA>",,html-keyboard-response,393,1930228,0.0-19.0-1.17,11621,List2A,white,woman,,,,null,,,,
null,are fighting each other,,html-keyboard-response,394,1932231,0.0-19.0-2.17,11621,List2A,white,woman,,,,null,,,,
13343,,,survey-text,395,1945575,0.0-19.0-3.17,11621,List2A,white,woman,,,,,"{""Q0"":""luke and ruth are flirting with each other""}","<img src=""stim_listA/fight2.gif""style=""height:400px;""></stim_listA>",are fighting each other,
null,"<div style=""font-size:60px;"">+</div>",,html-keyboard-response,396,1946078,0.0-19.0-0.18,11621,List2A,white,woman,,,,null,,,,
null,"<img src=""stim_listA/dance6.gif""style=""height:400px;""></stim_listA>",,html-keyboard-response,397,1948080,0.0-19.0-1.18,11621,List2A,white,woman,,,,null,,,,
null,are dancing with each other,,html-keyboard-response,398,1950083,0.0-19.0-2.18,11621,List2A,white,woman,,,,null,,,,
12004,,,survey-text,399,1962091,0.0-19.0-3.18,11621,List2A,white,woman,,,,,"{""Q0"":""fred and luke are dancing with each other""}","<img src=""stim_listA/dance6.gif""style=""height:400px;""></stim_listA>",are dancing with each other,
null,"<div style=""font-size:60px;"">+</div>",,html-keyboard-response,400,1962593,0.0-19.0-0.19,11621,List2A,white,woman,,,,null,,,,
null,"<img src=""stim_listA/shout2.gif""style=""height:400px;""></stim_listA>",,html-keyboard-response,401,1964596,0.0-19.0-1.19,11621,List2A,white,woman,,,,null,,,,
null,are shouting at each other,,html-keyboard-response,402,1966599,0.0-19.0-2.19,11621,List2A,white,woman,,,,null,,,,
13930,,,survey-text,403,1980529,0.0-19.0-3.19,11621,List2A,white,woman,,,,,"{""Q0"":""jane and dave are shouting at each other""}","<img src=""stim_listA/shout2.gif""style=""height:400px;""></stim_listA>",are shouting at each other,
3825,<p>Thank you for completing that task.</p><p>The final part of this session is a short questionnaire.</p><p>Press Continue.</p>,0,html-button-response,404,1984356,0.0-20.0,11621,List2A,white,woman,,,,,,,,
32095,,,survey-text,405,2017452,0.0-21.0,11621,List2A,white,woman,,,,,"{""Q0"":""54"",""Q1"":""English"",""Q2"":""English"",""Q3"":""UK"",""Q4"":""White"",""Q5"":""Female""}",,,demographics
11883,,,survey-likert,406,2029339,0.0-22.0,11621,List2A,white,woman,,,,,"{""Q0"":3}",,,likert_ESS
22864,,,survey-likert,407,2052206,0.0-23.0,11621,List2A,white,woman,,,,,"{""Q0"":1}",,,likert_NSSAL_Q1
5476,,,survey-likert,408,2057685,0.0-24.0,11621,List2A,white,woman,,,,,"{""Q0"":1}",,,likert_NSSAL_Q2
9873,,,survey-likert,409,2067563,0.0-25.0,11621,List2A,white,woman,,,,,"{""Q0"":4}",,,likert_CGRS_Q1
9041,,,survey-likert,410,2076607,0.0-26.0,11621,List2A,white,woman,,,,,"{""Q0"":3}",,,likert_CGRS_Q2
6952,,,survey-likert,411,2083563,0.0-27.0,11621,List2A,white,woman,,,,,"{""Q0"":3}",,,likert_CGRS_Q3
6326,,,survey-text,412,2089891,0.0-28.0,11621,List2A,white,woman,,,,,"{""Q0"":""ccc""}",,,worker_id
48032,,,external-html,413,2138142,0.0-29.0,11621,List2A,white,woman,debrief.html,,,,,,,
