rt,stimulus,button_pressed,trial_type,trial_index,time_elapsed,internal_node_id,subject,list,ppt_race,ppt_gender,url,first_guess,correct,key_press,responses,image_type,phrase_type,test_part
15428,Welcome to the experiment. Press Continue to begin.,0,html-button-response,0,15432,0.0-0.0,11680,List1B,white,woman,,,,,,,,
33933,,,external-html,1,50608,0.0-1.0,11680,List1B,white,woman,consent.html,,,,,,,
135198,"<p>On the next page, you will see portraits of 8 people and their names.</p><p>Your first task is to take a few minutes to memorise the names of these people.</p><p>You will have to recall their names during the rest of the experiment, so it is</p><p>essential that you try to memorise these people and their names as best as you can.</p><br><p><strong>You will then be tested on your memory of these names and portraits.</strong></p><br><p>The experiment will start after you have completed this memory test.</p><br><p>Ready?</p>",0,html-button-response,2,185809,0.0-2.0,11680,List1B,white,woman,,,,,,,,
62667,"<img src='img/portrait_matrix_list1.jpg' style='width:900px;height:500px;''></img><p>If you have memorised all the portraits and names and are ready to start, press Continue.</p><p><strong>Please note: Your memory of these faces will be tested 4 times during this experiment.</strong></p>",0,html-button-response,3,249480,0.0-3.0-0.0,11680,List1B,white,woman,,,,,,,,
4652,"<img src=""portrait/WM1.jpg""style=""height:400px;""></img>",6,html-button-response,4,255136,0.0-3.0-1.0,11680,List1B,white,woman,,TRUE,6,,,,,
null,CORRECT,,html-keyboard-response,5,256649,0.0-3.0-2.0-0.0,11680,List1B,white,woman,,,,null,,,,
7657,"<img src=""portrait/WW1.jpg""style=""height:400px;""></img>",1,html-button-response,6,264308,0.0-3.0-4.0,11680,List1B,white,woman,,TRUE,1,,,,,
null,CORRECT,,html-keyboard-response,7,265812,0.0-3.0-5.0-0.0,11680,List1B,white,woman,,,,null,,,,
7656,"<img src=""portrait/BM2.jpg""style=""height:400px;""></img>",5,html-button-response,8,273470,0.0-3.0-7.0,11680,List1B,white,woman,,TRUE,5,,,,,
null,CORRECT,,html-keyboard-response,9,274979,0.0-3.0-8.0-0.0,11680,List1B,white,woman,,,,null,,,,
5669,"<img src=""portrait/BW2.jpg""style=""height:400px;""></img>",2,html-button-response,10,280650,0.0-3.0-10.0,11680,List1B,white,woman,,TRUE,2,,,,,
null,CORRECT,,html-keyboard-response,11,282154,0.0-3.0-11.0-0.0,11680,List1B,white,woman,,,,null,,,,
5200,"<img src=""portrait/BW1.jpg""style=""height:400px;""></img>",0,html-button-response,12,287356,0.0-3.0-13.0,11680,List1B,white,woman,,TRUE,0,,,,,
null,CORRECT,,html-keyboard-response,13,288859,0.0-3.0-14.0-0.0,11680,List1B,white,woman,,,,null,,,,
4924,"<img src=""portrait/WW2.jpg""style=""height:400px;""></img>",3,html-button-response,14,293784,0.0-3.0-16.0,11680,List1B,white,woman,,TRUE,3,,,,,
null,CORRECT,,html-keyboard-response,15,295286,0.0-3.0-17.0-0.0,11680,List1B,white,woman,,,,null,,,,
12763,"<img src=""portrait/BM1.jpg""style=""height:400px;""></img>",4,html-button-response,16,308050,0.0-3.0-19.0,11680,List1B,white,woman,,TRUE,4,,,,,
null,CORRECT,,html-keyboard-response,17,309555,0.0-3.0-20.0-0.0,11680,List1B,white,woman,,,,null,,,,
2510,"<img src=""portrait/WM2.jpg""style=""height:400px;""></img>",7,html-button-response,18,312067,0.0-3.0-22.0,11680,List1B,white,woman,,TRUE,7,,,,,
null,CORRECT,,html-keyboard-response,19,313573,0.0-3.0-23.0-0.0,11680,List1B,white,woman,,,,null,,,,
1270,<p>You got 8 out of 8 right first time. Press Continue.</p>,0,html-button-response,20,314846,0.0-3.0-25.0,11680,List1B,white,woman,,,,,,,,
20935,"<p>In this experiment, you will view photographs of the people from the memory game interacting.</p><p>By using the <strong>exact</strong> phrase given <i>after</i> the photograph appears and recalling the correct names of the people in the photographs, form a sentence describing the interaction. You do not need to capitalise names.</p><p>Type your answer in the space provided. Please complete every sentence before moving onto the next trial.</p><p>You will only have a few seconds to memorise each given photograph and phrase before you can respond, so try your best to focus.</p><p>An example is given below. Press 'Continue' when you are ready.</p><img src='img/speaking_example.jpg' style='width:800px;height:460px;''></img>",0,html-button-response,21,336788,0.0-4.0,11680,List1B,white,woman,,,,,,,,
3464,"<p>Before the experiment starts, you will watch two example trials. Press 'Continue'.</p>",0,html-button-response,22,341258,0.0-5.0,11680,List1B,white,woman,,,,,,,,
null,<img src='img/meet_eg.gif' style='height:400px;''></img>,,html-keyboard-response,23,344261,0.0-6.0,11680,List1B,white,woman,,,,null,,,,
null,<p>is meeting</p>,,html-keyboard-response,24,346262,0.0-7.0,11680,List1B,white,woman,,,,null,,,,
1866,<p><b>Answer:</b> kate is meeting beth</p>,0,html-button-response,25,348130,0.0-8.0,11680,List1B,white,woman,,,,,,,,
null,<img src='img/look_eg.gif' style='height:400px;''></img>,,html-keyboard-response,26,351137,0.0-9.0,11680,List1B,white,woman,,,,null,,,,
null,<p>are looking at each other</p>,,html-keyboard-response,27,353140,0.0-10.0,11680,List1B,white,woman,,,,null,,,,
2181,<p><b>Answer:</b> luke and dave are looking at each other</p>,0,html-button-response,28,355322,0.0-11.0,11680,List1B,white,woman,,,,,,,,
4728,"<p>Ready to start the experiment?</p><br><p><strong>Remember to describe the picture using a full sentence,</strong></p><p><strong>that combines the names of the people with the <i>exact</i> phrase given.</strong></p><p><strong>To receive full payment you must do this correctly.</strong></p><p><strong> You do not need to capitalise names or use punctuation.</strong></p><br><p>Press 'Continue' to begin.</p>",0,html-button-response,29,361052,0.0-12.0,11680,List1B,white,woman,,,,,,,,
null,"<div style=""font-size:60px;"">+</div>",,html-keyboard-response,30,362558,0.0-13.0-0.0,11680,List1B,white,woman,,,,null,,,,
null,"<img src=""stim_listB/touch6.gif""style=""height:400px;""></stim_listB>",,html-keyboard-response,31,364561,0.0-13.0-1.0,11680,List1B,white,woman,,,,null,,,,
null,are touching each other,,html-keyboard-response,32,366562,0.0-13.0-2.0,11680,List1B,white,woman,,,,null,,,,
14995,,,survey-text,33,381559,0.0-13.0-3.0,11680,List1B,white,woman,,,,,"{""Q0"":""fred and luke are touching each other""}","<img src=""stim_listB/touch6.gif""style=""height:400px;""></stim_listB>",are touching each other,
null,"<div style=""font-size:60px;"">+</div>",,html-keyboard-response,34,382067,0.0-13.0-0.1,11680,List1B,white,woman,,,,null,,,,
null,"<img src=""stim_listB/kiss5.gif""style=""height:400px;""></stim_listB>",,html-keyboard-response,35,384071,0.0-13.0-1.1,11680,List1B,white,woman,,,,null,,,,
null,is kissing,,html-keyboard-response,36,386073,0.0-13.0-2.1,11680,List1B,white,woman,,,,null,,,,
11485,,,survey-text,37,397561,0.0-13.0-3.1,11680,List1B,white,woman,,,,,"{""Q0"":""fred is kissing luke""}","<img src=""stim_listB/kiss5.gif""style=""height:400px;""></stim_listB>",is kissing,
null,"<div style=""font-size:60px;"">+</div>",,html-keyboard-response,38,398066,0.0-13.0-0.2,11680,List1B,white,woman,,,,null,,,,
null,"<img src=""stim_listB/flirt1.gif""style=""height:400px;""></stim_listB>",,html-keyboard-response,39,400068,0.0-13.0-1.2,11680,List1B,white,woman,,,,null,,,,
null,is flirting with,,html-keyboard-response,40,402069,0.0-13.0-2.2,11680,List1B,white,woman,,,,null,,,,
8462,,,survey-text,41,410533,0.0-13.0-3.2,11680,List1B,white,woman,,,,,"{""Q0"":""beth is flirting with fred""}","<img src=""stim_listB/flirt1.gif""style=""height:400px;""></stim_listB>",is flirting with,
null,"<div style=""font-size:60px;"">+</div>",,html-keyboard-response,42,411034,0.0-13.0-0.3,11680,List1B,white,woman,,,,null,,,,
null,"<img src=""stim_listB/touch7.gif""style=""height:400px;""></stim_listB>",,html-keyboard-response,43,413036,0.0-13.0-1.3,11680,List1B,white,woman,,,,null,,,,
null,is touching,,html-keyboard-response,44,415037,0.0-13.0-2.3,11680,List1B,white,woman,,,,null,,,,
12116,,,survey-text,45,427155,0.0-13.0-3.3,11680,List1B,white,woman,,,,,"{""Q0"":""kate is touching jane""}","<img src=""stim_listB/touch7.gif""style=""height:400px;""></stim_listB>",is touching,
null,"<div style=""font-size:60px;"">+</div>",,html-keyboard-response,46,427658,0.0-13.0-0.4,11680,List1B,white,woman,,,,null,,,,
null,"<img src=""stim_listB/fight4.gif""style=""height:400px;""></stim_listB>",,html-keyboard-response,47,429661,0.0-13.0-1.4,11680,List1B,white,woman,,,,null,,,,
null,are fighting each other,,html-keyboard-response,48,431666,0.0-13.0-2.4,11680,List1B,white,woman,,,,null,,,,
150718,,,survey-text,49,582386,0.0-13.0-3.4,11680,List1B,white,woman,,,,,"{""Q0"":""jane and luke are fighting each other""}","<img src=""stim_listB/fight4.gif""style=""height:400px;""></stim_listB>",are fighting each other,
null,"<div style=""font-size:60px;"">+</div>",,html-keyboard-response,50,582889,0.0-13.0-0.5,11680,List1B,white,woman,,,,null,,,,
null,"<img src=""stim_listB/flirt2.gif""style=""height:400px;""></stim_listB>",,html-keyboard-response,51,584892,0.0-13.0-1.5,11680,List1B,white,woman,,,,null,,,,
null,are flirting with each other,,html-keyboard-response,52,586897,0.0-13.0-2.5,11680,List1B,white,woman,,,,null,,,,
17539,,,survey-text,53,604438,0.0-13.0-3.5,11680,List1B,white,woman,,,,,"{""Q0"":""beth and mike are flirting with each other""}","<img src=""stim_listB/flirt2.gif""style=""height:400px;""></stim_listB>",are flirting with each other,
null,"<div style=""font-size:60px;"">+</div>",,html-keyboard-response,54,604945,0.0-13.0-0.6,11680,List1B,white,woman,,,,null,,,,
null,"<img src=""stim_listB/fight7.gif""style=""height:400px;""></stim_listB>",,html-keyboard-response,55,606949,0.0-13.0-1.6,11680,List1B,white,woman,,,,null,,,,
null,is fighting,,html-keyboard-response,56,608953,0.0-13.0-2.6,11680,List1B,white,woman,,,,null,,,,
9612,,,survey-text,57,618566,0.0-13.0-3.6,11680,List1B,white,woman,,,,,"{""Q0"":""kate is fighting jane""}","<img src=""stim_listB/fight7.gif""style=""height:400px;""></stim_listB>",is fighting,
null,"<div style=""font-size:60px;"">+</div>",,html-keyboard-response,58,619072,0.0-13.0-0.7,11680,List1B,white,woman,,,,null,,,,
null,"<img src=""stim_listB/marry1.gif""style=""height:400px;""></stim_listB>",,html-keyboard-response,59,621075,0.0-13.0-1.7,11680,List1B,white,woman,,,,null,,,,
null,is marrying,,html-keyboard-response,60,623078,0.0-13.0-2.7,11680,List1B,white,woman,,,,null,,,,
8721,,,survey-text,61,631801,0.0-13.0-3.7,11680,List1B,white,woman,,,,,"{""Q0"":""beth is marrying mike""}","<img src=""stim_listB/marry1.gif""style=""height:400px;""></stim_listB>",is marrying,
null,"<div style=""font-size:60px;"">+</div>",,html-keyboard-response,62,632307,0.0-13.0-0.8,11680,List1B,white,woman,,,,null,,,,
null,"<img src=""stim_listB/shout6.gif""style=""height:400px;""></stim_listB>",,html-keyboard-response,63,634309,0.0-13.0-1.8,11680,List1B,white,woman,,,,null,,,,
null,are shouting at each other,,html-keyboard-response,64,636314,0.0-13.0-2.8,11680,List1B,white,woman,,,,null,,,,
18621,,,survey-text,65,654936,0.0-13.0-3.8,11680,List1B,white,woman,,,,,"{""Q0"":""dave and fred are shouting at each other""}","<img src=""stim_listB/shout6.gif""style=""height:400px;""></stim_listB>",are shouting at each other,
null,"<div style=""font-size:60px;"">+</div>",,html-keyboard-response,66,655442,0.0-13.0-0.9,11680,List1B,white,woman,,,,null,,,,
null,"<img src=""stim_listB/kiss1.gif""style=""height:400px;""></stim_listB>",,html-keyboard-response,67,657446,0.0-13.0-1.9,11680,List1B,white,woman,,,,null,,,,
null,is kissing,,html-keyboard-response,68,659448,0.0-13.0-2.9,11680,List1B,white,woman,,,,null,,,,
8004,,,survey-text,69,667453,0.0-13.0-3.9,11680,List1B,white,woman,,,,,"{""Q0"":""beth is kissing fred""}","<img src=""stim_listB/kiss1.gif""style=""height:400px;""></stim_listB>",is kissing,
null,"<div style=""font-size:60px;"">+</div>",,html-keyboard-response,70,667954,0.0-13.0-0.10,11680,List1B,white,woman,,,,null,,,,
null,"<img src=""stim_listB/fight5.gif""style=""height:400px;""></stim_listB>",,html-keyboard-response,71,669957,0.0-13.0-1.10,11680,List1B,white,woman,,,,null,,,,
null,is fighting,,html-keyboard-response,72,671962,0.0-13.0-2.10,11680,List1B,white,woman,,,,null,,,,
9432,,,survey-text,73,681395,0.0-13.0-3.10,11680,List1B,white,woman,,,,,"{""Q0"":""mike is fighting dave""}","<img src=""stim_listB/fight5.gif""style=""height:400px;""></stim_listB>",is fighting,
null,"<div style=""font-size:60px;"">+</div>",,html-keyboard-response,74,681896,0.0-13.0-0.11,11680,List1B,white,woman,,,,null,,,,
null,"<img src=""stim_listB/argue6.gif""style=""height:400px;""></stim_listB>",,html-keyboard-response,75,683898,0.0-13.0-1.11,11680,List1B,white,woman,,,,null,,,,
null,are arguing with each other,,html-keyboard-response,76,685903,0.0-13.0-2.11,11680,List1B,white,woman,,,,null,,,,
17927,,,survey-text,77,703831,0.0-13.0-3.11,11680,List1B,white,woman,,,,,"{""Q0"":""fred and dave are arguing with each other""}","<img src=""stim_listB/argue6.gif""style=""height:400px;""></stim_listB>",are arguing with each other,
null,"<div style=""font-size:60px;"">+</div>",,html-keyboard-response,78,704337,0.0-13.0-0.12,11680,List1B,white,woman,,,,null,,,,
null,"<img src=""stim_listB/marry4.gif""style=""height:400px;""></stim_listB>",,html-keyboard-response,79,706339,0.0-13.0-1.12,11680,List1B,white,woman,,,,null,,,,
null,are marrying each other,,html-keyboard-response,80,708343,0.0-13.0-2.12,11680,List1B,white,woman,,,,null,,,,
14314,,,survey-text,81,722659,0.0-13.0-3.12,11680,List1B,white,woman,,,,,"{""Q0"":""jane and luke are marrying each other""}","<img src=""stim_listB/marry4.gif""style=""height:400px;""></stim_listB>",are marrying each other,
null,"<div style=""font-size:60px;"">+</div>",,html-keyboard-response,82,723165,0.0-13.0-0.13,11680,List1B,white,woman,,,,null,,,,
null,"<img src=""stim_listB/argue7.gif""style=""height:400px;""></stim_listB>",,html-keyboard-response,83,725169,0.0-13.0-1.13,11680,List1B,white,woman,,,,null,,,,
null,is arguing with,,html-keyboard-response,84,727173,0.0-13.0-2.13,11680,List1B,white,woman,,,,null,,,,
14310,,,survey-text,85,741485,0.0-13.0-3.13,11680,List1B,white,woman,,,,,"{""Q0"":""kate is arguing with jane""}","<img src=""stim_listB/argue7.gif""style=""height:400px;""></stim_listB>",is arguing with,
null,"<div style=""font-size:60px;"">+</div>",,html-keyboard-response,86,741991,0.0-13.0-0.14,11680,List1B,white,woman,,,,null,,,,
null,"<img src=""stim_listB/play2.gif""style=""height:400px;""></stim_listB>",,html-keyboard-response,87,743994,0.0-13.0-1.14,11680,List1B,white,woman,,,,null,,,,
null,are playing with each other,,html-keyboard-response,88,745999,0.0-13.0-2.14,11680,List1B,white,woman,,,,null,,,,
12370,,,survey-text,89,758369,0.0-13.0-3.14,11680,List1B,white,woman,,,,,"{""Q0"":""fred and beth are playing with each other""}","<img src=""stim_listB/play2.gif""style=""height:400px;""></stim_listB>",are playing with each other,
null,"<div style=""font-size:60px;"">+</div>",,html-keyboard-response,90,758876,0.0-13.0-0.15,11680,List1B,white,woman,,,,null,,,,
null,"<img src=""stim_listB/shout7.gif""style=""height:400px;""></stim_listB>",,html-keyboard-response,91,760878,0.0-13.0-1.15,11680,List1B,white,woman,,,,null,,,,
null,is shouting at,,html-keyboard-response,92,762879,0.0-13.0-2.15,11680,List1B,white,woman,,,,null,,,,
11004,,,survey-text,93,773884,0.0-13.0-3.15,11680,List1B,white,woman,,,,,"{""Q0"":""beth is shouting at jane""}","<img src=""stim_listB/shout7.gif""style=""height:400px;""></stim_listB>",is shouting at,
null,"<div style=""font-size:60px;"">+</div>",,html-keyboard-response,94,774385,0.0-13.0-0.16,11680,List1B,white,woman,,,,null,,,,
null,"<img src=""stim_listB/touch2.gif""style=""height:400px;""></stim_listB>",,html-keyboard-response,95,776386,0.0-13.0-1.16,11680,List1B,white,woman,,,,null,,,,
null,are touching each other,,html-keyboard-response,96,778389,0.0-13.0-2.16,11680,List1B,white,woman,,,,null,,,,
6900,,,survey-text,97,785290,0.0-13.0-3.16,11680,List1B,white,woman,,,,,"{""Q0"":""beth and fred are touching each other""}","<img src=""stim_listB/touch2.gif""style=""height:400px;""></stim_listB>",are touching each other,
null,"<div style=""font-size:60px;"">+</div>",,html-keyboard-response,98,785796,0.0-13.0-0.17,11680,List1B,white,woman,,,,null,,,,
null,"<img src=""stim_listB/talk3.gif""style=""height:400px;""></stim_listB>",,html-keyboard-response,99,787798,0.0-13.0-1.17,11680,List1B,white,woman,,,,null,,,,
null,is talking to,,html-keyboard-response,100,789799,0.0-13.0-2.17,11680,List1B,white,woman,,,,null,,,,
19426,,,survey-text,101,809226,0.0-13.0-3.17,11680,List1B,white,woman,,,,,"{""Q0"":""jane and luke are (I forgot what they're doing!)""}","<img src=""stim_listB/talk3.gif""style=""height:400px;""></stim_listB>",is talking to,
null,"<div style=""font-size:60px;"">+</div>",,html-keyboard-response,102,809733,0.0-13.0-0.18,11680,List1B,white,woman,,,,null,,,,
null,"<img src=""stim_listB/flirt3.gif""style=""height:400px;""></stim_listB>",,html-keyboard-response,103,811735,0.0-13.0-1.18,11680,List1B,white,woman,,,,null,,,,
null,is flirting with,,html-keyboard-response,104,813736,0.0-13.0-2.18,11680,List1B,white,woman,,,,null,,,,
8595,,,survey-text,105,822332,0.0-13.0-3.18,11680,List1B,white,woman,,,,,"{""Q0"":""jane is flirting with luke""}","<img src=""stim_listB/flirt3.gif""style=""height:400px;""></stim_listB>",is flirting with,
null,"<div style=""font-size:60px;"">+</div>",,html-keyboard-response,106,822836,0.0-13.0-0.19,11680,List1B,white,woman,,,,null,,,,
null,"<img src=""stim_listB/kiss8.gif""style=""height:400px;""></stim_listB>",,html-keyboard-response,107,824837,0.0-13.0-1.19,11680,List1B,white,woman,,,,null,,,,
null,are kissing each other,,html-keyboard-response,108,826840,0.0-13.0-2.19,11680,List1B,white,woman,,,,null,,,,
13909,,,survey-text,109,840750,0.0-13.0-3.19,11680,List1B,white,woman,,,,,"{""Q0"":""jane and kate are kissing each opther""}","<img src=""stim_listB/kiss8.gif""style=""height:400px;""></stim_listB>",are kissing each other,
11685,"<img src='img/portrait_matrix_list1.jpg' style='width:900px;height:500px;''></img><p>If you have memorised all the portraits and names and are ready to start, press Continue.</p><p><strong>Please note: Your memory of these faces will be tested 4 times during this experiment.</strong></p>",0,html-button-response,110,852438,0.0-14.0-0.0,11680,List1B,white,woman,,,,,,,,
4586,"<img src=""portrait/BM2.jpg""style=""height:400px;""></img>",5,html-button-response,111,858028,0.0-14.0-1.0,11680,List1B,white,woman,,TRUE,5,,,,,
null,CORRECT,,html-keyboard-response,112,859536,0.0-14.0-2.0-0.0,11680,List1B,white,woman,,,,null,,,,
1706,"<img src=""portrait/WM2.jpg""style=""height:400px;""></img>",7,html-button-response,113,861244,0.0-14.0-4.0,11680,List1B,white,woman,,TRUE,7,,,,,
null,CORRECT,,html-keyboard-response,114,862750,0.0-14.0-5.0-0.0,11680,List1B,white,woman,,,,null,,,,
1603,"<img src=""portrait/WW2.jpg""style=""height:400px;""></img>",3,html-button-response,115,864354,0.0-14.0-7.0,11680,List1B,white,woman,,TRUE,3,,,,,
null,CORRECT,,html-keyboard-response,116,865863,0.0-14.0-8.0-0.0,11680,List1B,white,woman,,,,null,,,,
1877,"<img src=""portrait/WM1.jpg""style=""height:400px;""></img>",6,html-button-response,117,867742,0.0-14.0-10.0,11680,List1B,white,woman,,TRUE,6,,,,,
null,CORRECT,,html-keyboard-response,118,869251,0.0-14.0-11.0-0.0,11680,List1B,white,woman,,,,null,,,,
1141,"<img src=""portrait/BW2.jpg""style=""height:400px;""></img>",2,html-button-response,119,870394,0.0-14.0-13.0,11680,List1B,white,woman,,TRUE,2,,,,,
null,CORRECT,,html-keyboard-response,120,871904,0.0-14.0-14.0-0.0,11680,List1B,white,woman,,,,null,,,,
1622,"<img src=""portrait/BM1.jpg""style=""height:400px;""></img>",4,html-button-response,121,873528,0.0-14.0-16.0,11680,List1B,white,woman,,TRUE,4,,,,,
null,CORRECT,,html-keyboard-response,122,875036,0.0-14.0-17.0-0.0,11680,List1B,white,woman,,,,null,,,,
2064,"<img src=""portrait/BW1.jpg""style=""height:400px;""></img>",0,html-button-response,123,877102,0.0-14.0-19.0,11680,List1B,white,woman,,TRUE,0,,,,,
null,CORRECT,,html-keyboard-response,124,878609,0.0-14.0-20.0-0.0,11680,List1B,white,woman,,,,null,,,,
937,"<img src=""portrait/WW1.jpg""style=""height:400px;""></img>",1,html-button-response,125,879548,0.0-14.0-22.0,11680,List1B,white,woman,,TRUE,1,,,,,
null,CORRECT,,html-keyboard-response,126,881057,0.0-14.0-23.0-0.0,11680,List1B,white,woman,,,,null,,,,
1373,<p>You got 8 out of 8 right first time. Press Continue.</p>,0,html-button-response,127,882432,0.0-14.0-25.0,11680,List1B,white,woman,,,,,,,,
null,"<div style=""font-size:60px;"">+</div>",,html-keyboard-response,128,883941,0.0-15.0-0.0,11680,List1B,white,woman,,,,null,,,,
null,"<img src=""stim_listB/marry2.gif""style=""height:400px;""></stim_listB>",,html-keyboard-response,129,885945,0.0-15.0-1.0,11680,List1B,white,woman,,,,null,,,,
null,are marrying each other,,html-keyboard-response,130,887946,0.0-15.0-2.0,11680,List1B,white,woman,,,,null,,,,
12143,,,survey-text,131,900090,0.0-15.0-3.0,11680,List1B,white,woman,,,,,"{""Q0"":""fred and kate are marrying each other""}","<img src=""stim_listB/marry2.gif""style=""height:400px;""></stim_listB>",are marrying each other,
null,"<div style=""font-size:60px;"">+</div>",,html-keyboard-response,132,900592,0.0-15.0-0.1,11680,List1B,white,woman,,,,null,,,,
null,"<img src=""stim_listB/talk4.gif""style=""height:400px;""></stim_listB>",,html-keyboard-response,133,902597,0.0-15.0-1.1,11680,List1B,white,woman,,,,null,,,,
null,are talking to each other,,html-keyboard-response,134,904598,0.0-15.0-2.1,11680,List1B,white,woman,,,,null,,,,
16795,,,survey-text,135,921395,0.0-15.0-3.1,11680,List1B,white,woman,,,,,"{""Q0"":""ruth and dave are arguing""}","<img src=""stim_listB/talk4.gif""style=""height:400px;""></stim_listB>",are talking to each other,
null,"<div style=""font-size:60px;"">+</div>",,html-keyboard-response,136,921899,0.0-15.0-0.2,11680,List1B,white,woman,,,,null,,,,
null,"<img src=""stim_listB/talk7.gif""style=""height:400px;""></stim_listB>",,html-keyboard-response,137,923901,0.0-15.0-1.2,11680,List1B,white,woman,,,,null,,,,
null,is talking to,,html-keyboard-response,138,925903,0.0-15.0-2.2,11680,List1B,white,woman,,,,null,,,,
7337,,,survey-text,139,933241,0.0-15.0-3.2,11680,List1B,white,woman,,,,,"{""Q0"":""jane is talking to beth""}","<img src=""stim_listB/talk7.gif""style=""height:400px;""></stim_listB>",is talking to,
null,"<div style=""font-size:60px;"">+</div>",,html-keyboard-response,140,933747,0.0-15.0-0.3,11680,List1B,white,woman,,,,null,,,,
null,"<img src=""stim_listB/touch8.gif""style=""height:400px;""></stim_listB>",,html-keyboard-response,141,935750,0.0-15.0-1.3,11680,List1B,white,woman,,,,null,,,,
null,are touching each other,,html-keyboard-response,142,937751,0.0-15.0-2.3,11680,List1B,white,woman,,,,null,,,,
12261,,,survey-text,143,950013,0.0-15.0-3.3,11680,List1B,white,woman,,,,,"{""Q0"":""beth and ruth are talking to each other""}","<img src=""stim_listB/touch8.gif""style=""height:400px;""></stim_listB>",are touching each other,
null,"<div style=""font-size:60px;"">+</div>",,html-keyboard-response,144,950520,0.0-15.0-0.4,11680,List1B,white,woman,,,,null,,,,
null,"<img src=""stim_listB/argue1.gif""style=""height:400px;""></stim_listB>",,html-keyboard-response,145,952522,0.0-15.0-1.4,11680,List1B,white,woman,,,,null,,,,
null,is arguing with,,html-keyboard-response,146,954525,0.0-15.0-2.4,11680,List1B,white,woman,,,,null,,,,
10554,,,survey-text,147,965080,0.0-15.0-3.4,11680,List1B,white,woman,,,,,"{""Q0"":""beth is arguing with mike""}","<img src=""stim_listB/argue1.gif""style=""height:400px;""></stim_listB>",is arguing with,
null,"<div style=""font-size:60px;"">+</div>",,html-keyboard-response,148,965584,0.0-15.0-0.5,11680,List1B,white,woman,,,,null,,,,
null,"<img src=""stim_listB/shout3.gif""style=""height:400px;""></stim_listB>",,html-keyboard-response,149,967586,0.0-15.0-1.5,11680,List1B,white,woman,,,,null,,,,
null,is shouting at,,html-keyboard-response,150,969587,0.0-15.0-2.5,11680,List1B,white,woman,,,,null,,,,
11962,,,survey-text,151,981550,0.0-15.0-3.5,11680,List1B,white,woman,,,,,"{""Q0"":""ruth is shouting at luke""}","<img src=""stim_listB/shout3.gif""style=""height:400px;""></stim_listB>",is shouting at,
null,"<div style=""font-size:60px;"">+</div>",,html-keyboard-response,152,982051,0.0-15.0-0.6,11680,List1B,white,woman,,,,null,,,,
null,"<img src=""stim_listB/marry3.gif""style=""height:400px;""></stim_listB>",,html-keyboard-response,153,984054,0.0-15.0-1.6,11680,List1B,white,woman,,,,null,,,,
null,is marrying,,html-keyboard-response,154,986057,0.0-15.0-2.6,11680,List1B,white,woman,,,,null,,,,
9193,,,survey-text,155,995250,0.0-15.0-3.6,11680,List1B,white,woman,,,,,"{""Q0"":""ruth is marrying dave""}","<img src=""stim_listB/marry3.gif""style=""height:400px;""></stim_listB>",is marrying,
null,"<div style=""font-size:60px;"">+</div>",,html-keyboard-response,156,995754,0.0-15.0-0.7,11680,List1B,white,woman,,,,null,,,,
null,"<img src=""stim_listB/flirt6.gif""style=""height:400px;""></stim_listB>",,html-keyboard-response,157,997756,0.0-15.0-1.7,11680,List1B,white,woman,,,,null,,,,
null,are flirting with each other,,html-keyboard-response,158,999760,0.0-15.0-2.7,11680,List1B,white,woman,,,,null,,,,
13464,,,survey-text,159,1013225,0.0-15.0-3.7,11680,List1B,white,woman,,,,,"{""Q0"":""mike and luke are flirting with each other""}","<img src=""stim_listB/flirt6.gif""style=""height:400px;""></stim_listB>",are flirting with each other,
null,"<div style=""font-size:60px;"">+</div>",,html-keyboard-response,160,1013731,0.0-15.0-0.8,11680,List1B,white,woman,,,,null,,,,
null,"<img src=""stim_listB/talk1.gif""style=""height:400px;""></stim_listB>",,html-keyboard-response,161,1015733,0.0-15.0-1.8,11680,List1B,white,woman,,,,null,,,,
null,is talking to,,html-keyboard-response,162,1017734,0.0-15.0-2.8,11680,List1B,white,woman,,,,null,,,,
6301,,,survey-text,163,1024037,0.0-15.0-3.8,11680,List1B,white,woman,,,,,"{""Q0"":""kate is talking to fred""}","<img src=""stim_listB/talk1.gif""style=""height:400px;""></stim_listB>",is talking to,
null,"<div style=""font-size:60px;"">+</div>",,html-keyboard-response,164,1024538,0.0-15.0-0.9,11680,List1B,white,woman,,,,null,,,,
null,"<img src=""stim_listB/play8.gif""style=""height:400px;""></stim_listB>",,html-keyboard-response,165,1026543,0.0-15.0-1.9,11680,List1B,white,woman,,,,null,,,,
null,are playing with each other,,html-keyboard-response,166,1028548,0.0-15.0-2.9,11680,List1B,white,woman,,,,null,,,,
8518,,,survey-text,167,1037067,0.0-15.0-3.9,11680,List1B,white,woman,,,,,"{""Q0"":""ruth and beth are playing with each other""}","<img src=""stim_listB/play8.gif""style=""height:400px;""></stim_listB>",are playing with each other,
null,"<div style=""font-size:60px;"">+</div>",,html-keyboard-response,168,1037569,0.0-15.0-0.10,11680,List1B,white,woman,,,,null,,,,
null,"<img src=""stim_listB/fight1.gif""style=""height:400px;""></stim_listB>",,html-keyboard-response,169,1039571,0.0-15.0-1.10,11680,List1B,white,woman,,,,null,,,,
null,is fighting,,html-keyboard-response,170,1041573,0.0-15.0-2.10,11680,List1B,white,woman,,,,null,,,,
6619,,,survey-text,171,1048193,0.0-15.0-3.10,11680,List1B,white,woman,,,,,"{""Q0"":""kate is fighting mike""}","<img src=""stim_listB/fight1.gif""style=""height:400px;""></stim_listB>",is fighting,
null,"<div style=""font-size:60px;"">+</div>",,html-keyboard-response,172,1048700,0.0-15.0-0.11,11680,List1B,white,woman,,,,null,,,,
null,"<img src=""stim_listB/play4.gif""style=""height:400px;""></stim_listB>",,html-keyboard-response,173,1050703,0.0-15.0-1.11,11680,List1B,white,woman,,,,null,,,,
null,are playing with each other,,html-keyboard-response,174,1052705,0.0-15.0-2.11,11680,List1B,white,woman,,,,null,,,,
7927,,,survey-text,175,1060634,0.0-15.0-3.11,11680,List1B,white,woman,,,,,"{""Q0"":""luke and ruth are playing with each other""}","<img src=""stim_listB/play4.gif""style=""height:400px;""></stim_listB>",are playing with each other,
null,"<div style=""font-size:60px;"">+</div>",,html-keyboard-response,176,1061140,0.0-15.0-0.12,11680,List1B,white,woman,,,,null,,,,
null,"<img src=""stim_listB/play1.gif""style=""height:400px;""></stim_listB>",,html-keyboard-response,177,1063143,0.0-15.0-1.12,11680,List1B,white,woman,,,,null,,,,
null,is playing with,,html-keyboard-response,178,1065146,0.0-15.0-2.12,11680,List1B,white,woman,,,,null,,,,
7530,,,survey-text,179,1072678,0.0-15.0-3.12,11680,List1B,white,woman,,,,,"{""Q0"":""kate is playing with mike""}","<img src=""stim_listB/play1.gif""style=""height:400px;""></stim_listB>",is playing with,
null,"<div style=""font-size:60px;"">+</div>",,html-keyboard-response,180,1073183,0.0-15.0-0.13,11680,List1B,white,woman,,,,null,,,,
null,"<img src=""stim_listB/talk8.gif""style=""height:400px;""></stim_listB>",,html-keyboard-response,181,1075185,0.0-15.0-1.13,11680,List1B,white,woman,,,,null,,,,
null,are talking to each other,,html-keyboard-response,182,1077187,0.0-15.0-2.13,11680,List1B,white,woman,,,,null,,,,
11476,,,survey-text,183,1088664,0.0-15.0-3.13,11680,List1B,white,woman,,,,,"{""Q0"":""kate and ruth are talking to each other""}","<img src=""stim_listB/talk8.gif""style=""height:400px;""></stim_listB>",are talking to each other,
null,"<div style=""font-size:60px;"">+</div>",,html-keyboard-response,184,1089166,0.0-15.0-0.14,11680,List1B,white,woman,,,,null,,,,
null,"<img src=""stim_listB/argue2.gif""style=""height:400px;""></stim_listB>",,html-keyboard-response,185,1091168,0.0-15.0-1.14,11680,List1B,white,woman,,,,null,,,,
null,are arguing with each other,,html-keyboard-response,186,1093174,0.0-15.0-2.14,11680,List1B,white,woman,,,,null,,,,
12644,,,survey-text,187,1105819,0.0-15.0-3.14,11680,List1B,white,woman,,,,,"{""Q0"":""mike and kate are arguing with each other""}","<img src=""stim_listB/argue2.gif""style=""height:400px;""></stim_listB>",are arguing with each other,
null,"<div style=""font-size:60px;"">+</div>",,html-keyboard-response,188,1106323,0.0-15.0-0.15,11680,List1B,white,woman,,,,null,,,,
null,"<img src=""stim_listB/dance5.gif""style=""height:400px;""></stim_listB>",,html-keyboard-response,189,1108328,0.0-15.0-1.15,11680,List1B,white,woman,,,,null,,,,
null,is dancing with,,html-keyboard-response,190,1110329,0.0-15.0-2.15,11680,List1B,white,woman,,,,null,,,,
9401,,,survey-text,191,1119731,0.0-15.0-3.15,11680,List1B,white,woman,,,,,"{""Q0"":""fred and dave are dancing with each other""}","<img src=""stim_listB/dance5.gif""style=""height:400px;""></stim_listB>",is dancing with,
null,"<div style=""font-size:60px;"">+</div>",,html-keyboard-response,192,1120238,0.0-15.0-0.16,11680,List1B,white,woman,,,,null,,,,
null,"<img src=""stim_listB/argue4.gif""style=""height:400px;""></stim_listB>",,html-keyboard-response,193,1122239,0.0-15.0-1.16,11680,List1B,white,woman,,,,null,,,,
null,are arguing with each other,,html-keyboard-response,194,1124240,0.0-15.0-2.16,11680,List1B,white,woman,,,,null,,,,
11432,,,survey-text,195,1135673,0.0-15.0-3.16,11680,List1B,white,woman,,,,,"{""Q0"":""luke and jane are arguing with each other""}","<img src=""stim_listB/argue4.gif""style=""height:400px;""></stim_listB>",are arguing with each other,
null,"<div style=""font-size:60px;"">+</div>",,html-keyboard-response,196,1136180,0.0-15.0-0.17,11680,List1B,white,woman,,,,null,,,,
null,"<img src=""stim_listB/kiss3.gif""style=""height:400px;""></stim_listB>",,html-keyboard-response,197,1138182,0.0-15.0-1.17,11680,List1B,white,woman,,,,null,,,,
null,is kissing,,html-keyboard-response,198,1140192,0.0-15.0-2.17,11680,List1B,white,woman,,,,null,,,,
8698,,,survey-text,199,1148892,0.0-15.0-3.17,11680,List1B,white,woman,,,,,"{""Q0"":""ruth is kissing luke""}","<img src=""stim_listB/kiss3.gif""style=""height:400px;""></stim_listB>",is kissing,
null,"<div style=""font-size:60px;"">+</div>",,html-keyboard-response,200,1149396,0.0-15.0-0.18,11680,List1B,white,woman,,,,null,,,,
null,"<img src=""stim_listB/kiss2.gif""style=""height:400px;""></stim_listB>",,html-keyboard-response,201,1151398,0.0-15.0-1.18,11680,List1B,white,woman,,,,null,,,,
null,are kissing each other,,html-keyboard-response,202,1153399,0.0-15.0-2.18,11680,List1B,white,woman,,,,null,,,,
4201,,,survey-text,203,1157602,0.0-15.0-3.18,11680,List1B,white,woman,,,,,"{""Q0"":""kate and mike""}","<img src=""stim_listB/kiss2.gif""style=""height:400px;""></stim_listB>",are kissing each other,
null,"<div style=""font-size:60px;"">+</div>",,html-keyboard-response,204,1158108,0.0-15.0-0.19,11680,List1B,white,woman,,,,null,,,,
null,"<img src=""stim_listB/dance7.gif""style=""height:400px;""></stim_listB>",,html-keyboard-response,205,1160111,0.0-15.0-1.19,11680,List1B,white,woman,,,,null,,,,
null,is dancing with,,html-keyboard-response,206,1162117,0.0-15.0-2.19,11680,List1B,white,woman,,,,null,,,,
8818,,,survey-text,207,1170936,0.0-15.0-3.19,11680,List1B,white,woman,,,,,"{""Q0"":""ruth is dancing with beth""}","<img src=""stim_listB/dance7.gif""style=""height:400px;""></stim_listB>",is dancing with,
12621,"<img src='img/portrait_matrix_list1.jpg' style='width:900px;height:500px;''></img><p>If you have memorised all the portraits and names and are ready to start, press Continue.</p><p><strong>Please note: Your memory of these faces will be tested 4 times during this experiment.</strong></p>",0,html-button-response,208,1183559,0.0-16.0-0.0,11680,List1B,white,woman,,,,,,,,
1850,"<img src=""portrait/BM1.jpg""style=""height:400px;""></img>",4,html-button-response,209,1186411,0.0-16.0-1.0,11680,List1B,white,woman,,TRUE,4,,,,,
null,CORRECT,,html-keyboard-response,210,1187923,0.0-16.0-2.0-0.0,11680,List1B,white,woman,,,,null,,,,
3171,"<img src=""portrait/BW1.jpg""style=""height:400px;""></img>",0,html-button-response,211,1191095,0.0-16.0-4.0,11680,List1B,white,woman,,TRUE,0,,,,,
null,CORRECT,,html-keyboard-response,212,1192600,0.0-16.0-5.0-0.0,11680,List1B,white,woman,,,,null,,,,
2573,"<img src=""portrait/BM2.jpg""style=""height:400px;""></img>",5,html-button-response,213,1195175,0.0-16.0-7.0,11680,List1B,white,woman,,TRUE,5,,,,,
null,CORRECT,,html-keyboard-response,214,1196687,0.0-16.0-8.0-0.0,11680,List1B,white,woman,,,,null,,,,
3776,"<img src=""portrait/WW1.jpg""style=""height:400px;""></img>",1,html-button-response,215,1200465,0.0-16.0-10.0,11680,List1B,white,woman,,TRUE,1,,,,,
null,CORRECT,,html-keyboard-response,216,1201972,0.0-16.0-11.0-0.0,11680,List1B,white,woman,,,,null,,,,
1673,"<img src=""portrait/WW2.jpg""style=""height:400px;""></img>",3,html-button-response,217,1203647,0.0-16.0-13.0,11680,List1B,white,woman,,TRUE,3,,,,,
null,CORRECT,,html-keyboard-response,218,1205152,0.0-16.0-14.0-0.0,11680,List1B,white,woman,,,,null,,,,
1771,"<img src=""portrait/BW2.jpg""style=""height:400px;""></img>",2,html-button-response,219,1206925,0.0-16.0-16.0,11680,List1B,white,woman,,TRUE,2,,,,,
null,CORRECT,,html-keyboard-response,220,1208434,0.0-16.0-17.0-0.0,11680,List1B,white,woman,,,,null,,,,
1373,"<img src=""portrait/WM2.jpg""style=""height:400px;""></img>",7,html-button-response,221,1209808,0.0-16.0-19.0,11680,List1B,white,woman,,TRUE,7,,,,,
null,CORRECT,,html-keyboard-response,222,1211313,0.0-16.0-20.0-0.0,11680,List1B,white,woman,,,,null,,,,
2613,"<img src=""portrait/WM1.jpg""style=""height:400px;""></img>",6,html-button-response,223,1213927,0.0-16.0-22.0,11680,List1B,white,woman,,TRUE,6,,,,,
null,CORRECT,,html-keyboard-response,224,1215435,0.0-16.0-23.0-0.0,11680,List1B,white,woman,,,,null,,,,
1191,<p>You got 8 out of 8 right first time. Press Continue.</p>,0,html-button-response,225,1216627,0.0-16.0-25.0,11680,List1B,white,woman,,,,,,,,
null,"<div style=""font-size:60px;"">+</div>",,html-keyboard-response,226,1218131,0.0-17.0-0.0,11680,List1B,white,woman,,,,null,,,,
null,"<img src=""stim_listB/flirt7.gif""style=""height:400px;""></stim_listB>",,html-keyboard-response,227,1220133,0.0-17.0-1.0,11680,List1B,white,woman,,,,null,,,,
null,is flirting with,,html-keyboard-response,228,1222134,0.0-17.0-2.0,11680,List1B,white,woman,,,,null,,,,
7022,,,survey-text,229,1229157,0.0-17.0-3.0,11680,List1B,white,woman,,,,,"{""Q0"":""jane is flirting with beth""}","<img src=""stim_listB/flirt7.gif""style=""height:400px;""></stim_listB>",is flirting with,
null,"<div style=""font-size:60px;"">+</div>",,html-keyboard-response,230,1229659,0.0-17.0-0.1,11680,List1B,white,woman,,,,null,,,,
null,"<img src=""stim_listB/fight2.gif""style=""height:400px;""></stim_listB>",,html-keyboard-response,231,1231664,0.0-17.0-1.1,11680,List1B,white,woman,,,,null,,,,
null,are fighting each other,,html-keyboard-response,232,1233665,0.0-17.0-2.1,11680,List1B,white,woman,,,,null,,,,
11263,,,survey-text,233,1244930,0.0-17.0-3.1,11680,List1B,white,woman,,,,,"{""Q0"":""fred and beth are fighting each other""}","<img src=""stim_listB/fight2.gif""style=""height:400px;""></stim_listB>",are fighting each other,
null,"<div style=""font-size:60px;"">+</div>",,html-keyboard-response,234,1245432,0.0-17.0-0.2,11680,List1B,white,woman,,,,null,,,,
null,"<img src=""stim_listB/kiss7.gif""style=""height:400px;""></stim_listB>",,html-keyboard-response,235,1247438,0.0-17.0-1.2,11680,List1B,white,woman,,,,null,,,,
null,is kissing,,html-keyboard-response,236,1249439,0.0-17.0-2.2,11680,List1B,white,woman,,,,null,,,,
6942,,,survey-text,237,1256382,0.0-17.0-3.2,11680,List1B,white,woman,,,,,"{""Q0"":""ruth is kissing beth""}","<img src=""stim_listB/kiss7.gif""style=""height:400px;""></stim_listB>",is kissing,
null,"<div style=""font-size:60px;"">+</div>",,html-keyboard-response,238,1256888,0.0-17.0-0.3,11680,List1B,white,woman,,,,null,,,,
null,"<img src=""stim_listB/dance3.gif""style=""height:400px;""></stim_listB>",,html-keyboard-response,239,1258890,0.0-17.0-1.3,11680,List1B,white,woman,,,,null,,,,
null,is dancing with,,html-keyboard-response,240,1260892,0.0-17.0-2.3,11680,List1B,white,woman,,,,null,,,,
6326,,,survey-text,241,1267218,0.0-17.0-3.3,11680,List1B,white,woman,,,,,"{""Q0"":""jane is dancing with luke""}","<img src=""stim_listB/dance3.gif""style=""height:400px;""></stim_listB>",is dancing with,
null,"<div style=""font-size:60px;"">+</div>",,html-keyboard-response,242,1267725,0.0-17.0-0.4,11680,List1B,white,woman,,,,null,,,,
null,"<img src=""stim_listB/talk6.gif""style=""height:400px;""></stim_listB>",,html-keyboard-response,243,1269727,0.0-17.0-1.4,11680,List1B,white,woman,,,,null,,,,
null,are talking to each other,,html-keyboard-response,244,1271728,0.0-17.0-2.4,11680,List1B,white,woman,,,,null,,,,
7633,,,survey-text,245,1279363,0.0-17.0-3.4,11680,List1B,white,woman,,,,,"{""Q0"":""luke and mike are talking to each other""}","<img src=""stim_listB/talk6.gif""style=""height:400px;""></stim_listB>",are talking to each other,
null,"<div style=""font-size:60px;"">+</div>",,html-keyboard-response,246,1279869,0.0-17.0-0.5,11680,List1B,white,woman,,,,null,,,,
null,"<img src=""stim_listB/argue8.gif""style=""height:400px;""></stim_listB>",,html-keyboard-response,247,1281872,0.0-17.0-1.5,11680,List1B,white,woman,,,,null,,,,
null,are arguing with each other,,html-keyboard-response,248,1283874,0.0-17.0-2.5,11680,List1B,white,woman,,,,null,,,,
15104,,,survey-text,249,1298979,0.0-17.0-3.5,11680,List1B,white,woman,,,,,"{""Q0"":""beth and jane are arguing with each other""}","<img src=""stim_listB/argue8.gif""style=""height:400px;""></stim_listB>",are arguing with each other,
null,"<div style=""font-size:60px;"">+</div>",,html-keyboard-response,250,1299482,0.0-17.0-0.6,11680,List1B,white,woman,,,,null,,,,
null,"<img src=""stim_listB/touch4.gif""style=""height:400px;""></stim_listB>",,html-keyboard-response,251,1301485,0.0-17.0-1.6,11680,List1B,white,woman,,,,null,,,,
null,are touching each other,,html-keyboard-response,252,1303486,0.0-17.0-2.6,11680,List1B,white,woman,,,,null,,,,
9220,,,survey-text,253,1312707,0.0-17.0-3.6,11680,List1B,white,woman,,,,,"{""Q0"":""luke and ruth are touching each other""}","<img src=""stim_listB/touch4.gif""style=""height:400px;""></stim_listB>",are touching each other,
null,"<div style=""font-size:60px;"">+</div>",,html-keyboard-response,254,1313211,0.0-17.0-0.7,11680,List1B,white,woman,,,,null,,,,
null,"<img src=""stim_listB/talk2.gif""style=""height:400px;""></stim_listB>",,html-keyboard-response,255,1315213,0.0-17.0-1.7,11680,List1B,white,woman,,,,null,,,,
null,are talking to each other,,html-keyboard-response,256,1317217,0.0-17.0-2.7,11680,List1B,white,woman,,,,null,,,,
10477,,,survey-text,257,1327696,0.0-17.0-3.7,11680,List1B,white,woman,,,,,"{""Q0"":""mike and beth are talking to each other""}","<img src=""stim_listB/talk2.gif""style=""height:400px;""></stim_listB>",are talking to each other,
null,"<div style=""font-size:60px;"">+</div>",,html-keyboard-response,258,1328202,0.0-17.0-0.8,11680,List1B,white,woman,,,,null,,,,
null,"<img src=""stim_listB/kiss4.gif""style=""height:400px;""></stim_listB>",,html-keyboard-response,259,1330206,0.0-17.0-1.8,11680,List1B,white,woman,,,,null,,,,
null,are kissing each other,,html-keyboard-response,260,1332207,0.0-17.0-2.8,11680,List1B,white,woman,,,,null,,,,
190381,,,survey-text,261,1522590,0.0-17.0-3.8,11680,List1B,white,woman,,,,,"{""Q0"":""dave and jane are kissing each other""}","<img src=""stim_listB/kiss4.gif""style=""height:400px;""></stim_listB>",are kissing each other,
null,"<div style=""font-size:60px;"">+</div>",,html-keyboard-response,262,1523095,0.0-17.0-0.9,11680,List1B,white,woman,,,,null,,,,
null,"<img src=""stim_listB/shout4.gif""style=""height:400px;""></stim_listB>",,html-keyboard-response,263,1525097,0.0-17.0-1.9,11680,List1B,white,woman,,,,null,,,,
null,are shouting at each other,,html-keyboard-response,264,1527099,0.0-17.0-2.9,11680,List1B,white,woman,,,,null,,,,
47195,,,survey-text,265,1574296,0.0-17.0-3.9,11680,List1B,white,woman,,,,,"{""Q0"":""dave and jane are shouting at each other""}","<img src=""stim_listB/shout4.gif""style=""height:400px;""></stim_listB>",are shouting at each other,
null,"<div style=""font-size:60px;"">+</div>",,html-keyboard-response,266,1574798,0.0-17.0-0.10,11680,List1B,white,woman,,,,null,,,,
null,"<img src=""stim_listB/talk5.gif""style=""height:400px;""></stim_listB>",,html-keyboard-response,267,1576800,0.0-17.0-1.10,11680,List1B,white,woman,,,,null,,,,
null,is talking to,,html-keyboard-response,268,1578802,0.0-17.0-2.10,11680,List1B,white,woman,,,,null,,,,
10785,,,survey-text,269,1589587,0.0-17.0-3.10,11680,List1B,white,woman,,,,,"{""Q0"":""dave is talking fred""}","<img src=""stim_listB/talk5.gif""style=""height:400px;""></stim_listB>",is talking to,
null,"<div style=""font-size:60px;"">+</div>",,html-keyboard-response,270,1590089,0.0-17.0-0.11,11680,List1B,white,woman,,,,null,,,,
null,"<img src=""stim_listB/dance8.gif""style=""height:400px;""></stim_listB>",,html-keyboard-response,271,1592091,0.0-17.0-1.11,11680,List1B,white,woman,,,,null,,,,
null,are dancing with each other,,html-keyboard-response,272,1594096,0.0-17.0-2.11,11680,List1B,white,woman,,,,null,,,,
9878,,,survey-text,273,1603976,0.0-17.0-3.11,11680,List1B,white,woman,,,,,"{""Q0"":""ruth and kate are dancing with each other""}","<img src=""stim_listB/dance8.gif""style=""height:400px;""></stim_listB>",are dancing with each other,
null,"<div style=""font-size:60px;"">+</div>",,html-keyboard-response,274,1604481,0.0-17.0-0.12,11680,List1B,white,woman,,,,null,,,,
null,"<img src=""stim_listB/play3.gif""style=""height:400px;""></stim_listB>",,html-keyboard-response,275,1606484,0.0-17.0-1.12,11680,List1B,white,woman,,,,null,,,,
null,is playing with,,html-keyboard-response,276,1608486,0.0-17.0-2.12,11680,List1B,white,woman,,,,null,,,,
6142,,,survey-text,277,1614630,0.0-17.0-3.12,11680,List1B,white,woman,,,,,"{""Q0"":""jane is playing with dave""}","<img src=""stim_listB/play3.gif""style=""height:400px;""></stim_listB>",is playing with,
null,"<div style=""font-size:60px;"">+</div>",,html-keyboard-response,278,1615136,0.0-17.0-0.13,11680,List1B,white,woman,,,,null,,,,
null,"<img src=""stim_listB/marry7.gif""style=""height:400px;""></stim_listB>",,html-keyboard-response,279,1617139,0.0-17.0-1.13,11680,List1B,white,woman,,,,null,,,,
null,is marrying,,html-keyboard-response,280,1619141,0.0-17.0-2.13,11680,List1B,white,woman,,,,null,,,,
33196,,,survey-text,281,1652338,0.0-17.0-3.13,11680,List1B,white,woman,,,,,"{""Q0"":""kate is marrying ruth""}","<img src=""stim_listB/marry7.gif""style=""height:400px;""></stim_listB>",is marrying,
null,"<div style=""font-size:60px;"">+</div>",,html-keyboard-response,282,1652844,0.0-17.0-0.14,11680,List1B,white,woman,,,,null,,,,
null,"<img src=""stim_listB/shout1.gif""style=""height:400px;""></stim_listB>",,html-keyboard-response,283,1654847,0.0-17.0-1.14,11680,List1B,white,woman,,,,null,,,,
null,is shouting at,,html-keyboard-response,284,1656849,0.0-17.0-2.14,11680,List1B,white,woman,,,,null,,,,
8243,,,survey-text,285,1665093,0.0-17.0-3.14,11680,List1B,white,woman,,,,,"{""Q0"":""beth is shouting at fred""}","<img src=""stim_listB/shout1.gif""style=""height:400px;""></stim_listB>",is shouting at,
null,"<div style=""font-size:60px;"">+</div>",,html-keyboard-response,286,1665596,0.0-17.0-0.15,11680,List1B,white,woman,,,,null,,,,
null,"<img src=""stim_listB/flirt5.gif""style=""height:400px;""></stim_listB>",,html-keyboard-response,287,1667598,0.0-17.0-1.15,11680,List1B,white,woman,,,,null,,,,
null,is flirting with,,html-keyboard-response,288,1669599,0.0-17.0-2.15,11680,List1B,white,woman,,,,null,,,,
10531,,,survey-text,289,1680131,0.0-17.0-3.15,11680,List1B,white,woman,,,,,"{""Q0"":""dave is flirting with fred ""}","<img src=""stim_listB/flirt5.gif""style=""height:400px;""></stim_listB>",is flirting with,
null,"<div style=""font-size:60px;"">+</div>",,html-keyboard-response,290,1680635,0.0-17.0-0.16,11680,List1B,white,woman,,,,null,,,,
null,"<img src=""stim_listB/argue5.gif""style=""height:400px;""></stim_listB>",,html-keyboard-response,291,1682637,0.0-17.0-1.16,11680,List1B,white,woman,,,,null,,,,
null,is arguing with,,html-keyboard-response,292,1684638,0.0-17.0-2.16,11680,List1B,white,woman,,,,null,,,,
10825,,,survey-text,293,1695465,0.0-17.0-3.16,11680,List1B,white,woman,,,,,"{""Q0"":""mike is arguing with luke""}","<img src=""stim_listB/argue5.gif""style=""height:400px;""></stim_listB>",is arguing with,
null,"<div style=""font-size:60px;"">+</div>",,html-keyboard-response,294,1695971,0.0-17.0-0.17,11680,List1B,white,woman,,,,null,,,,
null,"<img src=""stim_listB/fight6.gif""style=""height:400px;""></stim_listB>",,html-keyboard-response,295,1697973,0.0-17.0-1.17,11680,List1B,white,woman,,,,null,,,,
null,are fighting each other,,html-keyboard-response,296,1699974,0.0-17.0-2.17,11680,List1B,white,woman,,,,null,,,,
8894,,,survey-text,297,1708870,0.0-17.0-3.17,11680,List1B,white,woman,,,,,"{""Q0"":""fred and luke are fighting each other""}","<img src=""stim_listB/fight6.gif""style=""height:400px;""></stim_listB>",are fighting each other,
null,"<div style=""font-size:60px;"">+</div>",,html-keyboard-response,298,1709373,0.0-17.0-0.18,11680,List1B,white,woman,,,,null,,,,
null,"<img src=""stim_listB/marry8.gif""style=""height:400px;""></stim_listB>",,html-keyboard-response,299,1711375,0.0-17.0-1.18,11680,List1B,white,woman,,,,null,,,,
null,are marrying each other,,html-keyboard-response,300,1713376,0.0-17.0-2.18,11680,List1B,white,woman,,,,null,,,,
6579,,,survey-text,301,1719956,0.0-17.0-3.18,11680,List1B,white,woman,,,,,"{""Q0"":""beth and jane are marrying each other""}","<img src=""stim_listB/marry8.gif""style=""height:400px;""></stim_listB>",are marrying each other,
null,"<div style=""font-size:60px;"">+</div>",,html-keyboard-response,302,1720459,0.0-17.0-0.19,11680,List1B,white,woman,,,,null,,,,
null,"<img src=""stim_listB/play7.gif""style=""height:400px;""></stim_listB>",,html-keyboard-response,303,1722461,0.0-17.0-1.19,11680,List1B,white,woman,,,,null,,,,
null,is playing with,,html-keyboard-response,304,1724463,0.0-17.0-2.19,11680,List1B,white,woman,,,,null,,,,
6576,,,survey-text,305,1731041,0.0-17.0-3.19,11680,List1B,white,woman,,,,,"{""Q0"":""jane is playing with kate""}","<img src=""stim_listB/play7.gif""style=""height:400px;""></stim_listB>",is playing with,
8607,"<img src='img/portrait_matrix_list1.jpg' style='width:900px;height:500px;''></img><p>If you have memorised all the portraits and names and are ready to start, press Continue.</p><p><strong>Please note: Your memory of these faces will be tested 4 times during this experiment.</strong></p>",0,html-button-response,306,1739651,0.0-18.0-0.0,11680,List1B,white,woman,,,,,,,,
1386,"<img src=""portrait/BM1.jpg""style=""height:400px;""></img>",4,html-button-response,307,1742039,0.0-18.0-1.0,11680,List1B,white,woman,,TRUE,4,,,,,
null,CORRECT,,html-keyboard-response,308,1743548,0.0-18.0-2.0-0.0,11680,List1B,white,woman,,,,null,,,,
1967,"<img src=""portrait/WM1.jpg""style=""height:400px;""></img>",6,html-button-response,309,1745517,0.0-18.0-4.0,11680,List1B,white,woman,,TRUE,6,,,,,
null,CORRECT,,html-keyboard-response,310,1747020,0.0-18.0-5.0-0.0,11680,List1B,white,woman,,,,null,,,,
2725,"<img src=""portrait/BW1.jpg""style=""height:400px;""></img>",0,html-button-response,311,1749747,0.0-18.0-7.0,11680,List1B,white,woman,,TRUE,0,,,,,
null,CORRECT,,html-keyboard-response,312,1751252,0.0-18.0-8.0-0.0,11680,List1B,white,woman,,,,null,,,,
1908,"<img src=""portrait/BM2.jpg""style=""height:400px;""></img>",5,html-button-response,313,1753161,0.0-18.0-10.0,11680,List1B,white,woman,,TRUE,5,,,,,
null,CORRECT,,html-keyboard-response,314,1754669,0.0-18.0-11.0-0.0,11680,List1B,white,woman,,,,null,,,,
1482,"<img src=""portrait/BW2.jpg""style=""height:400px;""></img>",2,html-button-response,315,1756152,0.0-18.0-13.0,11680,List1B,white,woman,,TRUE,2,,,,,
null,CORRECT,,html-keyboard-response,316,1757658,0.0-18.0-14.0-0.0,11680,List1B,white,woman,,,,null,,,,
1290,"<img src=""portrait/WM2.jpg""style=""height:400px;""></img>",7,html-button-response,317,1758950,0.0-18.0-16.0,11680,List1B,white,woman,,TRUE,7,,,,,
null,CORRECT,,html-keyboard-response,318,1760453,0.0-18.0-17.0-0.0,11680,List1B,white,woman,,,,null,,,,
1893,"<img src=""portrait/WW1.jpg""style=""height:400px;""></img>",1,html-button-response,319,1762348,0.0-18.0-19.0,11680,List1B,white,woman,,TRUE,1,,,,,
null,CORRECT,,html-keyboard-response,320,1763853,0.0-18.0-20.0-0.0,11680,List1B,white,woman,,,,null,,,,
1378,"<img src=""portrait/WW2.jpg""style=""height:400px;""></img>",3,html-button-response,321,1765231,0.0-18.0-22.0,11680,List1B,white,woman,,TRUE,3,,,,,
null,CORRECT,,html-keyboard-response,322,1766742,0.0-18.0-23.0-0.0,11680,List1B,white,woman,,,,null,,,,
1063,<p>You got 8 out of 8 right first time. Press Continue.</p>,0,html-button-response,323,1767807,0.0-18.0-25.0,11680,List1B,white,woman,,,,,,,,
null,"<div style=""font-size:60px;"">+</div>",,html-keyboard-response,324,1769317,0.0-19.0-0.0,11680,List1B,white,woman,,,,null,,,,
null,"<img src=""stim_listB/marry6.gif""style=""height:400px;""></stim_listB>",,html-keyboard-response,325,1771321,0.0-19.0-1.0,11680,List1B,white,woman,,,,null,,,,
null,are marrying each other,,html-keyboard-response,326,1773323,0.0-19.0-2.0,11680,List1B,white,woman,,,,null,,,,
9652,,,survey-text,327,1782976,0.0-19.0-3.0,11680,List1B,white,woman,,,,,"{""Q0"":""fred and dave are marrying each other""}","<img src=""stim_listB/marry6.gif""style=""height:400px;""></stim_listB>",are marrying each other,
null,"<div style=""font-size:60px;"">+</div>",,html-keyboard-response,328,1783482,0.0-19.0-0.1,11680,List1B,white,woman,,,,null,,,,
null,"<img src=""stim_listB/play6.gif""style=""height:400px;""></stim_listB>",,html-keyboard-response,329,1785484,0.0-19.0-1.1,11680,List1B,white,woman,,,,null,,,,
null,are playing with each other,,html-keyboard-response,330,1787485,0.0-19.0-2.1,11680,List1B,white,woman,,,,null,,,,
11233,,,survey-text,331,1798720,0.0-19.0-3.1,11680,List1B,white,woman,,,,,"{""Q0"":""fred and luke are playing with each other""}","<img src=""stim_listB/play6.gif""style=""height:400px;""></stim_listB>",are playing with each other,
null,"<div style=""font-size:60px;"">+</div>",,html-keyboard-response,332,1799225,0.0-19.0-0.2,11680,List1B,white,woman,,,,null,,,,
null,"<img src=""stim_listB/flirt8.gif""style=""height:400px;""></stim_listB>",,html-keyboard-response,333,1801228,0.0-19.0-1.2,11680,List1B,white,woman,,,,null,,,,
null,are flirting with each other,,html-keyboard-response,334,1803230,0.0-19.0-2.2,11680,List1B,white,woman,,,,null,,,,
9188,,,survey-text,335,1812418,0.0-19.0-3.2,11680,List1B,white,woman,,,,,"{""Q0"":""kate and ruth are flirting with each other""}","<img src=""stim_listB/flirt8.gif""style=""height:400px;""></stim_listB>",are flirting with each other,
null,"<div style=""font-size:60px;"">+</div>",,html-keyboard-response,336,1812927,0.0-19.0-0.3,11680,List1B,white,woman,,,,null,,,,
null,"<img src=""stim_listB/marry5.gif""style=""height:400px;""></stim_listB>",,html-keyboard-response,337,1814929,0.0-19.0-1.3,11680,List1B,white,woman,,,,null,,,,
null,is marrying,,html-keyboard-response,338,1816930,0.0-19.0-2.3,11680,List1B,white,woman,,,,null,,,,
7721,,,survey-text,339,1824653,0.0-19.0-3.3,11680,List1B,white,woman,,,,,"{""Q0"":""luke is marrying mike""}","<img src=""stim_listB/marry5.gif""style=""height:400px;""></stim_listB>",is marrying,
null,"<div style=""font-size:60px;"">+</div>",,html-keyboard-response,340,1825158,0.0-19.0-0.4,11680,List1B,white,woman,,,,null,,,,
null,"<img src=""stim_listB/dance1.gif""style=""height:400px;""></stim_listB>",,html-keyboard-response,341,1827160,0.0-19.0-1.4,11680,List1B,white,woman,,,,null,,,,
null,is dancing with,,html-keyboard-response,342,1829161,0.0-19.0-2.4,11680,List1B,white,woman,,,,null,,,,
6244,,,survey-text,343,1835407,0.0-19.0-3.4,11680,List1B,white,woman,,,,,"{""Q0"":""kate is dancing with fred""}","<img src=""stim_listB/dance1.gif""style=""height:400px;""></stim_listB>",is dancing with,
null,"<div style=""font-size:60px;"">+</div>",,html-keyboard-response,344,1835909,0.0-19.0-0.5,11680,List1B,white,woman,,,,null,,,,
null,"<img src=""stim_listB/touch3.gif""style=""height:400px;""></stim_listB>",,html-keyboard-response,345,1837911,0.0-19.0-1.5,11680,List1B,white,woman,,,,null,,,,
null,is touching,,html-keyboard-response,346,1839912,0.0-19.0-2.5,11680,List1B,white,woman,,,,null,,,,
13384,,,survey-text,347,1853297,0.0-19.0-3.5,11680,List1B,white,woman,,,,,"{""Q0"":""jane is touching dave""}","<img src=""stim_listB/touch3.gif""style=""height:400px;""></stim_listB>",is touching,
null,"<div style=""font-size:60px;"">+</div>",,html-keyboard-response,348,1853800,0.0-19.0-0.6,11680,List1B,white,woman,,,,null,,,,
null,"<img src=""stim_listB/play5.gif""style=""height:400px;""></stim_listB>",,html-keyboard-response,349,1855802,0.0-19.0-1.6,11680,List1B,white,woman,,,,null,,,,
null,is playing with,,html-keyboard-response,350,1857805,0.0-19.0-2.6,11680,List1B,white,woman,,,,null,,,,
16241,,,survey-text,351,1874048,0.0-19.0-3.6,11680,List1B,white,woman,,,,,"{""Q0"":""looked away for a second by accident and missed this one!""}","<img src=""stim_listB/play5.gif""style=""height:400px;""></stim_listB>",is playing with,
null,"<div style=""font-size:60px;"">+</div>",,html-keyboard-response,352,1874554,0.0-19.0-0.7,11680,List1B,white,woman,,,,null,,,,
null,"<img src=""stim_listB/kiss6.gif""style=""height:400px;""></stim_listB>",,html-keyboard-response,353,1876557,0.0-19.0-1.7,11680,List1B,white,woman,,,,null,,,,
null,are kissing each other,,html-keyboard-response,354,1878559,0.0-19.0-2.7,11680,List1B,white,woman,,,,null,,,,
10145,,,survey-text,355,1888705,0.0-19.0-3.7,11680,List1B,white,woman,,,,,"{""Q0"":""mike and dave are kissing each other""}","<img src=""stim_listB/kiss6.gif""style=""height:400px;""></stim_listB>",are kissing each other,
null,"<div style=""font-size:60px;"">+</div>",,html-keyboard-response,356,1889211,0.0-19.0-0.8,11680,List1B,white,woman,,,,null,,,,
null,"<img src=""stim_listB/touch5.gif""style=""height:400px;""></stim_listB>",,html-keyboard-response,357,1891213,0.0-19.0-1.8,11680,List1B,white,woman,,,,null,,,,
null,is touching,,html-keyboard-response,358,1893219,0.0-19.0-2.8,11680,List1B,white,woman,,,,null,,,,
12173,,,survey-text,359,1905392,0.0-19.0-3.8,11680,List1B,white,woman,,,,,"{""Q0"":""mike is touching dave""}","<img src=""stim_listB/touch5.gif""style=""height:400px;""></stim_listB>",is touching,
null,"<div style=""font-size:60px;"">+</div>",,html-keyboard-response,360,1905900,0.0-19.0-0.9,11680,List1B,white,woman,,,,null,,,,
null,"<img src=""stim_listB/dance6.gif""style=""height:400px;""></stim_listB>",,html-keyboard-response,361,1907902,0.0-19.0-1.9,11680,List1B,white,woman,,,,null,,,,
null,are dancing with each other,,html-keyboard-response,362,1909903,0.0-19.0-2.9,11680,List1B,white,woman,,,,null,,,,
7880,,,survey-text,363,1917785,0.0-19.0-3.9,11680,List1B,white,woman,,,,,"{""Q0"":""mike and luke are dancing with each other""}","<img src=""stim_listB/dance6.gif""style=""height:400px;""></stim_listB>",are dancing with each other,
null,"<div style=""font-size:60px;"">+</div>",,html-keyboard-response,364,1918288,0.0-19.0-0.10,11680,List1B,white,woman,,,,null,,,,
null,"<img src=""stim_listB/fight8.gif""style=""height:400px;""></stim_listB>",,html-keyboard-response,365,1920290,0.0-19.0-1.10,11680,List1B,white,woman,,,,null,,,,
null,are fighting each other,,html-keyboard-response,366,1922292,0.0-19.0-2.10,11680,List1B,white,woman,,,,null,,,,
9423,,,survey-text,367,1931717,0.0-19.0-3.10,11680,List1B,white,woman,,,,,"{""Q0"":""beth and ruth are fighting each other""}","<img src=""stim_listB/fight8.gif""style=""height:400px;""></stim_listB>",are fighting each other,
null,"<div style=""font-size:60px;"">+</div>",,html-keyboard-response,368,1932223,0.0-19.0-0.11,11680,List1B,white,woman,,,,null,,,,
null,"<img src=""stim_listB/shout8.gif""style=""height:400px;""></stim_listB>",,html-keyboard-response,369,1934225,0.0-19.0-1.11,11680,List1B,white,woman,,,,null,,,,
null,are shouting at each other,,html-keyboard-response,370,1936228,0.0-19.0-2.11,11680,List1B,white,woman,,,,null,,,,
11830,,,survey-text,371,1948059,0.0-19.0-3.11,11680,List1B,white,woman,,,,,"{""Q0"":""kate and jane are shouting at each other""}","<img src=""stim_listB/shout8.gif""style=""height:400px;""></stim_listB>",are shouting at each other,
null,"<div style=""font-size:60px;"">+</div>",,html-keyboard-response,372,1948561,0.0-19.0-0.12,11680,List1B,white,woman,,,,null,,,,
null,"<img src=""stim_listB/fight3.gif""style=""height:400px;""></stim_listB>",,html-keyboard-response,373,1950563,0.0-19.0-1.12,11680,List1B,white,woman,,,,null,,,,
null,is fighting,,html-keyboard-response,374,1952568,0.0-19.0-2.12,11680,List1B,white,woman,,,,null,,,,
7406,,,survey-text,375,1959976,0.0-19.0-3.12,11680,List1B,white,woman,,,,,"{""Q0"":""jane is fighting dave""}","<img src=""stim_listB/fight3.gif""style=""height:400px;""></stim_listB>",is fighting,
null,"<div style=""font-size:60px;"">+</div>",,html-keyboard-response,376,1960482,0.0-19.0-0.13,11680,List1B,white,woman,,,,null,,,,
null,"<img src=""stim_listB/shout2.gif""style=""height:400px;""></stim_listB>",,html-keyboard-response,377,1962484,0.0-19.0-1.13,11680,List1B,white,woman,,,,null,,,,
null,are shouting at each other,,html-keyboard-response,378,1964485,0.0-19.0-2.13,11680,List1B,white,woman,,,,null,,,,
12869,,,survey-text,379,1977355,0.0-19.0-3.13,11680,List1B,white,woman,,,,,"{""Q0"":""mike and kate are shouting at each other""}","<img src=""stim_listB/shout2.gif""style=""height:400px;""></stim_listB>",are shouting at each other,
null,"<div style=""font-size:60px;"">+</div>",,html-keyboard-response,380,1977856,0.0-19.0-0.14,11680,List1B,white,woman,,,,null,,,,
null,"<img src=""stim_listB/touch1.gif""style=""height:400px;""></stim_listB>",,html-keyboard-response,381,1979858,0.0-19.0-1.14,11680,List1B,white,woman,,,,null,,,,
null,is touching,,html-keyboard-response,382,1981863,0.0-19.0-2.14,11680,List1B,white,woman,,,,null,,,,
5797,,,survey-text,383,1987662,0.0-19.0-3.14,11680,List1B,white,woman,,,,,"{""Q0"":""kate is touching mike""}","<img src=""stim_listB/touch1.gif""style=""height:400px;""></stim_listB>",is touching,
null,"<div style=""font-size:60px;"">+</div>",,html-keyboard-response,384,1988167,0.0-19.0-0.15,11680,List1B,white,woman,,,,null,,,,
null,"<img src=""stim_listB/argue3.gif""style=""height:400px;""></stim_listB>",,html-keyboard-response,385,1990170,0.0-19.0-1.15,11680,List1B,white,woman,,,,null,,,,
null,is arguing with,,html-keyboard-response,386,1992173,0.0-19.0-2.15,11680,List1B,white,woman,,,,null,,,,
7620,,,survey-text,387,1999794,0.0-19.0-3.15,11680,List1B,white,woman,,,,,"{""Q0"":""ruth is arguing with dave""}","<img src=""stim_listB/argue3.gif""style=""height:400px;""></stim_listB>",is arguing with,
null,"<div style=""font-size:60px;"">+</div>",,html-keyboard-response,388,2000298,0.0-19.0-0.16,11680,List1B,white,woman,,,,null,,,,
null,"<img src=""stim_listB/dance4.gif""style=""height:400px;""></stim_listB>",,html-keyboard-response,389,2002300,0.0-19.0-1.16,11680,List1B,white,woman,,,,null,,,,
null,are dancing with each other,,html-keyboard-response,390,2004305,0.0-19.0-2.16,11680,List1B,white,woman,,,,null,,,,
10921,,,survey-text,391,2015227,0.0-19.0-3.16,11680,List1B,white,woman,,,,,"{""Q0"":""ruth and dave are dancing with each other""}","<img src=""stim_listB/dance4.gif""style=""height:400px;""></stim_listB>",are dancing with each other,
null,"<div style=""font-size:60px;"">+</div>",,html-keyboard-response,392,2015730,0.0-19.0-0.17,11680,List1B,white,woman,,,,null,,,,
null,"<img src=""stim_listB/dance2.gif""style=""height:400px;""></stim_listB>",,html-keyboard-response,393,2017733,0.0-19.0-1.17,11680,List1B,white,woman,,,,null,,,,
null,are dancing with each other,,html-keyboard-response,394,2019734,0.0-19.0-2.17,11680,List1B,white,woman,,,,null,,,,
11550,,,survey-text,395,2031285,0.0-19.0-3.17,11680,List1B,white,woman,,,,,"{""Q0"":""mike and beth are dancing with each other""}","<img src=""stim_listB/dance2.gif""style=""height:400px;""></stim_listB>",are dancing with each other,
null,"<div style=""font-size:60px;"">+</div>",,html-keyboard-response,396,2031787,0.0-19.0-0.18,11680,List1B,white,woman,,,,null,,,,
null,"<img src=""stim_listB/flirt4.gif""style=""height:400px;""></stim_listB>",,html-keyboard-response,397,2033789,0.0-19.0-1.18,11680,List1B,white,woman,,,,null,,,,
null,are flirting with each other,,html-keyboard-response,398,2035795,0.0-19.0-2.18,11680,List1B,white,woman,,,,null,,,,
13212,,,survey-text,399,2049007,0.0-19.0-3.18,11680,List1B,white,woman,,,,,"{""Q0"":""dave and ruth are flirting with each other""}","<img src=""stim_listB/flirt4.gif""style=""height:400px;""></stim_listB>",are flirting with each other,
null,"<div style=""font-size:60px;"">+</div>",,html-keyboard-response,400,2049510,0.0-19.0-0.19,11680,List1B,white,woman,,,,null,,,,
null,"<img src=""stim_listB/shout5.gif""style=""height:400px;""></stim_listB>",,html-keyboard-response,401,2051512,0.0-19.0-1.19,11680,List1B,white,woman,,,,null,,,,
null,is shouting at,,html-keyboard-response,402,2053513,0.0-19.0-2.19,11680,List1B,white,woman,,,,null,,,,
6107,,,survey-text,403,2059622,0.0-19.0-3.19,11680,List1B,white,woman,,,,,"{""Q0"":""fred is shouting at luke""}","<img src=""stim_listB/shout5.gif""style=""height:400px;""></stim_listB>",is shouting at,
1232,<p>Thank you for completing that task.</p><p>The final part of this session is a short questionnaire.</p><p>Press Continue.</p>,0,html-button-response,404,2060856,0.0-20.0,11680,List1B,white,woman,,,,,,,,
16301,,,survey-text,405,2078164,0.0-21.0,11680,List1B,white,woman,,,,,"{""Q0"":""42"",""Q1"":""English"",""Q2"":""English"",""Q3"":""USA"",""Q4"":""white"",""Q5"":""Female""}",,,demographics
5997,,,survey-likert,406,2084165,0.0-22.0,11680,List1B,white,woman,,,,,"{""Q0"":4}",,,likert_ESS
14658,,,survey-likert,407,2098825,0.0-23.0,11680,List1B,white,woman,,,,,"{""Q0"":4}",,,likert_NSSAL_Q1
2544,,,survey-likert,408,2101371,0.0-24.0,11680,List1B,white,woman,,,,,"{""Q0"":4}",,,likert_NSSAL_Q2
6537,,,survey-likert,409,2107911,0.0-25.0,11680,List1B,white,woman,,,,,"{""Q0"":4}",,,likert_CGRS_Q1
2570,,,survey-likert,410,2110483,0.0-26.0,11680,List1B,white,woman,,,,,"{""Q0"":4}",,,likert_CGRS_Q2
4276,,,survey-likert,411,2114762,0.0-27.0,11680,List1B,white,woman,,,,,"{""Q0"":4}",,,likert_CGRS_Q3
3113,,,survey-text,412,2117877,0.0-28.0,11680,List1B,white,woman,,,,,"{""Q0"":""ccc""}",,,worker_id
15917,,,external-html,413,2134026,0.0-29.0,11680,List1B,white,woman,debrief.html,,,,,,,
