"rt","stimulus","button_pressed","trial_type","trial_index","time_elapsed","internal_node_id","subject","list","ppt_race","ppt_gender","url","first_guess","correct","key_press","responses","image_type","phrase_type","test_part"
"4450","Welcome to the experiment. Press Continue to begin.","0","html-button-response","0","4452","0.0-0.0","12232","List1A","black","woman","","","","","","","",""
"10079","","","external-html","1","15637","0.0-1.0","12232","List1A","black","woman","consent.html","","","","","","",""
"11531","<p>On the next page, you will see portraits of 8 people and their names.</p><p>Your first task is to take a few minutes to memorise the names of these people.</p><p>You will have to recall their names during the rest of the experiment, so it is</p><p>essential that you try to memorise these people and their names as best as you can.</p><br><p><strong>You will then be tested on your memory of these names and portraits.</strong></p><br><p>The experiment will start after you have completed this memory test.</p><br><p>Ready?</p>","0","html-button-response","2","27170","0.0-2.0","12232","List1A","black","woman","","","","","","","",""
"12199","<img src='img/portrait_matrix_list1.jpg' style='width:900px;height:500px;''></img><p>If you have memorised all the portraits and names and are ready to start, press Continue.</p><p><strong>Please note: Your memory of these faces will be tested 4 times during this experiment.</strong></p>","0","html-button-response","3","40376","0.0-3.0-0.0","12232","List1A","black","woman","","","","","","","",""
"4094","<img src=""portrait/WW2.jpg""style=""height:400px;""></img>","0","html-button-response","4","45475","0.0-3.0-1.0","12232","List1A","black","woman","","true","3","","","","",""
"5523","<img src=""portrait/WW2.jpg""style=""height:400px;""></img>","3","html-button-response","5","52003","0.0-3.0-3.0-0.0","12232","List1A","black","woman","","false","3","","","","",""
"null","CORRECT","","html-keyboard-response","6","53510","0.0-3.0-3.0-1.0-0.0","12232","List1A","black","woman","","","","null","","","",""
"2686","<img src=""portrait/WM2.jpg""style=""height:400px;""></img>","4","html-button-response","7","56197","0.0-3.0-4.0","12232","List1A","black","woman","","true","7","","","","",""
"5752","<img src=""portrait/WM2.jpg""style=""height:400px;""></img>","7","html-button-response","8","62953","0.0-3.0-6.0-0.0","12232","List1A","black","woman","","false","7","","","","",""
"null","CORRECT","","html-keyboard-response","9","64458","0.0-3.0-6.0-1.0-0.0","12232","List1A","black","woman","","","","null","","","",""
"5714","<img src=""portrait/BW2.jpg""style=""height:400px;""></img>","3","html-button-response","10","70174","0.0-3.0-7.0","12232","List1A","black","woman","","true","2","","","","",""
"3987","<img src=""portrait/BW2.jpg""style=""height:400px;""></img>","2","html-button-response","11","75165","0.0-3.0-9.0-0.0","12232","List1A","black","woman","","false","2","","","","",""
"null","CORRECT","","html-keyboard-response","12","76669","0.0-3.0-9.0-1.0-0.0","12232","List1A","black","woman","","","","null","","","",""
"5586","<img src=""portrait/WW1.jpg""style=""height:400px;""></img>","0","html-button-response","13","82256","0.0-3.0-10.0","12232","List1A","black","woman","","true","1","","","","",""
"3127","<img src=""portrait/WW1.jpg""style=""height:400px;""></img>","1","html-button-response","14","86385","0.0-3.0-12.0-0.0","12232","List1A","black","woman","","false","1","","","","",""
"null","CORRECT","","html-keyboard-response","15","87890","0.0-3.0-12.0-1.0-0.0","12232","List1A","black","woman","","","","null","","","",""
"2752","<img src=""portrait/BM2.jpg""style=""height:400px;""></img>","7","html-button-response","16","90642","0.0-3.0-13.0","12232","List1A","black","woman","","true","5","","","","",""
"3777","<img src=""portrait/BM2.jpg""style=""height:400px;""></img>","5","html-button-response","17","95423","0.0-3.0-15.0-0.0","12232","List1A","black","woman","","false","5","","","","",""
"null","CORRECT","","html-keyboard-response","18","96926","0.0-3.0-15.0-1.0-0.0","12232","List1A","black","woman","","","","null","","","",""
"9002","<img src=""portrait/BW1.jpg""style=""height:400px;""></img>","2","html-button-response","19","105930","0.0-3.0-16.0","12232","List1A","black","woman","","true","0","","","","",""
"3957","<img src=""portrait/BW1.jpg""style=""height:400px;""></img>","0","html-button-response","20","110891","0.0-3.0-18.0-0.0","12232","List1A","black","woman","","false","0","","","","",""
"null","CORRECT","","html-keyboard-response","21","112397","0.0-3.0-18.0-1.0-0.0","12232","List1A","black","woman","","","","null","","","",""
"6535","<img src=""portrait/WM1.jpg""style=""height:400px;""></img>","6","html-button-response","22","118933","0.0-3.0-19.0","12232","List1A","black","woman","","true","6","","","","",""
"null","CORRECT","","html-keyboard-response","23","120438","0.0-3.0-20.0-0.0","12232","List1A","black","woman","","","","null","","","",""
"3349","<img src=""portrait/BM1.jpg""style=""height:400px;""></img>","7","html-button-response","24","123788","0.0-3.0-22.0","12232","List1A","black","woman","","true","4","","","","",""
"4284","<img src=""portrait/BM1.jpg""style=""height:400px;""></img>","4","html-button-response","25","129075","0.0-3.0-24.0-0.0","12232","List1A","black","woman","","false","4","","","","",""
"null","CORRECT","","html-keyboard-response","26","130580","0.0-3.0-24.0-1.0-0.0","12232","List1A","black","woman","","","","null","","","",""
"1780","<p>You got 1 out of 8 right first time. Press Continue.</p>","0","html-button-response","27","132361","0.0-3.0-25.0","12232","List1A","black","woman","","","","","","","",""
"3258","As you did not score 100%, the memory game will repeat. Press Continue.","0","html-button-response","28","136623","0.0-3.0-26.0-0.0","12232","List1A","black","woman","","","","","","","",""
"43907","<img src='img/portrait_matrix_list1.jpg' style='width:900px;height:500px;''></img><p>If you have memorised all the portraits and names and are ready to start, press Continue.</p><p><strong>Please note: Your memory of these faces will be tested 4 times during this experiment.</strong></p>","0","html-button-response","29","181534","0.0-3.1-0.1","12232","List1A","black","woman","","","","","","","",""
"1650","<img src=""portrait/WW2.jpg""style=""height:400px;""></img>","3","html-button-response","30","184188","0.0-3.1-1.1","12232","List1A","black","woman","","true","3","","","","",""
"null","CORRECT","","html-keyboard-response","31","185696","0.0-3.1-2.1-0.1","12232","List1A","black","woman","","","","null","","","",""
"2457","<img src=""portrait/WM2.jpg""style=""height:400px;""></img>","7","html-button-response","32","188153","0.0-3.1-4.1","12232","List1A","black","woman","","true","7","","","","",""
"null","CORRECT","","html-keyboard-response","33","189657","0.0-3.1-5.1-0.1","12232","List1A","black","woman","","","","null","","","",""
"4203","<img src=""portrait/BW2.jpg""style=""height:400px;""></img>","2","html-button-response","34","193860","0.0-3.1-7.1","12232","List1A","black","woman","","true","2","","","","",""
"null","CORRECT","","html-keyboard-response","35","195368","0.0-3.1-8.1-0.1","12232","List1A","black","woman","","","","null","","","",""
"1984","<img src=""portrait/WW1.jpg""style=""height:400px;""></img>","1","html-button-response","36","197353","0.0-3.1-10.1","12232","List1A","black","woman","","true","1","","","","",""
"null","CORRECT","","html-keyboard-response","37","198863","0.0-3.1-11.1-0.1","12232","List1A","black","woman","","","","null","","","",""
"2931","<img src=""portrait/BM2.jpg""style=""height:400px;""></img>","5","html-button-response","38","201795","0.0-3.1-13.1","12232","List1A","black","woman","","true","5","","","","",""
"null","CORRECT","","html-keyboard-response","39","203300","0.0-3.1-14.1-0.1","12232","List1A","black","woman","","","","null","","","",""
"3400","<img src=""portrait/BW1.jpg""style=""height:400px;""></img>","0","html-button-response","40","206701","0.0-3.1-16.1","12232","List1A","black","woman","","true","0","","","","",""
"null","CORRECT","","html-keyboard-response","41","208206","0.0-3.1-17.1-0.1","12232","List1A","black","woman","","","","null","","","",""
"2361","<img src=""portrait/WM1.jpg""style=""height:400px;""></img>","6","html-button-response","42","210569","0.0-3.1-19.1","12232","List1A","black","woman","","true","6","","","","",""
"null","CORRECT","","html-keyboard-response","43","212075","0.0-3.1-20.1-0.1","12232","List1A","black","woman","","","","null","","","",""
"6095","<img src=""portrait/BM1.jpg""style=""height:400px;""></img>","7","html-button-response","44","218171","0.0-3.1-22.1","12232","List1A","black","woman","","true","4","","","","",""
"2072","<img src=""portrait/BM1.jpg""style=""height:400px;""></img>","4","html-button-response","45","221245","0.0-3.1-24.1-0.1","12232","List1A","black","woman","","false","4","","","","",""
"null","CORRECT","","html-keyboard-response","46","222752","0.0-3.1-24.1-1.1-0.1","12232","List1A","black","woman","","","","null","","","",""
"2099","<p>You got 7 out of 8 right first time. Press Continue.</p>","0","html-button-response","47","224853","0.0-3.1-25.1","12232","List1A","black","woman","","","","","","","",""
"3670","As you did not score 100%, the memory game will repeat. Press Continue.","0","html-button-response","48","229527","0.0-3.1-26.1-0.1","12232","List1A","black","woman","","","","","","","",""
"6585","<img src='img/portrait_matrix_list1.jpg' style='width:900px;height:500px;''></img><p>If you have memorised all the portraits and names and are ready to start, press Continue.</p><p><strong>Please note: Your memory of these faces will be tested 4 times during this experiment.</strong></p>","0","html-button-response","49","237117","0.0-3.2-0.2","12232","List1A","black","woman","","","","","","","",""
"3441","<img src=""portrait/WW2.jpg""style=""height:400px;""></img>","3","html-button-response","50","241561","0.0-3.2-1.2","12232","List1A","black","woman","","true","3","","","","",""
"null","CORRECT","","html-keyboard-response","51","243068","0.0-3.2-2.2-0.2","12232","List1A","black","woman","","","","null","","","",""
"10381","<img src=""portrait/WM2.jpg""style=""height:400px;""></img>","7","html-button-response","52","253452","0.0-3.2-4.2","12232","List1A","black","woman","","true","7","","","","",""
"null","CORRECT","","html-keyboard-response","53","254960","0.0-3.2-5.2-0.2","12232","List1A","black","woman","","","","null","","","",""
"5908","<img src=""portrait/BW2.jpg""style=""height:400px;""></img>","2","html-button-response","54","260869","0.0-3.2-7.2","12232","List1A","black","woman","","true","2","","","","",""
"null","CORRECT","","html-keyboard-response","55","262377","0.0-3.2-8.2-0.2","12232","List1A","black","woman","","","","null","","","",""
"1596","<img src=""portrait/WW1.jpg""style=""height:400px;""></img>","1","html-button-response","56","263974","0.0-3.2-10.2","12232","List1A","black","woman","","true","1","","","","",""
"null","CORRECT","","html-keyboard-response","57","265477","0.0-3.2-11.2-0.2","12232","List1A","black","woman","","","","null","","","",""
"6423","<img src=""portrait/BM2.jpg""style=""height:400px;""></img>","4","html-button-response","58","271901","0.0-3.2-13.2","12232","List1A","black","woman","","true","5","","","","",""
"3237","<img src=""portrait/BM2.jpg""style=""height:400px;""></img>","5","html-button-response","59","276143","0.0-3.2-15.2-0.2","12232","List1A","black","woman","","false","5","","","","",""
"null","CORRECT","","html-keyboard-response","60","277649","0.0-3.2-15.2-1.2-0.2","12232","List1A","black","woman","","","","null","","","",""
"4987","<img src=""portrait/BW1.jpg""style=""height:400px;""></img>","0","html-button-response","61","282636","0.0-3.2-16.2","12232","List1A","black","woman","","true","0","","","","",""
"null","CORRECT","","html-keyboard-response","62","284138","0.0-3.2-17.2-0.2","12232","List1A","black","woman","","","","null","","","",""
"2229","<img src=""portrait/WM1.jpg""style=""height:400px;""></img>","6","html-button-response","63","286369","0.0-3.2-19.2","12232","List1A","black","woman","","true","6","","","","",""
"null","CORRECT","","html-keyboard-response","64","287877","0.0-3.2-20.2-0.2","12232","List1A","black","woman","","","","null","","","",""
"8403","<img src=""portrait/BM1.jpg""style=""height:400px;""></img>","4","html-button-response","65","296282","0.0-3.2-22.2","12232","List1A","black","woman","","true","4","","","","",""
"null","CORRECT","","html-keyboard-response","66","297786","0.0-3.2-23.2-0.2","12232","List1A","black","woman","","","","null","","","",""
"1523","<p>You got 7 out of 8 right first time. Press Continue.</p>","0","html-button-response","67","299309","0.0-3.2-25.2","12232","List1A","black","woman","","","","","","","",""
"1533","As you did not score 100%, the memory game will repeat. Press Continue.","0","html-button-response","68","301846","0.0-3.2-26.2-0.2","12232","List1A","black","woman","","","","","","","",""
"24036","<img src='img/portrait_matrix_list1.jpg' style='width:900px;height:500px;''></img><p>If you have memorised all the portraits and names and are ready to start, press Continue.</p><p><strong>Please note: Your memory of these faces will be tested 4 times during this experiment.</strong></p>","0","html-button-response","69","326886","0.0-3.3-0.3","12232","List1A","black","woman","","","","","","","",""
"7789","<img src=""portrait/WW2.jpg""style=""height:400px;""></img>","2","html-button-response","70","335680","0.0-3.3-1.3","12232","List1A","black","woman","","true","3","","","","",""
"3577","<img src=""portrait/WW2.jpg""style=""height:400px;""></img>","3","html-button-response","71","340262","0.0-3.3-3.3-0.3","12232","List1A","black","woman","","false","3","","","","",""
"null","CORRECT","","html-keyboard-response","72","341768","0.0-3.3-3.3-1.3-0.3","12232","List1A","black","woman","","","","null","","","",""
"2352","<img src=""portrait/WM2.jpg""style=""height:400px;""></img>","7","html-button-response","73","344122","0.0-3.3-4.3","12232","List1A","black","woman","","true","7","","","","",""
"null","CORRECT","","html-keyboard-response","74","345628","0.0-3.3-5.3-0.3","12232","List1A","black","woman","","","","null","","","",""
"9434","<img src=""portrait/BW2.jpg""style=""height:400px;""></img>","2","html-button-response","75","355063","0.0-3.3-7.3","12232","List1A","black","woman","","true","2","","","","",""
"null","CORRECT","","html-keyboard-response","76","356566","0.0-3.3-8.3-0.3","12232","List1A","black","woman","","","","null","","","",""
"2048","<img src=""portrait/WW1.jpg""style=""height:400px;""></img>","1","html-button-response","77","358616","0.0-3.3-10.3","12232","List1A","black","woman","","true","1","","","","",""
"null","CORRECT","","html-keyboard-response","78","360123","0.0-3.3-11.3-0.3","12232","List1A","black","woman","","","","null","","","",""
"4538","<img src=""portrait/BM2.jpg""style=""height:400px;""></img>","5","html-button-response","79","364662","0.0-3.3-13.3","12232","List1A","black","woman","","true","5","","","","",""
"null","CORRECT","","html-keyboard-response","80","366167","0.0-3.3-14.3-0.3","12232","List1A","black","woman","","","","null","","","",""
"1938","<img src=""portrait/BW1.jpg""style=""height:400px;""></img>","0","html-button-response","81","368107","0.0-3.3-16.3","12232","List1A","black","woman","","true","0","","","","",""
"null","CORRECT","","html-keyboard-response","82","369613","0.0-3.3-17.3-0.3","12232","List1A","black","woman","","","","null","","","",""
"2216","<img src=""portrait/WM1.jpg""style=""height:400px;""></img>","6","html-button-response","83","371829","0.0-3.3-19.3","12232","List1A","black","woman","","true","6","","","","",""
"null","CORRECT","","html-keyboard-response","84","373334","0.0-3.3-20.3-0.3","12232","List1A","black","woman","","","","null","","","",""
"3582","<img src=""portrait/BM1.jpg""style=""height:400px;""></img>","4","html-button-response","85","376917","0.0-3.3-22.3","12232","List1A","black","woman","","true","4","","","","",""
"null","CORRECT","","html-keyboard-response","86","378423","0.0-3.3-23.3-0.3","12232","List1A","black","woman","","","","null","","","",""
"1761","<p>You got 7 out of 8 right first time. Press Continue.</p>","0","html-button-response","87","380184","0.0-3.3-25.3","12232","List1A","black","woman","","","","","","","",""
"967","As you did not score 100%, the memory game will repeat. Press Continue.","0","html-button-response","88","382152","0.0-3.3-26.3-0.3","12232","List1A","black","woman","","","","","","","",""
"5421","<img src='img/portrait_matrix_list1.jpg' style='width:900px;height:500px;''></img><p>If you have memorised all the portraits and names and are ready to start, press Continue.</p><p><strong>Please note: Your memory of these faces will be tested 4 times during this experiment.</strong></p>","0","html-button-response","89","388577","0.0-3.4-0.4","12232","List1A","black","woman","","","","","","","",""
"2568","<img src=""portrait/WW2.jpg""style=""height:400px;""></img>","3","html-button-response","90","392151","0.0-3.4-1.4","12232","List1A","black","woman","","true","3","","","","",""
"null","CORRECT","","html-keyboard-response","91","393658","0.0-3.4-2.4-0.4","12232","List1A","black","woman","","","","null","","","",""
"2076","<img src=""portrait/WM2.jpg""style=""height:400px;""></img>","7","html-button-response","92","395736","0.0-3.4-4.4","12232","List1A","black","woman","","true","7","","","","",""
"null","CORRECT","","html-keyboard-response","93","397243","0.0-3.4-5.4-0.4","12232","List1A","black","woman","","","","null","","","",""
"3754","<img src=""portrait/BW2.jpg""style=""height:400px;""></img>","2","html-button-response","94","400998","0.0-3.4-7.4","12232","List1A","black","woman","","true","2","","","","",""
"null","CORRECT","","html-keyboard-response","95","402505","0.0-3.4-8.4-0.4","12232","List1A","black","woman","","","","null","","","",""
"2717","<img src=""portrait/WW1.jpg""style=""height:400px;""></img>","1","html-button-response","96","405222","0.0-3.4-10.4","12232","List1A","black","woman","","true","1","","","","",""
"null","CORRECT","","html-keyboard-response","97","406725","0.0-3.4-11.4-0.4","12232","List1A","black","woman","","","","null","","","",""
"3648","<img src=""portrait/BM2.jpg""style=""height:400px;""></img>","5","html-button-response","98","410374","0.0-3.4-13.4","12232","List1A","black","woman","","true","5","","","","",""
"null","CORRECT","","html-keyboard-response","99","411881","0.0-3.4-14.4-0.4","12232","List1A","black","woman","","","","null","","","",""
"1681","<img src=""portrait/BW1.jpg""style=""height:400px;""></img>","0","html-button-response","100","413564","0.0-3.4-16.4","12232","List1A","black","woman","","true","0","","","","",""
"null","CORRECT","","html-keyboard-response","101","415070","0.0-3.4-17.4-0.4","12232","List1A","black","woman","","","","null","","","",""
"2346","<img src=""portrait/WM1.jpg""style=""height:400px;""></img>","6","html-button-response","102","417418","0.0-3.4-19.4","12232","List1A","black","woman","","true","6","","","","",""
"null","CORRECT","","html-keyboard-response","103","418924","0.0-3.4-20.4-0.4","12232","List1A","black","woman","","","","null","","","",""
"2241","<img src=""portrait/BM1.jpg""style=""height:400px;""></img>","4","html-button-response","104","421167","0.0-3.4-22.4","12232","List1A","black","woman","","true","4","","","","",""
"null","CORRECT","","html-keyboard-response","105","422673","0.0-3.4-23.4-0.4","12232","List1A","black","woman","","","","null","","","",""
"1773","<p>You got 8 out of 8 right first time. Press Continue.</p>","0","html-button-response","106","424447","0.0-3.4-25.4","12232","List1A","black","woman","","","","","","","",""
"50148","<p>In this experiment, you will view photographs of the people from the memory game interacting.</p><p>By using the <strong>exact</strong> phrase given <i>after</i> the photograph appears and recalling the correct names of the people in the photographs, form a sentence describing the interaction. You do not need to capitalise names.</p><p>Type your answer in the space provided. Please complete every sentence before moving onto the next trial.</p><p>You will only have a few seconds to memorise each given photograph and phrase before you can respond, so try your best to focus.</p><p>An example is given below. Press 'Continue' when you are ready.</p><img src='img/speaking_example.jpg' style='width:800px;height:460px;''></img>","0","html-button-response","107","475600","0.0-4.0","12232","List1A","black","woman","","","","","","","",""
"2417","<p>Before the experiment starts, you will watch two example trials. Press 'Continue'.</p>","0","html-button-response","108","479023","0.0-5.0","12232","List1A","black","woman","","","","","","","",""
"null","<img src='img/meet_eg.gif' style='height:400px;''></img>","","html-keyboard-response","109","482034","0.0-6.0","12232","List1A","black","woman","","","","null","","","",""
"null","<p>is meeting</p>","","html-keyboard-response","110","484035","0.0-7.0","12232","List1A","black","woman","","","","null","","","",""
"2627","<p><b>Answer:</b> kate is meeting beth</p>","0","html-button-response","111","486662","0.0-8.0","12232","List1A","black","woman","","","","","","","",""
"null","<img src='img/look_eg.gif' style='height:400px;''></img>","","html-keyboard-response","112","489668","0.0-9.0","12232","List1A","black","woman","","","","null","","","",""
"null","<p>are looking at each other</p>","","html-keyboard-response","113","491669","0.0-10.0","12232","List1A","black","woman","","","","null","","","",""
"1502","<p><b>Answer:</b> luke and dave are looking at each other</p>","0","html-button-response","114","493172","0.0-11.0","12232","List1A","black","woman","","","","","","","",""
"3187","<p>Ready to start the experiment?</p><br><p><strong>Remember to describe the picture using a full sentence,</strong></p><p><strong>that combines the names of the people with the <i>exact</i> phrase given.</strong></p><p><strong>To receive full payment you must do this correctly.</strong></p><p><strong> You do not need to capitalise names or use punctuation.</strong></p><br><p>Press 'Continue' to begin.</p>","0","html-button-response","115","497361","0.0-12.0","12232","List1A","black","woman","","","","","","","",""
"null","<div style=""font-size:60px;"">+</div>","","html-keyboard-response","116","498868","0.0-13.0-0.0","12232","List1A","black","woman","","","","null","","","",""
"null","<img src=""stim_listA/fight5.gif""style=""height:400px;""></stim_listA>","","html-keyboard-response","117","500872","0.0-13.0-1.0","12232","List1A","black","woman","","","","null","","","",""
"null","is fighting","","html-keyboard-response","118","502872","0.0-13.0-2.0","12232","List1A","black","woman","","","","null","","","",""
"12356","","","survey-text","119","515230","0.0-13.0-3.0","12232","List1A","black","woman","","","","","{""Q0"":""Dave and Mike are fighting""}","<img src=""stim_listA/fight5.gif""style=""height:400px;""></stim_listA>","is fighting",""
"null","<div style=""font-size:60px;"">+</div>","","html-keyboard-response","120","515733","0.0-13.0-0.1","12232","List1A","black","woman","","","","null","","","",""
"null","<img src=""stim_listA/marry7.gif""style=""height:400px;""></stim_listA>","","html-keyboard-response","121","517735","0.0-13.0-1.1","12232","List1A","black","woman","","","","null","","","",""
"null","is marrying","","html-keyboard-response","122","519736","0.0-13.0-2.1","12232","List1A","black","woman","","","","null","","","",""
"10917","","","survey-text","123","530654","0.0-13.0-3.1","12232","List1A","black","woman","","","","","{""Q0"":""Ruth is marrying Kate""}","<img src=""stim_listA/marry7.gif""style=""height:400px;""></stim_listA>","is marrying",""
"null","<div style=""font-size:60px;"">+</div>","","html-keyboard-response","124","531155","0.0-13.0-0.2","12232","List1A","black","woman","","","","null","","","",""
"null","<img src=""stim_listA/dance7.gif""style=""height:400px;""></stim_listA>","","html-keyboard-response","125","533157","0.0-13.0-1.2","12232","List1A","black","woman","","","","null","","","",""
"null","is dancing with","","html-keyboard-response","126","535158","0.0-13.0-2.2","12232","List1A","black","woman","","","","null","","","",""
"8502","","","survey-text","127","543661","0.0-13.0-3.2","12232","List1A","black","woman","","","","","{""Q0"":""Jane is dancing with Beth""}","<img src=""stim_listA/dance7.gif""style=""height:400px;""></stim_listA>","is dancing with",""
"null","<div style=""font-size:60px;"">+</div>","","html-keyboard-response","128","544163","0.0-13.0-0.3","12232","List1A","black","woman","","","","null","","","",""
"null","<img src=""stim_listA/touch7.gif""style=""height:400px;""></stim_listA>","","html-keyboard-response","129","546167","0.0-13.0-1.3","12232","List1A","black","woman","","","","null","","","",""
"null","is touching","","html-keyboard-response","130","548172","0.0-13.0-2.3","12232","List1A","black","woman","","","","null","","","",""
"8208","","","survey-text","131","556382","0.0-13.0-3.3","12232","List1A","black","woman","","","","","{""Q0"":""Kate is touching Jane""}","<img src=""stim_listA/touch7.gif""style=""height:400px;""></stim_listA>","is touching",""
"null","<div style=""font-size:60px;"">+</div>","","html-keyboard-response","132","556883","0.0-13.0-0.4","12232","List1A","black","woman","","","","null","","","",""
"null","<img src=""stim_listA/shout8.gif""style=""height:400px;""></stim_listA>","","html-keyboard-response","133","558888","0.0-13.0-1.4","12232","List1A","black","woman","","","","null","","","",""
"null","are shouting at each other","","html-keyboard-response","134","560894","0.0-13.0-2.4","12232","List1A","black","woman","","","","null","","","",""
"14359","","","survey-text","135","575253","0.0-13.0-3.4","12232","List1A","black","woman","","","","","{""Q0"":""Jane and kate are shouting at each other""}","<img src=""stim_listA/shout8.gif""style=""height:400px;""></stim_listA>","are shouting at each other",""
"null","<div style=""font-size:60px;"">+</div>","","html-keyboard-response","136","575756","0.0-13.0-0.5","12232","List1A","black","woman","","","","null","","","",""
"null","<img src=""stim_listA/fight6.gif""style=""height:400px;""></stim_listA>","","html-keyboard-response","137","577759","0.0-13.0-1.5","12232","List1A","black","woman","","","","null","","","",""
"null","are fighting each other","","html-keyboard-response","138","579760","0.0-13.0-2.5","12232","List1A","black","woman","","","","null","","","",""
"13687","","","survey-text","139","593449","0.0-13.0-3.5","12232","List1A","black","woman","","","","","{""Q0"":""Luke and Fred are fighting each other""}","<img src=""stim_listA/fight6.gif""style=""height:400px;""></stim_listA>","are fighting each other",""
"null","<div style=""font-size:60px;"">+</div>","","html-keyboard-response","140","593951","0.0-13.0-0.6","12232","List1A","black","woman","","","","null","","","",""
"null","<img src=""stim_listA/touch4.gif""style=""height:400px;""></stim_listA>","","html-keyboard-response","141","595956","0.0-13.0-1.6","12232","List1A","black","woman","","","","null","","","",""
"null","are touching each other","","html-keyboard-response","142","597960","0.0-13.0-2.6","12232","List1A","black","woman","","","","null","","","",""
"14978","","","survey-text","143","612938","0.0-13.0-3.6","12232","List1A","black","woman","","","","","{""Q0"":""Luke and Ruth are touching each other""}","<img src=""stim_listA/touch4.gif""style=""height:400px;""></stim_listA>","are touching each other",""
"null","<div style=""font-size:60px;"">+</div>","","html-keyboard-response","144","613443","0.0-13.0-0.7","12232","List1A","black","woman","","","","null","","","",""
"null","<img src=""stim_listA/flirt1.gif""style=""height:400px;""></stim_listA>","","html-keyboard-response","145","615447","0.0-13.0-1.7","12232","List1A","black","woman","","","","null","","","",""
"null","is flirting with","","html-keyboard-response","146","617450","0.0-13.0-2.7","12232","List1A","black","woman","","","","null","","","",""
"9144","","","survey-text","147","626595","0.0-13.0-3.7","12232","List1A","black","woman","","","","","{""Q0"":""Kate is flirting with Fred""}","<img src=""stim_listA/flirt1.gif""style=""height:400px;""></stim_listA>","is flirting with",""
"null","<div style=""font-size:60px;"">+</div>","","html-keyboard-response","148","627100","0.0-13.0-0.8","12232","List1A","black","woman","","","","null","","","",""
"null","<img src=""stim_listA/kiss4.gif""style=""height:400px;""></stim_listA>","","html-keyboard-response","149","629103","0.0-13.0-1.8","12232","List1A","black","woman","","","","null","","","",""
"null","are kissing each other","","html-keyboard-response","150","631105","0.0-13.0-2.8","12232","List1A","black","woman","","","","null","","","",""
"7666","","","survey-text","151","638773","0.0-13.0-3.8","12232","List1A","black","woman","","","","","{""Q0"":""Dave is kissing Jane""}","<img src=""stim_listA/kiss4.gif""style=""height:400px;""></stim_listA>","are kissing each other",""
"null","<div style=""font-size:60px;"">+</div>","","html-keyboard-response","152","639277","0.0-13.0-0.9","12232","List1A","black","woman","","","","null","","","",""
"null","<img src=""stim_listA/dance1.gif""style=""height:400px;""></stim_listA>","","html-keyboard-response","153","641281","0.0-13.0-1.9","12232","List1A","black","woman","","","","null","","","",""
"null","is dancing with","","html-keyboard-response","154","643285","0.0-13.0-2.9","12232","List1A","black","woman","","","","null","","","",""
"9320","","","survey-text","155","652606","0.0-13.0-3.9","12232","List1A","black","woman","","","","","{""Q0"":""Kate is dancing with fred""}","<img src=""stim_listA/dance1.gif""style=""height:400px;""></stim_listA>","is dancing with",""
"null","<div style=""font-size:60px;"">+</div>","","html-keyboard-response","156","653107","0.0-13.0-0.10","12232","List1A","black","woman","","","","null","","","",""
"null","<img src=""stim_listA/talk3.gif""style=""height:400px;""></stim_listA>","","html-keyboard-response","157","655108","0.0-13.0-1.10","12232","List1A","black","woman","","","","null","","","",""
"null","is talking to","","html-keyboard-response","158","657113","0.0-13.0-2.10","12232","List1A","black","woman","","","","null","","","",""
"9950","","","survey-text","159","667064","0.0-13.0-3.10","12232","List1A","black","woman","","","","","{""Q0"":""Jane is talking to Luke""}","<img src=""stim_listA/talk3.gif""style=""height:400px;""></stim_listA>","is talking to",""
"null","<div style=""font-size:60px;"">+</div>","","html-keyboard-response","160","667565","0.0-13.0-0.11","12232","List1A","black","woman","","","","null","","","",""
"null","<img src=""stim_listA/marry6.gif""style=""height:400px;""></stim_listA>","","html-keyboard-response","161","669574","0.0-13.0-1.11","12232","List1A","black","woman","","","","null","","","",""
"null","are marrying each other","","html-keyboard-response","162","671578","0.0-13.0-2.11","12232","List1A","black","woman","","","","null","","","",""
"11750","","","survey-text","163","683329","0.0-13.0-3.11","12232","List1A","black","woman","","","","","{""Q0"":""Fred is marrying Dave""}","<img src=""stim_listA/marry6.gif""style=""height:400px;""></stim_listA>","are marrying each other",""
"null","<div style=""font-size:60px;"">+</div>","","html-keyboard-response","164","683831","0.0-13.0-0.12","12232","List1A","black","woman","","","","null","","","",""
"null","<img src=""stim_listA/play8.gif""style=""height:400px;""></stim_listA>","","html-keyboard-response","165","685835","0.0-13.0-1.12","12232","List1A","black","woman","","","","null","","","",""
"null","are playing with each other","","html-keyboard-response","166","687837","0.0-13.0-2.12","12232","List1A","black","woman","","","","null","","","",""
"13227","","","survey-text","167","701064","0.0-13.0-3.12","12232","List1A","black","woman","","","","","{""Q0"":""Beth and Ruth are playing with each other""}","<img src=""stim_listA/play8.gif""style=""height:400px;""></stim_listA>","are playing with each other",""
"null","<div style=""font-size:60px;"">+</div>","","html-keyboard-response","168","701569","0.0-13.0-0.13","12232","List1A","black","woman","","","","null","","","",""
"null","<img src=""stim_listA/shout1.gif""style=""height:400px;""></stim_listA>","","html-keyboard-response","169","703571","0.0-13.0-1.13","12232","List1A","black","woman","","","","null","","","",""
"null","is shouting at","","html-keyboard-response","170","705573","0.0-13.0-2.13","12232","List1A","black","woman","","","","null","","","",""
"14210","","","survey-text","171","719784","0.0-13.0-3.13","12232","List1A","black","woman","","","","","{""Q0"":""Fred and Beth are shouting at each other""}","<img src=""stim_listA/shout1.gif""style=""height:400px;""></stim_listA>","is shouting at",""
"null","<div style=""font-size:60px;"">+</div>","","html-keyboard-response","172","720285","0.0-13.0-0.14","12232","List1A","black","woman","","","","null","","","",""
"null","<img src=""stim_listA/dance3.gif""style=""height:400px;""></stim_listA>","","html-keyboard-response","173","722287","0.0-13.0-1.14","12232","List1A","black","woman","","","","null","","","",""
"null","is dancing with","","html-keyboard-response","174","724291","0.0-13.0-2.14","12232","List1A","black","woman","","","","null","","","",""
"12288","","","survey-text","175","736580","0.0-13.0-3.14","12232","List1A","black","woman","","","","","{""Q0"":""Jane is dancing with Luke""}","<img src=""stim_listA/dance3.gif""style=""height:400px;""></stim_listA>","is dancing with",""
"null","<div style=""font-size:60px;"">+</div>","","html-keyboard-response","176","737083","0.0-13.0-0.15","12232","List1A","black","woman","","","","null","","","",""
"null","<img src=""stim_listA/argue2.gif""style=""height:400px;""></stim_listA>","","html-keyboard-response","177","739086","0.0-13.0-1.15","12232","List1A","black","woman","","","","null","","","",""
"null","are arguing with each other","","html-keyboard-response","178","741089","0.0-13.0-2.15","12232","List1A","black","woman","","","","null","","","",""
"15148","","","survey-text","179","756238","0.0-13.0-3.15","12232","List1A","black","woman","","","","","{""Q0"":""Kate and Fred are arguing with each other""}","<img src=""stim_listA/argue2.gif""style=""height:400px;""></stim_listA>","are arguing with each other",""
"null","<div style=""font-size:60px;"">+</div>","","html-keyboard-response","180","756740","0.0-13.0-0.16","12232","List1A","black","woman","","","","null","","","",""
"null","<img src=""stim_listA/argue8.gif""style=""height:400px;""></stim_listA>","","html-keyboard-response","181","758742","0.0-13.0-1.16","12232","List1A","black","woman","","","","null","","","",""
"null","are arguing with each other","","html-keyboard-response","182","760745","0.0-13.0-2.16","12232","List1A","black","woman","","","","null","","","",""
"12667","","","survey-text","183","773413","0.0-13.0-3.16","12232","List1A","black","woman","","","","","{""Q0"":""Jane and Beth are arguing with each other""}","<img src=""stim_listA/argue8.gif""style=""height:400px;""></stim_listA>","are arguing with each other",""
"null","<div style=""font-size:60px;"">+</div>","","html-keyboard-response","184","773917","0.0-13.0-0.17","12232","List1A","black","woman","","","","null","","","",""
"null","<img src=""stim_listA/flirt2.gif""style=""height:400px;""></stim_listA>","","html-keyboard-response","185","775921","0.0-13.0-1.17","12232","List1A","black","woman","","","","null","","","",""
"null","are flirting with each other","","html-keyboard-response","186","777922","0.0-13.0-2.17","12232","List1A","black","woman","","","","null","","","",""
"14582","","","survey-text","187","792506","0.0-13.0-3.17","12232","List1A","black","woman","","","","","{""Q0"":""Mike and Beth are flirting with each other""}","<img src=""stim_listA/flirt2.gif""style=""height:400px;""></stim_listA>","are flirting with each other",""
"null","<div style=""font-size:60px;"">+</div>","","html-keyboard-response","188","793007","0.0-13.0-0.18","12232","List1A","black","woman","","","","null","","","",""
"null","<img src=""stim_listA/shout2.gif""style=""height:400px;""></stim_listA>","","html-keyboard-response","189","795009","0.0-13.0-1.18","12232","List1A","black","woman","","","","null","","","",""
"null","are shouting at each other","","html-keyboard-response","190","797013","0.0-13.0-2.18","12232","List1A","black","woman","","","","null","","","",""
"13344","","","survey-text","191","810358","0.0-13.0-3.18","12232","List1A","black","woman","","","","","{""Q0"":""Mike and Kate are shouting at each other""}","<img src=""stim_listA/shout2.gif""style=""height:400px;""></stim_listA>","are shouting at each other",""
"null","<div style=""font-size:60px;"">+</div>","","html-keyboard-response","192","810861","0.0-13.0-0.19","12232","List1A","black","woman","","","","null","","","",""
"null","<img src=""stim_listA/marry8.gif""style=""height:400px;""></stim_listA>","","html-keyboard-response","193","812865","0.0-13.0-1.19","12232","List1A","black","woman","","","","null","","","",""
"null","are marrying each other","","html-keyboard-response","194","814868","0.0-13.0-2.19","12232","List1A","black","woman","","","","null","","","",""
"10716","","","survey-text","195","825584","0.0-13.0-3.19","12232","List1A","black","woman","","","","","{""Q0"":""Jane and Beth are marrying each other""}","<img src=""stim_listA/marry8.gif""style=""height:400px;""></stim_listA>","are marrying each other",""
"4297","<img src='img/portrait_matrix_list1.jpg' style='width:900px;height:500px;''></img><p>If you have memorised all the portraits and names and are ready to start, press Continue.</p><p><strong>Please note: Your memory of these faces will be tested 4 times during this experiment.</strong></p>","0","html-button-response","196","829882","0.0-14.0-0.0","12232","List1A","black","woman","","","","","","","",""
"3475","<img src=""portrait/BM2.jpg""style=""height:400px;""></img>","5","html-button-response","197","834361","0.0-14.0-1.0","12232","List1A","black","woman","","true","5","","","","",""
"null","CORRECT","","html-keyboard-response","198","835865","0.0-14.0-2.0-0.0","12232","List1A","black","woman","","","","null","","","",""
"2116","<img src=""portrait/WW2.jpg""style=""height:400px;""></img>","3","html-button-response","199","837982","0.0-14.0-4.0","12232","List1A","black","woman","","true","3","","","","",""
"null","CORRECT","","html-keyboard-response","200","839487","0.0-14.0-5.0-0.0","12232","List1A","black","woman","","","","null","","","",""
"1916","<img src=""portrait/BW1.jpg""style=""height:400px;""></img>","0","html-button-response","201","841403","0.0-14.0-7.0","12232","List1A","black","woman","","true","0","","","","",""
"null","CORRECT","","html-keyboard-response","202","842912","0.0-14.0-8.0-0.0","12232","List1A","black","woman","","","","null","","","",""
"1756","<img src=""portrait/BW2.jpg""style=""height:400px;""></img>","2","html-button-response","203","844670","0.0-14.0-10.0","12232","List1A","black","woman","","true","2","","","","",""
"null","CORRECT","","html-keyboard-response","204","846176","0.0-14.0-11.0-0.0","12232","List1A","black","woman","","","","null","","","",""
"2667","<img src=""portrait/BM1.jpg""style=""height:400px;""></img>","4","html-button-response","205","848844","0.0-14.0-13.0","12232","List1A","black","woman","","true","4","","","","",""
"null","CORRECT","","html-keyboard-response","206","850347","0.0-14.0-14.0-0.0","12232","List1A","black","woman","","","","null","","","",""
"1717","<img src=""portrait/WM2.jpg""style=""height:400px;""></img>","7","html-button-response","207","852065","0.0-14.0-16.0","12232","List1A","black","woman","","true","7","","","","",""
"null","CORRECT","","html-keyboard-response","208","853571","0.0-14.0-17.0-0.0","12232","List1A","black","woman","","","","null","","","",""
"2671","<img src=""portrait/WW1.jpg""style=""height:400px;""></img>","1","html-button-response","209","856243","0.0-14.0-19.0","12232","List1A","black","woman","","true","1","","","","",""
"null","CORRECT","","html-keyboard-response","210","857749","0.0-14.0-20.0-0.0","12232","List1A","black","woman","","","","null","","","",""
"2374","<img src=""portrait/WM1.jpg""style=""height:400px;""></img>","6","html-button-response","211","860124","0.0-14.0-22.0","12232","List1A","black","woman","","true","6","","","","",""
"null","CORRECT","","html-keyboard-response","212","861629","0.0-14.0-23.0-0.0","12232","List1A","black","woman","","","","null","","","",""
"1904","<p>You got 8 out of 8 right first time. Press Continue.</p>","0","html-button-response","213","863535","0.0-14.0-25.0","12232","List1A","black","woman","","","","","","","",""
"null","<div style=""font-size:60px;"">+</div>","","html-keyboard-response","214","865037","0.0-15.0-0.0","12232","List1A","black","woman","","","","null","","","",""
"null","<img src=""stim_listA/play3.gif""style=""height:400px;""></stim_listA>","","html-keyboard-response","215","867039","0.0-15.0-1.0","12232","List1A","black","woman","","","","null","","","",""
"null","is playing with","","html-keyboard-response","216","869042","0.0-15.0-2.0","12232","List1A","black","woman","","","","null","","","",""
"9660","","","survey-text","217","878704","0.0-15.0-3.0","12232","List1A","black","woman","","","","","{""Q0"":""Dave is playing with Jane""}","<img src=""stim_listA/play3.gif""style=""height:400px;""></stim_listA>","is playing with",""
"null","<div style=""font-size:60px;"">+</div>","","html-keyboard-response","218","879205","0.0-15.0-0.1","12232","List1A","black","woman","","","","null","","","",""
"null","<img src=""stim_listA/kiss7.gif""style=""height:400px;""></stim_listA>","","html-keyboard-response","219","881210","0.0-15.0-1.1","12232","List1A","black","woman","","","","null","","","",""
"null","is kissing","","html-keyboard-response","220","883212","0.0-15.0-2.1","12232","List1A","black","woman","","","","null","","","",""
"9798","","","survey-text","221","893011","0.0-15.0-3.1","12232","List1A","black","woman","","","","","{""Q0"":""Ruth is kissing beth""}","<img src=""stim_listA/kiss7.gif""style=""height:400px;""></stim_listA>","is kissing",""
"null","<div style=""font-size:60px;"">+</div>","","html-keyboard-response","222","893513","0.0-15.0-0.2","12232","List1A","black","woman","","","","null","","","",""
"null","<img src=""stim_listA/marry4.gif""style=""height:400px;""></stim_listA>","","html-keyboard-response","223","895517","0.0-15.0-1.2","12232","List1A","black","woman","","","","null","","","",""
"null","are marrying each other","","html-keyboard-response","224","897519","0.0-15.0-2.2","12232","List1A","black","woman","","","","null","","","",""
"10556","","","survey-text","225","908076","0.0-15.0-3.2","12232","List1A","black","woman","","","","","{""Q0"":""Jane and Luke are marrying each other""}","<img src=""stim_listA/marry4.gif""style=""height:400px;""></stim_listA>","are marrying each other",""
"null","<div style=""font-size:60px;"">+</div>","","html-keyboard-response","226","908581","0.0-15.0-0.3","12232","List1A","black","woman","","","","null","","","",""
"null","<img src=""stim_listA/marry5.gif""style=""height:400px;""></stim_listA>","","html-keyboard-response","227","910584","0.0-15.0-1.3","12232","List1A","black","woman","","","","null","","","",""
"null","is marrying","","html-keyboard-response","228","912587","0.0-15.0-2.3","12232","List1A","black","woman","","","","null","","","",""
"8557","","","survey-text","229","921146","0.0-15.0-3.3","12232","List1A","black","woman","","","","","{""Q0"":""Mike is marrying Luke""}","<img src=""stim_listA/marry5.gif""style=""height:400px;""></stim_listA>","is marrying",""
"null","<div style=""font-size:60px;"">+</div>","","html-keyboard-response","230","921647","0.0-15.0-0.4","12232","List1A","black","woman","","","","null","","","",""
"null","<img src=""stim_listA/talk4.gif""style=""height:400px;""></stim_listA>","","html-keyboard-response","231","923651","0.0-15.0-1.4","12232","List1A","black","woman","","","","null","","","",""
"null","are talking to each other","","html-keyboard-response","232","925652","0.0-15.0-2.4","12232","List1A","black","woman","","","","null","","","",""
"13740","","","survey-text","233","939392","0.0-15.0-3.4","12232","List1A","black","woman","","","","","{""Q0"":""Ruth and Dave are talking to each other""}","<img src=""stim_listA/talk4.gif""style=""height:400px;""></stim_listA>","are talking to each other",""
"null","<div style=""font-size:60px;"">+</div>","","html-keyboard-response","234","939895","0.0-15.0-0.5","12232","List1A","black","woman","","","","null","","","",""
"null","<img src=""stim_listA/kiss8.gif""style=""height:400px;""></stim_listA>","","html-keyboard-response","235","941897","0.0-15.0-1.5","12232","List1A","black","woman","","","","null","","","",""
"null","are kissing each other","","html-keyboard-response","236","943901","0.0-15.0-2.5","12232","List1A","black","woman","","","","null","","","",""
"17854","","","survey-text","237","961757","0.0-15.0-3.5","12232","List1A","black","woman","","","","","{""Q0"":""jane and kate are kissing each other""}","<img src=""stim_listA/kiss8.gif""style=""height:400px;""></stim_listA>","are kissing each other",""
"null","<div style=""font-size:60px;"">+</div>","","html-keyboard-response","238","962259","0.0-15.0-0.6","12232","List1A","black","woman","","","","null","","","",""
"null","<img src=""stim_listA/marry1.gif""style=""height:400px;""></stim_listA>","","html-keyboard-response","239","964263","0.0-15.0-1.6","12232","List1A","black","woman","","","","null","","","",""
"null","is marrying","","html-keyboard-response","240","966267","0.0-15.0-2.6","12232","List1A","black","woman","","","","null","","","",""
"5840","","","survey-text","241","972109","0.0-15.0-3.6","12232","List1A","black","woman","","","","","{""Q0"":""mike is marrying beth""}","<img src=""stim_listA/marry1.gif""style=""height:400px;""></stim_listA>","is marrying",""
"null","<div style=""font-size:60px;"">+</div>","","html-keyboard-response","242","972613","0.0-15.0-0.7","12232","List1A","black","woman","","","","null","","","",""
"null","<img src=""stim_listA/argue3.gif""style=""height:400px;""></stim_listA>","","html-keyboard-response","243","974617","0.0-15.0-1.7","12232","List1A","black","woman","","","","null","","","",""
"null","is arguing with","","html-keyboard-response","244","976621","0.0-15.0-2.7","12232","List1A","black","woman","","","","null","","","",""
"7969","","","survey-text","245","984591","0.0-15.0-3.7","12232","List1A","black","woman","","","","","{""Q0"":""ruth is arguing with dave""}","<img src=""stim_listA/argue3.gif""style=""height:400px;""></stim_listA>","is arguing with",""
"null","<div style=""font-size:60px;"">+</div>","","html-keyboard-response","246","985093","0.0-15.0-0.8","12232","List1A","black","woman","","","","null","","","",""
"null","<img src=""stim_listA/fight8.gif""style=""height:400px;""></stim_listA>","","html-keyboard-response","247","987097","0.0-15.0-1.8","12232","List1A","black","woman","","","","null","","","",""
"null","are fighting each other","","html-keyboard-response","248","989099","0.0-15.0-2.8","12232","List1A","black","woman","","","","null","","","",""
"9697","","","survey-text","249","998797","0.0-15.0-3.8","12232","List1A","black","woman","","","","","{""Q0"":""beth and ruth are fighting each other""}","<img src=""stim_listA/fight8.gif""style=""height:400px;""></stim_listA>","are fighting each other",""
"null","<div style=""font-size:60px;"">+</div>","","html-keyboard-response","250","999301","0.0-15.0-0.9","12232","List1A","black","woman","","","","null","","","",""
"null","<img src=""stim_listA/play5.gif""style=""height:400px;""></stim_listA>","","html-keyboard-response","251","1001303","0.0-15.0-1.9","12232","List1A","black","woman","","","","null","","","",""
"null","is playing with","","html-keyboard-response","252","1003304","0.0-15.0-2.9","12232","List1A","black","woman","","","","null","","","",""
"6242","","","survey-text","253","1009548","0.0-15.0-3.9","12232","List1A","black","woman","","","","","{""Q0"":""dave is playing with mike""}","<img src=""stim_listA/play5.gif""style=""height:400px;""></stim_listA>","is playing with",""
"null","<div style=""font-size:60px;"">+</div>","","html-keyboard-response","254","1010051","0.0-15.0-0.10","12232","List1A","black","woman","","","","null","","","",""
"null","<img src=""stim_listA/argue4.gif""style=""height:400px;""></stim_listA>","","html-keyboard-response","255","1012056","0.0-15.0-1.10","12232","List1A","black","woman","","","","null","","","",""
"null","are arguing with each other","","html-keyboard-response","256","1014058","0.0-15.0-2.10","12232","List1A","black","woman","","","","null","","","",""
"15100","","","survey-text","257","1029159","0.0-15.0-3.10","12232","List1A","black","woman","","","","","{""Q0"":""Luke and jane are arguing with each other""}","<img src=""stim_listA/argue4.gif""style=""height:400px;""></stim_listA>","are arguing with each other",""
"null","<div style=""font-size:60px;"">+</div>","","html-keyboard-response","258","1029663","0.0-15.0-0.11","12232","List1A","black","woman","","","","null","","","",""
"null","<img src=""stim_listA/dance8.gif""style=""height:400px;""></stim_listA>","","html-keyboard-response","259","1031667","0.0-15.0-1.11","12232","List1A","black","woman","","","","null","","","",""
"null","are dancing with each other","","html-keyboard-response","260","1033668","0.0-15.0-2.11","12232","List1A","black","woman","","","","null","","","",""
"9902","","","survey-text","261","1043570","0.0-15.0-3.11","12232","List1A","black","woman","","","","","{""Q0"":""kate and ruth are dancing with each other""}","<img src=""stim_listA/dance8.gif""style=""height:400px;""></stim_listA>","are dancing with each other",""
"null","<div style=""font-size:60px;"">+</div>","","html-keyboard-response","262","1044075","0.0-15.0-0.12","12232","List1A","black","woman","","","","null","","","",""
"null","<img src=""stim_listA/marry2.gif""style=""height:400px;""></stim_listA>","","html-keyboard-response","263","1046077","0.0-15.0-1.12","12232","List1A","black","woman","","","","null","","","",""
"null","are marrying each other","","html-keyboard-response","264","1048078","0.0-15.0-2.12","12232","List1A","black","woman","","","","null","","","",""
"8466","","","survey-text","265","1056545","0.0-15.0-3.12","12232","List1A","black","woman","","","","","{""Q0"":""fred and kate are marrying each other""}","<img src=""stim_listA/marry2.gif""style=""height:400px;""></stim_listA>","are marrying each other",""
"null","<div style=""font-size:60px;"">+</div>","","html-keyboard-response","266","1057046","0.0-15.0-0.13","12232","List1A","black","woman","","","","null","","","",""
"null","<img src=""stim_listA/kiss2.gif""style=""height:400px;""></stim_listA>","","html-keyboard-response","267","1059051","0.0-15.0-1.13","12232","List1A","black","woman","","","","null","","","",""
"null","are kissing each other","","html-keyboard-response","268","1061055","0.0-15.0-2.13","12232","List1A","black","woman","","","","null","","","",""
"7948","","","survey-text","269","1069003","0.0-15.0-3.13","12232","List1A","black","woman","","","","","{""Q0"":""mike and kate are kissing each other""}","<img src=""stim_listA/kiss2.gif""style=""height:400px;""></stim_listA>","are kissing each other",""
"null","<div style=""font-size:60px;"">+</div>","","html-keyboard-response","270","1069505","0.0-15.0-0.14","12232","List1A","black","woman","","","","null","","","",""
"null","<img src=""stim_listA/shout4.gif""style=""height:400px;""></stim_listA>","","html-keyboard-response","271","1071509","0.0-15.0-1.14","12232","List1A","black","woman","","","","null","","","",""
"null","are shouting at each other","","html-keyboard-response","272","1073510","0.0-15.0-2.14","12232","List1A","black","woman","","","","null","","","",""
"8934","","","survey-text","273","1082444","0.0-15.0-3.14","12232","List1A","black","woman","","","","","{""Q0"":""jane and dave are shouting at each other""}","<img src=""stim_listA/shout4.gif""style=""height:400px;""></stim_listA>","are shouting at each other",""
"null","<div style=""font-size:60px;"">+</div>","","html-keyboard-response","274","1082949","0.0-15.0-0.15","12232","List1A","black","woman","","","","null","","","",""
"null","<img src=""stim_listA/flirt4.gif""style=""height:400px;""></stim_listA>","","html-keyboard-response","275","1084953","0.0-15.0-1.15","12232","List1A","black","woman","","","","null","","","",""
"null","are flirting with each other","","html-keyboard-response","276","1086954","0.0-15.0-2.15","12232","List1A","black","woman","","","","null","","","",""
"9778","","","survey-text","277","1096733","0.0-15.0-3.15","12232","List1A","black","woman","","","","","{""Q0"":""ruth and dave are flirting with each other""}","<img src=""stim_listA/flirt4.gif""style=""height:400px;""></stim_listA>","are flirting with each other",""
"null","<div style=""font-size:60px;"">+</div>","","html-keyboard-response","278","1097235","0.0-15.0-0.16","12232","List1A","black","woman","","","","null","","","",""
"null","<img src=""stim_listA/dance2.gif""style=""height:400px;""></stim_listA>","","html-keyboard-response","279","1099236","0.0-15.0-1.16","12232","List1A","black","woman","","","","null","","","",""
"null","are dancing with each other","","html-keyboard-response","280","1101237","0.0-15.0-2.16","12232","List1A","black","woman","","","","null","","","",""
"11595","","","survey-text","281","1112834","0.0-15.0-3.16","12232","List1A","black","woman","","","","","{""Q0"":""beth and mike are dancing with each other""}","<img src=""stim_listA/dance2.gif""style=""height:400px;""></stim_listA>","are dancing with each other",""
"null","<div style=""font-size:60px;"">+</div>","","html-keyboard-response","282","1113334","0.0-15.0-0.17","12232","List1A","black","woman","","","","null","","","",""
"null","<img src=""stim_listA/shout7.gif""style=""height:400px;""></stim_listA>","","html-keyboard-response","283","1115336","0.0-15.0-1.17","12232","List1A","black","woman","","","","null","","","",""
"null","is shouting at","","html-keyboard-response","284","1117338","0.0-15.0-2.17","12232","List1A","black","woman","","","","null","","","",""
"6894","","","survey-text","285","1124232","0.0-15.0-3.17","12232","List1A","black","woman","","","","","{""Q0"":""beth is shouting at ruth""}","<img src=""stim_listA/shout7.gif""style=""height:400px;""></stim_listA>","is shouting at",""
"null","<div style=""font-size:60px;"">+</div>","","html-keyboard-response","286","1124734","0.0-15.0-0.18","12232","List1A","black","woman","","","","null","","","",""
"null","<img src=""stim_listA/talk1.gif""style=""height:400px;""></stim_listA>","","html-keyboard-response","287","1126737","0.0-15.0-1.18","12232","List1A","black","woman","","","","null","","","",""
"null","is talking to","","html-keyboard-response","288","1128741","0.0-15.0-2.18","12232","List1A","black","woman","","","","null","","","",""
"6807","","","survey-text","289","1135548","0.0-15.0-3.18","12232","List1A","black","woman","","","","","{""Q0"":""beth is talking to mike""}","<img src=""stim_listA/talk1.gif""style=""height:400px;""></stim_listA>","is talking to",""
"null","<div style=""font-size:60px;"">+</div>","","html-keyboard-response","290","1136052","0.0-15.0-0.19","12232","List1A","black","woman","","","","null","","","",""
"null","<img src=""stim_listA/play6.gif""style=""height:400px;""></stim_listA>","","html-keyboard-response","291","1138054","0.0-15.0-1.19","12232","List1A","black","woman","","","","null","","","",""
"null","are playing with each other","","html-keyboard-response","292","1140056","0.0-15.0-2.19","12232","List1A","black","woman","","","","null","","","",""
"14940","","","survey-text","293","1154997","0.0-15.0-3.19","12232","List1A","black","woman","","","","","{""Q0"":""""}","<img src=""stim_listA/play6.gif""style=""height:400px;""></stim_listA>","are playing with each other",""
"4888","<img src='img/portrait_matrix_list1.jpg' style='width:900px;height:500px;''></img><p>If you have memorised all the portraits and names and are ready to start, press Continue.</p><p><strong>Please note: Your memory of these faces will be tested 4 times during this experiment.</strong></p>","0","html-button-response","294","1159886","0.0-16.0-0.0","12232","List1A","black","woman","","","","","","","",""
"15481","<img src=""portrait/BW1.jpg""style=""height:400px;""></img>","0","html-button-response","295","1176370","0.0-16.0-1.0","12232","List1A","black","woman","","true","0","","","","",""
"null","CORRECT","","html-keyboard-response","296","1177877","0.0-16.0-2.0-0.0","12232","List1A","black","woman","","","","null","","","",""
"1933","<img src=""portrait/WM1.jpg""style=""height:400px;""></img>","6","html-button-response","297","1179810","0.0-16.0-4.0","12232","List1A","black","woman","","true","6","","","","",""
"null","CORRECT","","html-keyboard-response","298","1181316","0.0-16.0-5.0-0.0","12232","List1A","black","woman","","","","null","","","",""
"1966","<img src=""portrait/WW1.jpg""style=""height:400px;""></img>","1","html-button-response","299","1183284","0.0-16.0-7.0","12232","List1A","black","woman","","true","1","","","","",""
"null","CORRECT","","html-keyboard-response","300","1185596","0.0-16.0-8.0-0.0","12232","List1A","black","woman","","","","null","","","",""
"5691","<img src=""portrait/WM2.jpg""style=""height:400px;""></img>","7","html-button-response","301","1191288","0.0-16.0-10.0","12232","List1A","black","woman","","true","7","","","","",""
"null","CORRECT","","html-keyboard-response","302","1192793","0.0-16.0-11.0-0.0","12232","List1A","black","woman","","","","null","","","",""
"1592","<img src=""portrait/BM2.jpg""style=""height:400px;""></img>","5","html-button-response","303","1194386","0.0-16.0-13.0","12232","List1A","black","woman","","true","5","","","","",""
"null","CORRECT","","html-keyboard-response","304","1195888","0.0-16.0-14.0-0.0","12232","List1A","black","woman","","","","null","","","",""
"2250","<img src=""portrait/BM1.jpg""style=""height:400px;""></img>","4","html-button-response","305","1198140","0.0-16.0-16.0","12232","List1A","black","woman","","true","4","","","","",""
"null","CORRECT","","html-keyboard-response","306","1199644","0.0-16.0-17.0-0.0","12232","List1A","black","woman","","","","null","","","",""
"1403","<img src=""portrait/WW2.jpg""style=""height:400px;""></img>","3","html-button-response","307","1201049","0.0-16.0-19.0","12232","List1A","black","woman","","true","3","","","","",""
"null","CORRECT","","html-keyboard-response","308","1202553","0.0-16.0-20.0-0.0","12232","List1A","black","woman","","","","null","","","",""
"1158","<img src=""portrait/BW2.jpg""style=""height:400px;""></img>","2","html-button-response","309","1203713","0.0-16.0-22.0","12232","List1A","black","woman","","true","2","","","","",""
"null","CORRECT","","html-keyboard-response","310","1205217","0.0-16.0-23.0-0.0","12232","List1A","black","woman","","","","null","","","",""
"3143","<p>You got 8 out of 8 right first time. Press Continue.</p>","0","html-button-response","311","1208361","0.0-16.0-25.0","12232","List1A","black","woman","","","","","","","",""
"null","<div style=""font-size:60px;"">+</div>","","html-keyboard-response","312","1209867","0.0-17.0-0.0","12232","List1A","black","woman","","","","null","","","",""
"null","<img src=""stim_listA/argue6.gif""style=""height:400px;""></stim_listA>","","html-keyboard-response","313","1211869","0.0-17.0-1.0","12232","List1A","black","woman","","","","null","","","",""
"null","are arguing with each other","","html-keyboard-response","314","1213872","0.0-17.0-2.0","12232","List1A","black","woman","","","","null","","","",""
"9188","","","survey-text","315","1223061","0.0-17.0-3.0","12232","List1A","black","woman","","","","","{""Q0"":""fred and dave are arguing with each other""}","<img src=""stim_listA/argue6.gif""style=""height:400px;""></stim_listA>","are arguing with each other",""
"null","<div style=""font-size:60px;"">+</div>","","html-keyboard-response","316","1223563","0.0-17.0-0.1","12232","List1A","black","woman","","","","null","","","",""
"null","<img src=""stim_listA/talk2.gif""style=""height:400px;""></stim_listA>","","html-keyboard-response","317","1225567","0.0-17.0-1.1","12232","List1A","black","woman","","","","null","","","",""
"null","are talking to each other","","html-keyboard-response","318","1227571","0.0-17.0-2.1","12232","List1A","black","woman","","","","null","","","",""
"9460","","","survey-text","319","1237032","0.0-17.0-3.1","12232","List1A","black","woman","","","","","{""Q0"":""beth and mike are talking to each other""}","<img src=""stim_listA/talk2.gif""style=""height:400px;""></stim_listA>","are talking to each other",""
"null","<div style=""font-size:60px;"">+</div>","","html-keyboard-response","320","1237537","0.0-17.0-0.2","12232","List1A","black","woman","","","","null","","","",""
"null","<img src=""stim_listA/flirt8.gif""style=""height:400px;""></stim_listA>","","html-keyboard-response","321","1239539","0.0-17.0-1.2","12232","List1A","black","woman","","","","null","","","",""
"null","are flirting with each other","","html-keyboard-response","322","1241540","0.0-17.0-2.2","12232","List1A","black","woman","","","","null","","","",""
"11905","","","survey-text","323","1253445","0.0-17.0-3.2","12232","List1A","black","woman","","","","","{""Q0"":""ruth and kate are flirting with each other""}","<img src=""stim_listA/flirt8.gif""style=""height:400px;""></stim_listA>","are flirting with each other",""
"null","<div style=""font-size:60px;"">+</div>","","html-keyboard-response","324","1253947","0.0-17.0-0.3","12232","List1A","black","woman","","","","null","","","",""
"null","<img src=""stim_listA/fight1.gif""style=""height:400px;""></stim_listA>","","html-keyboard-response","325","1255949","0.0-17.0-1.3","12232","List1A","black","woman","","","","null","","","",""
"null","is fighting","","html-keyboard-response","326","1257953","0.0-17.0-2.3","12232","List1A","black","woman","","","","null","","","",""
"7110","","","survey-text","327","1265064","0.0-17.0-3.3","12232","List1A","black","woman","","","","","{""Q0"":""kate is fighting mike""}","<img src=""stim_listA/fight1.gif""style=""height:400px;""></stim_listA>","is fighting",""
"null","<div style=""font-size:60px;"">+</div>","","html-keyboard-response","328","1265569","0.0-17.0-0.4","12232","List1A","black","woman","","","","null","","","",""
"null","<img src=""stim_listA/shout5.gif""style=""height:400px;""></stim_listA>","","html-keyboard-response","329","1267571","0.0-17.0-1.4","12232","List1A","black","woman","","","","null","","","",""
"null","is shouting at","","html-keyboard-response","330","1269575","0.0-17.0-2.4","12232","List1A","black","woman","","","","null","","","",""
"7246","","","survey-text","331","1276822","0.0-17.0-3.4","12232","List1A","black","woman","","","","","{""Q0"":""luke is shouting at fred""}","<img src=""stim_listA/shout5.gif""style=""height:400px;""></stim_listA>","is shouting at",""
"null","<div style=""font-size:60px;"">+</div>","","html-keyboard-response","332","1277325","0.0-17.0-0.5","12232","List1A","black","woman","","","","null","","","",""
"null","<img src=""stim_listA/flirt6.gif""style=""height:400px;""></stim_listA>","","html-keyboard-response","333","1279327","0.0-17.0-1.5","12232","List1A","black","woman","","","","null","","","",""
"null","are flirting with each other","","html-keyboard-response","334","1281332","0.0-17.0-2.5","12232","List1A","black","woman","","","","null","","","",""
"9501","","","survey-text","335","1290834","0.0-17.0-3.5","12232","List1A","black","woman","","","","","{""Q0"":""mike and luke are flirting with each other""}","<img src=""stim_listA/flirt6.gif""style=""height:400px;""></stim_listA>","are flirting with each other",""
"null","<div style=""font-size:60px;"">+</div>","","html-keyboard-response","336","1291335","0.0-17.0-0.6","12232","List1A","black","woman","","","","null","","","",""
"null","<img src=""stim_listA/talk6.gif""style=""height:400px;""></stim_listA>","","html-keyboard-response","337","1293337","0.0-17.0-1.6","12232","List1A","black","woman","","","","null","","","",""
"null","are talking to each other","","html-keyboard-response","338","1295341","0.0-17.0-2.6","12232","List1A","black","woman","","","","null","","","",""
"8513","","","survey-text","339","1303854","0.0-17.0-3.6","12232","List1A","black","woman","","","","","{""Q0"":""mike and luke are talking to each other""}","<img src=""stim_listA/talk6.gif""style=""height:400px;""></stim_listA>","are talking to each other",""
"null","<div style=""font-size:60px;"">+</div>","","html-keyboard-response","340","1304358","0.0-17.0-0.7","12232","List1A","black","woman","","","","null","","","",""
"null","<img src=""stim_listA/play7.gif""style=""height:400px;""></stim_listA>","","html-keyboard-response","341","1306360","0.0-17.0-1.7","12232","List1A","black","woman","","","","null","","","",""
"null","is playing with","","html-keyboard-response","342","1308361","0.0-17.0-2.7","12232","List1A","black","woman","","","","null","","","",""
"11594","","","survey-text","343","1319957","0.0-17.0-3.7","12232","List1A","black","woman","","","","","{""Q0"":""jane is playing with kate""}","<img src=""stim_listA/play7.gif""style=""height:400px;""></stim_listA>","is playing with",""
"null","<div style=""font-size:60px;"">+</div>","","html-keyboard-response","344","1320458","0.0-17.0-0.8","12232","List1A","black","woman","","","","null","","","",""
"null","<img src=""stim_listA/dance5.gif""style=""height:400px;""></stim_listA>","","html-keyboard-response","345","1322462","0.0-17.0-1.8","12232","List1A","black","woman","","","","null","","","",""
"null","is dancing with","","html-keyboard-response","346","1324465","0.0-17.0-2.8","12232","List1A","black","woman","","","","null","","","",""
"8385","","","survey-text","347","1332851","0.0-17.0-3.8","12232","List1A","black","woman","","","","","{""Q0"":""fred is dancing with dave""}","<img src=""stim_listA/dance5.gif""style=""height:400px;""></stim_listA>","is dancing with",""
"null","<div style=""font-size:60px;"">+</div>","","html-keyboard-response","348","1333354","0.0-17.0-0.9","12232","List1A","black","woman","","","","null","","","",""
"null","<img src=""stim_listA/touch3.gif""style=""height:400px;""></stim_listA>","","html-keyboard-response","349","1335358","0.0-17.0-1.9","12232","List1A","black","woman","","","","null","","","",""
"null","is touching","","html-keyboard-response","350","1337362","0.0-17.0-2.9","12232","List1A","black","woman","","","","null","","","",""
"6458","","","survey-text","351","1343820","0.0-17.0-3.9","12232","List1A","black","woman","","","","","{""Q0"":""jane is touching dave""}","<img src=""stim_listA/touch3.gif""style=""height:400px;""></stim_listA>","is touching",""
"null","<div style=""font-size:60px;"">+</div>","","html-keyboard-response","352","1344322","0.0-17.0-0.10","12232","List1A","black","woman","","","","null","","","",""
"null","<img src=""stim_listA/touch6.gif""style=""height:400px;""></stim_listA>","","html-keyboard-response","353","1346326","0.0-17.0-1.10","12232","List1A","black","woman","","","","null","","","",""
"null","are touching each other","","html-keyboard-response","354","1348329","0.0-17.0-2.10","12232","List1A","black","woman","","","","null","","","",""
"9566","","","survey-text","355","1357895","0.0-17.0-3.10","12232","List1A","black","woman","","","","","{""Q0"":""fred and luke are touching each other""}","<img src=""stim_listA/touch6.gif""style=""height:400px;""></stim_listA>","are touching each other",""
"null","<div style=""font-size:60px;"">+</div>","","html-keyboard-response","356","1358397","0.0-17.0-0.11","12232","List1A","black","woman","","","","null","","","",""
"null","<img src=""stim_listA/shout6.gif""style=""height:400px;""></stim_listA>","","html-keyboard-response","357","1360399","0.0-17.0-1.11","12232","List1A","black","woman","","","","null","","","",""
"null","are shouting at each other","","html-keyboard-response","358","1362401","0.0-17.0-2.11","12232","List1A","black","woman","","","","null","","","",""
"9124","","","survey-text","359","1371526","0.0-17.0-3.11","12232","List1A","black","woman","","","","","{""Q0"":""mike and dave are shouting at each other""}","<img src=""stim_listA/shout6.gif""style=""height:400px;""></stim_listA>","are shouting at each other",""
"null","<div style=""font-size:60px;"">+</div>","","html-keyboard-response","360","1372030","0.0-17.0-0.12","12232","List1A","black","woman","","","","null","","","",""
"null","<img src=""stim_listA/play2.gif""style=""height:400px;""></stim_listA>","","html-keyboard-response","361","1374034","0.0-17.0-1.12","12232","List1A","black","woman","","","","null","","","",""
"null","are playing with each other","","html-keyboard-response","362","1376037","0.0-17.0-2.12","12232","List1A","black","woman","","","","null","","","",""
"29752","","","survey-text","363","1405791","0.0-17.0-3.12","12232","List1A","black","woman","","","","","{""Q0"":""beth and fred are fighting each other""}","<img src=""stim_listA/play2.gif""style=""height:400px;""></stim_listA>","are playing with each other",""
"null","<div style=""font-size:60px;"">+</div>","","html-keyboard-response","364","1406292","0.0-17.0-0.13","12232","List1A","black","woman","","","","null","","","",""
"null","<img src=""stim_listA/fight4.gif""style=""height:400px;""></stim_listA>","","html-keyboard-response","365","1408294","0.0-17.0-1.13","12232","List1A","black","woman","","","","null","","","",""
"null","are fighting each other","","html-keyboard-response","366","1410296","0.0-17.0-2.13","12232","List1A","black","woman","","","","null","","","",""
"10122","","","survey-text","367","1420418","0.0-17.0-3.13","12232","List1A","black","woman","","","","","{""Q0"":""ruth and luke are fighting each other""}","<img src=""stim_listA/fight4.gif""style=""height:400px;""></stim_listA>","are fighting each other",""
"null","<div style=""font-size:60px;"">+</div>","","html-keyboard-response","368","1420919","0.0-17.0-0.14","12232","List1A","black","woman","","","","null","","","",""
"null","<img src=""stim_listA/kiss3.gif""style=""height:400px;""></stim_listA>","","html-keyboard-response","369","1422921","0.0-17.0-1.14","12232","List1A","black","woman","","","","null","","","",""
"null","is kissing","","html-keyboard-response","370","1424922","0.0-17.0-2.14","12232","List1A","black","woman","","","","null","","","",""
"6621","","","survey-text","371","1431544","0.0-17.0-3.14","12232","List1A","black","woman","","","","","{""Q0"":""ruth is kissing luke""}","<img src=""stim_listA/kiss3.gif""style=""height:400px;""></stim_listA>","is kissing",""
"null","<div style=""font-size:60px;"">+</div>","","html-keyboard-response","372","1432045","0.0-17.0-0.15","12232","List1A","black","woman","","","","null","","","",""
"null","<img src=""stim_listA/dance6.gif""style=""height:400px;""></stim_listA>","","html-keyboard-response","373","1434047","0.0-17.0-1.15","12232","List1A","black","woman","","","","null","","","",""
"null","are dancing with each other","","html-keyboard-response","374","1436048","0.0-17.0-2.15","12232","List1A","black","woman","","","","null","","","",""
"11645","","","survey-text","375","1447695","0.0-17.0-3.15","12232","List1A","black","woman","","","","","{""Q0"":""luke and mike are dancing with each other""}","<img src=""stim_listA/dance6.gif""style=""height:400px;""></stim_listA>","are dancing with each other",""
"null","<div style=""font-size:60px;"">+</div>","","html-keyboard-response","376","1448196","0.0-17.0-0.16","12232","List1A","black","woman","","","","null","","","",""
"null","<img src=""stim_listA/shout3.gif""style=""height:400px;""></stim_listA>","","html-keyboard-response","377","1450199","0.0-17.0-1.16","12232","List1A","black","woman","","","","null","","","",""
"null","is shouting at","","html-keyboard-response","378","1452200","0.0-17.0-2.16","12232","List1A","black","woman","","","","null","","","",""
"7592","","","survey-text","379","1459794","0.0-17.0-3.16","12232","List1A","black","woman","","","","","{""Q0"":""ruth is shouting at dave""}","<img src=""stim_listA/shout3.gif""style=""height:400px;""></stim_listA>","is shouting at",""
"null","<div style=""font-size:60px;"">+</div>","","html-keyboard-response","380","1460296","0.0-17.0-0.17","12232","List1A","black","woman","","","","null","","","",""
"null","<img src=""stim_listA/touch8.gif""style=""height:400px;""></stim_listA>","","html-keyboard-response","381","1462297","0.0-17.0-1.17","12232","List1A","black","woman","","","","null","","","",""
"null","are touching each other","","html-keyboard-response","382","1464300","0.0-17.0-2.17","12232","List1A","black","woman","","","","null","","","",""
"10844","","","survey-text","383","1475144","0.0-17.0-3.17","12232","List1A","black","woman","","","","","{""Q0"":""beth and ruth are touching each other""}","<img src=""stim_listA/touch8.gif""style=""height:400px;""></stim_listA>","are touching each other",""
"null","<div style=""font-size:60px;"">+</div>","","html-keyboard-response","384","1475646","0.0-17.0-0.18","12232","List1A","black","woman","","","","null","","","",""
"null","<img src=""stim_listA/talk7.gif""style=""height:400px;""></stim_listA>","","html-keyboard-response","385","1477647","0.0-17.0-1.18","12232","List1A","black","woman","","","","null","","","",""
"null","is talking to","","html-keyboard-response","386","1479648","0.0-17.0-2.18","12232","List1A","black","woman","","","","null","","","",""
"7243","","","survey-text","387","1486892","0.0-17.0-3.18","12232","List1A","black","woman","","","","","{""Q0"":""beth is talking to jane""}","<img src=""stim_listA/talk7.gif""style=""height:400px;""></stim_listA>","is talking to",""
"null","<div style=""font-size:60px;"">+</div>","","html-keyboard-response","388","1487393","0.0-17.0-0.19","12232","List1A","black","woman","","","","null","","","",""
"null","<img src=""stim_listA/talk5.gif""style=""height:400px;""></stim_listA>","","html-keyboard-response","389","1489395","0.0-17.0-1.19","12232","List1A","black","woman","","","","null","","","",""
"null","is talking to","","html-keyboard-response","390","1491397","0.0-17.0-2.19","12232","List1A","black","woman","","","","null","","","",""
"7110","","","survey-text","391","1498509","0.0-17.0-3.19","12232","List1A","black","woman","","","","","{""Q0"":""dave is talking to fred""}","<img src=""stim_listA/talk5.gif""style=""height:400px;""></stim_listA>","is talking to",""
"2169","<img src='img/portrait_matrix_list1.jpg' style='width:900px;height:500px;''></img><p>If you have memorised all the portraits and names and are ready to start, press Continue.</p><p><strong>Please note: Your memory of these faces will be tested 4 times during this experiment.</strong></p>","0","html-button-response","392","1500679","0.0-18.0-0.0","12232","List1A","black","woman","","","","","","","",""
"2131","<img src=""portrait/BM2.jpg""style=""height:400px;""></img>","5","html-button-response","393","1503811","0.0-18.0-1.0","12232","List1A","black","woman","","true","5","","","","",""
"null","CORRECT","","html-keyboard-response","394","1505313","0.0-18.0-2.0-0.0","12232","List1A","black","woman","","","","null","","","",""
"1620","<img src=""portrait/BW1.jpg""style=""height:400px;""></img>","0","html-button-response","395","1506934","0.0-18.0-4.0","12232","List1A","black","woman","","true","0","","","","",""
"null","CORRECT","","html-keyboard-response","396","1508436","0.0-18.0-5.0-0.0","12232","List1A","black","woman","","","","null","","","",""
"1686","<img src=""portrait/WW2.jpg""style=""height:400px;""></img>","3","html-button-response","397","1510124","0.0-18.0-7.0","12232","List1A","black","woman","","true","3","","","","",""
"null","CORRECT","","html-keyboard-response","398","1511626","0.0-18.0-8.0-0.0","12232","List1A","black","woman","","","","null","","","",""
"2021","<img src=""portrait/WW1.jpg""style=""height:400px;""></img>","1","html-button-response","399","1513647","0.0-18.0-10.0","12232","List1A","black","woman","","true","1","","","","",""
"null","CORRECT","","html-keyboard-response","400","1515151","0.0-18.0-11.0-0.0","12232","List1A","black","woman","","","","null","","","",""
"1181","<img src=""portrait/BW2.jpg""style=""height:400px;""></img>","2","html-button-response","401","1516332","0.0-18.0-13.0","12232","List1A","black","woman","","true","2","","","","",""
"null","CORRECT","","html-keyboard-response","402","1517834","0.0-18.0-14.0-0.0","12232","List1A","black","woman","","","","null","","","",""
"8934","<img src=""portrait/BM1.jpg""style=""height:400px;""></img>","4","html-button-response","403","1526770","0.0-18.0-16.0","12232","List1A","black","woman","","true","4","","","","",""
"null","CORRECT","","html-keyboard-response","404","1528271","0.0-18.0-17.0-0.0","12232","List1A","black","woman","","","","null","","","",""
"1890","<img src=""portrait/WM2.jpg""style=""height:400px;""></img>","7","html-button-response","405","1530162","0.0-18.0-19.0","12232","List1A","black","woman","","true","7","","","","",""
"null","CORRECT","","html-keyboard-response","406","1531665","0.0-18.0-20.0-0.0","12232","List1A","black","woman","","","","null","","","",""
"1449","<img src=""portrait/WM1.jpg""style=""height:400px;""></img>","6","html-button-response","407","1533114","0.0-18.0-22.0","12232","List1A","black","woman","","true","6","","","","",""
"null","CORRECT","","html-keyboard-response","408","1534617","0.0-18.0-23.0-0.0","12232","List1A","black","woman","","","","null","","","",""
"1551","<p>You got 8 out of 8 right first time. Press Continue.</p>","0","html-button-response","409","1536169","0.0-18.0-25.0","12232","List1A","black","woman","","","","","","","",""
"null","<div style=""font-size:60px;"">+</div>","","html-keyboard-response","410","1537670","0.0-19.0-0.0","12232","List1A","black","woman","","","","null","","","",""
"null","<img src=""stim_listA/argue1.gif""style=""height:400px;""></stim_listA>","","html-keyboard-response","411","1539673","0.0-19.0-1.0","12232","List1A","black","woman","","","","null","","","",""
"null","is arguing with","","html-keyboard-response","412","1541674","0.0-19.0-2.0","12232","List1A","black","woman","","","","null","","","",""
"6898","","","survey-text","413","1548572","0.0-19.0-3.0","12232","List1A","black","woman","","","","","{""Q0"":""beth is arguing with mike""}","<img src=""stim_listA/argue1.gif""style=""height:400px;""></stim_listA>","is arguing with",""
"null","<div style=""font-size:60px;"">+</div>","","html-keyboard-response","414","1549074","0.0-19.0-0.1","12232","List1A","black","woman","","","","null","","","",""
"null","<img src=""stim_listA/flirt3.gif""style=""height:400px;""></stim_listA>","","html-keyboard-response","415","1551076","0.0-19.0-1.1","12232","List1A","black","woman","","","","null","","","",""
"null","is flirting with","","html-keyboard-response","416","1553078","0.0-19.0-2.1","12232","List1A","black","woman","","","","null","","","",""
"7944","","","survey-text","417","1561023","0.0-19.0-3.1","12232","List1A","black","woman","","","","","{""Q0"":""jane is flirting with luke""}","<img src=""stim_listA/flirt3.gif""style=""height:400px;""></stim_listA>","is flirting with",""
"null","<div style=""font-size:60px;"">+</div>","","html-keyboard-response","418","1561525","0.0-19.0-0.2","12232","List1A","black","woman","","","","null","","","",""
"null","<img src=""stim_listA/flirt7.gif""style=""height:400px;""></stim_listA>","","html-keyboard-response","419","1563527","0.0-19.0-1.2","12232","List1A","black","woman","","","","null","","","",""
"null","is flirting with","","html-keyboard-response","420","1565528","0.0-19.0-2.2","12232","List1A","black","woman","","","","null","","","",""
"8781","","","survey-text","421","1574309","0.0-19.0-3.2","12232","List1A","black","woman","","","","","{""Q0"":""jane is flirting with beth""}","<img src=""stim_listA/flirt7.gif""style=""height:400px;""></stim_listA>","is flirting with",""
"null","<div style=""font-size:60px;"">+</div>","","html-keyboard-response","422","1574810","0.0-19.0-0.3","12232","List1A","black","woman","","","","null","","","",""
"null","<img src=""stim_listA/flirt5.gif""style=""height:400px;""></stim_listA>","","html-keyboard-response","423","1576813","0.0-19.0-1.3","12232","List1A","black","woman","","","","null","","","",""
"null","is flirting with","","html-keyboard-response","424","1578813","0.0-19.0-2.3","12232","List1A","black","woman","","","","null","","","",""
"11000","","","survey-text","425","1589814","0.0-19.0-3.3","12232","List1A","black","woman","","","","","{""Q0"":""luke is flirting with fred""}","<img src=""stim_listA/flirt5.gif""style=""height:400px;""></stim_listA>","is flirting with",""
"null","<div style=""font-size:60px;"">+</div>","","html-keyboard-response","426","1590316","0.0-19.0-0.4","12232","List1A","black","woman","","","","null","","","",""
"null","<img src=""stim_listA/touch5.gif""style=""height:400px;""></stim_listA>","","html-keyboard-response","427","1592318","0.0-19.0-1.4","12232","List1A","black","woman","","","","null","","","",""
"null","is touching","","html-keyboard-response","428","1594319","0.0-19.0-2.4","12232","List1A","black","woman","","","","null","","","",""
"6578","","","survey-text","429","1600899","0.0-19.0-3.4","12232","List1A","black","woman","","","","","{""Q0"":""mike is touching dave""}","<img src=""stim_listA/touch5.gif""style=""height:400px;""></stim_listA>","is touching",""
"null","<div style=""font-size:60px;"">+</div>","","html-keyboard-response","430","1601400","0.0-19.0-0.5","12232","List1A","black","woman","","","","null","","","",""
"null","<img src=""stim_listA/marry3.gif""style=""height:400px;""></stim_listA>","","html-keyboard-response","431","1603401","0.0-19.0-1.5","12232","List1A","black","woman","","","","null","","","",""
"null","is marrying","","html-keyboard-response","432","1605403","0.0-19.0-2.5","12232","List1A","black","woman","","","","null","","","",""
"7486","","","survey-text","433","1612890","0.0-19.0-3.5","12232","List1A","black","woman","","","","","{""Q0"":""ruth is marrying dave""}","<img src=""stim_listA/marry3.gif""style=""height:400px;""></stim_listA>","is marrying",""
"null","<div style=""font-size:60px;"">+</div>","","html-keyboard-response","434","1613391","0.0-19.0-0.6","12232","List1A","black","woman","","","","null","","","",""
"null","<img src=""stim_listA/kiss6.gif""style=""height:400px;""></stim_listA>","","html-keyboard-response","435","1615393","0.0-19.0-1.6","12232","List1A","black","woman","","","","null","","","",""
"null","are kissing each other","","html-keyboard-response","436","1617394","0.0-19.0-2.6","12232","List1A","black","woman","","","","null","","","",""
"7868","","","survey-text","437","1625264","0.0-19.0-3.6","12232","List1A","black","woman","","","","","{""Q0"":""dave and mike are kissing each other""}","<img src=""stim_listA/kiss6.gif""style=""height:400px;""></stim_listA>","are kissing each other",""
"null","<div style=""font-size:60px;"">+</div>","","html-keyboard-response","438","1625765","0.0-19.0-0.7","12232","List1A","black","woman","","","","null","","","",""
"null","<img src=""stim_listA/dance4.gif""style=""height:400px;""></stim_listA>","","html-keyboard-response","439","1627767","0.0-19.0-1.7","12232","List1A","black","woman","","","","null","","","",""
"null","are dancing with each other","","html-keyboard-response","440","1629768","0.0-19.0-2.7","12232","List1A","black","woman","","","","null","","","",""
"4947","","","survey-text","441","1634716","0.0-19.0-3.7","12232","List1A","black","woman","","","","","{""Q0"":""""}","<img src=""stim_listA/dance4.gif""style=""height:400px;""></stim_listA>","are dancing with each other",""
"null","<div style=""font-size:60px;"">+</div>","","html-keyboard-response","442","1635218","0.0-19.0-0.8","12232","List1A","black","woman","","","","null","","","",""
"null","<img src=""stim_listA/touch2.gif""style=""height:400px;""></stim_listA>","","html-keyboard-response","443","1637221","0.0-19.0-1.8","12232","List1A","black","woman","","","","null","","","",""
"null","are touching each other","","html-keyboard-response","444","1639222","0.0-19.0-2.8","12232","List1A","black","woman","","","","null","","","",""
"13652","","","survey-text","445","1652875","0.0-19.0-3.8","12232","List1A","black","woman","","","","","{""Q0"":""beth and fred are touching each other""}","<img src=""stim_listA/touch2.gif""style=""height:400px;""></stim_listA>","are touching each other",""
"null","<div style=""font-size:60px;"">+</div>","","html-keyboard-response","446","1653377","0.0-19.0-0.9","12232","List1A","black","woman","","","","null","","","",""
"null","<img src=""stim_listA/play4.gif""style=""height:400px;""></stim_listA>","","html-keyboard-response","447","1655379","0.0-19.0-1.9","12232","List1A","black","woman","","","","null","","","",""
"null","are playing with each other","","html-keyboard-response","448","1657380","0.0-19.0-2.9","12232","List1A","black","woman","","","","null","","","",""
"9881","","","survey-text","449","1667262","0.0-19.0-3.9","12232","List1A","black","woman","","","","","{""Q0"":""ruth and luke are playing""}","<img src=""stim_listA/play4.gif""style=""height:400px;""></stim_listA>","are playing with each other",""
"null","<div style=""font-size:60px;"">+</div>","","html-keyboard-response","450","1667764","0.0-19.0-0.10","12232","List1A","black","woman","","","","null","","","",""
"null","<img src=""stim_listA/fight3.gif""style=""height:400px;""></stim_listA>","","html-keyboard-response","451","1669765","0.0-19.0-1.10","12232","List1A","black","woman","","","","null","","","",""
"null","is fighting","","html-keyboard-response","452","1671766","0.0-19.0-2.10","12232","List1A","black","woman","","","","null","","","",""
"6286","","","survey-text","453","1678053","0.0-19.0-3.10","12232","List1A","black","woman","","","","","{""Q0"":""jane is fighting dave""}","<img src=""stim_listA/fight3.gif""style=""height:400px;""></stim_listA>","is fighting",""
"null","<div style=""font-size:60px;"">+</div>","","html-keyboard-response","454","1678554","0.0-19.0-0.11","12232","List1A","black","woman","","","","null","","","",""
"null","<img src=""stim_listA/touch1.gif""style=""height:400px;""></stim_listA>","","html-keyboard-response","455","1680556","0.0-19.0-1.11","12232","List1A","black","woman","","","","null","","","",""
"null","is touching","","html-keyboard-response","456","1682557","0.0-19.0-2.11","12232","List1A","black","woman","","","","null","","","",""
"8040","","","survey-text","457","1690598","0.0-19.0-3.11","12232","List1A","black","woman","","","","","{""Q0"":""mike is touching kate""}","<img src=""stim_listA/touch1.gif""style=""height:400px;""></stim_listA>","is touching",""
"null","<div style=""font-size:60px;"">+</div>","","html-keyboard-response","458","1691100","0.0-19.0-0.12","12232","List1A","black","woman","","","","null","","","",""
"null","<img src=""stim_listA/kiss5.gif""style=""height:400px;""></stim_listA>","","html-keyboard-response","459","1693101","0.0-19.0-1.12","12232","List1A","black","woman","","","","null","","","",""
"null","is kissing","","html-keyboard-response","460","1695103","0.0-19.0-2.12","12232","List1A","black","woman","","","","null","","","",""
"7279","","","survey-text","461","1702383","0.0-19.0-3.12","12232","List1A","black","woman","","","","","{""Q0"":""luke is kissing fred""}","<img src=""stim_listA/kiss5.gif""style=""height:400px;""></stim_listA>","is kissing",""
"null","<div style=""font-size:60px;"">+</div>","","html-keyboard-response","462","1702885","0.0-19.0-0.13","12232","List1A","black","woman","","","","null","","","",""
"null","<img src=""stim_listA/fight7.gif""style=""height:400px;""></stim_listA>","","html-keyboard-response","463","1704887","0.0-19.0-1.13","12232","List1A","black","woman","","","","null","","","",""
"null","is fighting","","html-keyboard-response","464","1706888","0.0-19.0-2.13","12232","List1A","black","woman","","","","null","","","",""
"6742","","","survey-text","465","1713631","0.0-19.0-3.13","12232","List1A","black","woman","","","","","{""Q0"":""jane is fighting kate""}","<img src=""stim_listA/fight7.gif""style=""height:400px;""></stim_listA>","is fighting",""
"null","<div style=""font-size:60px;"">+</div>","","html-keyboard-response","466","1714132","0.0-19.0-0.14","12232","List1A","black","woman","","","","null","","","",""
"null","<img src=""stim_listA/talk8.gif""style=""height:400px;""></stim_listA>","","html-keyboard-response","467","1716134","0.0-19.0-1.14","12232","List1A","black","woman","","","","null","","","",""
"null","are talking to each other","","html-keyboard-response","468","1718136","0.0-19.0-2.14","12232","List1A","black","woman","","","","null","","","",""
"9622","","","survey-text","469","1727758","0.0-19.0-3.14","12232","List1A","black","woman","","","","","{""Q0"":""ruth and kate are talking to each other""}","<img src=""stim_listA/talk8.gif""style=""height:400px;""></stim_listA>","are talking to each other",""
"null","<div style=""font-size:60px;"">+</div>","","html-keyboard-response","470","1728260","0.0-19.0-0.15","12232","List1A","black","woman","","","","null","","","",""
"null","<img src=""stim_listA/argue7.gif""style=""height:400px;""></stim_listA>","","html-keyboard-response","471","1730262","0.0-19.0-1.15","12232","List1A","black","woman","","","","null","","","",""
"null","is arguing with","","html-keyboard-response","472","1732262","0.0-19.0-2.15","12232","List1A","black","woman","","","","null","","","",""
"11095","","","survey-text","473","1743358","0.0-19.0-3.15","12232","List1A","black","woman","","","","","{""Q0"":""ruth and kate are arguing with each other""}","<img src=""stim_listA/argue7.gif""style=""height:400px;""></stim_listA>","is arguing with",""
"null","<div style=""font-size:60px;"">+</div>","","html-keyboard-response","474","1743859","0.0-19.0-0.16","12232","List1A","black","woman","","","","null","","","",""
"null","<img src=""stim_listA/play1.gif""style=""height:400px;""></stim_listA>","","html-keyboard-response","475","1745860","0.0-19.0-1.16","12232","List1A","black","woman","","","","null","","","",""
"null","is playing with","","html-keyboard-response","476","1747862","0.0-19.0-2.16","12232","List1A","black","woman","","","","null","","","",""
"7334","","","survey-text","477","1755197","0.0-19.0-3.16","12232","List1A","black","woman","","","","","{""Q0"":""mike is playing with kate""}","<img src=""stim_listA/play1.gif""style=""height:400px;""></stim_listA>","is playing with",""
"null","<div style=""font-size:60px;"">+</div>","","html-keyboard-response","478","1755699","0.0-19.0-0.17","12232","List1A","black","woman","","","","null","","","",""
"null","<img src=""stim_listA/argue5.gif""style=""height:400px;""></stim_listA>","","html-keyboard-response","479","1757701","0.0-19.0-1.17","12232","List1A","black","woman","","","","null","","","",""
"null","is arguing with","","html-keyboard-response","480","1759703","0.0-19.0-2.17","12232","List1A","black","woman","","","","null","","","",""
"8048","","","survey-text","481","1767751","0.0-19.0-3.17","12232","List1A","black","woman","","","","","{""Q0"":""luke is arguing with mike""}","<img src=""stim_listA/argue5.gif""style=""height:400px;""></stim_listA>","is arguing with",""
"null","<div style=""font-size:60px;"">+</div>","","html-keyboard-response","482","1768253","0.0-19.0-0.18","12232","List1A","black","woman","","","","null","","","",""
"null","<img src=""stim_listA/kiss1.gif""style=""height:400px;""></stim_listA>","","html-keyboard-response","483","1770254","0.0-19.0-1.18","12232","List1A","black","woman","","","","null","","","",""
"null","is kissing","","html-keyboard-response","484","1772255","0.0-19.0-2.18","12232","List1A","black","woman","","","","null","","","",""
"5725","","","survey-text","485","1777982","0.0-19.0-3.18","12232","List1A","black","woman","","","","","{""Q0"":""mike is kissing jane""}","<img src=""stim_listA/kiss1.gif""style=""height:400px;""></stim_listA>","is kissing",""
"null","<div style=""font-size:60px;"">+</div>","","html-keyboard-response","486","1778484","0.0-19.0-0.19","12232","List1A","black","woman","","","","null","","","",""
"null","<img src=""stim_listA/fight2.gif""style=""height:400px;""></stim_listA>","","html-keyboard-response","487","1780486","0.0-19.0-1.19","12232","List1A","black","woman","","","","null","","","",""
"null","are fighting each other","","html-keyboard-response","488","1782487","0.0-19.0-2.19","12232","List1A","black","woman","","","","null","","","",""
"10318","","","survey-text","489","1792807","0.0-19.0-3.19","12232","List1A","black","woman","","","","","{""Q0"":""fred and beth are fighting each other""}","<img src=""stim_listA/fight2.gif""style=""height:400px;""></stim_listA>","are fighting each other",""
"2392","<p>Thank you for completing that task.</p><p>The final part of this session is a short questionnaire.</p><p>Press Continue.</p>","0","html-button-response","490","1795199","0.0-20.0","12232","List1A","black","woman","","","","","","","",""
"27312","","","survey-text","491","1823513","0.0-21.0","12232","List1A","black","woman","","","","","{""Q0"":""21"",""Q1"":""english"",""Q2"":""english"",""Q3"":""UK"",""Q4"":""Black "",""Q5"":""female""}","","","demographics"
"8643","","","survey-likert","492","1832159","0.0-22.0","12232","List1A","black","woman","","","","","{""Q0"":4}","","","likert_ESS"
"10117","","","survey-likert","493","1842277","0.0-23.0","12232","List1A","black","woman","","","","","{""Q0"":4}","","","likert_NSSAL_Q1"
"5768","","","survey-likert","494","1848047","0.0-24.0","12232","List1A","black","woman","","","","","{""Q0"":4}","","","likert_NSSAL_Q2"
"7212","","","survey-likert","495","1855260","0.0-25.0","12232","List1A","black","woman","","","","","{""Q0"":4}","","","likert_CGRS_Q1"
"5395","","","survey-likert","496","1860656","0.0-26.0","12232","List1A","black","woman","","","","","{""Q0"":4}","","","likert_CGRS_Q2"
"2928","","","survey-likert","497","1863586","0.0-27.0","12232","List1A","black","woman","","","","","{""Q0"":4}","","","likert_CGRS_Q3"
"17874","","","survey-text","498","1881461","0.0-28.0","12232","List1A","black","woman","","","","","{""Q0"":""5d22011cbf7f840017701878""}","","","worker_id"
"14010","","","external-html","499","1895572","0.0-29.0","12232","List1A","black","woman","debrief.html","","","","","","",""
