rt,stimulus,button_pressed,trial_type,trial_index,time_elapsed,internal_node_id,subject,list,ppt_race,ppt_gender,url,first_guess,correct,key_press,responses,image_type,phrase_type,test_part
1973,Welcome to the experiment. Press Continue to begin.,0,html-button-response,0,1975,0.0-0.0,12280,List1B,black,man,,,,,,,,
19371,,,external-html,1,22518,0.0-1.0,12280,List1B,black,man,consent.html,,,,,,,
8206,"<p>On the next page, you will see portraits of 8 people and their names.</p><p>Your first task is to take a few minutes to memorise the names of these people.</p><p>You will have to recall their names during the rest of the experiment, so it is</p><p>essential that you try to memorise these people and their names as best as you can.</p><br><p><strong>You will then be tested on your memory of these names and portraits.</strong></p><br><p>The experiment will start after you have completed this memory test.</p><br><p>Ready?</p>",0,html-button-response,2,30725,0.0-2.0,12280,List1B,black,man,,,,,,,,
151253,"<img src='img/portrait_matrix_list1.jpg' style='width:900px;height:500px;''></img><p>If you have memorised all the portraits and names and are ready to start, press Continue.</p><p><strong>Please note: Your memory of these faces will be tested 4 times during this experiment.</strong></p>",0,html-button-response,3,182980,0.0-3.0-0.0,12280,List1B,black,man,,,,,,,,
6482,"<img src=""portrait/BW2.jpg""style=""height:400px;""></img>",2,html-button-response,4,190464,0.0-3.0-1.0,12280,List1B,black,man,,TRUE,2,,,,,
null,CORRECT,,html-keyboard-response,5,191969,0.0-3.0-2.0-0.0,12280,List1B,black,man,,,,null,,,,
3338,"<img src=""portrait/WW2.jpg""style=""height:400px;""></img>",3,html-button-response,6,195308,0.0-3.0-4.0,12280,List1B,black,man,,TRUE,3,,,,,
null,CORRECT,,html-keyboard-response,7,196811,0.0-3.0-5.0-0.0,12280,List1B,black,man,,,,null,,,,
3568,"<img src=""portrait/WM2.jpg""style=""height:400px;""></img>",7,html-button-response,8,200381,0.0-3.0-7.0,12280,List1B,black,man,,TRUE,7,,,,,
null,CORRECT,,html-keyboard-response,9,201883,0.0-3.0-8.0-0.0,12280,List1B,black,man,,,,null,,,,
4943,"<img src=""portrait/BW1.jpg""style=""height:400px;""></img>",0,html-button-response,10,206828,0.0-3.0-10.0,12280,List1B,black,man,,TRUE,0,,,,,
null,CORRECT,,html-keyboard-response,11,208330,0.0-3.0-11.0-0.0,12280,List1B,black,man,,,,null,,,,
4916,"<img src=""portrait/WM1.jpg""style=""height:400px;""></img>",5,html-button-response,12,213248,0.0-3.0-13.0,12280,List1B,black,man,,TRUE,6,,,,,
5378,"<img src=""portrait/WM1.jpg""style=""height:400px;""></img>",6,html-button-response,13,219629,0.0-3.0-15.0-0.0,12280,List1B,black,man,,FALSE,6,,,,,
null,CORRECT,,html-keyboard-response,14,221132,0.0-3.0-15.0-1.0-0.0,12280,List1B,black,man,,,,null,,,,
4366,"<img src=""portrait/BM1.jpg""style=""height:400px;""></img>",4,html-button-response,15,225500,0.0-3.0-16.0,12280,List1B,black,man,,TRUE,4,,,,,
null,CORRECT,,html-keyboard-response,16,227004,0.0-3.0-17.0-0.0,12280,List1B,black,man,,,,null,,,,
3935,"<img src=""portrait/BM2.jpg""style=""height:400px;""></img>",5,html-button-response,17,230940,0.0-3.0-19.0,12280,List1B,black,man,,TRUE,5,,,,,
null,CORRECT,,html-keyboard-response,18,232442,0.0-3.0-20.0-0.0,12280,List1B,black,man,,,,null,,,,
3505,"<img src=""portrait/WW1.jpg""style=""height:400px;""></img>",1,html-button-response,19,235948,0.0-3.0-22.0,12280,List1B,black,man,,TRUE,1,,,,,
null,CORRECT,,html-keyboard-response,20,237451,0.0-3.0-23.0-0.0,12280,List1B,black,man,,,,null,,,,
1255,<p>You got 7 out of 8 right first time. Press Continue.</p>,0,html-button-response,21,238708,0.0-3.0-25.0,12280,List1B,black,man,,,,,,,,
3165,"As you did not score 100%, the memory game will repeat. Press Continue.",0,html-button-response,22,242876,0.0-3.0-26.0-0.0,12280,List1B,black,man,,,,,,,,
1709,"<img src='img/portrait_matrix_list1.jpg' style='width:900px;height:500px;''></img><p>If you have memorised all the portraits and names and are ready to start, press Continue.</p><p><strong>Please note: Your memory of these faces will be tested 4 times during this experiment.</strong></p>",0,html-button-response,23,245587,0.0-3.1-0.1,12280,List1B,black,man,,,,,,,,
3782,"<img src=""portrait/BW2.jpg""style=""height:400px;""></img>",2,html-button-response,24,250371,0.0-3.1-1.1,12280,List1B,black,man,,TRUE,2,,,,,
null,CORRECT,,html-keyboard-response,25,251873,0.0-3.1-2.1-0.1,12280,List1B,black,man,,,,null,,,,
2353,"<img src=""portrait/WW2.jpg""style=""height:400px;""></img>",3,html-button-response,26,254227,0.0-3.1-4.1,12280,List1B,black,man,,TRUE,3,,,,,
null,CORRECT,,html-keyboard-response,27,255729,0.0-3.1-5.1-0.1,12280,List1B,black,man,,,,null,,,,
3289,"<img src=""portrait/WM2.jpg""style=""height:400px;""></img>",7,html-button-response,28,259020,0.0-3.1-7.1,12280,List1B,black,man,,TRUE,7,,,,,
null,CORRECT,,html-keyboard-response,29,260523,0.0-3.1-8.1-0.1,12280,List1B,black,man,,,,null,,,,
4952,"<img src=""portrait/BW1.jpg""style=""height:400px;""></img>",0,html-button-response,30,265475,0.0-3.1-10.1,12280,List1B,black,man,,TRUE,0,,,,,
null,CORRECT,,html-keyboard-response,31,266978,0.0-3.1-11.1-0.1,12280,List1B,black,man,,,,null,,,,
3368,"<img src=""portrait/WM1.jpg""style=""height:400px;""></img>",6,html-button-response,32,270347,0.0-3.1-13.1,12280,List1B,black,man,,TRUE,6,,,,,
null,CORRECT,,html-keyboard-response,33,271849,0.0-3.1-14.1-0.1,12280,List1B,black,man,,,,null,,,,
3260,"<img src=""portrait/BM1.jpg""style=""height:400px;""></img>",4,html-button-response,34,275111,0.0-3.1-16.1,12280,List1B,black,man,,TRUE,4,,,,,
null,CORRECT,,html-keyboard-response,35,276613,0.0-3.1-17.1-0.1,12280,List1B,black,man,,,,null,,,,
3444,"<img src=""portrait/BM2.jpg""style=""height:400px;""></img>",5,html-button-response,36,280059,0.0-3.1-19.1,12280,List1B,black,man,,TRUE,5,,,,,
null,CORRECT,,html-keyboard-response,37,281562,0.0-3.1-20.1-0.1,12280,List1B,black,man,,,,null,,,,
2792,"<img src=""portrait/WW1.jpg""style=""height:400px;""></img>",1,html-button-response,38,284355,0.0-3.1-22.1,12280,List1B,black,man,,TRUE,1,,,,,
null,CORRECT,,html-keyboard-response,39,285858,0.0-3.1-23.1-0.1,12280,List1B,black,man,,,,null,,,,
935,<p>You got 8 out of 8 right first time. Press Continue.</p>,0,html-button-response,40,286795,0.0-3.1-25.1,12280,List1B,black,man,,,,,,,,
23241,"<p>In this experiment, you will view photographs of the people from the memory game interacting.</p><p>By using the <strong>exact</strong> phrase given <i>after</i> the photograph appears and recalling the correct names of the people in the photographs, form a sentence describing the interaction. You do not need to capitalise names.</p><p>Type your answer in the space provided. Please complete every sentence before moving onto the next trial.</p><p>You will only have a few seconds to memorise each given photograph and phrase before you can respond, so try your best to focus.</p><p>An example is given below. Press 'Continue' when you are ready.</p><img src='img/speaking_example.jpg' style='width:800px;height:460px;''></img>",0,html-button-response,41,311039,0.0-4.0,12280,List1B,black,man,,,,,,,,
2066,"<p>Before the experiment starts, you will watch two example trials. Press 'Continue'.</p>",0,html-button-response,42,314107,0.0-5.0,12280,List1B,black,man,,,,,,,,
null,<img src='img/meet_eg.gif' style='height:400px;''></img>,,html-keyboard-response,43,317110,0.0-6.0,12280,List1B,black,man,,,,null,,,,
null,<p>is meeting</p>,,html-keyboard-response,44,319111,0.0-7.0,12280,List1B,black,man,,,,null,,,,
1611,<p><b>Answer:</b> kate is meeting beth</p>,0,html-button-response,45,320723,0.0-8.0,12280,List1B,black,man,,,,,,,,
null,<img src='img/look_eg.gif' style='height:400px;''></img>,,html-keyboard-response,46,323724,0.0-9.0,12280,List1B,black,man,,,,null,,,,
null,<p>are looking at each other</p>,,html-keyboard-response,47,325726,0.0-10.0,12280,List1B,black,man,,,,null,,,,
2116,<p><b>Answer:</b> luke and dave are looking at each other</p>,0,html-button-response,48,327842,0.0-11.0,12280,List1B,black,man,,,,,,,,
7798,"<p>Ready to start the experiment?</p><br><p><strong>Remember to describe the picture using a full sentence,</strong></p><p><strong>that combines the names of the people with the <i>exact</i> phrase given.</strong></p><p><strong>To receive full payment you must do this correctly.</strong></p><p><strong> You do not need to capitalise names or use punctuation.</strong></p><br><p>Press 'Continue' to begin.</p>",0,html-button-response,49,336643,0.0-12.0,12280,List1B,black,man,,,,,,,,
null,"<div style=""font-size:60px;"">+</div>",,html-keyboard-response,50,338144,0.0-13.0-0.0,12280,List1B,black,man,,,,null,,,,
null,"<img src=""stim_listB/argue3.gif""style=""height:400px;""></stim_listB>",,html-keyboard-response,51,340147,0.0-13.0-1.0,12280,List1B,black,man,,,,null,,,,
null,is arguing with,,html-keyboard-response,52,342149,0.0-13.0-2.0,12280,List1B,black,man,,,,null,,,,
21940,,,survey-text,53,364091,0.0-13.0-3.0,12280,List1B,black,man,,,,,"{""Q0"":""dave is arguing with ruth""}","<img src=""stim_listB/argue3.gif""style=""height:400px;""></stim_listB>",is arguing with,
null,"<div style=""font-size:60px;"">+</div>",,html-keyboard-response,54,364593,0.0-13.0-0.1,12280,List1B,black,man,,,,null,,,,
null,"<img src=""stim_listB/flirt8.gif""style=""height:400px;""></stim_listB>",,html-keyboard-response,55,366595,0.0-13.0-1.1,12280,List1B,black,man,,,,null,,,,
null,are flirting with each other,,html-keyboard-response,56,368597,0.0-13.0-2.1,12280,List1B,black,man,,,,null,,,,
11941,,,survey-text,57,380538,0.0-13.0-3.1,12280,List1B,black,man,,,,,"{""Q0"":""ruth is looking at kate""}","<img src=""stim_listB/flirt8.gif""style=""height:400px;""></stim_listB>",are flirting with each other,
null,"<div style=""font-size:60px;"">+</div>",,html-keyboard-response,58,381039,0.0-13.0-0.2,12280,List1B,black,man,,,,null,,,,
null,"<img src=""stim_listB/shout7.gif""style=""height:400px;""></stim_listB>",,html-keyboard-response,59,383042,0.0-13.0-1.2,12280,List1B,black,man,,,,null,,,,
null,is shouting at,,html-keyboard-response,60,385043,0.0-13.0-2.2,12280,List1B,black,man,,,,null,,,,
11286,,,survey-text,61,396330,0.0-13.0-3.2,12280,List1B,black,man,,,,,"{""Q0"":""ruth is shouting at beth""}","<img src=""stim_listB/shout7.gif""style=""height:400px;""></stim_listB>",is shouting at,
null,"<div style=""font-size:60px;"">+</div>",,html-keyboard-response,62,396831,0.0-13.0-0.3,12280,List1B,black,man,,,,null,,,,
null,"<img src=""stim_listB/play7.gif""style=""height:400px;""></stim_listB>",,html-keyboard-response,63,398834,0.0-13.0-1.3,12280,List1B,black,man,,,,null,,,,
null,is playing with,,html-keyboard-response,64,400835,0.0-13.0-2.3,12280,List1B,black,man,,,,null,,,,
13381,,,survey-text,65,414218,0.0-13.0-3.3,12280,List1B,black,man,,,,,"{""Q0"":""ruth is playing with kate""}","<img src=""stim_listB/play7.gif""style=""height:400px;""></stim_listB>",is playing with,
null,"<div style=""font-size:60px;"">+</div>",,html-keyboard-response,66,414720,0.0-13.0-0.4,12280,List1B,black,man,,,,null,,,,
null,"<img src=""stim_listB/flirt5.gif""style=""height:400px;""></stim_listB>",,html-keyboard-response,67,416722,0.0-13.0-1.4,12280,List1B,black,man,,,,null,,,,
null,is flirting with,,html-keyboard-response,68,418723,0.0-13.0-2.4,12280,List1B,black,man,,,,null,,,,
10581,,,survey-text,69,429306,0.0-13.0-3.4,12280,List1B,black,man,,,,,"{""Q0"":""fred is looking at dave""}","<img src=""stim_listB/flirt5.gif""style=""height:400px;""></stim_listB>",is flirting with,
null,"<div style=""font-size:60px;"">+</div>",,html-keyboard-response,70,429807,0.0-13.0-0.5,12280,List1B,black,man,,,,null,,,,
null,"<img src=""stim_listB/flirt4.gif""style=""height:400px;""></stim_listB>",,html-keyboard-response,71,431809,0.0-13.0-1.5,12280,List1B,black,man,,,,null,,,,
null,are flirting with each other,,html-keyboard-response,72,433810,0.0-13.0-2.5,12280,List1B,black,man,,,,null,,,,
17030,,,survey-text,73,450842,0.0-13.0-3.5,12280,List1B,black,man,,,,,"{""Q0"":""dave and ruth are flirting with each other""}","<img src=""stim_listB/flirt4.gif""style=""height:400px;""></stim_listB>",are flirting with each other,
null,"<div style=""font-size:60px;"">+</div>",,html-keyboard-response,74,451344,0.0-13.0-0.6,12280,List1B,black,man,,,,null,,,,
null,"<img src=""stim_listB/shout8.gif""style=""height:400px;""></stim_listB>",,html-keyboard-response,75,453345,0.0-13.0-1.6,12280,List1B,black,man,,,,null,,,,
null,are shouting at each other,,html-keyboard-response,76,455347,0.0-13.0-2.6,12280,List1B,black,man,,,,null,,,,
11758,,,survey-text,77,467106,0.0-13.0-3.6,12280,List1B,black,man,,,,,"{""Q0"":""jane and kate are arguing""}","<img src=""stim_listB/shout8.gif""style=""height:400px;""></stim_listB>",are shouting at each other,
null,"<div style=""font-size:60px;"">+</div>",,html-keyboard-response,78,467607,0.0-13.0-0.7,12280,List1B,black,man,,,,null,,,,
null,"<img src=""stim_listB/kiss1.gif""style=""height:400px;""></stim_listB>",,html-keyboard-response,79,469609,0.0-13.0-1.7,12280,List1B,black,man,,,,null,,,,
null,is kissing,,html-keyboard-response,80,471611,0.0-13.0-2.7,12280,List1B,black,man,,,,null,,,,
12326,,,survey-text,81,483937,0.0-13.0-3.7,12280,List1B,black,man,,,,,"{""Q0"":""fred and beth are kissing""}","<img src=""stim_listB/kiss1.gif""style=""height:400px;""></stim_listB>",is kissing,
null,"<div style=""font-size:60px;"">+</div>",,html-keyboard-response,82,484439,0.0-13.0-0.8,12280,List1B,black,man,,,,null,,,,
null,"<img src=""stim_listB/marry3.gif""style=""height:400px;""></stim_listB>",,html-keyboard-response,83,486441,0.0-13.0-1.8,12280,List1B,black,man,,,,null,,,,
null,is marrying,,html-keyboard-response,84,488442,0.0-13.0-2.8,12280,List1B,black,man,,,,null,,,,
13630,,,survey-text,85,502073,0.0-13.0-3.8,12280,List1B,black,man,,,,,"{""Q0"":""dave is marrying ruth""}","<img src=""stim_listB/marry3.gif""style=""height:400px;""></stim_listB>",is marrying,
null,"<div style=""font-size:60px;"">+</div>",,html-keyboard-response,86,502575,0.0-13.0-0.9,12280,List1B,black,man,,,,null,,,,
null,"<img src=""stim_listB/dance4.gif""style=""height:400px;""></stim_listB>",,html-keyboard-response,87,504577,0.0-13.0-1.9,12280,List1B,black,man,,,,null,,,,
null,are dancing with each other,,html-keyboard-response,88,506578,0.0-13.0-2.9,12280,List1B,black,man,,,,null,,,,
12535,,,survey-text,89,519113,0.0-13.0-3.9,12280,List1B,black,man,,,,,"{""Q0"":""dave and ruth are dancing with each other""}","<img src=""stim_listB/dance4.gif""style=""height:400px;""></stim_listB>",are dancing with each other,
null,"<div style=""font-size:60px;"">+</div>",,html-keyboard-response,90,519614,0.0-13.0-0.10,12280,List1B,black,man,,,,null,,,,
null,"<img src=""stim_listB/kiss2.gif""style=""height:400px;""></stim_listB>",,html-keyboard-response,91,521616,0.0-13.0-1.10,12280,List1B,black,man,,,,null,,,,
null,are kissing each other,,html-keyboard-response,92,523618,0.0-13.0-2.10,12280,List1B,black,man,,,,null,,,,
11550,,,survey-text,93,535169,0.0-13.0-3.10,12280,List1B,black,man,,,,,"{""Q0"":""mike and kate are kissing each other""}","<img src=""stim_listB/kiss2.gif""style=""height:400px;""></stim_listB>",are kissing each other,
null,"<div style=""font-size:60px;"">+</div>",,html-keyboard-response,94,535670,0.0-13.0-0.11,12280,List1B,black,man,,,,null,,,,
null,"<img src=""stim_listB/shout6.gif""style=""height:400px;""></stim_listB>",,html-keyboard-response,95,537672,0.0-13.0-1.11,12280,List1B,black,man,,,,null,,,,
null,are shouting at each other,,html-keyboard-response,96,539673,0.0-13.0-2.11,12280,List1B,black,man,,,,null,,,,
11806,,,survey-text,97,551481,0.0-13.0-3.11,12280,List1B,black,man,,,,,"{""Q0"":""mike and dave are shouting at each other""}","<img src=""stim_listB/shout6.gif""style=""height:400px;""></stim_listB>",are shouting at each other,
null,"<div style=""font-size:60px;"">+</div>",,html-keyboard-response,98,551982,0.0-13.0-0.12,12280,List1B,black,man,,,,null,,,,
null,"<img src=""stim_listB/shout4.gif""style=""height:400px;""></stim_listB>",,html-keyboard-response,99,553984,0.0-13.0-1.12,12280,List1B,black,man,,,,null,,,,
null,are shouting at each other,,html-keyboard-response,100,555986,0.0-13.0-2.12,12280,List1B,black,man,,,,null,,,,
11170,,,survey-text,101,567157,0.0-13.0-3.12,12280,List1B,black,man,,,,,"{""Q0"":""dave and jane are shouting at each other""}","<img src=""stim_listB/shout4.gif""style=""height:400px;""></stim_listB>",are shouting at each other,
null,"<div style=""font-size:60px;"">+</div>",,html-keyboard-response,102,567658,0.0-13.0-0.13,12280,List1B,black,man,,,,null,,,,
null,"<img src=""stim_listB/play8.gif""style=""height:400px;""></stim_listB>",,html-keyboard-response,103,569660,0.0-13.0-1.13,12280,List1B,black,man,,,,null,,,,
null,are playing with each other,,html-keyboard-response,104,571661,0.0-13.0-2.13,12280,List1B,black,man,,,,null,,,,
12946,,,survey-text,105,584608,0.0-13.0-3.13,12280,List1B,black,man,,,,,"{""Q0"":""ruth and beth are playing with each other""}","<img src=""stim_listB/play8.gif""style=""height:400px;""></stim_listB>",are playing with each other,
null,"<div style=""font-size:60px;"">+</div>",,html-keyboard-response,106,585110,0.0-13.0-0.14,12280,List1B,black,man,,,,null,,,,
null,"<img src=""stim_listB/marry1.gif""style=""height:400px;""></stim_listB>",,html-keyboard-response,107,587113,0.0-13.0-1.14,12280,List1B,black,man,,,,null,,,,
null,is marrying,,html-keyboard-response,108,589115,0.0-13.0-2.14,12280,List1B,black,man,,,,null,,,,
10548,,,survey-text,109,599664,0.0-13.0-3.14,12280,List1B,black,man,,,,,"{""Q0"":""mike is marrying beth""}","<img src=""stim_listB/marry1.gif""style=""height:400px;""></stim_listB>",is marrying,
null,"<div style=""font-size:60px;"">+</div>",,html-keyboard-response,110,600167,0.0-13.0-0.15,12280,List1B,black,man,,,,null,,,,
null,"<img src=""stim_listB/play1.gif""style=""height:400px;""></stim_listB>",,html-keyboard-response,111,602169,0.0-13.0-1.15,12280,List1B,black,man,,,,null,,,,
null,is playing with,,html-keyboard-response,112,604171,0.0-13.0-2.15,12280,List1B,black,man,,,,null,,,,
13269,,,survey-text,113,617441,0.0-13.0-3.15,12280,List1B,black,man,,,,,"{""Q0"":""kate is playing with mike""}","<img src=""stim_listB/play1.gif""style=""height:400px;""></stim_listB>",is playing with,
null,"<div style=""font-size:60px;"">+</div>",,html-keyboard-response,114,617943,0.0-13.0-0.16,12280,List1B,black,man,,,,null,,,,
null,"<img src=""stim_listB/flirt6.gif""style=""height:400px;""></stim_listB>",,html-keyboard-response,115,619944,0.0-13.0-1.16,12280,List1B,black,man,,,,null,,,,
null,are flirting with each other,,html-keyboard-response,116,621945,0.0-13.0-2.16,12280,List1B,black,man,,,,null,,,,
11318,,,survey-text,117,633265,0.0-13.0-3.16,12280,List1B,black,man,,,,,"{""Q0"":""luke and mike are flirting with each other""}","<img src=""stim_listB/flirt6.gif""style=""height:400px;""></stim_listB>",are flirting with each other,
null,"<div style=""font-size:60px;"">+</div>",,html-keyboard-response,118,633766,0.0-13.0-0.17,12280,List1B,black,man,,,,null,,,,
null,"<img src=""stim_listB/shout3.gif""style=""height:400px;""></stim_listB>",,html-keyboard-response,119,635769,0.0-13.0-1.17,12280,List1B,black,man,,,,null,,,,
null,is shouting at,,html-keyboard-response,120,637771,0.0-13.0-2.17,12280,List1B,black,man,,,,null,,,,
15308,,,survey-text,121,653080,0.0-13.0-3.17,12280,List1B,black,man,,,,,"{""Q0"":""luke is shouting at ruth""}","<img src=""stim_listB/shout3.gif""style=""height:400px;""></stim_listB>",is shouting at,
null,"<div style=""font-size:60px;"">+</div>",,html-keyboard-response,122,653582,0.0-13.0-0.18,12280,List1B,black,man,,,,null,,,,
null,"<img src=""stim_listB/touch6.gif""style=""height:400px;""></stim_listB>",,html-keyboard-response,123,655584,0.0-13.0-1.18,12280,List1B,black,man,,,,null,,,,
null,are touching each other,,html-keyboard-response,124,657585,0.0-13.0-2.18,12280,List1B,black,man,,,,null,,,,
13573,,,survey-text,125,671160,0.0-13.0-3.18,12280,List1B,black,man,,,,,"{""Q0"":""luke and fred are touching each other""}","<img src=""stim_listB/touch6.gif""style=""height:400px;""></stim_listB>",are touching each other,
null,"<div style=""font-size:60px;"">+</div>",,html-keyboard-response,126,671661,0.0-13.0-0.19,12280,List1B,black,man,,,,null,,,,
null,"<img src=""stim_listB/flirt2.gif""style=""height:400px;""></stim_listB>",,html-keyboard-response,127,673663,0.0-13.0-1.19,12280,List1B,black,man,,,,null,,,,
null,are flirting with each other,,html-keyboard-response,128,675664,0.0-13.0-2.19,12280,List1B,black,man,,,,null,,,,
21398,,,survey-text,129,697064,0.0-13.0-3.19,12280,List1B,black,man,,,,,"{""Q0"":""mike and beth are flirting with each other""}","<img src=""stim_listB/flirt2.gif""style=""height:400px;""></stim_listB>",are flirting with each other,
6214,"<img src='img/portrait_matrix_list1.jpg' style='width:900px;height:500px;''></img><p>If you have memorised all the portraits and names and are ready to start, press Continue.</p><p><strong>Please note: Your memory of these faces will be tested 4 times during this experiment.</strong></p>",0,html-button-response,130,703279,0.0-14.0-0.0,12280,List1B,black,man,,,,,,,,
3853,"<img src=""portrait/WM2.jpg""style=""height:400px;""></img>",7,html-button-response,131,708136,0.0-14.0-1.0,12280,List1B,black,man,,TRUE,7,,,,,
null,CORRECT,,html-keyboard-response,132,709639,0.0-14.0-2.0-0.0,12280,List1B,black,man,,,,null,,,,
2135,"<img src=""portrait/WW2.jpg""style=""height:400px;""></img>",3,html-button-response,133,711775,0.0-14.0-4.0,12280,List1B,black,man,,TRUE,3,,,,,
null,CORRECT,,html-keyboard-response,134,713277,0.0-14.0-5.0-0.0,12280,List1B,black,man,,,,null,,,,
5177,"<img src=""portrait/WW1.jpg""style=""height:400px;""></img>",1,html-button-response,135,718455,0.0-14.0-7.0,12280,List1B,black,man,,TRUE,1,,,,,
null,CORRECT,,html-keyboard-response,136,719958,0.0-14.0-8.0-0.0,12280,List1B,black,man,,,,null,,,,
2904,"<img src=""portrait/BM1.jpg""style=""height:400px;""></img>",4,html-button-response,137,722864,0.0-14.0-10.0,12280,List1B,black,man,,TRUE,4,,,,,
null,CORRECT,,html-keyboard-response,138,724366,0.0-14.0-11.0-0.0,12280,List1B,black,man,,,,null,,,,
3576,"<img src=""portrait/BW1.jpg""style=""height:400px;""></img>",0,html-button-response,139,727944,0.0-14.0-13.0,12280,List1B,black,man,,TRUE,0,,,,,
null,CORRECT,,html-keyboard-response,140,729446,0.0-14.0-14.0-0.0,12280,List1B,black,man,,,,null,,,,
5557,"<img src=""portrait/WM1.jpg""style=""height:400px;""></img>",6,html-button-response,141,735004,0.0-14.0-16.0,12280,List1B,black,man,,TRUE,6,,,,,
null,CORRECT,,html-keyboard-response,142,736506,0.0-14.0-17.0-0.0,12280,List1B,black,man,,,,null,,,,
3540,"<img src=""portrait/BM2.jpg""style=""height:400px;""></img>",5,html-button-response,143,740048,0.0-14.0-19.0,12280,List1B,black,man,,TRUE,5,,,,,
null,CORRECT,,html-keyboard-response,144,741551,0.0-14.0-20.0-0.0,12280,List1B,black,man,,,,null,,,,
3127,"<img src=""portrait/BW2.jpg""style=""height:400px;""></img>",2,html-button-response,145,744680,0.0-14.0-22.0,12280,List1B,black,man,,TRUE,2,,,,,
null,CORRECT,,html-keyboard-response,146,746181,0.0-14.0-23.0-0.0,12280,List1B,black,man,,,,null,,,,
981,<p>You got 8 out of 8 right first time. Press Continue.</p>,0,html-button-response,147,747163,0.0-14.0-25.0,12280,List1B,black,man,,,,,,,,
null,"<div style=""font-size:60px;"">+</div>",,html-keyboard-response,148,748667,0.0-15.0-0.0,12280,List1B,black,man,,,,null,,,,
null,"<img src=""stim_listB/talk7.gif""style=""height:400px;""></stim_listB>",,html-keyboard-response,149,750669,0.0-15.0-1.0,12280,List1B,black,man,,,,null,,,,
null,is talking to,,html-keyboard-response,150,752672,0.0-15.0-2.0,12280,List1B,black,man,,,,null,,,,
12671,,,survey-text,151,765343,0.0-15.0-3.0,12280,List1B,black,man,,,,,"{""Q0"":""kate is talking to ruth""}","<img src=""stim_listB/talk7.gif""style=""height:400px;""></stim_listB>",is talking to,
null,"<div style=""font-size:60px;"">+</div>",,html-keyboard-response,152,765845,0.0-15.0-0.1,12280,List1B,black,man,,,,null,,,,
null,"<img src=""stim_listB/marry7.gif""style=""height:400px;""></stim_listB>",,html-keyboard-response,153,767847,0.0-15.0-1.1,12280,List1B,black,man,,,,null,,,,
null,is marrying,,html-keyboard-response,154,769848,0.0-15.0-2.1,12280,List1B,black,man,,,,null,,,,
8405,,,survey-text,155,778255,0.0-15.0-3.1,12280,List1B,black,man,,,,,"{""Q0"":""kate is marrying ruth""}","<img src=""stim_listB/marry7.gif""style=""height:400px;""></stim_listB>",is marrying,
null,"<div style=""font-size:60px;"">+</div>",,html-keyboard-response,156,778756,0.0-15.0-0.2,12280,List1B,black,man,,,,null,,,,
null,"<img src=""stim_listB/talk5.gif""style=""height:400px;""></stim_listB>",,html-keyboard-response,157,780757,0.0-15.0-1.2,12280,List1B,black,man,,,,null,,,,
null,is talking to,,html-keyboard-response,158,782759,0.0-15.0-2.2,12280,List1B,black,man,,,,null,,,,
14596,,,survey-text,159,797355,0.0-15.0-3.2,12280,List1B,black,man,,,,,"{""Q0"":""dave and fred are arguing""}","<img src=""stim_listB/talk5.gif""style=""height:400px;""></stim_listB>",is talking to,
null,"<div style=""font-size:60px;"">+</div>",,html-keyboard-response,160,797856,0.0-15.0-0.3,12280,List1B,black,man,,,,null,,,,
null,"<img src=""stim_listB/play5.gif""style=""height:400px;""></stim_listB>",,html-keyboard-response,161,799858,0.0-15.0-1.3,12280,List1B,black,man,,,,null,,,,
null,is playing with,,html-keyboard-response,162,801859,0.0-15.0-2.3,12280,List1B,black,man,,,,null,,,,
11043,,,survey-text,163,812903,0.0-15.0-3.3,12280,List1B,black,man,,,,,"{""Q0"":""dave is playing with mike""}","<img src=""stim_listB/play5.gif""style=""height:400px;""></stim_listB>",is playing with,
null,"<div style=""font-size:60px;"">+</div>",,html-keyboard-response,164,813405,0.0-15.0-0.4,12280,List1B,black,man,,,,null,,,,
null,"<img src=""stim_listB/marry4.gif""style=""height:400px;""></stim_listB>",,html-keyboard-response,165,815406,0.0-15.0-1.4,12280,List1B,black,man,,,,null,,,,
null,are marrying each other,,html-keyboard-response,166,817409,0.0-15.0-2.4,12280,List1B,black,man,,,,null,,,,
14021,,,survey-text,167,831431,0.0-15.0-3.4,12280,List1B,black,man,,,,,"{""Q0"":""luke and jane are marrying each other""}","<img src=""stim_listB/marry4.gif""style=""height:400px;""></stim_listB>",are marrying each other,
null,"<div style=""font-size:60px;"">+</div>",,html-keyboard-response,168,831933,0.0-15.0-0.5,12280,List1B,black,man,,,,null,,,,
null,"<img src=""stim_listB/touch2.gif""style=""height:400px;""></stim_listB>",,html-keyboard-response,169,833935,0.0-15.0-1.5,12280,List1B,black,man,,,,null,,,,
null,are touching each other,,html-keyboard-response,170,835936,0.0-15.0-2.5,12280,List1B,black,man,,,,null,,,,
13633,,,survey-text,171,849571,0.0-15.0-3.5,12280,List1B,black,man,,,,,"{""Q0"":""dave and beth are touching each other""}","<img src=""stim_listB/touch2.gif""style=""height:400px;""></stim_listB>",are touching each other,
null,"<div style=""font-size:60px;"">+</div>",,html-keyboard-response,172,850072,0.0-15.0-0.6,12280,List1B,black,man,,,,null,,,,
null,"<img src=""stim_listB/shout1.gif""style=""height:400px;""></stim_listB>",,html-keyboard-response,173,852073,0.0-15.0-1.6,12280,List1B,black,man,,,,null,,,,
null,is shouting at,,html-keyboard-response,174,854074,0.0-15.0-2.6,12280,List1B,black,man,,,,null,,,,
10143,,,survey-text,175,864219,0.0-15.0-3.6,12280,List1B,black,man,,,,,"{""Q0"":""fred and beth are arguing""}","<img src=""stim_listB/shout1.gif""style=""height:400px;""></stim_listB>",is shouting at,
null,"<div style=""font-size:60px;"">+</div>",,html-keyboard-response,176,864722,0.0-15.0-0.7,12280,List1B,black,man,,,,null,,,,
null,"<img src=""stim_listB/dance1.gif""style=""height:400px;""></stim_listB>",,html-keyboard-response,177,866724,0.0-15.0-1.7,12280,List1B,black,man,,,,null,,,,
null,is dancing with,,html-keyboard-response,178,868725,0.0-15.0-2.7,12280,List1B,black,man,,,,null,,,,
12485,,,survey-text,179,881211,0.0-15.0-3.7,12280,List1B,black,man,,,,,"{""Q0"":""fred is dancing with kate""}","<img src=""stim_listB/dance1.gif""style=""height:400px;""></stim_listB>",is dancing with,
null,"<div style=""font-size:60px;"">+</div>",,html-keyboard-response,180,881712,0.0-15.0-0.8,12280,List1B,black,man,,,,null,,,,
null,"<img src=""stim_listB/marry6.gif""style=""height:400px;""></stim_listB>",,html-keyboard-response,181,883714,0.0-15.0-1.8,12280,List1B,black,man,,,,null,,,,
null,are marrying each other,,html-keyboard-response,182,885716,0.0-15.0-2.8,12280,List1B,black,man,,,,null,,,,
10470,,,survey-text,183,896187,0.0-15.0-3.8,12280,List1B,black,man,,,,,"{""Q0"":""fred and dave are marrying each other""}","<img src=""stim_listB/marry6.gif""style=""height:400px;""></stim_listB>",are marrying each other,
null,"<div style=""font-size:60px;"">+</div>",,html-keyboard-response,184,896688,0.0-15.0-0.9,12280,List1B,black,man,,,,null,,,,
null,"<img src=""stim_listB/fight3.gif""style=""height:400px;""></stim_listB>",,html-keyboard-response,185,898690,0.0-15.0-1.9,12280,List1B,black,man,,,,null,,,,
null,is fighting,,html-keyboard-response,186,900691,0.0-15.0-2.9,12280,List1B,black,man,,,,null,,,,
9997,,,survey-text,187,910690,0.0-15.0-3.9,12280,List1B,black,man,,,,,"{""Q0"":""dave and jane are fighting""}","<img src=""stim_listB/fight3.gif""style=""height:400px;""></stim_listB>",is fighting,
null,"<div style=""font-size:60px;"">+</div>",,html-keyboard-response,188,911191,0.0-15.0-0.10,12280,List1B,black,man,,,,null,,,,
null,"<img src=""stim_listB/fight1.gif""style=""height:400px;""></stim_listB>",,html-keyboard-response,189,913193,0.0-15.0-1.10,12280,List1B,black,man,,,,null,,,,
null,is fighting,,html-keyboard-response,190,915195,0.0-15.0-2.10,12280,List1B,black,man,,,,null,,,,
7511,,,survey-text,191,922706,0.0-15.0-3.10,12280,List1B,black,man,,,,,"{""Q0"":""kate and mike are fighting""}","<img src=""stim_listB/fight1.gif""style=""height:400px;""></stim_listB>",is fighting,
null,"<div style=""font-size:60px;"">+</div>",,html-keyboard-response,192,923208,0.0-15.0-0.11,12280,List1B,black,man,,,,null,,,,
null,"<img src=""stim_listB/touch5.gif""style=""height:400px;""></stim_listB>",,html-keyboard-response,193,925210,0.0-15.0-1.11,12280,List1B,black,man,,,,null,,,,
null,is touching,,html-keyboard-response,194,927212,0.0-15.0-2.11,12280,List1B,black,man,,,,null,,,,
7900,,,survey-text,195,935114,0.0-15.0-3.11,12280,List1B,black,man,,,,,"{""Q0"":""mike is touching dave""}","<img src=""stim_listB/touch5.gif""style=""height:400px;""></stim_listB>",is touching,
null,"<div style=""font-size:60px;"">+</div>",,html-keyboard-response,196,935615,0.0-15.0-0.12,12280,List1B,black,man,,,,null,,,,
null,"<img src=""stim_listB/kiss4.gif""style=""height:400px;""></stim_listB>",,html-keyboard-response,197,937617,0.0-15.0-1.12,12280,List1B,black,man,,,,null,,,,
null,are kissing each other,,html-keyboard-response,198,939619,0.0-15.0-2.12,12280,List1B,black,man,,,,null,,,,
13030,,,survey-text,199,952650,0.0-15.0-3.12,12280,List1B,black,man,,,,,"{""Q0"":""jane and dave are kissing each other""}","<img src=""stim_listB/kiss4.gif""style=""height:400px;""></stim_listB>",are kissing each other,
null,"<div style=""font-size:60px;"">+</div>",,html-keyboard-response,200,953151,0.0-15.0-0.13,12280,List1B,black,man,,,,null,,,,
null,"<img src=""stim_listB/talk6.gif""style=""height:400px;""></stim_listB>",,html-keyboard-response,201,955154,0.0-15.0-1.13,12280,List1B,black,man,,,,null,,,,
null,are talking to each other,,html-keyboard-response,202,957155,0.0-15.0-2.13,12280,List1B,black,man,,,,null,,,,
14917,,,survey-text,203,972073,0.0-15.0-3.13,12280,List1B,black,man,,,,,"{""Q0"":""luke and mike are touching each other""}","<img src=""stim_listB/talk6.gif""style=""height:400px;""></stim_listB>",are talking to each other,
null,"<div style=""font-size:60px;"">+</div>",,html-keyboard-response,204,972576,0.0-15.0-0.14,12280,List1B,black,man,,,,null,,,,
null,"<img src=""stim_listB/dance5.gif""style=""height:400px;""></stim_listB>",,html-keyboard-response,205,974577,0.0-15.0-1.14,12280,List1B,black,man,,,,null,,,,
null,is dancing with,,html-keyboard-response,206,976578,0.0-15.0-2.14,12280,List1B,black,man,,,,null,,,,
9853,,,survey-text,207,986433,0.0-15.0-3.14,12280,List1B,black,man,,,,,"{""Q0"":""fred is dancing with luke""}","<img src=""stim_listB/dance5.gif""style=""height:400px;""></stim_listB>",is dancing with,
null,"<div style=""font-size:60px;"">+</div>",,html-keyboard-response,208,986935,0.0-15.0-0.15,12280,List1B,black,man,,,,null,,,,
null,"<img src=""stim_listB/dance7.gif""style=""height:400px;""></stim_listB>",,html-keyboard-response,209,988936,0.0-15.0-1.15,12280,List1B,black,man,,,,null,,,,
null,is dancing with,,html-keyboard-response,210,990938,0.0-15.0-2.15,12280,List1B,black,man,,,,null,,,,
12006,,,survey-text,211,1002945,0.0-15.0-3.15,12280,List1B,black,man,,,,,"{""Q0"":""beth is dancing with jane""}","<img src=""stim_listB/dance7.gif""style=""height:400px;""></stim_listB>",is dancing with,
null,"<div style=""font-size:60px;"">+</div>",,html-keyboard-response,212,1003446,0.0-15.0-0.16,12280,List1B,black,man,,,,null,,,,
null,"<img src=""stim_listB/touch7.gif""style=""height:400px;""></stim_listB>",,html-keyboard-response,213,1005448,0.0-15.0-1.16,12280,List1B,black,man,,,,null,,,,
null,is touching,,html-keyboard-response,214,1007451,0.0-15.0-2.16,12280,List1B,black,man,,,,null,,,,
7813,,,survey-text,215,1015265,0.0-15.0-3.16,12280,List1B,black,man,,,,,"{""Q0"":""jane is touching kate""}","<img src=""stim_listB/touch7.gif""style=""height:400px;""></stim_listB>",is touching,
null,"<div style=""font-size:60px;"">+</div>",,html-keyboard-response,216,1015767,0.0-15.0-0.17,12280,List1B,black,man,,,,null,,,,
null,"<img src=""stim_listB/talk3.gif""style=""height:400px;""></stim_listB>",,html-keyboard-response,217,1017769,0.0-15.0-1.17,12280,List1B,black,man,,,,null,,,,
null,is talking to,,html-keyboard-response,218,1019771,0.0-15.0-2.17,12280,List1B,black,man,,,,null,,,,
13308,,,survey-text,219,1033081,0.0-15.0-3.17,12280,List1B,black,man,,,,,"{""Q0"":""luke is talking to jane""}","<img src=""stim_listB/talk3.gif""style=""height:400px;""></stim_listB>",is talking to,
null,"<div style=""font-size:60px;"">+</div>",,html-keyboard-response,220,1033582,0.0-15.0-0.18,12280,List1B,black,man,,,,null,,,,
null,"<img src=""stim_listB/flirt7.gif""style=""height:400px;""></stim_listB>",,html-keyboard-response,221,1035584,0.0-15.0-1.18,12280,List1B,black,man,,,,null,,,,
null,is flirting with,,html-keyboard-response,222,1037586,0.0-15.0-2.18,12280,List1B,black,man,,,,null,,,,
8637,,,survey-text,223,1046224,0.0-15.0-3.18,12280,List1B,black,man,,,,,"{""Q0"":""beth is flirting with jane""}","<img src=""stim_listB/flirt7.gif""style=""height:400px;""></stim_listB>",is flirting with,
null,"<div style=""font-size:60px;"">+</div>",,html-keyboard-response,224,1046726,0.0-15.0-0.19,12280,List1B,black,man,,,,null,,,,
null,"<img src=""stim_listB/flirt1.gif""style=""height:400px;""></stim_listB>",,html-keyboard-response,225,1048728,0.0-15.0-1.19,12280,List1B,black,man,,,,null,,,,
null,is flirting with,,html-keyboard-response,226,1050729,0.0-15.0-2.19,12280,List1B,black,man,,,,null,,,,
9767,,,survey-text,227,1060496,0.0-15.0-3.19,12280,List1B,black,man,,,,,"{""Q0"":""fred is flirting with kate""}","<img src=""stim_listB/flirt1.gif""style=""height:400px;""></stim_listB>",is flirting with,
1867,"<img src='img/portrait_matrix_list1.jpg' style='width:900px;height:500px;''></img><p>If you have memorised all the portraits and names and are ready to start, press Continue.</p><p><strong>Please note: Your memory of these faces will be tested 4 times during this experiment.</strong></p>",0,html-button-response,228,1062364,0.0-16.0-0.0,12280,List1B,black,man,,,,,,,,
53483,"<img src=""portrait/BW2.jpg""style=""height:400px;""></img>",3,html-button-response,229,1116849,0.0-16.0-1.0,12280,List1B,black,man,,TRUE,2,,,,,
1678,"<img src=""portrait/BW2.jpg""style=""height:400px;""></img>",2,html-button-response,230,1119528,0.0-16.0-3.0-0.0,12280,List1B,black,man,,FALSE,2,,,,,
null,CORRECT,,html-keyboard-response,231,1121044,0.0-16.0-3.0-1.0-0.0,12280,List1B,black,man,,,,null,,,,
4132,"<img src=""portrait/BM1.jpg""style=""height:400px;""></img>",4,html-button-response,232,1125176,0.0-16.0-4.0,12280,List1B,black,man,,TRUE,4,,,,,
null,CORRECT,,html-keyboard-response,233,1126680,0.0-16.0-5.0-0.0,12280,List1B,black,man,,,,null,,,,
2416,"<img src=""portrait/WW2.jpg""style=""height:400px;""></img>",3,html-button-response,234,1129096,0.0-16.0-7.0,12280,List1B,black,man,,TRUE,3,,,,,
null,CORRECT,,html-keyboard-response,235,1130600,0.0-16.0-8.0-0.0,12280,List1B,black,man,,,,null,,,,
3736,"<img src=""portrait/WM1.jpg""style=""height:400px;""></img>",6,html-button-response,236,1134336,0.0-16.0-10.0,12280,List1B,black,man,,TRUE,6,,,,,
null,CORRECT,,html-keyboard-response,237,1135838,0.0-16.0-11.0-0.0,12280,List1B,black,man,,,,null,,,,
2409,"<img src=""portrait/WM2.jpg""style=""height:400px;""></img>",7,html-button-response,238,1138248,0.0-16.0-13.0,12280,List1B,black,man,,TRUE,7,,,,,
null,CORRECT,,html-keyboard-response,239,1139752,0.0-16.0-14.0-0.0,12280,List1B,black,man,,,,null,,,,
2472,"<img src=""portrait/WW1.jpg""style=""height:400px;""></img>",1,html-button-response,240,1142224,0.0-16.0-16.0,12280,List1B,black,man,,TRUE,1,,,,,
null,CORRECT,,html-keyboard-response,241,1143727,0.0-16.0-17.0-0.0,12280,List1B,black,man,,,,null,,,,
5687,"<img src=""portrait/BM2.jpg""style=""height:400px;""></img>",5,html-button-response,242,1149416,0.0-16.0-19.0,12280,List1B,black,man,,TRUE,5,,,,,
null,CORRECT,,html-keyboard-response,243,1150918,0.0-16.0-20.0-0.0,12280,List1B,black,man,,,,null,,,,
3401,"<img src=""portrait/BW1.jpg""style=""height:400px;""></img>",0,html-button-response,244,1154320,0.0-16.0-22.0,12280,List1B,black,man,,TRUE,0,,,,,
null,CORRECT,,html-keyboard-response,245,1155823,0.0-16.0-23.0-0.0,12280,List1B,black,man,,,,null,,,,
1160,<p>You got 7 out of 8 right first time. Press Continue.</p>,0,html-button-response,246,1156984,0.0-16.0-25.0,12280,List1B,black,man,,,,,,,,
1694,"As you did not score 100%, the memory game will repeat. Press Continue.",0,html-button-response,247,1159680,0.0-16.0-26.0-0.0,12280,List1B,black,man,,,,,,,,
2709,"<img src='img/portrait_matrix_list1.jpg' style='width:900px;height:500px;''></img><p>If you have memorised all the portraits and names and are ready to start, press Continue.</p><p><strong>Please note: Your memory of these faces will be tested 4 times during this experiment.</strong></p>",0,html-button-response,248,1163392,0.0-16.1-0.1,12280,List1B,black,man,,,,,,,,
3614,"<img src=""portrait/BW2.jpg""style=""height:400px;""></img>",2,html-button-response,249,1168007,0.0-16.1-1.1,12280,List1B,black,man,,TRUE,2,,,,,
null,CORRECT,,html-keyboard-response,250,1169510,0.0-16.1-2.1-0.1,12280,List1B,black,man,,,,null,,,,
2456,"<img src=""portrait/BM1.jpg""style=""height:400px;""></img>",4,html-button-response,251,1171967,0.0-16.1-4.1,12280,List1B,black,man,,TRUE,4,,,,,
null,CORRECT,,html-keyboard-response,252,1173470,0.0-16.1-5.1-0.1,12280,List1B,black,man,,,,null,,,,
2316,"<img src=""portrait/WW2.jpg""style=""height:400px;""></img>",3,html-button-response,253,1175787,0.0-16.1-7.1,12280,List1B,black,man,,TRUE,3,,,,,
null,CORRECT,,html-keyboard-response,254,1177291,0.0-16.1-8.1-0.1,12280,List1B,black,man,,,,null,,,,
3700,"<img src=""portrait/WM1.jpg""style=""height:400px;""></img>",6,html-button-response,255,1180991,0.0-16.1-10.1,12280,List1B,black,man,,TRUE,6,,,,,
null,CORRECT,,html-keyboard-response,256,1182494,0.0-16.1-11.1-0.1,12280,List1B,black,man,,,,null,,,,
3127,"<img src=""portrait/WM2.jpg""style=""height:400px;""></img>",7,html-button-response,257,1185623,0.0-16.1-13.1,12280,List1B,black,man,,TRUE,7,,,,,
null,CORRECT,,html-keyboard-response,258,1187125,0.0-16.1-14.1-0.1,12280,List1B,black,man,,,,null,,,,
2576,"<img src=""portrait/WW1.jpg""style=""height:400px;""></img>",1,html-button-response,259,1189703,0.0-16.1-16.1,12280,List1B,black,man,,TRUE,1,,,,,
null,CORRECT,,html-keyboard-response,260,1191206,0.0-16.1-17.1-0.1,12280,List1B,black,man,,,,null,,,,
3248,"<img src=""portrait/BM2.jpg""style=""height:400px;""></img>",5,html-button-response,261,1194456,0.0-16.1-19.1,12280,List1B,black,man,,TRUE,5,,,,,
null,CORRECT,,html-keyboard-response,262,1195958,0.0-16.1-20.1-0.1,12280,List1B,black,man,,,,null,,,,
2991,"<img src=""portrait/BW1.jpg""style=""height:400px;""></img>",0,html-button-response,263,1198951,0.0-16.1-22.1,12280,List1B,black,man,,TRUE,0,,,,,
null,CORRECT,,html-keyboard-response,264,1200453,0.0-16.1-23.1-0.1,12280,List1B,black,man,,,,null,,,,
1656,<p>You got 8 out of 8 right first time. Press Continue.</p>,0,html-button-response,265,1202111,0.0-16.1-25.1,12280,List1B,black,man,,,,,,,,
null,"<div style=""font-size:60px;"">+</div>",,html-keyboard-response,266,1203613,0.0-17.0-0.0,12280,List1B,black,man,,,,null,,,,
null,"<img src=""stim_listB/argue4.gif""style=""height:400px;""></stim_listB>",,html-keyboard-response,267,1205615,0.0-17.0-1.0,12280,List1B,black,man,,,,null,,,,
null,are arguing with each other,,html-keyboard-response,268,1207857,0.0-17.0-2.0,12280,List1B,black,man,,,,null,,,,
168832,,,survey-text,269,1376690,0.0-17.0-3.0,12280,List1B,black,man,,,,,"{""Q0"":""jane and dave are arguing""}","<img src=""stim_listB/argue4.gif""style=""height:400px;""></stim_listB>",are arguing with each other,
null,"<div style=""font-size:60px;"">+</div>",,html-keyboard-response,270,1377192,0.0-17.0-0.1,12280,List1B,black,man,,,,null,,,,
null,"<img src=""stim_listB/marry8.gif""style=""height:400px;""></stim_listB>",,html-keyboard-response,271,1379194,0.0-17.0-1.1,12280,List1B,black,man,,,,null,,,,
null,are marrying each other,,html-keyboard-response,272,1381195,0.0-17.0-2.1,12280,List1B,black,man,,,,null,,,,
14682,,,survey-text,273,1395878,0.0-17.0-3.1,12280,List1B,black,man,,,,,"{""Q0"":""beth and kate are marrying each other""}","<img src=""stim_listB/marry8.gif""style=""height:400px;""></stim_listB>",are marrying each other,
null,"<div style=""font-size:60px;"">+</div>",,html-keyboard-response,274,1396380,0.0-17.0-0.2,12280,List1B,black,man,,,,null,,,,
null,"<img src=""stim_listB/play4.gif""style=""height:400px;""></stim_listB>",,html-keyboard-response,275,1398381,0.0-17.0-1.2,12280,List1B,black,man,,,,null,,,,
null,are playing with each other,,html-keyboard-response,276,1400383,0.0-17.0-2.2,12280,List1B,black,man,,,,null,,,,
10781,,,survey-text,277,1411166,0.0-17.0-3.2,12280,List1B,black,man,,,,,"{""Q0"":""luke and jane are playing each other""}","<img src=""stim_listB/play4.gif""style=""height:400px;""></stim_listB>",are playing with each other,
null,"<div style=""font-size:60px;"">+</div>",,html-keyboard-response,278,1411668,0.0-17.0-0.3,12280,List1B,black,man,,,,null,,,,
null,"<img src=""stim_listB/fight4.gif""style=""height:400px;""></stim_listB>",,html-keyboard-response,279,1413669,0.0-17.0-1.3,12280,List1B,black,man,,,,null,,,,
null,are fighting each other,,html-keyboard-response,280,1415670,0.0-17.0-2.3,12280,List1B,black,man,,,,null,,,,
13991,,,survey-text,281,1429662,0.0-17.0-3.3,12280,List1B,black,man,,,,,"{""Q0"":""ruth and luke are fighting each other""}","<img src=""stim_listB/fight4.gif""style=""height:400px;""></stim_listB>",are fighting each other,
null,"<div style=""font-size:60px;"">+</div>",,html-keyboard-response,282,1430163,0.0-17.0-0.4,12280,List1B,black,man,,,,null,,,,
null,"<img src=""stim_listB/kiss3.gif""style=""height:400px;""></stim_listB>",,html-keyboard-response,283,1432165,0.0-17.0-1.4,12280,List1B,black,man,,,,null,,,,
null,is kissing,,html-keyboard-response,284,1434166,0.0-17.0-2.4,12280,List1B,black,man,,,,null,,,,
10974,,,survey-text,285,1445141,0.0-17.0-3.4,12280,List1B,black,man,,,,,"{""Q0"":""ruth and luke are kissing each other""}","<img src=""stim_listB/kiss3.gif""style=""height:400px;""></stim_listB>",is kissing,
null,"<div style=""font-size:60px;"">+</div>",,html-keyboard-response,286,1445642,0.0-17.0-0.5,12280,List1B,black,man,,,,null,,,,
null,"<img src=""stim_listB/argue7.gif""style=""height:400px;""></stim_listB>",,html-keyboard-response,287,1447644,0.0-17.0-1.5,12280,List1B,black,man,,,,null,,,,
null,is arguing with,,html-keyboard-response,288,1449645,0.0-17.0-2.5,12280,List1B,black,man,,,,null,,,,
12447,,,survey-text,289,1462093,0.0-17.0-3.5,12280,List1B,black,man,,,,,"{""Q0"":""kate and ruth are arguing""}","<img src=""stim_listB/argue7.gif""style=""height:400px;""></stim_listB>",is arguing with,
null,"<div style=""font-size:60px;"">+</div>",,html-keyboard-response,290,1462594,0.0-17.0-0.6,12280,List1B,black,man,,,,null,,,,
null,"<img src=""stim_listB/argue6.gif""style=""height:400px;""></stim_listB>",,html-keyboard-response,291,1464596,0.0-17.0-1.6,12280,List1B,black,man,,,,null,,,,
null,are arguing with each other,,html-keyboard-response,292,1466597,0.0-17.0-2.6,12280,List1B,black,man,,,,null,,,,
10831,,,survey-text,293,1477429,0.0-17.0-3.6,12280,List1B,black,man,,,,,"{""Q0"":""fred and dave are arguing""}","<img src=""stim_listB/argue6.gif""style=""height:400px;""></stim_listB>",are arguing with each other,
null,"<div style=""font-size:60px;"">+</div>",,html-keyboard-response,294,1477930,0.0-17.0-0.7,12280,List1B,black,man,,,,null,,,,
null,"<img src=""stim_listB/fight5.gif""style=""height:400px;""></stim_listB>",,html-keyboard-response,295,1479933,0.0-17.0-1.7,12280,List1B,black,man,,,,null,,,,
null,is fighting,,html-keyboard-response,296,1481934,0.0-17.0-2.7,12280,List1B,black,man,,,,null,,,,
12798,,,survey-text,297,1494733,0.0-17.0-3.7,12280,List1B,black,man,,,,,"{""Q0"":""dave and mike are fighting""}","<img src=""stim_listB/fight5.gif""style=""height:400px;""></stim_listB>",is fighting,
null,"<div style=""font-size:60px;"">+</div>",,html-keyboard-response,298,1495235,0.0-17.0-0.8,12280,List1B,black,man,,,,null,,,,
null,"<img src=""stim_listB/fight2.gif""style=""height:400px;""></stim_listB>",,html-keyboard-response,299,1497237,0.0-17.0-1.8,12280,List1B,black,man,,,,null,,,,
null,are fighting each other,,html-keyboard-response,300,1499238,0.0-17.0-2.8,12280,List1B,black,man,,,,null,,,,
20430,,,survey-text,301,1519669,0.0-17.0-3.8,12280,List1B,black,man,,,,,"{""Q0"":""mike and kate are arguing""}","<img src=""stim_listB/fight2.gif""style=""height:400px;""></stim_listB>",are fighting each other,
null,"<div style=""font-size:60px;"">+</div>",,html-keyboard-response,302,1520171,0.0-17.0-0.9,12280,List1B,black,man,,,,null,,,,
null,"<img src=""stim_listB/argue5.gif""style=""height:400px;""></stim_listB>",,html-keyboard-response,303,1522174,0.0-17.0-1.9,12280,List1B,black,man,,,,null,,,,
null,is arguing with,,html-keyboard-response,304,1524176,0.0-17.0-2.9,12280,List1B,black,man,,,,null,,,,
12932,,,survey-text,305,1537109,0.0-17.0-3.9,12280,List1B,black,man,,,,,"{""Q0"":""luke is arguing with mike""}","<img src=""stim_listB/argue5.gif""style=""height:400px;""></stim_listB>",is arguing with,
null,"<div style=""font-size:60px;"">+</div>",,html-keyboard-response,306,1537610,0.0-17.0-0.10,12280,List1B,black,man,,,,null,,,,
null,"<img src=""stim_listB/shout5.gif""style=""height:400px;""></stim_listB>",,html-keyboard-response,307,1539613,0.0-17.0-1.10,12280,List1B,black,man,,,,null,,,,
null,is shouting at,,html-keyboard-response,308,1541614,0.0-17.0-2.10,12280,List1B,black,man,,,,null,,,,
9038,,,survey-text,309,1550652,0.0-17.0-3.10,12280,List1B,black,man,,,,,"{""Q0"":""fred is shouting at luke""}","<img src=""stim_listB/shout5.gif""style=""height:400px;""></stim_listB>",is shouting at,
null,"<div style=""font-size:60px;"">+</div>",,html-keyboard-response,310,1551154,0.0-17.0-0.11,12280,List1B,black,man,,,,null,,,,
null,"<img src=""stim_listB/play6.gif""style=""height:400px;""></stim_listB>",,html-keyboard-response,311,1553155,0.0-17.0-1.11,12280,List1B,black,man,,,,null,,,,
null,are playing with each other,,html-keyboard-response,312,1555157,0.0-17.0-2.11,12280,List1B,black,man,,,,null,,,,
131558,,,survey-text,313,1686715,0.0-17.0-3.11,12280,List1B,black,man,,,,,"{""Q0"":""fred and luke are playing each other""}","<img src=""stim_listB/play6.gif""style=""height:400px;""></stim_listB>",are playing with each other,
null,"<div style=""font-size:60px;"">+</div>",,html-keyboard-response,314,1687217,0.0-17.0-0.12,12280,List1B,black,man,,,,null,,,,
null,"<img src=""stim_listB/play2.gif""style=""height:400px;""></stim_listB>",,html-keyboard-response,315,1689219,0.0-17.0-1.12,12280,List1B,black,man,,,,null,,,,
null,are playing with each other,,html-keyboard-response,316,1691220,0.0-17.0-2.12,12280,List1B,black,man,,,,null,,,,
23045,,,survey-text,317,1714267,0.0-17.0-3.12,12280,List1B,black,man,,,,,"{""Q0"":""fred and kate are playing with each other""}","<img src=""stim_listB/play2.gif""style=""height:400px;""></stim_listB>",are playing with each other,
null,"<div style=""font-size:60px;"">+</div>",,html-keyboard-response,318,1714769,0.0-17.0-0.13,12280,List1B,black,man,,,,null,,,,
null,"<img src=""stim_listB/fight6.gif""style=""height:400px;""></stim_listB>",,html-keyboard-response,319,1716771,0.0-17.0-1.13,12280,List1B,black,man,,,,null,,,,
null,are fighting each other,,html-keyboard-response,320,1718772,0.0-17.0-2.13,12280,List1B,black,man,,,,null,,,,
21487,,,survey-text,321,1740260,0.0-17.0-3.13,12280,List1B,black,man,,,,,"{""Q0"":""kate and luke are fighting each other""}","<img src=""stim_listB/fight6.gif""style=""height:400px;""></stim_listB>",are fighting each other,
null,"<div style=""font-size:60px;"">+</div>",,html-keyboard-response,322,1740762,0.0-17.0-0.14,12280,List1B,black,man,,,,null,,,,
null,"<img src=""stim_listB/marry2.gif""style=""height:400px;""></stim_listB>",,html-keyboard-response,323,1742764,0.0-17.0-1.14,12280,List1B,black,man,,,,null,,,,
null,are marrying each other,,html-keyboard-response,324,1744767,0.0-17.0-2.14,12280,List1B,black,man,,,,null,,,,
123409,,,survey-text,325,1868178,0.0-17.0-3.14,12280,List1B,black,man,,,,,"{""Q0"":""fred and kate are marrying each other""}","<img src=""stim_listB/marry2.gif""style=""height:400px;""></stim_listB>",are marrying each other,
null,"<div style=""font-size:60px;"">+</div>",,html-keyboard-response,326,1868680,0.0-17.0-0.15,12280,List1B,black,man,,,,null,,,,
null,"<img src=""stim_listB/talk1.gif""style=""height:400px;""></stim_listB>",,html-keyboard-response,327,1870683,0.0-17.0-1.15,12280,List1B,black,man,,,,null,,,,
null,is talking to,,html-keyboard-response,328,1872684,0.0-17.0-2.15,12280,List1B,black,man,,,,null,,,,
9644,,,survey-text,329,1882330,0.0-17.0-3.15,12280,List1B,black,man,,,,,"{""Q0"":""kate is talking to fred""}","<img src=""stim_listB/talk1.gif""style=""height:400px;""></stim_listB>",is talking to,
null,"<div style=""font-size:60px;"">+</div>",,html-keyboard-response,330,1882831,0.0-17.0-0.16,12280,List1B,black,man,,,,null,,,,
null,"<img src=""stim_listB/kiss6.gif""style=""height:400px;""></stim_listB>",,html-keyboard-response,331,1884834,0.0-17.0-1.16,12280,List1B,black,man,,,,null,,,,
null,are kissing each other,,html-keyboard-response,332,1886835,0.0-17.0-2.16,12280,List1B,black,man,,,,null,,,,
9618,,,survey-text,333,1896454,0.0-17.0-3.16,12280,List1B,black,man,,,,,"{""Q0"":""dave and fred are kissing each other""}","<img src=""stim_listB/kiss6.gif""style=""height:400px;""></stim_listB>",are kissing each other,
null,"<div style=""font-size:60px;"">+</div>",,html-keyboard-response,334,1896955,0.0-17.0-0.17,12280,List1B,black,man,,,,null,,,,
null,"<img src=""stim_listB/kiss8.gif""style=""height:400px;""></stim_listB>",,html-keyboard-response,335,1898956,0.0-17.0-1.17,12280,List1B,black,man,,,,null,,,,
null,are kissing each other,,html-keyboard-response,336,1900957,0.0-17.0-2.17,12280,List1B,black,man,,,,null,,,,
8827,,,survey-text,337,1909785,0.0-17.0-3.17,12280,List1B,black,man,,,,,"{""Q0"":""kate and jane are kissing each other""}","<img src=""stim_listB/kiss8.gif""style=""height:400px;""></stim_listB>",are kissing each other,
null,"<div style=""font-size:60px;"">+</div>",,html-keyboard-response,338,1910287,0.0-17.0-0.18,12280,List1B,black,man,,,,null,,,,
null,"<img src=""stim_listB/dance6.gif""style=""height:400px;""></stim_listB>",,html-keyboard-response,339,1912289,0.0-17.0-1.18,12280,List1B,black,man,,,,null,,,,
null,are dancing with each other,,html-keyboard-response,340,1914290,0.0-17.0-2.18,12280,List1B,black,man,,,,null,,,,
11422,,,survey-text,341,1925714,0.0-17.0-3.18,12280,List1B,black,man,,,,,"{""Q0"":""mike and luke are dancing with each other""}","<img src=""stim_listB/dance6.gif""style=""height:400px;""></stim_listB>",are dancing with each other,
null,"<div style=""font-size:60px;"">+</div>",,html-keyboard-response,342,1926215,0.0-17.0-0.19,12280,List1B,black,man,,,,null,,,,
null,"<img src=""stim_listB/touch1.gif""style=""height:400px;""></stim_listB>",,html-keyboard-response,343,1928218,0.0-17.0-1.19,12280,List1B,black,man,,,,null,,,,
null,is touching,,html-keyboard-response,344,1930219,0.0-17.0-2.19,12280,List1B,black,man,,,,null,,,,
10404,,,survey-text,345,1940625,0.0-17.0-3.19,12280,List1B,black,man,,,,,"{""Q0"":""mike is touching kate""}","<img src=""stim_listB/touch1.gif""style=""height:400px;""></stim_listB>",is touching,
22314,"<img src='img/portrait_matrix_list1.jpg' style='width:900px;height:500px;''></img><p>If you have memorised all the portraits and names and are ready to start, press Continue.</p><p><strong>Please note: Your memory of these faces will be tested 4 times during this experiment.</strong></p>",0,html-button-response,346,1962941,0.0-18.0-0.0,12280,List1B,black,man,,,,,,,,
3409,"<img src=""portrait/BW2.jpg""style=""height:400px;""></img>",2,html-button-response,347,1967353,0.0-18.0-1.0,12280,List1B,black,man,,TRUE,2,,,,,
null,CORRECT,,html-keyboard-response,348,1968855,0.0-18.0-2.0-0.0,12280,List1B,black,man,,,,null,,,,
3672,"<img src=""portrait/BM2.jpg""style=""height:400px;""></img>",5,html-button-response,349,1972529,0.0-18.0-4.0,12280,List1B,black,man,,TRUE,5,,,,,
null,CORRECT,,html-keyboard-response,350,1974032,0.0-18.0-5.0-0.0,12280,List1B,black,man,,,,null,,,,
9327,"<img src=""portrait/BM1.jpg""style=""height:400px;""></img>",4,html-button-response,351,1983361,0.0-18.0-7.0,12280,List1B,black,man,,TRUE,4,,,,,
null,CORRECT,,html-keyboard-response,352,1984863,0.0-18.0-8.0-0.0,12280,List1B,black,man,,,,null,,,,
2577,"<img src=""portrait/BW1.jpg""style=""height:400px;""></img>",0,html-button-response,353,1987441,0.0-18.0-10.0,12280,List1B,black,man,,TRUE,0,,,,,
null,CORRECT,,html-keyboard-response,354,1988943,0.0-18.0-11.0-0.0,12280,List1B,black,man,,,,null,,,,
2800,"<img src=""portrait/WW1.jpg""style=""height:400px;""></img>",1,html-button-response,355,1991744,0.0-18.0-13.0,12280,List1B,black,man,,TRUE,1,,,,,
null,CORRECT,,html-keyboard-response,356,1993246,0.0-18.0-14.0-0.0,12280,List1B,black,man,,,,null,,,,
3321,"<img src=""portrait/WM1.jpg""style=""height:400px;""></img>",6,html-button-response,357,1996568,0.0-18.0-16.0,12280,List1B,black,man,,TRUE,6,,,,,
null,CORRECT,,html-keyboard-response,358,1998072,0.0-18.0-17.0-0.0,12280,List1B,black,man,,,,null,,,,
2966,"<img src=""portrait/WW2.jpg""style=""height:400px;""></img>",3,html-button-response,359,2001040,0.0-18.0-19.0,12280,List1B,black,man,,TRUE,3,,,,,
null,CORRECT,,html-keyboard-response,360,2002543,0.0-18.0-20.0-0.0,12280,List1B,black,man,,,,null,,,,
8533,"<img src=""portrait/WM2.jpg""style=""height:400px;""></img>",7,html-button-response,361,2011076,0.0-18.0-22.0,12280,List1B,black,man,,TRUE,7,,,,,
null,CORRECT,,html-keyboard-response,362,2012579,0.0-18.0-23.0-0.0,12280,List1B,black,man,,,,null,,,,
1196,<p>You got 8 out of 8 right first time. Press Continue.</p>,0,html-button-response,363,2013776,0.0-18.0-25.0,12280,List1B,black,man,,,,,,,,
null,"<div style=""font-size:60px;"">+</div>",,html-keyboard-response,364,2015280,0.0-19.0-0.0,12280,List1B,black,man,,,,null,,,,
null,"<img src=""stim_listB/play3.gif""style=""height:400px;""></stim_listB>",,html-keyboard-response,365,2017282,0.0-19.0-1.0,12280,List1B,black,man,,,,null,,,,
null,is playing with,,html-keyboard-response,366,2019285,0.0-19.0-2.0,12280,List1B,black,man,,,,null,,,,
41275,,,survey-text,367,2060560,0.0-19.0-3.0,12280,List1B,black,man,,,,,"{""Q0"":""dave is playing with jane""}","<img src=""stim_listB/play3.gif""style=""height:400px;""></stim_listB>",is playing with,
null,"<div style=""font-size:60px;"">+</div>",,html-keyboard-response,368,2061062,0.0-19.0-0.1,12280,List1B,black,man,,,,null,,,,
null,"<img src=""stim_listB/touch8.gif""style=""height:400px;""></stim_listB>",,html-keyboard-response,369,2063064,0.0-19.0-1.1,12280,List1B,black,man,,,,null,,,,
null,are touching each other,,html-keyboard-response,370,2065065,0.0-19.0-2.1,12280,List1B,black,man,,,,null,,,,
81221,,,survey-text,371,2146287,0.0-19.0-3.1,12280,List1B,black,man,,,,,"{""Q0"":""jane and dave are arguing with each other""}","<img src=""stim_listB/touch8.gif""style=""height:400px;""></stim_listB>",are touching each other,
null,"<div style=""font-size:60px;"">+</div>",,html-keyboard-response,372,2146789,0.0-19.0-0.2,12280,List1B,black,man,,,,null,,,,
null,"<img src=""stim_listB/kiss5.gif""style=""height:400px;""></stim_listB>",,html-keyboard-response,373,2148790,0.0-19.0-1.2,12280,List1B,black,man,,,,null,,,,
null,is kissing,,html-keyboard-response,374,2150792,0.0-19.0-2.2,12280,List1B,black,man,,,,null,,,,
10555,,,survey-text,375,2161348,0.0-19.0-3.2,12280,List1B,black,man,,,,,"{""Q0"":""luke and dave are kissing""}","<img src=""stim_listB/kiss5.gif""style=""height:400px;""></stim_listB>",is kissing,
null,"<div style=""font-size:60px;"">+</div>",,html-keyboard-response,376,2161849,0.0-19.0-0.3,12280,List1B,black,man,,,,null,,,,
null,"<img src=""stim_listB/dance2.gif""style=""height:400px;""></stim_listB>",,html-keyboard-response,377,2163850,0.0-19.0-1.3,12280,List1B,black,man,,,,null,,,,
null,are dancing with each other,,html-keyboard-response,378,2165851,0.0-19.0-2.3,12280,List1B,black,man,,,,null,,,,
13843,,,survey-text,379,2179695,0.0-19.0-3.3,12280,List1B,black,man,,,,,"{""Q0"":""mike and beth are dancing with each other""}","<img src=""stim_listB/dance2.gif""style=""height:400px;""></stim_listB>",are dancing with each other,
null,"<div style=""font-size:60px;"">+</div>",,html-keyboard-response,380,2180196,0.0-19.0-0.4,12280,List1B,black,man,,,,null,,,,
null,"<img src=""stim_listB/argue8.gif""style=""height:400px;""></stim_listB>",,html-keyboard-response,381,2182198,0.0-19.0-1.4,12280,List1B,black,man,,,,null,,,,
null,are arguing with each other,,html-keyboard-response,382,2184199,0.0-19.0-2.4,12280,List1B,black,man,,,,null,,,,
9452,,,survey-text,383,2193651,0.0-19.0-3.4,12280,List1B,black,man,,,,,"{""Q0"":""beth and jane are arguing""}","<img src=""stim_listB/argue8.gif""style=""height:400px;""></stim_listB>",are arguing with each other,
null,"<div style=""font-size:60px;"">+</div>",,html-keyboard-response,384,2194153,0.0-19.0-0.5,12280,List1B,black,man,,,,null,,,,
null,"<img src=""stim_listB/talk2.gif""style=""height:400px;""></stim_listB>",,html-keyboard-response,385,2196155,0.0-19.0-1.5,12280,List1B,black,man,,,,null,,,,
null,are talking to each other,,html-keyboard-response,386,2198156,0.0-19.0-2.5,12280,List1B,black,man,,,,null,,,,
15693,,,survey-text,387,2213851,0.0-19.0-3.5,12280,List1B,black,man,,,,,"{""Q0"":""mike and beth are talking to each other""}","<img src=""stim_listB/talk2.gif""style=""height:400px;""></stim_listB>",are talking to each other,
null,"<div style=""font-size:60px;"">+</div>",,html-keyboard-response,388,2214354,0.0-19.0-0.6,12280,List1B,black,man,,,,null,,,,
null,"<img src=""stim_listB/touch3.gif""style=""height:400px;""></stim_listB>",,html-keyboard-response,389,2216357,0.0-19.0-1.6,12280,List1B,black,man,,,,null,,,,
null,is touching,,html-keyboard-response,390,2218358,0.0-19.0-2.6,12280,List1B,black,man,,,,null,,,,
10599,,,survey-text,391,2228959,0.0-19.0-3.6,12280,List1B,black,man,,,,,"{""Q0"":""jane and fred are touching hands""}","<img src=""stim_listB/touch3.gif""style=""height:400px;""></stim_listB>",is touching,
null,"<div style=""font-size:60px;"">+</div>",,html-keyboard-response,392,2229461,0.0-19.0-0.7,12280,List1B,black,man,,,,null,,,,
null,"<img src=""stim_listB/shout2.gif""style=""height:400px;""></stim_listB>",,html-keyboard-response,393,2231463,0.0-19.0-1.7,12280,List1B,black,man,,,,null,,,,
null,are shouting at each other,,html-keyboard-response,394,2233465,0.0-19.0-2.7,12280,List1B,black,man,,,,null,,,,
12328,,,survey-text,395,2245794,0.0-19.0-3.7,12280,List1B,black,man,,,,,"{""Q0"":""mike and kate are arguing""}","<img src=""stim_listB/shout2.gif""style=""height:400px;""></stim_listB>",are shouting at each other,
null,"<div style=""font-size:60px;"">+</div>",,html-keyboard-response,396,2246296,0.0-19.0-0.8,12280,List1B,black,man,,,,null,,,,
null,"<img src=""stim_listB/talk4.gif""style=""height:400px;""></stim_listB>",,html-keyboard-response,397,2248297,0.0-19.0-1.8,12280,List1B,black,man,,,,null,,,,
null,are talking to each other,,html-keyboard-response,398,2250299,0.0-19.0-2.8,12280,List1B,black,man,,,,null,,,,
14207,,,survey-text,399,2264506,0.0-19.0-3.8,12280,List1B,black,man,,,,,"{""Q0"":""dave and ruth are arguing""}","<img src=""stim_listB/talk4.gif""style=""height:400px;""></stim_listB>",are talking to each other,
null,"<div style=""font-size:60px;"">+</div>",,html-keyboard-response,400,2265008,0.0-19.0-0.9,12280,List1B,black,man,,,,null,,,,
null,"<img src=""stim_listB/talk8.gif""style=""height:400px;""></stim_listB>",,html-keyboard-response,401,2267011,0.0-19.0-1.9,12280,List1B,black,man,,,,null,,,,
null,are talking to each other,,html-keyboard-response,402,2269012,0.0-19.0-2.9,12280,List1B,black,man,,,,null,,,,
14581,,,survey-text,403,2283594,0.0-19.0-3.9,12280,List1B,black,man,,,,,"{""Q0"":""ruth and kate are talking to each other""}","<img src=""stim_listB/talk8.gif""style=""height:400px;""></stim_listB>",are talking to each other,
null,"<div style=""font-size:60px;"">+</div>",,html-keyboard-response,404,2284096,0.0-19.0-0.10,12280,List1B,black,man,,,,null,,,,
null,"<img src=""stim_listB/fight7.gif""style=""height:400px;""></stim_listB>",,html-keyboard-response,405,2286097,0.0-19.0-1.10,12280,List1B,black,man,,,,null,,,,
null,is fighting,,html-keyboard-response,406,2288099,0.0-19.0-2.10,12280,List1B,black,man,,,,null,,,,
10286,,,survey-text,407,2298386,0.0-19.0-3.10,12280,List1B,black,man,,,,,"{""Q0"":""ruth is fighting kate""}","<img src=""stim_listB/fight7.gif""style=""height:400px;""></stim_listB>",is fighting,
null,"<div style=""font-size:60px;"">+</div>",,html-keyboard-response,408,2298889,0.0-19.0-0.11,12280,List1B,black,man,,,,null,,,,
null,"<img src=""stim_listB/touch4.gif""style=""height:400px;""></stim_listB>",,html-keyboard-response,409,2300891,0.0-19.0-1.11,12280,List1B,black,man,,,,null,,,,
null,are touching each other,,html-keyboard-response,410,2302892,0.0-19.0-2.11,12280,List1B,black,man,,,,null,,,,
14813,,,survey-text,411,2317706,0.0-19.0-3.11,12280,List1B,black,man,,,,,"{""Q0"":""ruth and kate are touching each other""}","<img src=""stim_listB/touch4.gif""style=""height:400px;""></stim_listB>",are touching each other,
null,"<div style=""font-size:60px;"">+</div>",,html-keyboard-response,412,2318207,0.0-19.0-0.12,12280,List1B,black,man,,,,null,,,,
null,"<img src=""stim_listB/flirt3.gif""style=""height:400px;""></stim_listB>",,html-keyboard-response,413,2320209,0.0-19.0-1.12,12280,List1B,black,man,,,,null,,,,
null,is flirting with,,html-keyboard-response,414,2322212,0.0-19.0-2.12,12280,List1B,black,man,,,,null,,,,
11444,,,survey-text,415,2333658,0.0-19.0-3.12,12280,List1B,black,man,,,,,"{""Q0"":""luke is flirting with jane""}","<img src=""stim_listB/flirt3.gif""style=""height:400px;""></stim_listB>",is flirting with,
null,"<div style=""font-size:60px;"">+</div>",,html-keyboard-response,416,2334160,0.0-19.0-0.13,12280,List1B,black,man,,,,null,,,,
null,"<img src=""stim_listB/argue1.gif""style=""height:400px;""></stim_listB>",,html-keyboard-response,417,2336162,0.0-19.0-1.13,12280,List1B,black,man,,,,null,,,,
null,is arguing with,,html-keyboard-response,418,2338163,0.0-19.0-2.13,12280,List1B,black,man,,,,null,,,,
13565,,,survey-text,419,2351729,0.0-19.0-3.13,12280,List1B,black,man,,,,,"{""Q0"":""kate is arguing with fred""}","<img src=""stim_listB/argue1.gif""style=""height:400px;""></stim_listB>",is arguing with,
null,"<div style=""font-size:60px;"">+</div>",,html-keyboard-response,420,2352231,0.0-19.0-0.14,12280,List1B,black,man,,,,null,,,,
null,"<img src=""stim_listB/dance3.gif""style=""height:400px;""></stim_listB>",,html-keyboard-response,421,2354233,0.0-19.0-1.14,12280,List1B,black,man,,,,null,,,,
null,is dancing with,,html-keyboard-response,422,2356234,0.0-19.0-2.14,12280,List1B,black,man,,,,null,,,,
9283,,,survey-text,423,2365518,0.0-19.0-3.14,12280,List1B,black,man,,,,,"{""Q0"":""luke is dancing with jane""}","<img src=""stim_listB/dance3.gif""style=""height:400px;""></stim_listB>",is dancing with,
null,"<div style=""font-size:60px;"">+</div>",,html-keyboard-response,424,2366019,0.0-19.0-0.15,12280,List1B,black,man,,,,null,,,,
null,"<img src=""stim_listB/kiss7.gif""style=""height:400px;""></stim_listB>",,html-keyboard-response,425,2368021,0.0-19.0-1.15,12280,List1B,black,man,,,,null,,,,
null,is kissing,,html-keyboard-response,426,2370024,0.0-19.0-2.15,12280,List1B,black,man,,,,null,,,,
8721,,,survey-text,427,2378746,0.0-19.0-3.15,12280,List1B,black,man,,,,,"{""Q0"":""jane and beth are kissing""}","<img src=""stim_listB/kiss7.gif""style=""height:400px;""></stim_listB>",is kissing,
null,"<div style=""font-size:60px;"">+</div>",,html-keyboard-response,428,2379247,0.0-19.0-0.16,12280,List1B,black,man,,,,null,,,,
null,"<img src=""stim_listB/dance8.gif""style=""height:400px;""></stim_listB>",,html-keyboard-response,429,2381248,0.0-19.0-1.16,12280,List1B,black,man,,,,null,,,,
null,are dancing with each other,,html-keyboard-response,430,2383250,0.0-19.0-2.16,12280,List1B,black,man,,,,null,,,,
9271,,,survey-text,431,2392522,0.0-19.0-3.16,12280,List1B,black,man,,,,,"{""Q0"":""ruth and kate are kissing""}","<img src=""stim_listB/dance8.gif""style=""height:400px;""></stim_listB>",are dancing with each other,
null,"<div style=""font-size:60px;"">+</div>",,html-keyboard-response,432,2393023,0.0-19.0-0.17,12280,List1B,black,man,,,,null,,,,
null,"<img src=""stim_listB/fight8.gif""style=""height:400px;""></stim_listB>",,html-keyboard-response,433,2395025,0.0-19.0-1.17,12280,List1B,black,man,,,,null,,,,
null,are fighting each other,,html-keyboard-response,434,2397026,0.0-19.0-2.17,12280,List1B,black,man,,,,null,,,,
15534,,,survey-text,435,2412561,0.0-19.0-3.17,12280,List1B,black,man,,,,,"{""Q0"":""ruth and beth are flirting each other""}","<img src=""stim_listB/fight8.gif""style=""height:400px;""></stim_listB>",are fighting each other,
null,"<div style=""font-size:60px;"">+</div>",,html-keyboard-response,436,2413063,0.0-19.0-0.18,12280,List1B,black,man,,,,null,,,,
null,"<img src=""stim_listB/marry5.gif""style=""height:400px;""></stim_listB>",,html-keyboard-response,437,2415065,0.0-19.0-1.18,12280,List1B,black,man,,,,null,,,,
null,is marrying,,html-keyboard-response,438,2417066,0.0-19.0-2.18,12280,List1B,black,man,,,,null,,,,
49237,,,survey-text,439,2466305,0.0-19.0-3.18,12280,List1B,black,man,,,,,"{""Q0"":""dave and kate are arguing""}","<img src=""stim_listB/marry5.gif""style=""height:400px;""></stim_listB>",is marrying,
null,"<div style=""font-size:60px;"">+</div>",,html-keyboard-response,440,2466807,0.0-19.0-0.19,12280,List1B,black,man,,,,null,,,,
null,"<img src=""stim_listB/argue2.gif""style=""height:400px;""></stim_listB>",,html-keyboard-response,441,2468809,0.0-19.0-1.19,12280,List1B,black,man,,,,null,,,,
null,are arguing with each other,,html-keyboard-response,442,2470810,0.0-19.0-2.19,12280,List1B,black,man,,,,null,,,,
13101,,,survey-text,443,2483913,0.0-19.0-3.19,12280,List1B,black,man,,,,,"{""Q0"":""fred and kate are arguing with each other""}","<img src=""stim_listB/argue2.gif""style=""height:400px;""></stim_listB>",are arguing with each other,
6703,<p>Thank you for completing that task.</p><p>The final part of this session is a short questionnaire.</p><p>Press Continue.</p>,0,html-button-response,444,2490617,0.0-20.0,12280,List1B,black,man,,,,,,,,
31886,,,survey-text,445,2523504,0.0-21.0,12280,List1B,black,man,,,,,"{""Q0"":""19"",""Q1"":""english"",""Q2"":""english"",""Q3"":""united states"",""Q4"":""african american"",""Q5"":""male""}",,,demographics
4833,,,survey-likert,446,2528341,0.0-22.0,12280,List1B,black,man,,,,,"{""Q0"":2}",,,likert_ESS
11295,,,survey-likert,447,2539657,0.0-23.0,12280,List1B,black,man,,,,,"{""Q0"":2}",,,likert_NSSAL_Q1
2234,,,survey-likert,448,2541912,0.0-24.0,12280,List1B,black,man,,,,,"{""Q0"":2}",,,likert_NSSAL_Q2
5164,,,survey-likert,449,2547100,0.0-25.0,12280,List1B,black,man,,,,,"{""Q0"":3}",,,likert_CGRS_Q1
5327,,,survey-likert,450,2552449,0.0-26.0,12280,List1B,black,man,,,,,"{""Q0"":4}",,,likert_CGRS_Q2
4375,,,survey-likert,451,2556848,0.0-27.0,12280,List1B,black,man,,,,,"{""Q0"":3}",,,likert_CGRS_Q3
11889,,,survey-text,452,2568760,0.0-28.0,12280,List1B,black,man,,,,,"{""Q0"":""ccc""}",,,worker_id
9493,,,external-html,453,2578592,0.0-29.0,12280,List1B,black,man,debrief.html,,,,,,,
