rt,stimulus,button_pressed,trial_type,trial_index,time_elapsed,internal_node_id,subject,list,ppt_race,ppt_gender,url,first_guess,correct,key_press,responses,image_type,phrase_type,test_part
5158,Welcome to the experiment. Press Continue to begin.,0,html-button-response,0,5162,0.0-0.0,12333,List1B,black,woman,,,,,,,,
389514,,,external-html,1,395875,0.0-1.0,12333,List1B,black,woman,consent.html,,,,,,,
15681,"<p>On the next page, you will see portraits of 8 people and their names.</p><p>Your first task is to take a few minutes to memorise the names of these people.</p><p>You will have to recall their names during the rest of the experiment, so it is</p><p>essential that you try to memorise these people and their names as best as you can.</p><br><p><strong>You will then be tested on your memory of these names and portraits.</strong></p><br><p>The experiment will start after you have completed this memory test.</p><br><p>Ready?</p>",0,html-button-response,2,411561,0.0-2.0,12333,List1B,black,woman,,,,,,,,
66173,"<img src='img/portrait_matrix_list1.jpg' style='width:900px;height:500px;''></img><p>If you have memorised all the portraits and names and are ready to start, press Continue.</p><p><strong>Please note: Your memory of these faces will be tested 4 times during this experiment.</strong></p>",0,html-button-response,3,478737,0.0-3.0-0.0,12333,List1B,black,woman,,,,,,,,
4083,"<img src=""portrait/BM1.jpg""style=""height:400px;""></img>",4,html-button-response,4,483824,0.0-3.0-1.0,12333,List1B,black,woman,,TRUE,4,,,,,
null,CORRECT,,html-keyboard-response,5,485329,0.0-3.0-2.0-0.0,12333,List1B,black,woman,,,,null,,,,
4155,"<img src=""portrait/BM2.jpg""style=""height:400px;""></img>",5,html-button-response,6,489488,0.0-3.0-4.0,12333,List1B,black,woman,,TRUE,5,,,,,
null,CORRECT,,html-keyboard-response,7,490992,0.0-3.0-5.0-0.0,12333,List1B,black,woman,,,,null,,,,
2149,"<img src=""portrait/BW1.jpg""style=""height:400px;""></img>",0,html-button-response,8,493142,0.0-3.0-7.0,12333,List1B,black,woman,,TRUE,0,,,,,
null,CORRECT,,html-keyboard-response,9,494644,0.0-3.0-8.0-0.0,12333,List1B,black,woman,,,,null,,,,
2136,"<img src=""portrait/WM1.jpg""style=""height:400px;""></img>",6,html-button-response,10,496782,0.0-3.0-10.0,12333,List1B,black,woman,,TRUE,6,,,,,
null,CORRECT,,html-keyboard-response,11,498285,0.0-3.0-11.0-0.0,12333,List1B,black,woman,,,,null,,,,
2078,"<img src=""portrait/WW1.jpg""style=""height:400px;""></img>",1,html-button-response,12,500365,0.0-3.0-13.0,12333,List1B,black,woman,,TRUE,1,,,,,
null,CORRECT,,html-keyboard-response,13,501868,0.0-3.0-14.0-0.0,12333,List1B,black,woman,,,,null,,,,
2818,"<img src=""portrait/BW2.jpg""style=""height:400px;""></img>",2,html-button-response,14,504688,0.0-3.0-16.0,12333,List1B,black,woman,,TRUE,2,,,,,
null,CORRECT,,html-keyboard-response,15,506191,0.0-3.0-17.0-0.0,12333,List1B,black,woman,,,,null,,,,
1734,"<img src=""portrait/WM2.jpg""style=""height:400px;""></img>",7,html-button-response,16,507927,0.0-3.0-19.0,12333,List1B,black,woman,,TRUE,7,,,,,
null,CORRECT,,html-keyboard-response,17,509429,0.0-3.0-20.0-0.0,12333,List1B,black,woman,,,,null,,,,
1555,"<img src=""portrait/WW2.jpg""style=""height:400px;""></img>",3,html-button-response,18,510986,0.0-3.0-22.0,12333,List1B,black,woman,,TRUE,3,,,,,
null,CORRECT,,html-keyboard-response,19,512501,0.0-3.0-23.0-0.0,12333,List1B,black,woman,,,,null,,,,
1806,<p>You got 8 out of 8 right first time. Press Continue.</p>,0,html-button-response,20,514309,0.0-3.0-25.0,12333,List1B,black,woman,,,,,,,,
38288,"<p>In this experiment, you will view photographs of the people from the memory game interacting.</p><p>By using the <strong>exact</strong> phrase given <i>after</i> the photograph appears and recalling the correct names of the people in the photographs, form a sentence describing the interaction. You do not need to capitalise names.</p><p>Type your answer in the space provided. Please complete every sentence before moving onto the next trial.</p><p>You will only have a few seconds to memorise each given photograph and phrase before you can respond, so try your best to focus.</p><p>An example is given below. Press 'Continue' when you are ready.</p><img src='img/speaking_example.jpg' style='width:800px;height:460px;''></img>",0,html-button-response,21,553601,0.0-4.0,12333,List1B,black,woman,,,,,,,,
2049,"<p>Before the experiment starts, you will watch two example trials. Press 'Continue'.</p>",0,html-button-response,22,556653,0.0-5.0,12333,List1B,black,woman,,,,,,,,
null,<img src='img/meet_eg.gif' style='height:400px;''></img>,,html-keyboard-response,23,559655,0.0-6.0,12333,List1B,black,woman,,,,null,,,,
null,<p>is meeting</p>,,html-keyboard-response,24,561657,0.0-7.0,12333,List1B,black,woman,,,,null,,,,
3708,<p><b>Answer:</b> kate is meeting beth</p>,0,html-button-response,25,565367,0.0-8.0,12333,List1B,black,woman,,,,,,,,
null,<img src='img/look_eg.gif' style='height:400px;''></img>,,html-keyboard-response,26,568370,0.0-9.0,12333,List1B,black,woman,,,,null,,,,
null,<p>are looking at each other</p>,,html-keyboard-response,27,570371,0.0-10.0,12333,List1B,black,woman,,,,null,,,,
2388,<p><b>Answer:</b> luke and dave are looking at each other</p>,0,html-button-response,28,572761,0.0-11.0,12333,List1B,black,woman,,,,,,,,
9135,"<p>Ready to start the experiment?</p><br><p><strong>Remember to describe the picture using a full sentence,</strong></p><p><strong>that combines the names of the people with the <i>exact</i> phrase given.</strong></p><p><strong>To receive full payment you must do this correctly.</strong></p><p><strong> You do not need to capitalise names or use punctuation.</strong></p><br><p>Press 'Continue' to begin.</p>",0,html-button-response,29,582899,0.0-12.0,12333,List1B,black,woman,,,,,,,,
null,"<div style=""font-size:60px;"">+</div>",,html-keyboard-response,30,584401,0.0-13.0-0.0,12333,List1B,black,woman,,,,null,,,,
null,"<img src=""stim_listB/talk3.gif""style=""height:400px;""></stim_listB>",,html-keyboard-response,31,586404,0.0-13.0-1.0,12333,List1B,black,woman,,,,null,,,,
null,is talking to,,html-keyboard-response,32,588406,0.0-13.0-2.0,12333,List1B,black,woman,,,,null,,,,
5361,,,survey-text,33,593769,0.0-13.0-3.0,12333,List1B,black,woman,,,,,"{""Q0"":""beth is talking to luke""}","<img src=""stim_listB/talk3.gif""style=""height:400px;""></stim_listB>",is talking to,
null,"<div style=""font-size:60px;"">+</div>",,html-keyboard-response,34,594272,0.0-13.0-0.1,12333,List1B,black,woman,,,,null,,,,
null,"<img src=""stim_listB/dance1.gif""style=""height:400px;""></stim_listB>",,html-keyboard-response,35,596273,0.0-13.0-1.1,12333,List1B,black,woman,,,,null,,,,
null,is dancing with,,html-keyboard-response,36,598275,0.0-13.0-2.1,12333,List1B,black,woman,,,,null,,,,
5147,,,survey-text,37,603422,0.0-13.0-3.1,12333,List1B,black,woman,,,,,"{""Q0"":""kate is dancing with fred""}","<img src=""stim_listB/dance1.gif""style=""height:400px;""></stim_listB>",is dancing with,
null,"<div style=""font-size:60px;"">+</div>",,html-keyboard-response,38,603924,0.0-13.0-0.2,12333,List1B,black,woman,,,,null,,,,
null,"<img src=""stim_listB/flirt5.gif""style=""height:400px;""></stim_listB>",,html-keyboard-response,39,605927,0.0-13.0-1.2,12333,List1B,black,woman,,,,null,,,,
null,is flirting with,,html-keyboard-response,40,607929,0.0-13.0-2.2,12333,List1B,black,woman,,,,null,,,,
4922,,,survey-text,41,612852,0.0-13.0-3.2,12333,List1B,black,woman,,,,,"{""Q0"":""dave is flirting with fred""}","<img src=""stim_listB/flirt5.gif""style=""height:400px;""></stim_listB>",is flirting with,
null,"<div style=""font-size:60px;"">+</div>",,html-keyboard-response,42,613354,0.0-13.0-0.3,12333,List1B,black,woman,,,,null,,,,
null,"<img src=""stim_listB/play4.gif""style=""height:400px;""></stim_listB>",,html-keyboard-response,43,615370,0.0-13.0-1.3,12333,List1B,black,woman,,,,null,,,,
null,are playing with each other,,html-keyboard-response,44,617371,0.0-13.0-2.3,12333,List1B,black,woman,,,,null,,,,
11525,,,survey-text,45,628897,0.0-13.0-3.3,12333,List1B,black,woman,,,,,"{""Q0"":""luke and jane are playing with each other""}","<img src=""stim_listB/play4.gif""style=""height:400px;""></stim_listB>",are playing with each other,
null,"<div style=""font-size:60px;"">+</div>",,html-keyboard-response,46,629400,0.0-13.0-0.4,12333,List1B,black,woman,,,,null,,,,
null,"<img src=""stim_listB/touch5.gif""style=""height:400px;""></stim_listB>",,html-keyboard-response,47,631402,0.0-13.0-1.4,12333,List1B,black,woman,,,,null,,,,
null,is touching,,html-keyboard-response,48,633403,0.0-13.0-2.4,12333,List1B,black,woman,,,,null,,,,
8134,,,survey-text,49,641539,0.0-13.0-3.4,12333,List1B,black,woman,,,,,"{""Q0"":""dave is touching mike""}","<img src=""stim_listB/touch5.gif""style=""height:400px;""></stim_listB>",is touching,
null,"<div style=""font-size:60px;"">+</div>",,html-keyboard-response,50,642041,0.0-13.0-0.5,12333,List1B,black,woman,,,,null,,,,
null,"<img src=""stim_listB/flirt6.gif""style=""height:400px;""></stim_listB>",,html-keyboard-response,51,644043,0.0-13.0-1.5,12333,List1B,black,woman,,,,null,,,,
null,are flirting with each other,,html-keyboard-response,52,646045,0.0-13.0-2.5,12333,List1B,black,woman,,,,null,,,,
7661,,,survey-text,53,653708,0.0-13.0-3.5,12333,List1B,black,woman,,,,,"{""Q0"":""mike and luke are flirting with each other""}","<img src=""stim_listB/flirt6.gif""style=""height:400px;""></stim_listB>",are flirting with each other,
null,"<div style=""font-size:60px;"">+</div>",,html-keyboard-response,54,654210,0.0-13.0-0.6,12333,List1B,black,woman,,,,null,,,,
null,"<img src=""stim_listB/kiss6.gif""style=""height:400px;""></stim_listB>",,html-keyboard-response,55,656213,0.0-13.0-1.6,12333,List1B,black,woman,,,,null,,,,
null,are kissing each other,,html-keyboard-response,56,658214,0.0-13.0-2.6,12333,List1B,black,woman,,,,null,,,,
6822,,,survey-text,57,665037,0.0-13.0-3.6,12333,List1B,black,woman,,,,,"{""Q0"":""mike and dave are kissing each other""}","<img src=""stim_listB/kiss6.gif""style=""height:400px;""></stim_listB>",are kissing each other,
null,"<div style=""font-size:60px;"">+</div>",,html-keyboard-response,58,665539,0.0-13.0-0.7,12333,List1B,black,woman,,,,null,,,,
null,"<img src=""stim_listB/dance4.gif""style=""height:400px;""></stim_listB>",,html-keyboard-response,59,667541,0.0-13.0-1.7,12333,List1B,black,woman,,,,null,,,,
null,are dancing with each other,,html-keyboard-response,60,669543,0.0-13.0-2.7,12333,List1B,black,woman,,,,null,,,,
9543,,,survey-text,61,679088,0.0-13.0-3.7,12333,List1B,black,woman,,,,,"{""Q0"":""dave and ruth are dancing together""}","<img src=""stim_listB/dance4.gif""style=""height:400px;""></stim_listB>",are dancing with each other,
null,"<div style=""font-size:60px;"">+</div>",,html-keyboard-response,62,679589,0.0-13.0-0.8,12333,List1B,black,woman,,,,null,,,,
null,"<img src=""stim_listB/touch6.gif""style=""height:400px;""></stim_listB>",,html-keyboard-response,63,681592,0.0-13.0-1.8,12333,List1B,black,woman,,,,null,,,,
null,are touching each other,,html-keyboard-response,64,683594,0.0-13.0-2.8,12333,List1B,black,woman,,,,null,,,,
9295,,,survey-text,65,692889,0.0-13.0-3.8,12333,List1B,black,woman,,,,,"{""Q0"":""fred and luke are touching each other""}","<img src=""stim_listB/touch6.gif""style=""height:400px;""></stim_listB>",are touching each other,
null,"<div style=""font-size:60px;"">+</div>",,html-keyboard-response,66,693394,0.0-13.0-0.9,12333,List1B,black,woman,,,,null,,,,
null,"<img src=""stim_listB/touch3.gif""style=""height:400px;""></stim_listB>",,html-keyboard-response,67,695397,0.0-13.0-1.9,12333,List1B,black,woman,,,,null,,,,
null,is touching,,html-keyboard-response,68,697398,0.0-13.0-2.9,12333,List1B,black,woman,,,,null,,,,
4652,,,survey-text,69,702051,0.0-13.0-3.9,12333,List1B,black,woman,,,,,"{""Q0"":""jane is touching dave""}","<img src=""stim_listB/touch3.gif""style=""height:400px;""></stim_listB>",is touching,
null,"<div style=""font-size:60px;"">+</div>",,html-keyboard-response,70,702553,0.0-13.0-0.10,12333,List1B,black,woman,,,,null,,,,
null,"<img src=""stim_listB/marry6.gif""style=""height:400px;""></stim_listB>",,html-keyboard-response,71,704556,0.0-13.0-1.10,12333,List1B,black,woman,,,,null,,,,
null,are marrying each other,,html-keyboard-response,72,706557,0.0-13.0-2.10,12333,List1B,black,woman,,,,null,,,,
5730,,,survey-text,73,712289,0.0-13.0-3.10,12333,List1B,black,woman,,,,,"{""Q0"":""fred and dave are marrying each other""}","<img src=""stim_listB/marry6.gif""style=""height:400px;""></stim_listB>",are marrying each other,
null,"<div style=""font-size:60px;"">+</div>",,html-keyboard-response,74,712791,0.0-13.0-0.11,12333,List1B,black,woman,,,,null,,,,
null,"<img src=""stim_listB/talk8.gif""style=""height:400px;""></stim_listB>",,html-keyboard-response,75,714793,0.0-13.0-1.11,12333,List1B,black,woman,,,,null,,,,
null,are talking to each other,,html-keyboard-response,76,716795,0.0-13.0-2.11,12333,List1B,black,woman,,,,null,,,,
6646,,,survey-text,77,723442,0.0-13.0-3.11,12333,List1B,black,woman,,,,,"{""Q0"":""kate and ruth are talking to each other""}","<img src=""stim_listB/talk8.gif""style=""height:400px;""></stim_listB>",are talking to each other,
null,"<div style=""font-size:60px;"">+</div>",,html-keyboard-response,78,723943,0.0-13.0-0.12,12333,List1B,black,woman,,,,null,,,,
null,"<img src=""stim_listB/shout1.gif""style=""height:400px;""></stim_listB>",,html-keyboard-response,79,725947,0.0-13.0-1.12,12333,List1B,black,woman,,,,null,,,,
null,is shouting at,,html-keyboard-response,80,727948,0.0-13.0-2.12,12333,List1B,black,woman,,,,null,,,,
4599,,,survey-text,81,732548,0.0-13.0-3.12,12333,List1B,black,woman,,,,,"{""Q0"":""beth is shouting at fred""}","<img src=""stim_listB/shout1.gif""style=""height:400px;""></stim_listB>",is shouting at,
null,"<div style=""font-size:60px;"">+</div>",,html-keyboard-response,82,733050,0.0-13.0-0.13,12333,List1B,black,woman,,,,null,,,,
null,"<img src=""stim_listB/kiss5.gif""style=""height:400px;""></stim_listB>",,html-keyboard-response,83,735053,0.0-13.0-1.13,12333,List1B,black,woman,,,,null,,,,
null,is kissing,,html-keyboard-response,84,737068,0.0-13.0-2.13,12333,List1B,black,woman,,,,null,,,,
4455,,,survey-text,85,741524,0.0-13.0-3.13,12333,List1B,black,woman,,,,,"{""Q0"":""luke is kissing fred""}","<img src=""stim_listB/kiss5.gif""style=""height:400px;""></stim_listB>",is kissing,
null,"<div style=""font-size:60px;"">+</div>",,html-keyboard-response,86,742026,0.0-13.0-0.14,12333,List1B,black,woman,,,,null,,,,
null,"<img src=""stim_listB/flirt1.gif""style=""height:400px;""></stim_listB>",,html-keyboard-response,87,744028,0.0-13.0-1.14,12333,List1B,black,woman,,,,null,,,,
null,is flirting with,,html-keyboard-response,88,746030,0.0-13.0-2.14,12333,List1B,black,woman,,,,null,,,,
7502,,,survey-text,89,753533,0.0-13.0-3.14,12333,List1B,black,woman,,,,,"{""Q0"":""kate is flirting with fred""}","<img src=""stim_listB/flirt1.gif""style=""height:400px;""></stim_listB>",is flirting with,
null,"<div style=""font-size:60px;"">+</div>",,html-keyboard-response,90,754035,0.0-13.0-0.15,12333,List1B,black,woman,,,,null,,,,
null,"<img src=""stim_listB/flirt4.gif""style=""height:400px;""></stim_listB>",,html-keyboard-response,91,756038,0.0-13.0-1.15,12333,List1B,black,woman,,,,null,,,,
null,are flirting with each other,,html-keyboard-response,92,758039,0.0-13.0-2.15,12333,List1B,black,woman,,,,null,,,,
8882,,,survey-text,93,766922,0.0-13.0-3.15,12333,List1B,black,woman,,,,,"{""Q0"":""dave and ruth are flirting with each other""}","<img src=""stim_listB/flirt4.gif""style=""height:400px;""></stim_listB>",are flirting with each other,
null,"<div style=""font-size:60px;"">+</div>",,html-keyboard-response,94,767424,0.0-13.0-0.16,12333,List1B,black,woman,,,,null,,,,
null,"<img src=""stim_listB/touch2.gif""style=""height:400px;""></stim_listB>",,html-keyboard-response,95,769427,0.0-13.0-1.16,12333,List1B,black,woman,,,,null,,,,
null,are touching each other,,html-keyboard-response,96,771428,0.0-13.0-2.16,12333,List1B,black,woman,,,,null,,,,
5946,,,survey-text,97,777376,0.0-13.0-3.16,12333,List1B,black,woman,,,,,"{""Q0"":""fred and beth are touching each other""}","<img src=""stim_listB/touch2.gif""style=""height:400px;""></stim_listB>",are touching each other,
null,"<div style=""font-size:60px;"">+</div>",,html-keyboard-response,98,777878,0.0-13.0-0.17,12333,List1B,black,woman,,,,null,,,,
null,"<img src=""stim_listB/argue1.gif""style=""height:400px;""></stim_listB>",,html-keyboard-response,99,779880,0.0-13.0-1.17,12333,List1B,black,woman,,,,null,,,,
null,is arguing with,,html-keyboard-response,100,781882,0.0-13.0-2.17,12333,List1B,black,woman,,,,null,,,,
5535,,,survey-text,101,787418,0.0-13.0-3.17,12333,List1B,black,woman,,,,,"{""Q0"":""beth is arguing with mike""}","<img src=""stim_listB/argue1.gif""style=""height:400px;""></stim_listB>",is arguing with,
null,"<div style=""font-size:60px;"">+</div>",,html-keyboard-response,102,787919,0.0-13.0-0.18,12333,List1B,black,woman,,,,null,,,,
null,"<img src=""stim_listB/dance8.gif""style=""height:400px;""></stim_listB>",,html-keyboard-response,103,789922,0.0-13.0-1.18,12333,List1B,black,woman,,,,null,,,,
null,are dancing with each other,,html-keyboard-response,104,791924,0.0-13.0-2.18,12333,List1B,black,woman,,,,null,,,,
8579,,,survey-text,105,800504,0.0-13.0-3.18,12333,List1B,black,woman,,,,,"{""Q0"":""kate and ruth are dancing with each other""}","<img src=""stim_listB/dance8.gif""style=""height:400px;""></stim_listB>",are dancing with each other,
null,"<div style=""font-size:60px;"">+</div>",,html-keyboard-response,106,801006,0.0-13.0-0.19,12333,List1B,black,woman,,,,null,,,,
null,"<img src=""stim_listB/talk4.gif""style=""height:400px;""></stim_listB>",,html-keyboard-response,107,803009,0.0-13.0-1.19,12333,List1B,black,woman,,,,null,,,,
null,are talking to each other,,html-keyboard-response,108,805010,0.0-13.0-2.19,12333,List1B,black,woman,,,,null,,,,
5931,,,survey-text,109,810942,0.0-13.0-3.19,12333,List1B,black,woman,,,,,"{""Q0"":""dave and ruth are talking to each other""}","<img src=""stim_listB/talk4.gif""style=""height:400px;""></stim_listB>",are talking to each other,
10235,"<img src='img/portrait_matrix_list1.jpg' style='width:900px;height:500px;''></img><p>If you have memorised all the portraits and names and are ready to start, press Continue.</p><p><strong>Please note: Your memory of these faces will be tested 4 times during this experiment.</strong></p>",0,html-button-response,110,821179,0.0-14.0-0.0,12333,List1B,black,woman,,,,,,,,
2233,"<img src=""portrait/BW2.jpg""style=""height:400px;""></img>",2,html-button-response,111,824416,0.0-14.0-1.0,12333,List1B,black,woman,,TRUE,2,,,,,
null,CORRECT,,html-keyboard-response,112,825919,0.0-14.0-2.0-0.0,12333,List1B,black,woman,,,,null,,,,
1909,"<img src=""portrait/BW1.jpg""style=""height:400px;""></img>",0,html-button-response,113,827830,0.0-14.0-4.0,12333,List1B,black,woman,,TRUE,0,,,,,
null,CORRECT,,html-keyboard-response,114,829332,0.0-14.0-5.0-0.0,12333,List1B,black,woman,,,,null,,,,
1152,"<img src=""portrait/WM2.jpg""style=""height:400px;""></img>",7,html-button-response,115,830486,0.0-14.0-7.0,12333,List1B,black,woman,,TRUE,7,,,,,
null,CORRECT,,html-keyboard-response,116,831987,0.0-14.0-8.0-0.0,12333,List1B,black,woman,,,,null,,,,
1332,"<img src=""portrait/WW2.jpg""style=""height:400px;""></img>",3,html-button-response,117,833321,0.0-14.0-10.0,12333,List1B,black,woman,,TRUE,3,,,,,
null,CORRECT,,html-keyboard-response,118,834823,0.0-14.0-11.0-0.0,12333,List1B,black,woman,,,,null,,,,
1523,"<img src=""portrait/BM1.jpg""style=""height:400px;""></img>",4,html-button-response,119,836348,0.0-14.0-13.0,12333,List1B,black,woman,,TRUE,4,,,,,
null,CORRECT,,html-keyboard-response,120,837850,0.0-14.0-14.0-0.0,12333,List1B,black,woman,,,,null,,,,
2405,"<img src=""portrait/WM1.jpg""style=""height:400px;""></img>",6,html-button-response,121,840260,0.0-14.0-16.0,12333,List1B,black,woman,,TRUE,6,,,,,
null,CORRECT,,html-keyboard-response,122,841761,0.0-14.0-17.0-0.0,12333,List1B,black,woman,,,,null,,,,
1867,"<img src=""portrait/WW1.jpg""style=""height:400px;""></img>",1,html-button-response,123,843631,0.0-14.0-19.0,12333,List1B,black,woman,,TRUE,1,,,,,
null,CORRECT,,html-keyboard-response,124,845132,0.0-14.0-20.0-0.0,12333,List1B,black,woman,,,,null,,,,
1948,"<img src=""portrait/BM2.jpg""style=""height:400px;""></img>",5,html-button-response,125,847082,0.0-14.0-22.0,12333,List1B,black,woman,,TRUE,5,,,,,
null,CORRECT,,html-keyboard-response,126,848584,0.0-14.0-23.0-0.0,12333,List1B,black,woman,,,,null,,,,
1659,<p>You got 8 out of 8 right first time. Press Continue.</p>,0,html-button-response,127,850245,0.0-14.0-25.0,12333,List1B,black,woman,,,,,,,,
null,"<div style=""font-size:60px;"">+</div>",,html-keyboard-response,128,851748,0.0-15.0-0.0,12333,List1B,black,woman,,,,null,,,,
null,"<img src=""stim_listB/marry5.gif""style=""height:400px;""></stim_listB>",,html-keyboard-response,129,853750,0.0-15.0-1.0,12333,List1B,black,woman,,,,null,,,,
null,is marrying,,html-keyboard-response,130,855751,0.0-15.0-2.0,12333,List1B,black,woman,,,,null,,,,
5451,,,survey-text,131,861204,0.0-15.0-3.0,12333,List1B,black,woman,,,,,"{""Q0"":""luke is marrying mike""}","<img src=""stim_listB/marry5.gif""style=""height:400px;""></stim_listB>",is marrying,
null,"<div style=""font-size:60px;"">+</div>",,html-keyboard-response,132,861705,0.0-15.0-0.1,12333,List1B,black,woman,,,,null,,,,
null,"<img src=""stim_listB/shout8.gif""style=""height:400px;""></stim_listB>",,html-keyboard-response,133,863709,0.0-15.0-1.1,12333,List1B,black,woman,,,,null,,,,
null,are shouting at each other,,html-keyboard-response,134,865710,0.0-15.0-2.1,12333,List1B,black,woman,,,,null,,,,
7797,,,survey-text,135,873509,0.0-15.0-3.1,12333,List1B,black,woman,,,,,"{""Q0"":""kate and jane are shouting at each other""}","<img src=""stim_listB/shout8.gif""style=""height:400px;""></stim_listB>",are shouting at each other,
null,"<div style=""font-size:60px;"">+</div>",,html-keyboard-response,136,874022,0.0-15.0-0.2,12333,List1B,black,woman,,,,null,,,,
null,"<img src=""stim_listB/talk7.gif""style=""height:400px;""></stim_listB>",,html-keyboard-response,137,876026,0.0-15.0-1.2,12333,List1B,black,woman,,,,null,,,,
null,is talking to,,html-keyboard-response,138,878027,0.0-15.0-2.2,12333,List1B,black,woman,,,,null,,,,
5725,,,survey-text,139,883753,0.0-15.0-3.2,12333,List1B,black,woman,,,,,"{""Q0"":""jane is talking to beth""}","<img src=""stim_listB/talk7.gif""style=""height:400px;""></stim_listB>",is talking to,
null,"<div style=""font-size:60px;"">+</div>",,html-keyboard-response,140,884268,0.0-15.0-0.3,12333,List1B,black,woman,,,,null,,,,
null,"<img src=""stim_listB/kiss2.gif""style=""height:400px;""></stim_listB>",,html-keyboard-response,141,886271,0.0-15.0-1.3,12333,List1B,black,woman,,,,null,,,,
null,are kissing each other,,html-keyboard-response,142,888273,0.0-15.0-2.3,12333,List1B,black,woman,,,,null,,,,
6742,,,survey-text,143,895016,0.0-15.0-3.3,12333,List1B,black,woman,,,,,"{""Q0"":""mike and kate are kissing each other""}","<img src=""stim_listB/kiss2.gif""style=""height:400px;""></stim_listB>",are kissing each other,
null,"<div style=""font-size:60px;"">+</div>",,html-keyboard-response,144,895518,0.0-15.0-0.4,12333,List1B,black,woman,,,,null,,,,
null,"<img src=""stim_listB/fight6.gif""style=""height:400px;""></stim_listB>",,html-keyboard-response,145,897520,0.0-15.0-1.4,12333,List1B,black,woman,,,,null,,,,
null,are fighting each other,,html-keyboard-response,146,899521,0.0-15.0-2.4,12333,List1B,black,woman,,,,null,,,,
6579,,,survey-text,147,906102,0.0-15.0-3.4,12333,List1B,black,woman,,,,,"{""Q0"":""fred and luke are fighting each other""}","<img src=""stim_listB/fight6.gif""style=""height:400px;""></stim_listB>",are fighting each other,
null,"<div style=""font-size:60px;"">+</div>",,html-keyboard-response,148,906603,0.0-15.0-0.5,12333,List1B,black,woman,,,,null,,,,
null,"<img src=""stim_listB/argue8.gif""style=""height:400px;""></stim_listB>",,html-keyboard-response,149,908605,0.0-15.0-1.5,12333,List1B,black,woman,,,,null,,,,
null,are arguing with each other,,html-keyboard-response,150,910606,0.0-15.0-2.5,12333,List1B,black,woman,,,,null,,,,
8760,,,survey-text,151,919367,0.0-15.0-3.5,12333,List1B,black,woman,,,,,"{""Q0"":""beth and jane are arguing with each other""}","<img src=""stim_listB/argue8.gif""style=""height:400px;""></stim_listB>",are arguing with each other,
null,"<div style=""font-size:60px;"">+</div>",,html-keyboard-response,152,919869,0.0-15.0-0.6,12333,List1B,black,woman,,,,null,,,,
null,"<img src=""stim_listB/flirt7.gif""style=""height:400px;""></stim_listB>",,html-keyboard-response,153,921872,0.0-15.0-1.6,12333,List1B,black,woman,,,,null,,,,
null,is flirting with,,html-keyboard-response,154,923873,0.0-15.0-2.6,12333,List1B,black,woman,,,,null,,,,
6163,,,survey-text,155,930037,0.0-15.0-3.6,12333,List1B,black,woman,,,,,"{""Q0"":""jane is flirting with beth""}","<img src=""stim_listB/flirt7.gif""style=""height:400px;""></stim_listB>",is flirting with,
null,"<div style=""font-size:60px;"">+</div>",,html-keyboard-response,156,930539,0.0-15.0-0.7,12333,List1B,black,woman,,,,null,,,,
null,"<img src=""stim_listB/touch1.gif""style=""height:400px;""></stim_listB>",,html-keyboard-response,157,932542,0.0-15.0-1.7,12333,List1B,black,woman,,,,null,,,,
null,is touching,,html-keyboard-response,158,934543,0.0-15.0-2.7,12333,List1B,black,woman,,,,null,,,,
5186,,,survey-text,159,939731,0.0-15.0-3.7,12333,List1B,black,woman,,,,,"{""Q0"":""kate is touching mike""}","<img src=""stim_listB/touch1.gif""style=""height:400px;""></stim_listB>",is touching,
null,"<div style=""font-size:60px;"">+</div>",,html-keyboard-response,160,940235,0.0-15.0-0.8,12333,List1B,black,woman,,,,null,,,,
null,"<img src=""stim_listB/touch4.gif""style=""height:400px;""></stim_listB>",,html-keyboard-response,161,942238,0.0-15.0-1.8,12333,List1B,black,woman,,,,null,,,,
null,are touching each other,,html-keyboard-response,162,944239,0.0-15.0-2.8,12333,List1B,black,woman,,,,null,,,,
5936,,,survey-text,163,950176,0.0-15.0-3.8,12333,List1B,black,woman,,,,,"{""Q0"":""ruth and luke are touching each other""}","<img src=""stim_listB/touch4.gif""style=""height:400px;""></stim_listB>",are touching each other,
null,"<div style=""font-size:60px;"">+</div>",,html-keyboard-response,164,950679,0.0-15.0-0.9,12333,List1B,black,woman,,,,null,,,,
null,"<img src=""stim_listB/argue6.gif""style=""height:400px;""></stim_listB>",,html-keyboard-response,165,952682,0.0-15.0-1.9,12333,List1B,black,woman,,,,null,,,,
null,are arguing with each other,,html-keyboard-response,166,954692,0.0-15.0-2.9,12333,List1B,black,woman,,,,null,,,,
5802,,,survey-text,167,960494,0.0-15.0-3.9,12333,List1B,black,woman,,,,,"{""Q0"":""fred and dave are arguing with each other""}","<img src=""stim_listB/argue6.gif""style=""height:400px;""></stim_listB>",are arguing with each other,
null,"<div style=""font-size:60px;"">+</div>",,html-keyboard-response,168,961000,0.0-15.0-0.10,12333,List1B,black,woman,,,,null,,,,
null,"<img src=""stim_listB/touch7.gif""style=""height:400px;""></stim_listB>",,html-keyboard-response,169,963003,0.0-15.0-1.10,12333,List1B,black,woman,,,,null,,,,
null,is touching,,html-keyboard-response,170,965017,0.0-15.0-2.10,12333,List1B,black,woman,,,,null,,,,
3986,,,survey-text,171,969004,0.0-15.0-3.10,12333,List1B,black,woman,,,,,"{""Q0"":""jane is touching kate""}","<img src=""stim_listB/touch7.gif""style=""height:400px;""></stim_listB>",is touching,
null,"<div style=""font-size:60px;"">+</div>",,html-keyboard-response,172,969506,0.0-15.0-0.11,12333,List1B,black,woman,,,,null,,,,
null,"<img src=""stim_listB/kiss8.gif""style=""height:400px;""></stim_listB>",,html-keyboard-response,173,971509,0.0-15.0-1.11,12333,List1B,black,woman,,,,null,,,,
null,are kissing each other,,html-keyboard-response,174,973511,0.0-15.0-2.11,12333,List1B,black,woman,,,,null,,,,
6482,,,survey-text,175,979995,0.0-15.0-3.11,12333,List1B,black,woman,,,,,"{""Q0"":""kate and jane are kissing each other""}","<img src=""stim_listB/kiss8.gif""style=""height:400px;""></stim_listB>",are kissing each other,
null,"<div style=""font-size:60px;"">+</div>",,html-keyboard-response,176,980496,0.0-15.0-0.12,12333,List1B,black,woman,,,,null,,,,
null,"<img src=""stim_listB/fight1.gif""style=""height:400px;""></stim_listB>",,html-keyboard-response,177,982498,0.0-15.0-1.12,12333,List1B,black,woman,,,,null,,,,
null,is fighting,,html-keyboard-response,178,984500,0.0-15.0-2.12,12333,List1B,black,woman,,,,null,,,,
5476,,,survey-text,179,989977,0.0-15.0-3.12,12333,List1B,black,woman,,,,,"{""Q0"":""kate is fighting mike""}","<img src=""stim_listB/fight1.gif""style=""height:400px;""></stim_listB>",is fighting,
null,"<div style=""font-size:60px;"">+</div>",,html-keyboard-response,180,990478,0.0-15.0-0.13,12333,List1B,black,woman,,,,null,,,,
null,"<img src=""stim_listB/dance7.gif""style=""height:400px;""></stim_listB>",,html-keyboard-response,181,992480,0.0-15.0-1.13,12333,List1B,black,woman,,,,null,,,,
null,is dancing with,,html-keyboard-response,182,994482,0.0-15.0-2.13,12333,List1B,black,woman,,,,null,,,,
6543,,,survey-text,183,1001027,0.0-15.0-3.13,12333,List1B,black,woman,,,,,"{""Q0"":""jane is dancing with beth""}","<img src=""stim_listB/dance7.gif""style=""height:400px;""></stim_listB>",is dancing with,
null,"<div style=""font-size:60px;"">+</div>",,html-keyboard-response,184,1001529,0.0-15.0-0.14,12333,List1B,black,woman,,,,null,,,,
null,"<img src=""stim_listB/shout7.gif""style=""height:400px;""></stim_listB>",,html-keyboard-response,185,1003531,0.0-15.0-1.14,12333,List1B,black,woman,,,,null,,,,
null,is shouting at,,html-keyboard-response,186,1005533,0.0-15.0-2.14,12333,List1B,black,woman,,,,null,,,,
4658,,,survey-text,187,1010192,0.0-15.0-3.14,12333,List1B,black,woman,,,,,"{""Q0"":""ruth is shouting at beth""}","<img src=""stim_listB/shout7.gif""style=""height:400px;""></stim_listB>",is shouting at,
null,"<div style=""font-size:60px;"">+</div>",,html-keyboard-response,188,1010695,0.0-15.0-0.15,12333,List1B,black,woman,,,,null,,,,
null,"<img src=""stim_listB/shout2.gif""style=""height:400px;""></stim_listB>",,html-keyboard-response,189,1012697,0.0-15.0-1.15,12333,List1B,black,woman,,,,null,,,,
null,are shouting at each other,,html-keyboard-response,190,1014698,0.0-15.0-2.15,12333,List1B,black,woman,,,,null,,,,
7418,,,survey-text,191,1022118,0.0-15.0-3.15,12333,List1B,black,woman,,,,,"{""Q0"":""mike and kate are shouting at each other""}","<img src=""stim_listB/shout2.gif""style=""height:400px;""></stim_listB>",are shouting at each other,
null,"<div style=""font-size:60px;"">+</div>",,html-keyboard-response,192,1022620,0.0-15.0-0.16,12333,List1B,black,woman,,,,null,,,,
null,"<img src=""stim_listB/marry8.gif""style=""height:400px;""></stim_listB>",,html-keyboard-response,193,1024622,0.0-15.0-1.16,12333,List1B,black,woman,,,,null,,,,
null,are marrying each other,,html-keyboard-response,194,1026623,0.0-15.0-2.16,12333,List1B,black,woman,,,,null,,,,
5915,,,survey-text,195,1032540,0.0-15.0-3.16,12333,List1B,black,woman,,,,,"{""Q0"":""beth and jane are marrying each other""}","<img src=""stim_listB/marry8.gif""style=""height:400px;""></stim_listB>",are marrying each other,
null,"<div style=""font-size:60px;"">+</div>",,html-keyboard-response,196,1033041,0.0-15.0-0.17,12333,List1B,black,woman,,,,null,,,,
null,"<img src=""stim_listB/shout3.gif""style=""height:400px;""></stim_listB>",,html-keyboard-response,197,1035044,0.0-15.0-1.17,12333,List1B,black,woman,,,,null,,,,
null,is shouting at,,html-keyboard-response,198,1037045,0.0-15.0-2.17,12333,List1B,black,woman,,,,null,,,,
7109,,,survey-text,199,1044155,0.0-15.0-3.17,12333,List1B,black,woman,,,,,"{""Q0"":""ruth is shouting at luke""}","<img src=""stim_listB/shout3.gif""style=""height:400px;""></stim_listB>",is shouting at,
null,"<div style=""font-size:60px;"">+</div>",,html-keyboard-response,200,1044658,0.0-15.0-0.18,12333,List1B,black,woman,,,,null,,,,
null,"<img src=""stim_listB/play2.gif""style=""height:400px;""></stim_listB>",,html-keyboard-response,201,1046661,0.0-15.0-1.18,12333,List1B,black,woman,,,,null,,,,
null,are playing with each other,,html-keyboard-response,202,1048662,0.0-15.0-2.18,12333,List1B,black,woman,,,,null,,,,
9877,,,survey-text,203,1058540,0.0-15.0-3.18,12333,List1B,black,woman,,,,,"{""Q0"":""fred and beth are playing with each other""}","<img src=""stim_listB/play2.gif""style=""height:400px;""></stim_listB>",are playing with each other,
null,"<div style=""font-size:60px;"">+</div>",,html-keyboard-response,204,1059042,0.0-15.0-0.19,12333,List1B,black,woman,,,,null,,,,
null,"<img src=""stim_listB/fight4.gif""style=""height:400px;""></stim_listB>",,html-keyboard-response,205,1061045,0.0-15.0-1.19,12333,List1B,black,woman,,,,null,,,,
null,are fighting each other,,html-keyboard-response,206,1063046,0.0-15.0-2.19,12333,List1B,black,woman,,,,null,,,,
9773,,,survey-text,207,1072821,0.0-15.0-3.19,12333,List1B,black,woman,,,,,"{""Q0"":""luke and ruth are fighting each other""}","<img src=""stim_listB/fight4.gif""style=""height:400px;""></stim_listB>",are fighting each other,
5902,"<img src='img/portrait_matrix_list1.jpg' style='width:900px;height:500px;''></img><p>If you have memorised all the portraits and names and are ready to start, press Continue.</p><p><strong>Please note: Your memory of these faces will be tested 4 times during this experiment.</strong></p>",0,html-button-response,208,1078724,0.0-16.0-0.0,12333,List1B,black,woman,,,,,,,,
1777,"<img src=""portrait/WM2.jpg""style=""height:400px;""></img>",7,html-button-response,209,1081504,0.0-16.0-1.0,12333,List1B,black,woman,,TRUE,7,,,,,
null,CORRECT,,html-keyboard-response,210,1083005,0.0-16.0-2.0-0.0,12333,List1B,black,woman,,,,null,,,,
2171,"<img src=""portrait/BM1.jpg""style=""height:400px;""></img>",4,html-button-response,211,1085179,0.0-16.0-4.0,12333,List1B,black,woman,,TRUE,4,,,,,
null,CORRECT,,html-keyboard-response,212,1086681,0.0-16.0-5.0-0.0,12333,List1B,black,woman,,,,null,,,,
1283,"<img src=""portrait/WM1.jpg""style=""height:400px;""></img>",6,html-button-response,213,1087966,0.0-16.0-7.0,12333,List1B,black,woman,,TRUE,6,,,,,
null,CORRECT,,html-keyboard-response,214,1089473,0.0-16.0-8.0-0.0,12333,List1B,black,woman,,,,null,,,,
2498,"<img src=""portrait/BW1.jpg""style=""height:400px;""></img>",0,html-button-response,215,1091973,0.0-16.0-10.0,12333,List1B,black,woman,,TRUE,0,,,,,
null,CORRECT,,html-keyboard-response,216,1093476,0.0-16.0-11.0-0.0,12333,List1B,black,woman,,,,null,,,,
1410,"<img src=""portrait/WW2.jpg""style=""height:400px;""></img>",3,html-button-response,217,1094888,0.0-16.0-13.0,12333,List1B,black,woman,,TRUE,3,,,,,
null,CORRECT,,html-keyboard-response,218,1096391,0.0-16.0-14.0-0.0,12333,List1B,black,woman,,,,null,,,,
2212,"<img src=""portrait/BW2.jpg""style=""height:400px;""></img>",2,html-button-response,219,1098605,0.0-16.0-16.0,12333,List1B,black,woman,,TRUE,2,,,,,
null,CORRECT,,html-keyboard-response,220,1100107,0.0-16.0-17.0-0.0,12333,List1B,black,woman,,,,null,,,,
1614,"<img src=""portrait/WW1.jpg""style=""height:400px;""></img>",1,html-button-response,221,1101724,0.0-16.0-19.0,12333,List1B,black,woman,,TRUE,1,,,,,
null,CORRECT,,html-keyboard-response,222,1103226,0.0-16.0-20.0-0.0,12333,List1B,black,woman,,,,null,,,,
2700,"<img src=""portrait/BM2.jpg""style=""height:400px;""></img>",5,html-button-response,223,1105928,0.0-16.0-22.0,12333,List1B,black,woman,,TRUE,5,,,,,
null,CORRECT,,html-keyboard-response,224,1107431,0.0-16.0-23.0-0.0,12333,List1B,black,woman,,,,null,,,,
1954,<p>You got 8 out of 8 right first time. Press Continue.</p>,0,html-button-response,225,1109387,0.0-16.0-25.0,12333,List1B,black,woman,,,,,,,,
null,"<div style=""font-size:60px;"">+</div>",,html-keyboard-response,226,1110890,0.0-17.0-0.0,12333,List1B,black,woman,,,,null,,,,
null,"<img src=""stim_listB/kiss3.gif""style=""height:400px;""></stim_listB>",,html-keyboard-response,227,1112893,0.0-17.0-1.0,12333,List1B,black,woman,,,,null,,,,
null,is kissing,,html-keyboard-response,228,1114895,0.0-17.0-2.0,12333,List1B,black,woman,,,,null,,,,
4975,,,survey-text,229,1119872,0.0-17.0-3.0,12333,List1B,black,woman,,,,,"{""Q0"":""ruth is kissing luke""}","<img src=""stim_listB/kiss3.gif""style=""height:400px;""></stim_listB>",is kissing,
null,"<div style=""font-size:60px;"">+</div>",,html-keyboard-response,230,1120374,0.0-17.0-0.1,12333,List1B,black,woman,,,,null,,,,
null,"<img src=""stim_listB/argue4.gif""style=""height:400px;""></stim_listB>",,html-keyboard-response,231,1122377,0.0-17.0-1.1,12333,List1B,black,woman,,,,null,,,,
null,are arguing with each other,,html-keyboard-response,232,1124378,0.0-17.0-2.1,12333,List1B,black,woman,,,,null,,,,
10273,,,survey-text,233,1134653,0.0-17.0-3.1,12333,List1B,black,woman,,,,,"{""Q0"":""luke and jane are arguing with each other""}","<img src=""stim_listB/argue4.gif""style=""height:400px;""></stim_listB>",are arguing with each other,
null,"<div style=""font-size:60px;"">+</div>",,html-keyboard-response,234,1135155,0.0-17.0-0.2,12333,List1B,black,woman,,,,null,,,,
null,"<img src=""stim_listB/kiss4.gif""style=""height:400px;""></stim_listB>",,html-keyboard-response,235,1137157,0.0-17.0-1.2,12333,List1B,black,woman,,,,null,,,,
null,are kissing each other,,html-keyboard-response,236,1139158,0.0-17.0-2.2,12333,List1B,black,woman,,,,null,,,,
4963,,,survey-text,237,1144123,0.0-17.0-3.2,12333,List1B,black,woman,,,,,"{""Q0"":""dave and jane are kissing each other""}","<img src=""stim_listB/kiss4.gif""style=""height:400px;""></stim_listB>",are kissing each other,
null,"<div style=""font-size:60px;"">+</div>",,html-keyboard-response,238,1144624,0.0-17.0-0.3,12333,List1B,black,woman,,,,null,,,,
null,"<img src=""stim_listB/talk5.gif""style=""height:400px;""></stim_listB>",,html-keyboard-response,239,1146627,0.0-17.0-1.3,12333,List1B,black,woman,,,,null,,,,
null,is talking to,,html-keyboard-response,240,1148628,0.0-17.0-2.3,12333,List1B,black,woman,,,,null,,,,
3983,,,survey-text,241,1152613,0.0-17.0-3.3,12333,List1B,black,woman,,,,,"{""Q0"":""dave is talking to fred""}","<img src=""stim_listB/talk5.gif""style=""height:400px;""></stim_listB>",is talking to,
null,"<div style=""font-size:60px;"">+</div>",,html-keyboard-response,242,1153115,0.0-17.0-0.4,12333,List1B,black,woman,,,,null,,,,
null,"<img src=""stim_listB/play1.gif""style=""height:400px;""></stim_listB>",,html-keyboard-response,243,1155117,0.0-17.0-1.4,12333,List1B,black,woman,,,,null,,,,
null,is playing with,,html-keyboard-response,244,1157125,0.0-17.0-2.4,12333,List1B,black,woman,,,,null,,,,
6105,,,survey-text,245,1163232,0.0-17.0-3.4,12333,List1B,black,woman,,,,,"{""Q0"":""kate is playing with mike""}","<img src=""stim_listB/play1.gif""style=""height:400px;""></stim_listB>",is playing with,
null,"<div style=""font-size:60px;"">+</div>",,html-keyboard-response,246,1163733,0.0-17.0-0.5,12333,List1B,black,woman,,,,null,,,,
null,"<img src=""stim_listB/marry2.gif""style=""height:400px;""></stim_listB>",,html-keyboard-response,247,1165736,0.0-17.0-1.5,12333,List1B,black,woman,,,,null,,,,
null,are marrying each other,,html-keyboard-response,248,1167737,0.0-17.0-2.5,12333,List1B,black,woman,,,,null,,,,
6427,,,survey-text,249,1174165,0.0-17.0-3.5,12333,List1B,black,woman,,,,,"{""Q0"":""fred and kate are marrying each other""}","<img src=""stim_listB/marry2.gif""style=""height:400px;""></stim_listB>",are marrying each other,
null,"<div style=""font-size:60px;"">+</div>",,html-keyboard-response,250,1174667,0.0-17.0-0.6,12333,List1B,black,woman,,,,null,,,,
null,"<img src=""stim_listB/dance3.gif""style=""height:400px;""></stim_listB>",,html-keyboard-response,251,1176670,0.0-17.0-1.6,12333,List1B,black,woman,,,,null,,,,
null,is dancing with,,html-keyboard-response,252,1178671,0.0-17.0-2.6,12333,List1B,black,woman,,,,null,,,,
7114,,,survey-text,253,1185787,0.0-17.0-3.6,12333,List1B,black,woman,,,,,"{""Q0"":""jane is dancing with luke""}","<img src=""stim_listB/dance3.gif""style=""height:400px;""></stim_listB>",is dancing with,
null,"<div style=""font-size:60px;"">+</div>",,html-keyboard-response,254,1186288,0.0-17.0-0.7,12333,List1B,black,woman,,,,null,,,,
null,"<img src=""stim_listB/argue7.gif""style=""height:400px;""></stim_listB>",,html-keyboard-response,255,1188291,0.0-17.0-1.7,12333,List1B,black,woman,,,,null,,,,
null,is arguing with,,html-keyboard-response,256,1190293,0.0-17.0-2.7,12333,List1B,black,woman,,,,null,,,,
5894,,,survey-text,257,1196188,0.0-17.0-3.7,12333,List1B,black,woman,,,,,"{""Q0"":""ruth is arguing with kate""}","<img src=""stim_listB/argue7.gif""style=""height:400px;""></stim_listB>",is arguing with,
null,"<div style=""font-size:60px;"">+</div>",,html-keyboard-response,258,1196690,0.0-17.0-0.8,12333,List1B,black,woman,,,,null,,,,
null,"<img src=""stim_listB/fight8.gif""style=""height:400px;""></stim_listB>",,html-keyboard-response,259,1198693,0.0-17.0-1.8,12333,List1B,black,woman,,,,null,,,,
null,are fighting each other,,html-keyboard-response,260,1200694,0.0-17.0-2.8,12333,List1B,black,woman,,,,null,,,,
8222,,,survey-text,261,1208918,0.0-17.0-3.8,12333,List1B,black,woman,,,,,"{""Q0"":""beth and ruth are fighting with each other""}","<img src=""stim_listB/fight8.gif""style=""height:400px;""></stim_listB>",are fighting each other,
null,"<div style=""font-size:60px;"">+</div>",,html-keyboard-response,262,1209420,0.0-17.0-0.9,12333,List1B,black,woman,,,,null,,,,
null,"<img src=""stim_listB/flirt3.gif""style=""height:400px;""></stim_listB>",,html-keyboard-response,263,1211422,0.0-17.0-1.9,12333,List1B,black,woman,,,,null,,,,
null,is flirting with,,html-keyboard-response,264,1213424,0.0-17.0-2.9,12333,List1B,black,woman,,,,null,,,,
5812,,,survey-text,265,1219236,0.0-17.0-3.9,12333,List1B,black,woman,,,,,"{""Q0"":""jane is flirting with luke""}","<img src=""stim_listB/flirt3.gif""style=""height:400px;""></stim_listB>",is flirting with,
null,"<div style=""font-size:60px;"">+</div>",,html-keyboard-response,266,1219738,0.0-17.0-0.10,12333,List1B,black,woman,,,,null,,,,
null,"<img src=""stim_listB/flirt8.gif""style=""height:400px;""></stim_listB>",,html-keyboard-response,267,1221741,0.0-17.0-1.10,12333,List1B,black,woman,,,,null,,,,
null,are flirting with each other,,html-keyboard-response,268,1223742,0.0-17.0-2.10,12333,List1B,black,woman,,,,null,,,,
7630,,,survey-text,269,1231374,0.0-17.0-3.10,12333,List1B,black,woman,,,,,"{""Q0"":""kate and ruth are flirting with each other""}","<img src=""stim_listB/flirt8.gif""style=""height:400px;""></stim_listB>",are flirting with each other,
null,"<div style=""font-size:60px;"">+</div>",,html-keyboard-response,270,1231876,0.0-17.0-0.11,12333,List1B,black,woman,,,,null,,,,
null,"<img src=""stim_listB/shout4.gif""style=""height:400px;""></stim_listB>",,html-keyboard-response,271,1233878,0.0-17.0-1.11,12333,List1B,black,woman,,,,null,,,,
null,are shouting at each other,,html-keyboard-response,272,1235880,0.0-17.0-2.11,12333,List1B,black,woman,,,,null,,,,
7917,,,survey-text,273,1243799,0.0-17.0-3.11,12333,List1B,black,woman,,,,,"{""Q0"":""dave and jane are shouting at each other""}","<img src=""stim_listB/shout4.gif""style=""height:400px;""></stim_listB>",are shouting at each other,
null,"<div style=""font-size:60px;"">+</div>",,html-keyboard-response,274,1244301,0.0-17.0-0.12,12333,List1B,black,woman,,,,null,,,,
null,"<img src=""stim_listB/kiss7.gif""style=""height:400px;""></stim_listB>",,html-keyboard-response,275,1246303,0.0-17.0-1.12,12333,List1B,black,woman,,,,null,,,,
null,is kissing,,html-keyboard-response,276,1248305,0.0-17.0-2.12,12333,List1B,black,woman,,,,null,,,,
18843,,,survey-text,277,1267150,0.0-17.0-3.12,12333,List1B,black,woman,,,,,"{""Q0"":""ruth is kissing beth""}","<img src=""stim_listB/kiss7.gif""style=""height:400px;""></stim_listB>",is kissing,
null,"<div style=""font-size:60px;"">+</div>",,html-keyboard-response,278,1267652,0.0-17.0-0.13,12333,List1B,black,woman,,,,null,,,,
null,"<img src=""stim_listB/play7.gif""style=""height:400px;""></stim_listB>",,html-keyboard-response,279,1269654,0.0-17.0-1.13,12333,List1B,black,woman,,,,null,,,,
null,is playing with,,html-keyboard-response,280,1271656,0.0-17.0-2.13,12333,List1B,black,woman,,,,null,,,,
5922,,,survey-text,281,1277579,0.0-17.0-3.13,12333,List1B,black,woman,,,,,"{""Q0"":""jane is playing with kate""}","<img src=""stim_listB/play7.gif""style=""height:400px;""></stim_listB>",is playing with,
null,"<div style=""font-size:60px;"">+</div>",,html-keyboard-response,282,1278081,0.0-17.0-0.14,12333,List1B,black,woman,,,,null,,,,
null,"<img src=""stim_listB/dance6.gif""style=""height:400px;""></stim_listB>",,html-keyboard-response,283,1280098,0.0-17.0-1.14,12333,List1B,black,woman,,,,null,,,,
null,are dancing with each other,,html-keyboard-response,284,1282099,0.0-17.0-2.14,12333,List1B,black,woman,,,,null,,,,
7958,,,survey-text,285,1290058,0.0-17.0-3.14,12333,List1B,black,woman,,,,,"{""Q0"":""mike and luke are dancing with each other""}","<img src=""stim_listB/dance6.gif""style=""height:400px;""></stim_listB>",are dancing with each other,
null,"<div style=""font-size:60px;"">+</div>",,html-keyboard-response,286,1290560,0.0-17.0-0.15,12333,List1B,black,woman,,,,null,,,,
null,"<img src=""stim_listB/flirt2.gif""style=""height:400px;""></stim_listB>",,html-keyboard-response,287,1292563,0.0-17.0-1.15,12333,List1B,black,woman,,,,null,,,,
null,are flirting with each other,,html-keyboard-response,288,1294564,0.0-17.0-2.15,12333,List1B,black,woman,,,,null,,,,
9038,,,survey-text,289,1303603,0.0-17.0-3.15,12333,List1B,black,woman,,,,,"{""Q0"":""beth and mike are flirting with each other""}","<img src=""stim_listB/flirt2.gif""style=""height:400px;""></stim_listB>",are flirting with each other,
null,"<div style=""font-size:60px;"">+</div>",,html-keyboard-response,290,1304105,0.0-17.0-0.16,12333,List1B,black,woman,,,,null,,,,
null,"<img src=""stim_listB/kiss1.gif""style=""height:400px;""></stim_listB>",,html-keyboard-response,291,1306109,0.0-17.0-1.16,12333,List1B,black,woman,,,,null,,,,
null,is kissing,,html-keyboard-response,292,1308110,0.0-17.0-2.16,12333,List1B,black,woman,,,,null,,,,
5166,,,survey-text,293,1313277,0.0-17.0-3.16,12333,List1B,black,woman,,,,,"{""Q0"":""beth is kissing fred""}","<img src=""stim_listB/kiss1.gif""style=""height:400px;""></stim_listB>",is kissing,
null,"<div style=""font-size:60px;"">+</div>",,html-keyboard-response,294,1313779,0.0-17.0-0.17,12333,List1B,black,woman,,,,null,,,,
null,"<img src=""stim_listB/fight2.gif""style=""height:400px;""></stim_listB>",,html-keyboard-response,295,1315782,0.0-17.0-1.17,12333,List1B,black,woman,,,,null,,,,
null,are fighting each other,,html-keyboard-response,296,1317783,0.0-17.0-2.17,12333,List1B,black,woman,,,,null,,,,
6626,,,survey-text,297,1324411,0.0-17.0-3.17,12333,List1B,black,woman,,,,,"{""Q0"":""fred and beth are fighting each other""}","<img src=""stim_listB/fight2.gif""style=""height:400px;""></stim_listB>",are fighting each other,
null,"<div style=""font-size:60px;"">+</div>",,html-keyboard-response,298,1324913,0.0-17.0-0.18,12333,List1B,black,woman,,,,null,,,,
null,"<img src=""stim_listB/argue5.gif""style=""height:400px;""></stim_listB>",,html-keyboard-response,299,1326915,0.0-17.0-1.18,12333,List1B,black,woman,,,,null,,,,
null,is arguing with,,html-keyboard-response,300,1328926,0.0-17.0-2.18,12333,List1B,black,woman,,,,null,,,,
5273,,,survey-text,301,1334200,0.0-17.0-3.18,12333,List1B,black,woman,,,,,"{""Q0"":""luke is arguing with mike""}","<img src=""stim_listB/argue5.gif""style=""height:400px;""></stim_listB>",is arguing with,
null,"<div style=""font-size:60px;"">+</div>",,html-keyboard-response,302,1334702,0.0-17.0-0.19,12333,List1B,black,woman,,,,null,,,,
null,"<img src=""stim_listB/dance5.gif""style=""height:400px;""></stim_listB>",,html-keyboard-response,303,1336704,0.0-17.0-1.19,12333,List1B,black,woman,,,,null,,,,
null,is dancing with,,html-keyboard-response,304,1338706,0.0-17.0-2.19,12333,List1B,black,woman,,,,null,,,,
5192,,,survey-text,305,1343900,0.0-17.0-3.19,12333,List1B,black,woman,,,,,"{""Q0"":""dave is dancing with fred""}","<img src=""stim_listB/dance5.gif""style=""height:400px;""></stim_listB>",is dancing with,
2222,"<img src='img/portrait_matrix_list1.jpg' style='width:900px;height:500px;''></img><p>If you have memorised all the portraits and names and are ready to start, press Continue.</p><p><strong>Please note: Your memory of these faces will be tested 4 times during this experiment.</strong></p>",0,html-button-response,306,1346123,0.0-18.0-0.0,12333,List1B,black,woman,,,,,,,,
1569,"<img src=""portrait/BW2.jpg""style=""height:400px;""></img>",2,html-button-response,307,1348695,0.0-18.0-1.0,12333,List1B,black,woman,,TRUE,2,,,,,
null,CORRECT,,html-keyboard-response,308,1350197,0.0-18.0-2.0-0.0,12333,List1B,black,woman,,,,null,,,,
1187,"<img src=""portrait/WM2.jpg""style=""height:400px;""></img>",7,html-button-response,309,1351386,0.0-18.0-4.0,12333,List1B,black,woman,,TRUE,7,,,,,
null,CORRECT,,html-keyboard-response,310,1352888,0.0-18.0-5.0-0.0,12333,List1B,black,woman,,,,null,,,,
1080,"<img src=""portrait/BM1.jpg""style=""height:400px;""></img>",4,html-button-response,311,1353970,0.0-18.0-7.0,12333,List1B,black,woman,,TRUE,4,,,,,
null,CORRECT,,html-keyboard-response,312,1355472,0.0-18.0-8.0-0.0,12333,List1B,black,woman,,,,null,,,,
1142,"<img src=""portrait/WW2.jpg""style=""height:400px;""></img>",3,html-button-response,313,1356617,0.0-18.0-10.0,12333,List1B,black,woman,,TRUE,3,,,,,
null,CORRECT,,html-keyboard-response,314,1358119,0.0-18.0-11.0-0.0,12333,List1B,black,woman,,,,null,,,,
1888,"<img src=""portrait/BW1.jpg""style=""height:400px;""></img>",0,html-button-response,315,1360008,0.0-18.0-13.0,12333,List1B,black,woman,,TRUE,0,,,,,
null,CORRECT,,html-keyboard-response,316,1361510,0.0-18.0-14.0-0.0,12333,List1B,black,woman,,,,null,,,,
2195,"<img src=""portrait/WM1.jpg""style=""height:400px;""></img>",6,html-button-response,317,1363708,0.0-18.0-16.0,12333,List1B,black,woman,,TRUE,6,,,,,
null,CORRECT,,html-keyboard-response,318,1365209,0.0-18.0-17.0-0.0,12333,List1B,black,woman,,,,null,,,,
1803,"<img src=""portrait/WW1.jpg""style=""height:400px;""></img>",1,html-button-response,319,1367015,0.0-18.0-19.0,12333,List1B,black,woman,,TRUE,1,,,,,
null,CORRECT,,html-keyboard-response,320,1368517,0.0-18.0-20.0-0.0,12333,List1B,black,woman,,,,null,,,,
2167,"<img src=""portrait/BM2.jpg""style=""height:400px;""></img>",5,html-button-response,321,1370686,0.0-18.0-22.0,12333,List1B,black,woman,,TRUE,5,,,,,
null,CORRECT,,html-keyboard-response,322,1372189,0.0-18.0-23.0-0.0,12333,List1B,black,woman,,,,null,,,,
946,<p>You got 8 out of 8 right first time. Press Continue.</p>,0,html-button-response,323,1373137,0.0-18.0-25.0,12333,List1B,black,woman,,,,,,,,
null,"<div style=""font-size:60px;"">+</div>",,html-keyboard-response,324,1374640,0.0-19.0-0.0,12333,List1B,black,woman,,,,null,,,,
null,"<img src=""stim_listB/talk1.gif""style=""height:400px;""></stim_listB>",,html-keyboard-response,325,1376644,0.0-19.0-1.0,12333,List1B,black,woman,,,,null,,,,
null,is talking to,,html-keyboard-response,326,1378645,0.0-19.0-2.0,12333,List1B,black,woman,,,,null,,,,
5432,,,survey-text,327,1384079,0.0-19.0-3.0,12333,List1B,black,woman,,,,,"{""Q0"":""kate is talking to fred""}","<img src=""stim_listB/talk1.gif""style=""height:400px;""></stim_listB>",is talking to,
null,"<div style=""font-size:60px;"">+</div>",,html-keyboard-response,328,1384581,0.0-19.0-0.1,12333,List1B,black,woman,,,,null,,,,
null,"<img src=""stim_listB/argue3.gif""style=""height:400px;""></stim_listB>",,html-keyboard-response,329,1386584,0.0-19.0-1.1,12333,List1B,black,woman,,,,null,,,,
null,is arguing with,,html-keyboard-response,330,1388585,0.0-19.0-2.1,12333,List1B,black,woman,,,,null,,,,
5162,,,survey-text,331,1393749,0.0-19.0-3.1,12333,List1B,black,woman,,,,,"{""Q0"":""ruth is arguing with dave""}","<img src=""stim_listB/argue3.gif""style=""height:400px;""></stim_listB>",is arguing with,
null,"<div style=""font-size:60px;"">+</div>",,html-keyboard-response,332,1394251,0.0-19.0-0.2,12333,List1B,black,woman,,,,null,,,,
null,"<img src=""stim_listB/touch8.gif""style=""height:400px;""></stim_listB>",,html-keyboard-response,333,1396254,0.0-19.0-1.2,12333,List1B,black,woman,,,,null,,,,
null,are touching each other,,html-keyboard-response,334,1398255,0.0-19.0-2.2,12333,List1B,black,woman,,,,null,,,,
5720,,,survey-text,335,1403976,0.0-19.0-3.2,12333,List1B,black,woman,,,,,"{""Q0"":""beth and ruth are touching each other""}","<img src=""stim_listB/touch8.gif""style=""height:400px;""></stim_listB>",are touching each other,
null,"<div style=""font-size:60px;"">+</div>",,html-keyboard-response,336,1404478,0.0-19.0-0.3,12333,List1B,black,woman,,,,null,,,,
null,"<img src=""stim_listB/play3.gif""style=""height:400px;""></stim_listB>",,html-keyboard-response,337,1406480,0.0-19.0-1.3,12333,List1B,black,woman,,,,null,,,,
null,is playing with,,html-keyboard-response,338,1408482,0.0-19.0-2.3,12333,List1B,black,woman,,,,null,,,,
4564,,,survey-text,339,1413046,0.0-19.0-3.3,12333,List1B,black,woman,,,,,"{""Q0"":""jane is playing with dave""}","<img src=""stim_listB/play3.gif""style=""height:400px;""></stim_listB>",is playing with,
null,"<div style=""font-size:60px;"">+</div>",,html-keyboard-response,340,1413548,0.0-19.0-0.4,12333,List1B,black,woman,,,,null,,,,
null,"<img src=""stim_listB/play8.gif""style=""height:400px;""></stim_listB>",,html-keyboard-response,341,1415551,0.0-19.0-1.4,12333,List1B,black,woman,,,,null,,,,
null,are playing with each other,,html-keyboard-response,342,1417553,0.0-19.0-2.4,12333,List1B,black,woman,,,,null,,,,
7501,,,survey-text,343,1425056,0.0-19.0-3.4,12333,List1B,black,woman,,,,,"{""Q0"":""beth and ruth are playing with each other""}","<img src=""stim_listB/play8.gif""style=""height:400px;""></stim_listB>",are playing with each other,
null,"<div style=""font-size:60px;"">+</div>",,html-keyboard-response,344,1425558,0.0-19.0-0.5,12333,List1B,black,woman,,,,null,,,,
null,"<img src=""stim_listB/fight7.gif""style=""height:400px;""></stim_listB>",,html-keyboard-response,345,1427561,0.0-19.0-1.5,12333,List1B,black,woman,,,,null,,,,
null,is fighting,,html-keyboard-response,346,1429562,0.0-19.0-2.5,12333,List1B,black,woman,,,,null,,,,
3902,,,survey-text,347,1433465,0.0-19.0-3.5,12333,List1B,black,woman,,,,,"{""Q0"":""jane is fighting kate""}","<img src=""stim_listB/fight7.gif""style=""height:400px;""></stim_listB>",is fighting,
null,"<div style=""font-size:60px;"">+</div>",,html-keyboard-response,348,1433967,0.0-19.0-0.6,12333,List1B,black,woman,,,,null,,,,
null,"<img src=""stim_listB/marry7.gif""style=""height:400px;""></stim_listB>",,html-keyboard-response,349,1435970,0.0-19.0-1.6,12333,List1B,black,woman,,,,null,,,,
null,is marrying,,html-keyboard-response,350,1437971,0.0-19.0-2.6,12333,List1B,black,woman,,,,null,,,,
5119,,,survey-text,351,1443092,0.0-19.0-3.6,12333,List1B,black,woman,,,,,"{""Q0"":""ruth is marrying kate""}","<img src=""stim_listB/marry7.gif""style=""height:400px;""></stim_listB>",is marrying,
null,"<div style=""font-size:60px;"">+</div>",,html-keyboard-response,352,1443594,0.0-19.0-0.7,12333,List1B,black,woman,,,,null,,,,
null,"<img src=""stim_listB/argue2.gif""style=""height:400px;""></stim_listB>",,html-keyboard-response,353,1445596,0.0-19.0-1.7,12333,List1B,black,woman,,,,null,,,,
null,are arguing with each other,,html-keyboard-response,354,1447598,0.0-19.0-2.7,12333,List1B,black,woman,,,,null,,,,
6857,,,survey-text,355,1454457,0.0-19.0-3.7,12333,List1B,black,woman,,,,,"{""Q0"":""fred and kate are arguing with each other""}","<img src=""stim_listB/argue2.gif""style=""height:400px;""></stim_listB>",are arguing with each other,
null,"<div style=""font-size:60px;"">+</div>",,html-keyboard-response,356,1454958,0.0-19.0-0.8,12333,List1B,black,woman,,,,null,,,,
null,"<img src=""stim_listB/marry1.gif""style=""height:400px;""></stim_listB>",,html-keyboard-response,357,1456961,0.0-19.0-1.8,12333,List1B,black,woman,,,,null,,,,
null,is marrying,,html-keyboard-response,358,1458963,0.0-19.0-2.8,12333,List1B,black,woman,,,,null,,,,
4475,,,survey-text,359,1463440,0.0-19.0-3.8,12333,List1B,black,woman,,,,,"{""Q0"":""beth is marrying mike""}","<img src=""stim_listB/marry1.gif""style=""height:400px;""></stim_listB>",is marrying,
null,"<div style=""font-size:60px;"">+</div>",,html-keyboard-response,360,1463942,0.0-19.0-0.9,12333,List1B,black,woman,,,,null,,,,
null,"<img src=""stim_listB/talk6.gif""style=""height:400px;""></stim_listB>",,html-keyboard-response,361,1465944,0.0-19.0-1.9,12333,List1B,black,woman,,,,null,,,,
null,are talking to each other,,html-keyboard-response,362,1467945,0.0-19.0-2.9,12333,List1B,black,woman,,,,null,,,,
6283,,,survey-text,363,1474229,0.0-19.0-3.9,12333,List1B,black,woman,,,,,"{""Q0"":""mike and luke are talking to each other""}","<img src=""stim_listB/talk6.gif""style=""height:400px;""></stim_listB>",are talking to each other,
null,"<div style=""font-size:60px;"">+</div>",,html-keyboard-response,364,1474731,0.0-19.0-0.10,12333,List1B,black,woman,,,,null,,,,
null,"<img src=""stim_listB/play5.gif""style=""height:400px;""></stim_listB>",,html-keyboard-response,365,1476734,0.0-19.0-1.10,12333,List1B,black,woman,,,,null,,,,
null,is playing with,,html-keyboard-response,366,1478735,0.0-19.0-2.10,12333,List1B,black,woman,,,,null,,,,
6202,,,survey-text,367,1484939,0.0-19.0-3.10,12333,List1B,black,woman,,,,,"{""Q0"":""dave is playing with mike""}","<img src=""stim_listB/play5.gif""style=""height:400px;""></stim_listB>",is playing with,
null,"<div style=""font-size:60px;"">+</div>",,html-keyboard-response,368,1485441,0.0-19.0-0.11,12333,List1B,black,woman,,,,null,,,,
null,"<img src=""stim_listB/marry4.gif""style=""height:400px;""></stim_listB>",,html-keyboard-response,369,1487443,0.0-19.0-1.11,12333,List1B,black,woman,,,,null,,,,
null,are marrying each other,,html-keyboard-response,370,1489445,0.0-19.0-2.11,12333,List1B,black,woman,,,,null,,,,
6366,,,survey-text,371,1495812,0.0-19.0-3.11,12333,List1B,black,woman,,,,,"{""Q0"":""luke and jane are marrying each other""}","<img src=""stim_listB/marry4.gif""style=""height:400px;""></stim_listB>",are marrying each other,
null,"<div style=""font-size:60px;"">+</div>",,html-keyboard-response,372,1496314,0.0-19.0-0.12,12333,List1B,black,woman,,,,null,,,,
null,"<img src=""stim_listB/marry3.gif""style=""height:400px;""></stim_listB>",,html-keyboard-response,373,1498317,0.0-19.0-1.12,12333,List1B,black,woman,,,,null,,,,
null,is marrying,,html-keyboard-response,374,1500318,0.0-19.0-2.12,12333,List1B,black,woman,,,,null,,,,
4391,,,survey-text,375,1504710,0.0-19.0-3.12,12333,List1B,black,woman,,,,,"{""Q0"":""ruth is marrying dave""}","<img src=""stim_listB/marry3.gif""style=""height:400px;""></stim_listB>",is marrying,
null,"<div style=""font-size:60px;"">+</div>",,html-keyboard-response,376,1505212,0.0-19.0-0.13,12333,List1B,black,woman,,,,null,,,,
null,"<img src=""stim_listB/shout5.gif""style=""height:400px;""></stim_listB>",,html-keyboard-response,377,1507215,0.0-19.0-1.13,12333,List1B,black,woman,,,,null,,,,
null,is shouting at,,html-keyboard-response,378,1509216,0.0-19.0-2.13,12333,List1B,black,woman,,,,null,,,,
6259,,,survey-text,379,1515477,0.0-19.0-3.13,12333,List1B,black,woman,,,,,"{""Q0"":""luke is shouting at fred""}","<img src=""stim_listB/shout5.gif""style=""height:400px;""></stim_listB>",is shouting at,
null,"<div style=""font-size:60px;"">+</div>",,html-keyboard-response,380,1515980,0.0-19.0-0.14,12333,List1B,black,woman,,,,null,,,,
null,"<img src=""stim_listB/shout6.gif""style=""height:400px;""></stim_listB>",,html-keyboard-response,381,1517983,0.0-19.0-1.14,12333,List1B,black,woman,,,,null,,,,
null,are shouting at each other,,html-keyboard-response,382,1519985,0.0-19.0-2.14,12333,List1B,black,woman,,,,null,,,,
7707,,,survey-text,383,1527694,0.0-19.0-3.14,12333,List1B,black,woman,,,,,"{""Q0"":""mike and dave are shouting at each other""}","<img src=""stim_listB/shout6.gif""style=""height:400px;""></stim_listB>",are shouting at each other,
null,"<div style=""font-size:60px;"">+</div>",,html-keyboard-response,384,1528194,0.0-19.0-0.15,12333,List1B,black,woman,,,,null,,,,
null,"<img src=""stim_listB/fight5.gif""style=""height:400px;""></stim_listB>",,html-keyboard-response,385,1530202,0.0-19.0-1.15,12333,List1B,black,woman,,,,null,,,,
null,is fighting,,html-keyboard-response,386,1532204,0.0-19.0-2.15,12333,List1B,black,woman,,,,null,,,,
6487,,,survey-text,387,1538691,0.0-19.0-3.15,12333,List1B,black,woman,,,,,"{""Q0"":""dave is fighting mike""}","<img src=""stim_listB/fight5.gif""style=""height:400px;""></stim_listB>",is fighting,
null,"<div style=""font-size:60px;"">+</div>",,html-keyboard-response,388,1539192,0.0-19.0-0.16,12333,List1B,black,woman,,,,null,,,,
null,"<img src=""stim_listB/dance2.gif""style=""height:400px;""></stim_listB>",,html-keyboard-response,389,1541201,0.0-19.0-1.16,12333,List1B,black,woman,,,,null,,,,
null,are dancing with each other,,html-keyboard-response,390,1543209,0.0-19.0-2.16,12333,List1B,black,woman,,,,null,,,,
6287,,,survey-text,391,1549497,0.0-19.0-3.16,12333,List1B,black,woman,,,,,"{""Q0"":""mike and beth are dancing together""}","<img src=""stim_listB/dance2.gif""style=""height:400px;""></stim_listB>",are dancing with each other,
null,"<div style=""font-size:60px;"">+</div>",,html-keyboard-response,392,1550011,0.0-19.0-0.17,12333,List1B,black,woman,,,,null,,,,
null,"<img src=""stim_listB/talk2.gif""style=""height:400px;""></stim_listB>",,html-keyboard-response,393,1552015,0.0-19.0-1.17,12333,List1B,black,woman,,,,null,,,,
null,are talking to each other,,html-keyboard-response,394,1554029,0.0-19.0-2.17,12333,List1B,black,woman,,,,null,,,,
8381,,,survey-text,395,1562410,0.0-19.0-3.17,12333,List1B,black,woman,,,,,"{""Q0"":""mike and beth are talking to each other""}","<img src=""stim_listB/talk2.gif""style=""height:400px;""></stim_listB>",are talking to each other,
null,"<div style=""font-size:60px;"">+</div>",,html-keyboard-response,396,1562913,0.0-19.0-0.18,12333,List1B,black,woman,,,,null,,,,
null,"<img src=""stim_listB/play6.gif""style=""height:400px;""></stim_listB>",,html-keyboard-response,397,1564918,0.0-19.0-1.18,12333,List1B,black,woman,,,,null,,,,
null,are playing with each other,,html-keyboard-response,398,1566933,0.0-19.0-2.18,12333,List1B,black,woman,,,,null,,,,
6682,,,survey-text,399,1573617,0.0-19.0-3.18,12333,List1B,black,woman,,,,,"{""Q0"":""fred and luke are playing with each other""}","<img src=""stim_listB/play6.gif""style=""height:400px;""></stim_listB>",are playing with each other,
null,"<div style=""font-size:60px;"">+</div>",,html-keyboard-response,400,1574119,0.0-19.0-0.19,12333,List1B,black,woman,,,,null,,,,
null,"<img src=""stim_listB/fight3.gif""style=""height:400px;""></stim_listB>",,html-keyboard-response,401,1576121,0.0-19.0-1.19,12333,List1B,black,woman,,,,null,,,,
null,is fighting,,html-keyboard-response,402,1578123,0.0-19.0-2.19,12333,List1B,black,woman,,,,null,,,,
4873,,,survey-text,403,1582997,0.0-19.0-3.19,12333,List1B,black,woman,,,,,"{""Q0"":""jane is fighting dave""}","<img src=""stim_listB/fight3.gif""style=""height:400px;""></stim_listB>",is fighting,
2504,<p>Thank you for completing that task.</p><p>The final part of this session is a short questionnaire.</p><p>Press Continue.</p>,0,html-button-response,404,1585504,0.0-20.0,12333,List1B,black,woman,,,,,,,,
15474,,,survey-text,405,1601981,0.0-21.0,12333,List1B,black,woman,,,,,"{""Q0"":""32"",""Q1"":""english"",""Q2"":""english"",""Q3"":""USA"",""Q4"":""african american"",""Q5"":""female""}",,,demographics
4912,,,survey-likert,406,1606901,0.0-22.0,12333,List1B,black,woman,,,,,"{""Q0"":0}",,,likert_ESS
5508,,,survey-likert,407,1612420,0.0-23.0,12333,List1B,black,woman,,,,,"{""Q0"":4}",,,likert_NSSAL_Q1
3096,,,survey-likert,408,1615527,0.0-24.0,12333,List1B,black,woman,,,,,"{""Q0"":4}",,,likert_NSSAL_Q2
7081,,,survey-likert,409,1622617,0.0-25.0,12333,List1B,black,woman,,,,,"{""Q0"":4}",,,likert_CGRS_Q1
3705,,,survey-likert,410,1626332,0.0-26.0,12333,List1B,black,woman,,,,,"{""Q0"":4}",,,likert_CGRS_Q2
3225,,,survey-likert,411,1629568,0.0-27.0,12333,List1B,black,woman,,,,,"{""Q0"":4}",,,likert_CGRS_Q3
8879,,,survey-text,412,1638457,0.0-28.0,12333,List1B,black,woman,,,,,"{""Q0"":""ccc""}",,,worker_id
2976,,,external-html,413,1641641,0.0-29.0,12333,List1B,black,woman,debrief.html,,,,,,,
