rt,stimulus,button_pressed,trial_type,trial_index,time_elapsed,internal_node_id,subject,list,ppt_race,ppt_gender,url,first_guess,correct,key_press,responses,image_type,phrase_type,test_part
15726,Welcome to the experiment. Press Continue to begin.,0,html-button-response,0,15733,0.0-0.0,13591,List1B,black,man,,,,,,,,
47296,,,external-html,1,64159,0.0-1.0,13591,List1B,black,man,consent.html,,,,,,,
15108,"<p>On the next page, you will see portraits of 8 people and their names.</p><p>Your first task is to take a few minutes to memorise the names of these people.</p><p>You will have to recall their names during the rest of the experiment, so it is</p><p>essential that you try to memorise these people and their names as best as you can.</p><br><p><strong>You will then be tested on your memory of these names and portraits.</strong></p><br><p>The experiment will start after you have completed this memory test.</p><br><p>Ready?</p>",0,html-button-response,2,79270,0.0-2.0,13591,List1B,black,man,,,,,,,,
46501,"<img src='img/portrait_matrix_list1.jpg' style='width:900px;height:500px;''></img><p>If you have memorised all the portraits and names and are ready to start, press Continue.</p><p><strong>Please note: Your memory of these faces will be tested 4 times during this experiment.</strong></p>",0,html-button-response,3,126778,0.0-3.0-0.0,13591,List1B,black,man,,,,,,,,
4804,"<img src=""portrait/WW1.jpg""style=""height:400px;""></img>",1,html-button-response,4,132586,0.0-3.0-1.0,13591,List1B,black,man,,TRUE,1,,,,,
null,CORRECT,,html-keyboard-response,5,134094,0.0-3.0-2.0-0.0,13591,List1B,black,man,,,,null,,,,
6849,"<img src=""portrait/WM1.jpg""style=""height:400px;""></img>",6,html-button-response,6,140946,0.0-3.0-4.0,13591,List1B,black,man,,TRUE,6,,,,,
null,CORRECT,,html-keyboard-response,7,142454,0.0-3.0-5.0-0.0,13591,List1B,black,man,,,,null,,,,
5270,"<img src=""portrait/WW2.jpg""style=""height:400px;""></img>",3,html-button-response,8,147728,0.0-3.0-7.0,13591,List1B,black,man,,TRUE,3,,,,,
null,CORRECT,,html-keyboard-response,9,149232,0.0-3.0-8.0-0.0,13591,List1B,black,man,,,,null,,,,
4695,"<img src=""portrait/BW2.jpg""style=""height:400px;""></img>",2,html-button-response,10,153929,0.0-3.0-10.0,13591,List1B,black,man,,TRUE,2,,,,,
null,CORRECT,,html-keyboard-response,11,155432,0.0-3.0-11.0-0.0,13591,List1B,black,man,,,,null,,,,
6194,"<img src=""portrait/BM1.jpg""style=""height:400px;""></img>",4,html-button-response,12,161629,0.0-3.0-13.0,13591,List1B,black,man,,TRUE,4,,,,,
null,CORRECT,,html-keyboard-response,13,163134,0.0-3.0-14.0-0.0,13591,List1B,black,man,,,,null,,,,
4609,"<img src=""portrait/BM2.jpg""style=""height:400px;""></img>",5,html-button-response,14,167746,0.0-3.0-16.0,13591,List1B,black,man,,TRUE,5,,,,,
null,CORRECT,,html-keyboard-response,15,169250,0.0-3.0-17.0-0.0,13591,List1B,black,man,,,,null,,,,
4302,"<img src=""portrait/BW1.jpg""style=""height:400px;""></img>",0,html-button-response,16,173554,0.0-3.0-19.0,13591,List1B,black,man,,TRUE,0,,,,,
null,CORRECT,,html-keyboard-response,17,175058,0.0-3.0-20.0-0.0,13591,List1B,black,man,,,,null,,,,
7104,"<img src=""portrait/WM2.jpg""style=""height:400px;""></img>",7,html-button-response,18,182164,0.0-3.0-22.0,13591,List1B,black,man,,TRUE,7,,,,,
null,CORRECT,,html-keyboard-response,19,183669,0.0-3.0-23.0-0.0,13591,List1B,black,man,,,,null,,,,
2662,<p>You got 8 out of 8 right first time. Press Continue.</p>,0,html-button-response,20,186334,0.0-3.0-25.0,13591,List1B,black,man,,,,,,,,
81425,"<p>In this experiment, you will view photographs of the people from the memory game interacting.</p><p>By using the <strong>exact</strong> phrase given <i>after</i> the photograph appears and recalling the correct names of the people in the photographs, form a sentence describing the interaction. You do not need to capitalise names.</p><p>Type your answer in the space provided. Please complete every sentence before moving onto the next trial.</p><p>You will only have a few seconds to memorise each given photograph and phrase before you can respond, so try your best to focus.</p><p>An example is given below. Press 'Continue' when you are ready.</p><img src='img/speaking_example.jpg' style='width:800px;height:460px;''></img>",0,html-button-response,21,268766,0.0-4.0,13591,List1B,black,man,,,,,,,,
20123,"<p>Before the experiment starts, you will watch two example trials. Press 'Continue'.</p>",0,html-button-response,22,289891,0.0-5.0,13591,List1B,black,man,,,,,,,,
null,<img src='img/meet_eg.gif' style='height:400px;''></img>,,html-keyboard-response,23,292896,0.0-6.0,13591,List1B,black,man,,,,null,,,,
null,<p>is meeting</p>,,html-keyboard-response,24,294898,0.0-7.0,13591,List1B,black,man,,,,null,,,,
16066,<p><b>Answer:</b> kate is meeting beth</p>,0,html-button-response,25,310966,0.0-8.0,13591,List1B,black,man,,,,,,,,
null,<img src='img/look_eg.gif' style='height:400px;''></img>,,html-keyboard-response,26,313970,0.0-9.0,13591,List1B,black,man,,,,null,,,,
null,<p>are looking at each other</p>,,html-keyboard-response,27,315971,0.0-10.0,13591,List1B,black,man,,,,null,,,,
6135,<p><b>Answer:</b> luke and dave are looking at each other</p>,0,html-button-response,28,322108,0.0-11.0,13591,List1B,black,man,,,,,,,,
29579,"<p>Ready to start the experiment?</p><br><p><strong>Remember to describe the picture using a full sentence,</strong></p><p><strong>that combines the names of the people with the <i>exact</i> phrase given.</strong></p><p><strong>To receive full payment you must do this correctly.</strong></p><p><strong> You do not need to capitalise names or use punctuation.</strong></p><br><p>Press 'Continue' to begin.</p>",0,html-button-response,29,352692,0.0-12.0,13591,List1B,black,man,,,,,,,,
null,"<div style=""font-size:60px;"">+</div>",,html-keyboard-response,30,354195,0.0-13.0-0.0,13591,List1B,black,man,,,,null,,,,
null,"<img src=""stim_listB/marry1.gif""style=""height:400px;""></stim_listB>",,html-keyboard-response,31,356201,0.0-13.0-1.0,13591,List1B,black,man,,,,null,,,,
null,is marrying,,html-keyboard-response,32,358203,0.0-13.0-2.0,13591,List1B,black,man,,,,null,,,,
31321,,,survey-text,33,389527,0.0-13.0-3.0,13591,List1B,black,man,,,,,"{""Q0"":""fred and mike are greeting""}","<img src=""stim_listB/marry1.gif""style=""height:400px;""></stim_listB>",is marrying,
null,"<div style=""font-size:60px;"">+</div>",,html-keyboard-response,34,390030,0.0-13.0-0.1,13591,List1B,black,man,,,,null,,,,
null,"<img src=""stim_listB/talk7.gif""style=""height:400px;""></stim_listB>",,html-keyboard-response,35,392033,0.0-13.0-1.1,13591,List1B,black,man,,,,null,,,,
null,is talking to,,html-keyboard-response,36,394035,0.0-13.0-2.1,13591,List1B,black,man,,,,null,,,,
34173,,,survey-text,37,428210,0.0-13.0-3.1,13591,List1B,black,man,,,,,"{""Q0"":""beth and jane are talking""}","<img src=""stim_listB/talk7.gif""style=""height:400px;""></stim_listB>",is talking to,
null,"<div style=""font-size:60px;"">+</div>",,html-keyboard-response,38,428712,0.0-13.0-0.2,13591,List1B,black,man,,,,null,,,,
null,"<img src=""stim_listB/dance7.gif""style=""height:400px;""></stim_listB>",,html-keyboard-response,39,430716,0.0-13.0-1.2,13591,List1B,black,man,,,,null,,,,
null,is dancing with,,html-keyboard-response,40,432718,0.0-13.0-2.2,13591,List1B,black,man,,,,null,,,,
29049,,,survey-text,41,461769,0.0-13.0-3.2,13591,List1B,black,man,,,,,"{""Q0"":""beth and jane are dancing""}","<img src=""stim_listB/dance7.gif""style=""height:400px;""></stim_listB>",is dancing with,
null,"<div style=""font-size:60px;"">+</div>",,html-keyboard-response,42,462271,0.0-13.0-0.3,13591,List1B,black,man,,,,null,,,,
null,"<img src=""stim_listB/touch8.gif""style=""height:400px;""></stim_listB>",,html-keyboard-response,43,464275,0.0-13.0-1.3,13591,List1B,black,man,,,,null,,,,
null,are touching each other,,html-keyboard-response,44,466277,0.0-13.0-2.3,13591,List1B,black,man,,,,null,,,,
35389,,,survey-text,45,501668,0.0-13.0-3.3,13591,List1B,black,man,,,,,"{""Q0"":""beth and ruth are playing""}","<img src=""stim_listB/touch8.gif""style=""height:400px;""></stim_listB>",are touching each other,
null,"<div style=""font-size:60px;"">+</div>",,html-keyboard-response,46,502170,0.0-13.0-0.4,13591,List1B,black,man,,,,null,,,,
null,"<img src=""stim_listB/argue2.gif""style=""height:400px;""></stim_listB>",,html-keyboard-response,47,504174,0.0-13.0-1.4,13591,List1B,black,man,,,,null,,,,
null,are arguing with each other,,html-keyboard-response,48,506177,0.0-13.0-2.4,13591,List1B,black,man,,,,null,,,,
30345,,,survey-text,49,536524,0.0-13.0-3.4,13591,List1B,black,man,,,,,"{""Q0"":""fred and kate are dancing""}","<img src=""stim_listB/argue2.gif""style=""height:400px;""></stim_listB>",are arguing with each other,
null,"<div style=""font-size:60px;"">+</div>",,html-keyboard-response,50,537025,0.0-13.0-0.5,13591,List1B,black,man,,,,null,,,,
null,"<img src=""stim_listB/marry3.gif""style=""height:400px;""></stim_listB>",,html-keyboard-response,51,539028,0.0-13.0-1.5,13591,List1B,black,man,,,,null,,,,
null,is marrying,,html-keyboard-response,52,541029,0.0-13.0-2.5,13591,List1B,black,man,,,,null,,,,
22207,,,survey-text,53,563237,0.0-13.0-3.5,13591,List1B,black,man,,,,,"{""Q0"":""dave and ruth are dancing""}","<img src=""stim_listB/marry3.gif""style=""height:400px;""></stim_listB>",is marrying,
null,"<div style=""font-size:60px;"">+</div>",,html-keyboard-response,54,563739,0.0-13.0-0.6,13591,List1B,black,man,,,,null,,,,
null,"<img src=""stim_listB/flirt4.gif""style=""height:400px;""></stim_listB>",,html-keyboard-response,55,565740,0.0-13.0-1.6,13591,List1B,black,man,,,,null,,,,
null,are flirting with each other,,html-keyboard-response,56,567742,0.0-13.0-2.6,13591,List1B,black,man,,,,null,,,,
22476,,,survey-text,57,590219,0.0-13.0-3.6,13591,List1B,black,man,,,,,"{""Q0"":""dave and ruth are singing""}","<img src=""stim_listB/flirt4.gif""style=""height:400px;""></stim_listB>",are flirting with each other,
null,"<div style=""font-size:60px;"">+</div>",,html-keyboard-response,58,590721,0.0-13.0-0.7,13591,List1B,black,man,,,,null,,,,
null,"<img src=""stim_listB/kiss7.gif""style=""height:400px;""></stim_listB>",,html-keyboard-response,59,592724,0.0-13.0-1.7,13591,List1B,black,man,,,,null,,,,
null,is kissing,,html-keyboard-response,60,594727,0.0-13.0-2.7,13591,List1B,black,man,,,,null,,,,
19702,,,survey-text,61,614432,0.0-13.0-3.7,13591,List1B,black,man,,,,,"{""Q0"":""ruth and beth are kissing""}","<img src=""stim_listB/kiss7.gif""style=""height:400px;""></stim_listB>",is kissing,
null,"<div style=""font-size:60px;"">+</div>",,html-keyboard-response,62,614934,0.0-13.0-0.8,13591,List1B,black,man,,,,null,,,,
null,"<img src=""stim_listB/flirt5.gif""style=""height:400px;""></stim_listB>",,html-keyboard-response,63,616938,0.0-13.0-1.8,13591,List1B,black,man,,,,null,,,,
null,is flirting with,,html-keyboard-response,64,618940,0.0-13.0-2.8,13591,List1B,black,man,,,,null,,,,
23561,,,survey-text,65,642503,0.0-13.0-3.8,13591,List1B,black,man,,,,,"{""Q0"":""Fred and dave are dancing""}","<img src=""stim_listB/flirt5.gif""style=""height:400px;""></stim_listB>",is flirting with,
null,"<div style=""font-size:60px;"">+</div>",,html-keyboard-response,66,643007,0.0-13.0-0.9,13591,List1B,black,man,,,,null,,,,
null,"<img src=""stim_listB/argue6.gif""style=""height:400px;""></stim_listB>",,html-keyboard-response,67,645010,0.0-13.0-1.9,13591,List1B,black,man,,,,null,,,,
null,are arguing with each other,,html-keyboard-response,68,647012,0.0-13.0-2.9,13591,List1B,black,man,,,,null,,,,
19160,,,survey-text,69,666174,0.0-13.0-3.9,13591,List1B,black,man,,,,,"{""Q0"":""fred and dance are talking""}","<img src=""stim_listB/argue6.gif""style=""height:400px;""></stim_listB>",are arguing with each other,
null,"<div style=""font-size:60px;"">+</div>",,html-keyboard-response,70,666676,0.0-13.0-0.10,13591,List1B,black,man,,,,null,,,,
null,"<img src=""stim_listB/marry2.gif""style=""height:400px;""></stim_listB>",,html-keyboard-response,71,668679,0.0-13.0-1.10,13591,List1B,black,man,,,,null,,,,
null,are marrying each other,,html-keyboard-response,72,670682,0.0-13.0-2.10,13591,List1B,black,man,,,,null,,,,
16283,,,survey-text,73,686966,0.0-13.0-3.10,13591,List1B,black,man,,,,,"{""Q0"":""fred and kate are talking""}","<img src=""stim_listB/marry2.gif""style=""height:400px;""></stim_listB>",are marrying each other,
null,"<div style=""font-size:60px;"">+</div>",,html-keyboard-response,74,687468,0.0-13.0-0.11,13591,List1B,black,man,,,,null,,,,
null,"<img src=""stim_listB/marry4.gif""style=""height:400px;""></stim_listB>",,html-keyboard-response,75,689471,0.0-13.0-1.11,13591,List1B,black,man,,,,null,,,,
null,are marrying each other,,html-keyboard-response,76,691473,0.0-13.0-2.11,13591,List1B,black,man,,,,null,,,,
25777,,,survey-text,77,717252,0.0-13.0-3.11,13591,List1B,black,man,,,,,"{""Q0"":""jane and luke are praying""}","<img src=""stim_listB/marry4.gif""style=""height:400px;""></stim_listB>",are marrying each other,
null,"<div style=""font-size:60px;"">+</div>",,html-keyboard-response,78,717753,0.0-13.0-0.12,13591,List1B,black,man,,,,null,,,,
null,"<img src=""stim_listB/dance8.gif""style=""height:400px;""></stim_listB>",,html-keyboard-response,79,719757,0.0-13.0-1.12,13591,List1B,black,man,,,,null,,,,
null,are dancing with each other,,html-keyboard-response,80,721758,0.0-13.0-2.12,13591,List1B,black,man,,,,null,,,,
20599,,,survey-text,81,742359,0.0-13.0-3.12,13591,List1B,black,man,,,,,"{""Q0"":""kate and jane are dancing""}","<img src=""stim_listB/dance8.gif""style=""height:400px;""></stim_listB>",are dancing with each other,
null,"<div style=""font-size:60px;"">+</div>",,html-keyboard-response,82,742860,0.0-13.0-0.13,13591,List1B,black,man,,,,null,,,,
null,"<img src=""stim_listB/flirt6.gif""style=""height:400px;""></stim_listB>",,html-keyboard-response,83,744863,0.0-13.0-1.13,13591,List1B,black,man,,,,null,,,,
null,are flirting with each other,,html-keyboard-response,84,746865,0.0-13.0-2.13,13591,List1B,black,man,,,,null,,,,
24017,,,survey-text,85,770884,0.0-13.0-3.13,13591,List1B,black,man,,,,,"{""Q0"":""luke and mike are dancing""}","<img src=""stim_listB/flirt6.gif""style=""height:400px;""></stim_listB>",are flirting with each other,
null,"<div style=""font-size:60px;"">+</div>",,html-keyboard-response,86,771386,0.0-13.0-0.14,13591,List1B,black,man,,,,null,,,,
null,"<img src=""stim_listB/shout6.gif""style=""height:400px;""></stim_listB>",,html-keyboard-response,87,773389,0.0-13.0-1.14,13591,List1B,black,man,,,,null,,,,
null,are shouting at each other,,html-keyboard-response,88,775391,0.0-13.0-2.14,13591,List1B,black,man,,,,null,,,,
21415,,,survey-text,89,796808,0.0-13.0-3.14,13591,List1B,black,man,,,,,"{""Q0"":""luke and fred are screaming""}","<img src=""stim_listB/shout6.gif""style=""height:400px;""></stim_listB>",are shouting at each other,
null,"<div style=""font-size:60px;"">+</div>",,html-keyboard-response,90,797310,0.0-13.0-0.15,13591,List1B,black,man,,,,null,,,,
null,"<img src=""stim_listB/argue4.gif""style=""height:400px;""></stim_listB>",,html-keyboard-response,91,799313,0.0-13.0-1.15,13591,List1B,black,man,,,,null,,,,
null,are arguing with each other,,html-keyboard-response,92,801316,0.0-13.0-2.15,13591,List1B,black,man,,,,null,,,,
16743,,,survey-text,93,818061,0.0-13.0-3.15,13591,List1B,black,man,,,,,"{""Q0"":""jane and luke are marching""}","<img src=""stim_listB/argue4.gif""style=""height:400px;""></stim_listB>",are arguing with each other,
null,"<div style=""font-size:60px;"">+</div>",,html-keyboard-response,94,818563,0.0-13.0-0.16,13591,List1B,black,man,,,,null,,,,
null,"<img src=""stim_listB/marry7.gif""style=""height:400px;""></stim_listB>",,html-keyboard-response,95,820566,0.0-13.0-1.16,13591,List1B,black,man,,,,null,,,,
null,is marrying,,html-keyboard-response,96,822568,0.0-13.0-2.16,13591,List1B,black,man,,,,null,,,,
20961,,,survey-text,97,843530,0.0-13.0-3.16,13591,List1B,black,man,,,,,"{""Q0"":""kate and jane are chatting""}","<img src=""stim_listB/marry7.gif""style=""height:400px;""></stim_listB>",is marrying,
null,"<div style=""font-size:60px;"">+</div>",,html-keyboard-response,98,844033,0.0-13.0-0.17,13591,List1B,black,man,,,,null,,,,
null,"<img src=""stim_listB/shout7.gif""style=""height:400px;""></stim_listB>",,html-keyboard-response,99,846036,0.0-13.0-1.17,13591,List1B,black,man,,,,null,,,,
null,is shouting at,,html-keyboard-response,100,848038,0.0-13.0-2.17,13591,List1B,black,man,,,,null,,,,
24730,,,survey-text,101,872770,0.0-13.0-3.17,13591,List1B,black,man,,,,,"{""Q0"":""ruth and beth are singing""}","<img src=""stim_listB/shout7.gif""style=""height:400px;""></stim_listB>",is shouting at,
null,"<div style=""font-size:60px;"">+</div>",,html-keyboard-response,102,873272,0.0-13.0-0.18,13591,List1B,black,man,,,,null,,,,
null,"<img src=""stim_listB/touch1.gif""style=""height:400px;""></stim_listB>",,html-keyboard-response,103,875276,0.0-13.0-1.18,13591,List1B,black,man,,,,null,,,,
null,is touching,,html-keyboard-response,104,877278,0.0-13.0-2.18,13591,List1B,black,man,,,,null,,,,
24897,,,survey-text,105,902177,0.0-13.0-3.18,13591,List1B,black,man,,,,,"{""Q0"":""kate and mike are greeting""}","<img src=""stim_listB/touch1.gif""style=""height:400px;""></stim_listB>",is touching,
null,"<div style=""font-size:60px;"">+</div>",,html-keyboard-response,106,902680,0.0-13.0-0.19,13591,List1B,black,man,,,,null,,,,
null,"<img src=""stim_listB/play2.gif""style=""height:400px;""></stim_listB>",,html-keyboard-response,107,904684,0.0-13.0-1.19,13591,List1B,black,man,,,,null,,,,
null,are playing with each other,,html-keyboard-response,108,906686,0.0-13.0-2.19,13591,List1B,black,man,,,,null,,,,
32721,,,survey-text,109,939409,0.0-13.0-3.19,13591,List1B,black,man,,,,,"{""Q0"":""fred and beth are taking selfie""}","<img src=""stim_listB/play2.gif""style=""height:400px;""></stim_listB>",are playing with each other,
24588,"<img src='img/portrait_matrix_list1.jpg' style='width:900px;height:500px;''></img><p>If you have memorised all the portraits and names and are ready to start, press Continue.</p><p><strong>Please note: Your memory of these faces will be tested 4 times during this experiment.</strong></p>",0,html-button-response,110,963998,0.0-14.0-0.0,13591,List1B,black,man,,,,,,,,
7078,"<img src=""portrait/WM1.jpg""style=""height:400px;""></img>",6,html-button-response,111,972081,0.0-14.0-1.0,13591,List1B,black,man,,TRUE,6,,,,,
null,CORRECT,,html-keyboard-response,112,973585,0.0-14.0-2.0-0.0,13591,List1B,black,man,,,,null,,,,
4230,"<img src=""portrait/WM2.jpg""style=""height:400px;""></img>",7,html-button-response,113,977817,0.0-14.0-4.0,13591,List1B,black,man,,TRUE,7,,,,,
null,CORRECT,,html-keyboard-response,114,979321,0.0-14.0-5.0-0.0,13591,List1B,black,man,,,,null,,,,
5642,"<img src=""portrait/BW1.jpg""style=""height:400px;""></img>",0,html-button-response,115,984966,0.0-14.0-7.0,13591,List1B,black,man,,TRUE,0,,,,,
null,CORRECT,,html-keyboard-response,116,986469,0.0-14.0-8.0-0.0,13591,List1B,black,man,,,,null,,,,
4624,"<img src=""portrait/BW2.jpg""style=""height:400px;""></img>",2,html-button-response,117,991095,0.0-14.0-10.0,13591,List1B,black,man,,TRUE,2,,,,,
null,CORRECT,,html-keyboard-response,118,992599,0.0-14.0-11.0-0.0,13591,List1B,black,man,,,,null,,,,
6100,"<img src=""portrait/WW2.jpg""style=""height:400px;""></img>",3,html-button-response,119,998701,0.0-14.0-13.0,13591,List1B,black,man,,TRUE,3,,,,,
null,CORRECT,,html-keyboard-response,120,1000204,0.0-14.0-14.0-0.0,13591,List1B,black,man,,,,null,,,,
4286,"<img src=""portrait/WW1.jpg""style=""height:400px;""></img>",1,html-button-response,121,1004493,0.0-14.0-16.0,13591,List1B,black,man,,TRUE,1,,,,,
null,CORRECT,,html-keyboard-response,122,1005997,0.0-14.0-17.0-0.0,13591,List1B,black,man,,,,null,,,,
3204,"<img src=""portrait/BM2.jpg""style=""height:400px;""></img>",5,html-button-response,123,1009203,0.0-14.0-19.0,13591,List1B,black,man,,TRUE,5,,,,,
null,CORRECT,,html-keyboard-response,124,1010706,0.0-14.0-20.0-0.0,13591,List1B,black,man,,,,null,,,,
3023,"<img src=""portrait/BM1.jpg""style=""height:400px;""></img>",4,html-button-response,125,1013732,0.0-14.0-22.0,13591,List1B,black,man,,TRUE,4,,,,,
null,CORRECT,,html-keyboard-response,126,1015237,0.0-14.0-23.0-0.0,13591,List1B,black,man,,,,null,,,,
3195,<p>You got 8 out of 8 right first time. Press Continue.</p>,0,html-button-response,127,1018434,0.0-14.0-25.0,13591,List1B,black,man,,,,,,,,
null,"<div style=""font-size:60px;"">+</div>",,html-keyboard-response,128,1019940,0.0-15.0-0.0,13591,List1B,black,man,,,,null,,,,
null,"<img src=""stim_listB/kiss1.gif""style=""height:400px;""></stim_listB>",,html-keyboard-response,129,1021945,0.0-15.0-1.0,13591,List1B,black,man,,,,null,,,,
null,is kissing,,html-keyboard-response,130,1023947,0.0-15.0-2.0,13591,List1B,black,man,,,,null,,,,
18719,,,survey-text,131,1042669,0.0-15.0-3.0,13591,List1B,black,man,,,,,"{""Q0"":""fred and ruth""}","<img src=""stim_listB/kiss1.gif""style=""height:400px;""></stim_listB>",is kissing,
null,"<div style=""font-size:60px;"">+</div>",,html-keyboard-response,132,1043171,0.0-15.0-0.1,13591,List1B,black,man,,,,null,,,,
null,"<img src=""stim_listB/argue3.gif""style=""height:400px;""></stim_listB>",,html-keyboard-response,133,1045173,0.0-15.0-1.1,13591,List1B,black,man,,,,null,,,,
null,is arguing with,,html-keyboard-response,134,1047175,0.0-15.0-2.1,13591,List1B,black,man,,,,null,,,,
14568,,,survey-text,135,1061745,0.0-15.0-3.1,13591,List1B,black,man,,,,,"{""Q0"":""dave and ruth""}","<img src=""stim_listB/argue3.gif""style=""height:400px;""></stim_listB>",is arguing with,
null,"<div style=""font-size:60px;"">+</div>",,html-keyboard-response,136,1062247,0.0-15.0-0.2,13591,List1B,black,man,,,,null,,,,
null,"<img src=""stim_listB/talk1.gif""style=""height:400px;""></stim_listB>",,html-keyboard-response,137,1064249,0.0-15.0-1.2,13591,List1B,black,man,,,,null,,,,
null,is talking to,,html-keyboard-response,138,1066252,0.0-15.0-2.2,13591,List1B,black,man,,,,null,,,,
18201,,,survey-text,139,1084455,0.0-15.0-3.2,13591,List1B,black,man,,,,,"{""Q0"":""fred and kate""}","<img src=""stim_listB/talk1.gif""style=""height:400px;""></stim_listB>",is talking to,
null,"<div style=""font-size:60px;"">+</div>",,html-keyboard-response,140,1084957,0.0-15.0-0.3,13591,List1B,black,man,,,,null,,,,
null,"<img src=""stim_listB/touch7.gif""style=""height:400px;""></stim_listB>",,html-keyboard-response,141,1086961,0.0-15.0-1.3,13591,List1B,black,man,,,,null,,,,
null,is touching,,html-keyboard-response,142,1088964,0.0-15.0-2.3,13591,List1B,black,man,,,,null,,,,
14731,,,survey-text,143,1103697,0.0-15.0-3.3,13591,List1B,black,man,,,,,"{""Q0"":""kate and jane""}","<img src=""stim_listB/touch7.gif""style=""height:400px;""></stim_listB>",is touching,
null,"<div style=""font-size:60px;"">+</div>",,html-keyboard-response,144,1104200,0.0-15.0-0.4,13591,List1B,black,man,,,,null,,,,
null,"<img src=""stim_listB/play8.gif""style=""height:400px;""></stim_listB>",,html-keyboard-response,145,1106204,0.0-15.0-1.4,13591,List1B,black,man,,,,null,,,,
null,are playing with each other,,html-keyboard-response,146,1108207,0.0-15.0-2.4,13591,List1B,black,man,,,,null,,,,
14389,,,survey-text,147,1122598,0.0-15.0-3.4,13591,List1B,black,man,,,,,"{""Q0"":""beth and jane""}","<img src=""stim_listB/play8.gif""style=""height:400px;""></stim_listB>",are playing with each other,
null,"<div style=""font-size:60px;"">+</div>",,html-keyboard-response,148,1123100,0.0-15.0-0.5,13591,List1B,black,man,,,,null,,,,
null,"<img src=""stim_listB/dance2.gif""style=""height:400px;""></stim_listB>",,html-keyboard-response,149,1125104,0.0-15.0-1.5,13591,List1B,black,man,,,,null,,,,
null,are dancing with each other,,html-keyboard-response,150,1127107,0.0-15.0-2.5,13591,List1B,black,man,,,,null,,,,
19137,,,survey-text,151,1146246,0.0-15.0-3.5,13591,List1B,black,man,,,,,"{""Q0"":""fred and kate""}","<img src=""stim_listB/dance2.gif""style=""height:400px;""></stim_listB>",are dancing with each other,
null,"<div style=""font-size:60px;"">+</div>",,html-keyboard-response,152,1146748,0.0-15.0-0.6,13591,List1B,black,man,,,,null,,,,
null,"<img src=""stim_listB/kiss5.gif""style=""height:400px;""></stim_listB>",,html-keyboard-response,153,1148751,0.0-15.0-1.6,13591,List1B,black,man,,,,null,,,,
null,is kissing,,html-keyboard-response,154,1150753,0.0-15.0-2.6,13591,List1B,black,man,,,,null,,,,
102918,,,survey-text,155,1253672,0.0-15.0-3.6,13591,List1B,black,man,,,,,"{""Q0"":""fred and luke""}","<img src=""stim_listB/kiss5.gif""style=""height:400px;""></stim_listB>",is kissing,
null,"<div style=""font-size:60px;"">+</div>",,html-keyboard-response,156,1254175,0.0-15.0-0.7,13591,List1B,black,man,,,,null,,,,
null,"<img src=""stim_listB/talk8.gif""style=""height:400px;""></stim_listB>",,html-keyboard-response,157,1256178,0.0-15.0-1.7,13591,List1B,black,man,,,,null,,,,
null,are talking to each other,,html-keyboard-response,158,1258180,0.0-15.0-2.7,13591,List1B,black,man,,,,null,,,,
16966,,,survey-text,159,1275148,0.0-15.0-3.7,13591,List1B,black,man,,,,,"{""Q0"":""kate and ruth""}","<img src=""stim_listB/talk8.gif""style=""height:400px;""></stim_listB>",are talking to each other,
null,"<div style=""font-size:60px;"">+</div>",,html-keyboard-response,160,1275650,0.0-15.0-0.8,13591,List1B,black,man,,,,null,,,,
null,"<img src=""stim_listB/play3.gif""style=""height:400px;""></stim_listB>",,html-keyboard-response,161,1277653,0.0-15.0-1.8,13591,List1B,black,man,,,,null,,,,
null,is playing with,,html-keyboard-response,162,1279655,0.0-15.0-2.8,13591,List1B,black,man,,,,null,,,,
12871,,,survey-text,163,1292528,0.0-15.0-3.8,13591,List1B,black,man,,,,,"{""Q0"":""dave and jane""}","<img src=""stim_listB/play3.gif""style=""height:400px;""></stim_listB>",is playing with,
null,"<div style=""font-size:60px;"">+</div>",,html-keyboard-response,164,1293030,0.0-15.0-0.9,13591,List1B,black,man,,,,null,,,,
null,"<img src=""stim_listB/argue5.gif""style=""height:400px;""></stim_listB>",,html-keyboard-response,165,1295034,0.0-15.0-1.9,13591,List1B,black,man,,,,null,,,,
null,is arguing with,,html-keyboard-response,166,1297036,0.0-15.0-2.9,13591,List1B,black,man,,,,null,,,,
14760,,,survey-text,167,1311798,0.0-15.0-3.9,13591,List1B,black,man,,,,,"{""Q0"":""luke and mike""}","<img src=""stim_listB/argue5.gif""style=""height:400px;""></stim_listB>",is arguing with,
null,"<div style=""font-size:60px;"">+</div>",,html-keyboard-response,168,1312300,0.0-15.0-0.10,13591,List1B,black,man,,,,null,,,,
null,"<img src=""stim_listB/play1.gif""style=""height:400px;""></stim_listB>",,html-keyboard-response,169,1314303,0.0-15.0-1.10,13591,List1B,black,man,,,,null,,,,
null,is playing with,,html-keyboard-response,170,1316305,0.0-15.0-2.10,13591,List1B,black,man,,,,null,,,,
17015,,,survey-text,171,1333321,0.0-15.0-3.10,13591,List1B,black,man,,,,,"{""Q0"":""kate and mike""}","<img src=""stim_listB/play1.gif""style=""height:400px;""></stim_listB>",is playing with,
null,"<div style=""font-size:60px;"">+</div>",,html-keyboard-response,172,1333824,0.0-15.0-0.11,13591,List1B,black,man,,,,null,,,,
null,"<img src=""stim_listB/shout8.gif""style=""height:400px;""></stim_listB>",,html-keyboard-response,173,1335826,0.0-15.0-1.11,13591,List1B,black,man,,,,null,,,,
null,are shouting at each other,,html-keyboard-response,174,1337829,0.0-15.0-2.11,13591,List1B,black,man,,,,null,,,,
21467,,,survey-text,175,1359298,0.0-15.0-3.11,13591,List1B,black,man,,,,,"{""Q0"":""kate and jane""}","<img src=""stim_listB/shout8.gif""style=""height:400px;""></stim_listB>",are shouting at each other,
null,"<div style=""font-size:60px;"">+</div>",,html-keyboard-response,176,1359800,0.0-15.0-0.12,13591,List1B,black,man,,,,null,,,,
null,"<img src=""stim_listB/shout3.gif""style=""height:400px;""></stim_listB>",,html-keyboard-response,177,1361802,0.0-15.0-1.12,13591,List1B,black,man,,,,null,,,,
null,is shouting at,,html-keyboard-response,178,1363804,0.0-15.0-2.12,13591,List1B,black,man,,,,null,,,,
13443,,,survey-text,179,1377249,0.0-15.0-3.12,13591,List1B,black,man,,,,,"{""Q0"":""ruth and luke""}","<img src=""stim_listB/shout3.gif""style=""height:400px;""></stim_listB>",is shouting at,
null,"<div style=""font-size:60px;"">+</div>",,html-keyboard-response,180,1377751,0.0-15.0-0.13,13591,List1B,black,man,,,,null,,,,
null,"<img src=""stim_listB/shout5.gif""style=""height:400px;""></stim_listB>",,html-keyboard-response,181,1379754,0.0-15.0-1.13,13591,List1B,black,man,,,,null,,,,
null,is shouting at,,html-keyboard-response,182,1381757,0.0-15.0-2.13,13591,List1B,black,man,,,,null,,,,
26616,,,survey-text,183,1408375,0.0-15.0-3.13,13591,List1B,black,man,,,,,"{""Q0"":""fred and luke""}","<img src=""stim_listB/shout5.gif""style=""height:400px;""></stim_listB>",is shouting at,
null,"<div style=""font-size:60px;"">+</div>",,html-keyboard-response,184,1408877,0.0-15.0-0.14,13591,List1B,black,man,,,,null,,,,
null,"<img src=""stim_listB/dance1.gif""style=""height:400px;""></stim_listB>",,html-keyboard-response,185,1410880,0.0-15.0-1.14,13591,List1B,black,man,,,,null,,,,
null,is dancing with,,html-keyboard-response,186,1412882,0.0-15.0-2.14,13591,List1B,black,man,,,,null,,,,
14989,,,survey-text,187,1427873,0.0-15.0-3.14,13591,List1B,black,man,,,,,"{""Q0"":""fred and kate""}","<img src=""stim_listB/dance1.gif""style=""height:400px;""></stim_listB>",is dancing with,
null,"<div style=""font-size:60px;"">+</div>",,html-keyboard-response,188,1428375,0.0-15.0-0.15,13591,List1B,black,man,,,,null,,,,
null,"<img src=""stim_listB/fight7.gif""style=""height:400px;""></stim_listB>",,html-keyboard-response,189,1430377,0.0-15.0-1.15,13591,List1B,black,man,,,,null,,,,
null,is fighting,,html-keyboard-response,190,1432379,0.0-15.0-2.15,13591,List1B,black,man,,,,null,,,,
11424,,,survey-text,191,1443805,0.0-15.0-3.15,13591,List1B,black,man,,,,,"{""Q0"":""kate and jane""}","<img src=""stim_listB/fight7.gif""style=""height:400px;""></stim_listB>",is fighting,
null,"<div style=""font-size:60px;"">+</div>",,html-keyboard-response,192,1444307,0.0-15.0-0.16,13591,List1B,black,man,,,,null,,,,
null,"<img src=""stim_listB/touch2.gif""style=""height:400px;""></stim_listB>",,html-keyboard-response,193,1446309,0.0-15.0-1.16,13591,List1B,black,man,,,,null,,,,
null,are touching each other,,html-keyboard-response,194,1448311,0.0-15.0-2.16,13591,List1B,black,man,,,,null,,,,
13584,,,survey-text,195,1461895,0.0-15.0-3.16,13591,List1B,black,man,,,,,"{""Q0"":""fred and beth""}","<img src=""stim_listB/touch2.gif""style=""height:400px;""></stim_listB>",are touching each other,
null,"<div style=""font-size:60px;"">+</div>",,html-keyboard-response,196,1462398,0.0-15.0-0.17,13591,List1B,black,man,,,,null,,,,
null,"<img src=""stim_listB/touch3.gif""style=""height:400px;""></stim_listB>",,html-keyboard-response,197,1464400,0.0-15.0-1.17,13591,List1B,black,man,,,,null,,,,
null,is touching,,html-keyboard-response,198,1466401,0.0-15.0-2.17,13591,List1B,black,man,,,,null,,,,
13431,,,survey-text,199,1479833,0.0-15.0-3.17,13591,List1B,black,man,,,,,"{""Q0"":""jane and dave""}","<img src=""stim_listB/touch3.gif""style=""height:400px;""></stim_listB>",is touching,
null,"<div style=""font-size:60px;"">+</div>",,html-keyboard-response,200,1480336,0.0-15.0-0.18,13591,List1B,black,man,,,,null,,,,
null,"<img src=""stim_listB/flirt2.gif""style=""height:400px;""></stim_listB>",,html-keyboard-response,201,1482338,0.0-15.0-1.18,13591,List1B,black,man,,,,null,,,,
null,are flirting with each other,,html-keyboard-response,202,1484340,0.0-15.0-2.18,13591,List1B,black,man,,,,null,,,,
13545,,,survey-text,203,1497888,0.0-15.0-3.18,13591,List1B,black,man,,,,,"{""Q0"":""mike and kate""}","<img src=""stim_listB/flirt2.gif""style=""height:400px;""></stim_listB>",are flirting with each other,
null,"<div style=""font-size:60px;"">+</div>",,html-keyboard-response,204,1498389,0.0-15.0-0.19,13591,List1B,black,man,,,,null,,,,
null,"<img src=""stim_listB/fight6.gif""style=""height:400px;""></stim_listB>",,html-keyboard-response,205,1500391,0.0-15.0-1.19,13591,List1B,black,man,,,,null,,,,
null,are fighting each other,,html-keyboard-response,206,1502392,0.0-15.0-2.19,13591,List1B,black,man,,,,null,,,,
14668,,,survey-text,207,1517061,0.0-15.0-3.19,13591,List1B,black,man,,,,,"{""Q0"":""mike and luke""}","<img src=""stim_listB/fight6.gif""style=""height:400px;""></stim_listB>",are fighting each other,
189717,"<img src='img/portrait_matrix_list1.jpg' style='width:900px;height:500px;''></img><p>If you have memorised all the portraits and names and are ready to start, press Continue.</p><p><strong>Please note: Your memory of these faces will be tested 4 times during this experiment.</strong></p>",0,html-button-response,208,1706780,0.0-16.0-0.0,13591,List1B,black,man,,,,,,,,
5133,"<img src=""portrait/BW2.jpg""style=""height:400px;""></img>",2,html-button-response,209,1712920,0.0-16.0-1.0,13591,List1B,black,man,,TRUE,2,,,,,
null,CORRECT,,html-keyboard-response,210,1714425,0.0-16.0-2.0-0.0,13591,List1B,black,man,,,,null,,,,
5291,"<img src=""portrait/WM1.jpg""style=""height:400px;""></img>",6,html-button-response,211,1719718,0.0-16.0-4.0,13591,List1B,black,man,,TRUE,6,,,,,
null,CORRECT,,html-keyboard-response,212,1721227,0.0-16.0-5.0-0.0,13591,List1B,black,man,,,,null,,,,
3912,"<img src=""portrait/WM2.jpg""style=""height:400px;""></img>",7,html-button-response,213,1725141,0.0-16.0-7.0,13591,List1B,black,man,,TRUE,7,,,,,
null,CORRECT,,html-keyboard-response,214,1726648,0.0-16.0-8.0-0.0,13591,List1B,black,man,,,,null,,,,
6351,"<img src=""portrait/BW1.jpg""style=""height:400px;""></img>",0,html-button-response,215,1733002,0.0-16.0-10.0,13591,List1B,black,man,,TRUE,0,,,,,
null,CORRECT,,html-keyboard-response,216,1734508,0.0-16.0-11.0-0.0,13591,List1B,black,man,,,,null,,,,
4372,"<img src=""portrait/WW2.jpg""style=""height:400px;""></img>",3,html-button-response,217,1738884,0.0-16.0-13.0,13591,List1B,black,man,,TRUE,3,,,,,
null,CORRECT,,html-keyboard-response,218,1740389,0.0-16.0-14.0-0.0,13591,List1B,black,man,,,,null,,,,
4425,"<img src=""portrait/BM1.jpg""style=""height:400px;""></img>",4,html-button-response,219,1744817,0.0-16.0-16.0,13591,List1B,black,man,,TRUE,4,,,,,
null,CORRECT,,html-keyboard-response,220,1746325,0.0-16.0-17.0-0.0,13591,List1B,black,man,,,,null,,,,
3735,"<img src=""portrait/BM2.jpg""style=""height:400px;""></img>",5,html-button-response,221,1750062,0.0-16.0-19.0,13591,List1B,black,man,,TRUE,5,,,,,
null,CORRECT,,html-keyboard-response,222,1751569,0.0-16.0-20.0-0.0,13591,List1B,black,man,,,,null,,,,
4445,"<img src=""portrait/WW1.jpg""style=""height:400px;""></img>",1,html-button-response,223,1756016,0.0-16.0-22.0,13591,List1B,black,man,,TRUE,1,,,,,
null,CORRECT,,html-keyboard-response,224,1757522,0.0-16.0-23.0-0.0,13591,List1B,black,man,,,,null,,,,
7481,<p>You got 8 out of 8 right first time. Press Continue.</p>,0,html-button-response,225,1765006,0.0-16.0-25.0,13591,List1B,black,man,,,,,,,,
null,"<div style=""font-size:60px;"">+</div>",,html-keyboard-response,226,1766513,0.0-17.0-0.0,13591,List1B,black,man,,,,null,,,,
null,"<img src=""stim_listB/fight2.gif""style=""height:400px;""></stim_listB>",,html-keyboard-response,227,1768517,0.0-17.0-1.0,13591,List1B,black,man,,,,null,,,,
null,are fighting each other,,html-keyboard-response,228,1770520,0.0-17.0-2.0,13591,List1B,black,man,,,,null,,,,
22312,,,survey-text,229,1792834,0.0-17.0-3.0,13591,List1B,black,man,,,,,"{""Q0"":""fred and beth are dancing""}","<img src=""stim_listB/fight2.gif""style=""height:400px;""></stim_listB>",are fighting each other,
null,"<div style=""font-size:60px;"">+</div>",,html-keyboard-response,230,1793335,0.0-17.0-0.1,13591,List1B,black,man,,,,null,,,,
null,"<img src=""stim_listB/shout4.gif""style=""height:400px;""></stim_listB>",,html-keyboard-response,231,1795340,0.0-17.0-1.1,13591,List1B,black,man,,,,null,,,,
null,are shouting at each other,,html-keyboard-response,232,1797344,0.0-17.0-2.1,13591,List1B,black,man,,,,null,,,,
26094,,,survey-text,233,1823440,0.0-17.0-3.1,13591,List1B,black,man,,,,,"{""Q0"":""dave and jane are shouting""}","<img src=""stim_listB/shout4.gif""style=""height:400px;""></stim_listB>",are shouting at each other,
null,"<div style=""font-size:60px;"">+</div>",,html-keyboard-response,234,1823943,0.0-17.0-0.2,13591,List1B,black,man,,,,null,,,,
null,"<img src=""stim_listB/play6.gif""style=""height:400px;""></stim_listB>",,html-keyboard-response,235,1825947,0.0-17.0-1.2,13591,List1B,black,man,,,,null,,,,
null,are playing with each other,,html-keyboard-response,236,1827952,0.0-17.0-2.2,13591,List1B,black,man,,,,null,,,,
29294,,,survey-text,237,1857248,0.0-17.0-3.2,13591,List1B,black,man,,,,,"{""Q0"":""fred and luke are discussing""}","<img src=""stim_listB/play6.gif""style=""height:400px;""></stim_listB>",are playing with each other,
null,"<div style=""font-size:60px;"">+</div>",,html-keyboard-response,238,1857753,0.0-17.0-0.3,13591,List1B,black,man,,,,null,,,,
null,"<img src=""stim_listB/fight5.gif""style=""height:400px;""></stim_listB>",,html-keyboard-response,239,1859756,0.0-17.0-1.3,13591,List1B,black,man,,,,null,,,,
null,is fighting,,html-keyboard-response,240,1861761,0.0-17.0-2.3,13591,List1B,black,man,,,,null,,,,
20316,,,survey-text,241,1882079,0.0-17.0-3.3,13591,List1B,black,man,,,,,"{""Q0"":""dave and mike are training""}","<img src=""stim_listB/fight5.gif""style=""height:400px;""></stim_listB>",is fighting,
null,"<div style=""font-size:60px;"">+</div>",,html-keyboard-response,242,1882585,0.0-17.0-0.4,13591,List1B,black,man,,,,null,,,,
null,"<img src=""stim_listB/kiss4.gif""style=""height:400px;""></stim_listB>",,html-keyboard-response,243,1884589,0.0-17.0-1.4,13591,List1B,black,man,,,,null,,,,
null,are kissing each other,,html-keyboard-response,244,1886593,0.0-17.0-2.4,13591,List1B,black,man,,,,null,,,,
111804,,,survey-text,245,1998399,0.0-17.0-3.4,13591,List1B,black,man,,,,,"{""Q0"":""jane and dave are kissing""}","<img src=""stim_listB/kiss4.gif""style=""height:400px;""></stim_listB>",are kissing each other,
null,"<div style=""font-size:60px;"">+</div>",,html-keyboard-response,246,1998903,0.0-17.0-0.5,13591,List1B,black,man,,,,null,,,,
null,"<img src=""stim_listB/flirt3.gif""style=""height:400px;""></stim_listB>",,html-keyboard-response,247,2000907,0.0-17.0-1.5,13591,List1B,black,man,,,,null,,,,
null,is flirting with,,html-keyboard-response,248,2002912,0.0-17.0-2.5,13591,List1B,black,man,,,,null,,,,
26520,,,survey-text,249,2029433,0.0-17.0-3.5,13591,List1B,black,man,,,,,"{""Q0"":""jane and luke are holding hands""}","<img src=""stim_listB/flirt3.gif""style=""height:400px;""></stim_listB>",is flirting with,
null,"<div style=""font-size:60px;"">+</div>",,html-keyboard-response,250,2029936,0.0-17.0-0.6,13591,List1B,black,man,,,,null,,,,
null,"<img src=""stim_listB/marry5.gif""style=""height:400px;""></stim_listB>",,html-keyboard-response,251,2031941,0.0-17.0-1.6,13591,List1B,black,man,,,,null,,,,
null,is marrying,,html-keyboard-response,252,2033947,0.0-17.0-2.6,13591,List1B,black,man,,,,null,,,,
26508,,,survey-text,253,2060457,0.0-17.0-3.6,13591,List1B,black,man,,,,,"{""Q0"":""luke and fred are training""}","<img src=""stim_listB/marry5.gif""style=""height:400px;""></stim_listB>",is marrying,
null,"<div style=""font-size:60px;"">+</div>",,html-keyboard-response,254,2060960,0.0-17.0-0.7,13591,List1B,black,man,,,,null,,,,
null,"<img src=""stim_listB/fight1.gif""style=""height:400px;""></stim_listB>",,html-keyboard-response,255,2062964,0.0-17.0-1.7,13591,List1B,black,man,,,,null,,,,
null,is fighting,,html-keyboard-response,256,2064969,0.0-17.0-2.7,13591,List1B,black,man,,,,null,,,,
26204,,,survey-text,257,2091174,0.0-17.0-3.7,13591,List1B,black,man,,,,,"{""Q0"":""kate and mike are exercising""}","<img src=""stim_listB/fight1.gif""style=""height:400px;""></stim_listB>",is fighting,
null,"<div style=""font-size:60px;"">+</div>",,html-keyboard-response,258,2091678,0.0-17.0-0.8,13591,List1B,black,man,,,,null,,,,
null,"<img src=""stim_listB/touch6.gif""style=""height:400px;""></stim_listB>",,html-keyboard-response,259,2093682,0.0-17.0-1.8,13591,List1B,black,man,,,,null,,,,
null,are touching each other,,html-keyboard-response,260,2095687,0.0-17.0-2.8,13591,List1B,black,man,,,,null,,,,
37997,,,survey-text,261,2133685,0.0-17.0-3.8,13591,List1B,black,man,,,,,"{""Q0"":""fred and luke are training""}","<img src=""stim_listB/touch6.gif""style=""height:400px;""></stim_listB>",are touching each other,
null,"<div style=""font-size:60px;"">+</div>",,html-keyboard-response,262,2134189,0.0-17.0-0.9,13591,List1B,black,man,,,,null,,,,
null,"<img src=""stim_listB/dance3.gif""style=""height:400px;""></stim_listB>",,html-keyboard-response,263,2136193,0.0-17.0-1.9,13591,List1B,black,man,,,,null,,,,
null,is dancing with,,html-keyboard-response,264,2138195,0.0-17.0-2.9,13591,List1B,black,man,,,,null,,,,
14471,,,survey-text,265,2152668,0.0-17.0-3.9,13591,List1B,black,man,,,,,"{""Q0"":""jane and luke""}","<img src=""stim_listB/dance3.gif""style=""height:400px;""></stim_listB>",is dancing with,
null,"<div style=""font-size:60px;"">+</div>",,html-keyboard-response,266,2153170,0.0-17.0-0.10,13591,List1B,black,man,,,,null,,,,
null,"<img src=""stim_listB/flirt1.gif""style=""height:400px;""></stim_listB>",,html-keyboard-response,267,2155176,0.0-17.0-1.10,13591,List1B,black,man,,,,null,,,,
null,is flirting with,,html-keyboard-response,268,2157181,0.0-17.0-2.10,13591,List1B,black,man,,,,null,,,,
23385,,,survey-text,269,2180568,0.0-17.0-3.10,13591,List1B,black,man,,,,,"{""Q0"":""fred and kate""}","<img src=""stim_listB/flirt1.gif""style=""height:400px;""></stim_listB>",is flirting with,
null,"<div style=""font-size:60px;"">+</div>",,html-keyboard-response,270,2181072,0.0-17.0-0.11,13591,List1B,black,man,,,,null,,,,
null,"<img src=""stim_listB/fight4.gif""style=""height:400px;""></stim_listB>",,html-keyboard-response,271,2183077,0.0-17.0-1.11,13591,List1B,black,man,,,,null,,,,
null,are fighting each other,,html-keyboard-response,272,2185082,0.0-17.0-2.11,13591,List1B,black,man,,,,null,,,,
14215,,,survey-text,273,2199299,0.0-17.0-3.11,13591,List1B,black,man,,,,,"{""Q0"":""ruth and luke""}","<img src=""stim_listB/fight4.gif""style=""height:400px;""></stim_listB>",are fighting each other,
null,"<div style=""font-size:60px;"">+</div>",,html-keyboard-response,274,2199801,0.0-17.0-0.12,13591,List1B,black,man,,,,null,,,,
null,"<img src=""stim_listB/play7.gif""style=""height:400px;""></stim_listB>",,html-keyboard-response,275,2201807,0.0-17.0-1.12,13591,List1B,black,man,,,,null,,,,
null,is playing with,,html-keyboard-response,276,2203812,0.0-17.0-2.12,13591,List1B,black,man,,,,null,,,,
10181,,,survey-text,277,2213995,0.0-17.0-3.12,13591,List1B,black,man,,,,,"{""Q0"":""kate and jane""}","<img src=""stim_listB/play7.gif""style=""height:400px;""></stim_listB>",is playing with,
null,"<div style=""font-size:60px;"">+</div>",,html-keyboard-response,278,2214497,0.0-17.0-0.13,13591,List1B,black,man,,,,null,,,,
null,"<img src=""stim_listB/dance4.gif""style=""height:400px;""></stim_listB>",,html-keyboard-response,279,2216501,0.0-17.0-1.13,13591,List1B,black,man,,,,null,,,,
null,are dancing with each other,,html-keyboard-response,280,2218506,0.0-17.0-2.13,13591,List1B,black,man,,,,null,,,,
22598,,,survey-text,281,2241106,0.0-17.0-3.13,13591,List1B,black,man,,,,,"{""Q0"":""dave and luke""}","<img src=""stim_listB/dance4.gif""style=""height:400px;""></stim_listB>",are dancing with each other,
null,"<div style=""font-size:60px;"">+</div>",,html-keyboard-response,282,2241608,0.0-17.0-0.14,13591,List1B,black,man,,,,null,,,,
null,"<img src=""stim_listB/kiss2.gif""style=""height:400px;""></stim_listB>",,html-keyboard-response,283,2243613,0.0-17.0-1.14,13591,List1B,black,man,,,,null,,,,
null,are kissing each other,,html-keyboard-response,284,2245617,0.0-17.0-2.14,13591,List1B,black,man,,,,null,,,,
10944,,,survey-text,285,2256562,0.0-17.0-3.14,13591,List1B,black,man,,,,,"{""Q0"":""jane and mike""}","<img src=""stim_listB/kiss2.gif""style=""height:400px;""></stim_listB>",are kissing each other,
null,"<div style=""font-size:60px;"">+</div>",,html-keyboard-response,286,2257065,0.0-17.0-0.15,13591,List1B,black,man,,,,null,,,,
null,"<img src=""stim_listB/dance5.gif""style=""height:400px;""></stim_listB>",,html-keyboard-response,287,2259070,0.0-17.0-1.15,13591,List1B,black,man,,,,null,,,,
null,is dancing with,,html-keyboard-response,288,2261074,0.0-17.0-2.15,13591,List1B,black,man,,,,null,,,,
10972,,,survey-text,289,2272047,0.0-17.0-3.15,13591,List1B,black,man,,,,,"{""Q0"":""fred and dave""}","<img src=""stim_listB/dance5.gif""style=""height:400px;""></stim_listB>",is dancing with,
null,"<div style=""font-size:60px;"">+</div>",,html-keyboard-response,290,2272550,0.0-17.0-0.16,13591,List1B,black,man,,,,null,,,,
null,"<img src=""stim_listB/argue1.gif""style=""height:400px;""></stim_listB>",,html-keyboard-response,291,2274557,0.0-17.0-1.16,13591,List1B,black,man,,,,null,,,,
null,is arguing with,,html-keyboard-response,292,2276561,0.0-17.0-2.16,13591,List1B,black,man,,,,null,,,,
10703,,,survey-text,293,2287266,0.0-17.0-3.16,13591,List1B,black,man,,,,,"{""Q0"":""mike and beth""}","<img src=""stim_listB/argue1.gif""style=""height:400px;""></stim_listB>",is arguing with,
null,"<div style=""font-size:60px;"">+</div>",,html-keyboard-response,294,2287770,0.0-17.0-0.17,13591,List1B,black,man,,,,null,,,,
null,"<img src=""stim_listB/talk5.gif""style=""height:400px;""></stim_listB>",,html-keyboard-response,295,2289775,0.0-17.0-1.17,13591,List1B,black,man,,,,null,,,,
null,is talking to,,html-keyboard-response,296,2291779,0.0-17.0-2.17,13591,List1B,black,man,,,,null,,,,
12343,,,survey-text,297,2304123,0.0-17.0-3.17,13591,List1B,black,man,,,,,"{""Q0"":""fred and dave""}","<img src=""stim_listB/talk5.gif""style=""height:400px;""></stim_listB>",is talking to,
null,"<div style=""font-size:60px;"">+</div>",,html-keyboard-response,298,2304625,0.0-17.0-0.18,13591,List1B,black,man,,,,null,,,,
null,"<img src=""stim_listB/flirt7.gif""style=""height:400px;""></stim_listB>",,html-keyboard-response,299,2306630,0.0-17.0-1.18,13591,List1B,black,man,,,,null,,,,
null,is flirting with,,html-keyboard-response,300,2308633,0.0-17.0-2.18,13591,List1B,black,man,,,,null,,,,
13506,,,survey-text,301,2322141,0.0-17.0-3.18,13591,List1B,black,man,,,,,"{""Q0"":""kate and jane""}","<img src=""stim_listB/flirt7.gif""style=""height:400px;""></stim_listB>",is flirting with,
null,"<div style=""font-size:60px;"">+</div>",,html-keyboard-response,302,2322644,0.0-17.0-0.19,13591,List1B,black,man,,,,null,,,,
null,"<img src=""stim_listB/fight8.gif""style=""height:400px;""></stim_listB>",,html-keyboard-response,303,2324648,0.0-17.0-1.19,13591,List1B,black,man,,,,null,,,,
null,are fighting each other,,html-keyboard-response,304,2326653,0.0-17.0-2.19,13591,List1B,black,man,,,,null,,,,
16782,,,survey-text,305,2343437,0.0-17.0-3.19,13591,List1B,black,man,,,,,"{""Q0"":""kate and beth""}","<img src=""stim_listB/fight8.gif""style=""height:400px;""></stim_listB>",are fighting each other,
5123,"<img src='img/portrait_matrix_list1.jpg' style='width:900px;height:500px;''></img><p>If you have memorised all the portraits and names and are ready to start, press Continue.</p><p><strong>Please note: Your memory of these faces will be tested 4 times during this experiment.</strong></p>",0,html-button-response,306,2348562,0.0-18.0-0.0,13591,List1B,black,man,,,,,,,,
6506,"<img src=""portrait/BM1.jpg""style=""height:400px;""></img>",4,html-button-response,307,2356074,0.0-18.0-1.0,13591,List1B,black,man,,TRUE,4,,,,,
null,CORRECT,,html-keyboard-response,308,2357580,0.0-18.0-2.0-0.0,13591,List1B,black,man,,,,null,,,,
4493,"<img src=""portrait/WM1.jpg""style=""height:400px;""></img>",6,html-button-response,309,2362075,0.0-18.0-4.0,13591,List1B,black,man,,TRUE,6,,,,,
null,CORRECT,,html-keyboard-response,310,2363583,0.0-18.0-5.0-0.0,13591,List1B,black,man,,,,null,,,,
2555,"<img src=""portrait/BM2.jpg""style=""height:400px;""></img>",5,html-button-response,311,2366140,0.0-18.0-7.0,13591,List1B,black,man,,TRUE,5,,,,,
null,CORRECT,,html-keyboard-response,312,2367648,0.0-18.0-8.0-0.0,13591,List1B,black,man,,,,null,,,,
17278,"<img src=""portrait/WM2.jpg""style=""height:400px;""></img>",7,html-button-response,313,2384927,0.0-18.0-10.0,13591,List1B,black,man,,TRUE,7,,,,,
null,CORRECT,,html-keyboard-response,314,2386435,0.0-18.0-11.0-0.0,13591,List1B,black,man,,,,null,,,,
8280,"<img src=""portrait/BW2.jpg""style=""height:400px;""></img>",2,html-button-response,315,2394718,0.0-18.0-13.0,13591,List1B,black,man,,TRUE,2,,,,,
null,CORRECT,,html-keyboard-response,316,2396227,0.0-18.0-14.0-0.0,13591,List1B,black,man,,,,null,,,,
7645,"<img src=""portrait/BW1.jpg""style=""height:400px;""></img>",0,html-button-response,317,2403874,0.0-18.0-16.0,13591,List1B,black,man,,TRUE,0,,,,,
null,CORRECT,,html-keyboard-response,318,2405382,0.0-18.0-17.0-0.0,13591,List1B,black,man,,,,null,,,,
4771,"<img src=""portrait/WW1.jpg""style=""height:400px;""></img>",1,html-button-response,319,2410155,0.0-18.0-19.0,13591,List1B,black,man,,TRUE,1,,,,,
null,CORRECT,,html-keyboard-response,320,2411661,0.0-18.0-20.0-0.0,13591,List1B,black,man,,,,null,,,,
6623,"<img src=""portrait/WW2.jpg""style=""height:400px;""></img>",3,html-button-response,321,2418287,0.0-18.0-22.0,13591,List1B,black,man,,TRUE,3,,,,,
null,CORRECT,,html-keyboard-response,322,2419795,0.0-18.0-23.0-0.0,13591,List1B,black,man,,,,null,,,,
2685,<p>You got 8 out of 8 right first time. Press Continue.</p>,0,html-button-response,323,2422483,0.0-18.0-25.0,13591,List1B,black,man,,,,,,,,
null,"<div style=""font-size:60px;"">+</div>",,html-keyboard-response,324,2423991,0.0-19.0-0.0,13591,List1B,black,man,,,,null,,,,
null,"<img src=""stim_listB/play5.gif""style=""height:400px;""></stim_listB>",,html-keyboard-response,325,2425996,0.0-19.0-1.0,13591,List1B,black,man,,,,null,,,,
null,is playing with,,html-keyboard-response,326,2428000,0.0-19.0-2.0,13591,List1B,black,man,,,,null,,,,
26577,,,survey-text,327,2454580,0.0-19.0-3.0,13591,List1B,black,man,,,,,"{""Q0"":""fred and mike""}","<img src=""stim_listB/play5.gif""style=""height:400px;""></stim_listB>",is playing with,
null,"<div style=""font-size:60px;"">+</div>",,html-keyboard-response,328,2455084,0.0-19.0-0.1,13591,List1B,black,man,,,,null,,,,
null,"<img src=""stim_listB/talk3.gif""style=""height:400px;""></stim_listB>",,html-keyboard-response,329,2457088,0.0-19.0-1.1,13591,List1B,black,man,,,,null,,,,
null,is talking to,,html-keyboard-response,330,2459092,0.0-19.0-2.1,13591,List1B,black,man,,,,null,,,,
13650,,,survey-text,331,2472743,0.0-19.0-3.1,13591,List1B,black,man,,,,,"{""Q0"":""jane and luke""}","<img src=""stim_listB/talk3.gif""style=""height:400px;""></stim_listB>",is talking to,
null,"<div style=""font-size:60px;"">+</div>",,html-keyboard-response,332,2473246,0.0-19.0-0.2,13591,List1B,black,man,,,,null,,,,
null,"<img src=""stim_listB/argue7.gif""style=""height:400px;""></stim_listB>",,html-keyboard-response,333,2475251,0.0-19.0-1.2,13591,List1B,black,man,,,,null,,,,
null,is arguing with,,html-keyboard-response,334,2477255,0.0-19.0-2.2,13591,List1B,black,man,,,,null,,,,
10425,,,survey-text,335,2487682,0.0-19.0-3.2,13591,List1B,black,man,,,,,"{""Q0"":""ruth and kate""}","<img src=""stim_listB/argue7.gif""style=""height:400px;""></stim_listB>",is arguing with,
null,"<div style=""font-size:60px;"">+</div>",,html-keyboard-response,336,2488184,0.0-19.0-0.3,13591,List1B,black,man,,,,null,,,,
null,"<img src=""stim_listB/play4.gif""style=""height:400px;""></stim_listB>",,html-keyboard-response,337,2490188,0.0-19.0-1.3,13591,List1B,black,man,,,,null,,,,
null,are playing with each other,,html-keyboard-response,338,2492190,0.0-19.0-2.3,13591,List1B,black,man,,,,null,,,,
13585,,,survey-text,339,2505776,0.0-19.0-3.3,13591,List1B,black,man,,,,,"{""Q0"":""luke and ruth""}","<img src=""stim_listB/play4.gif""style=""height:400px;""></stim_listB>",are playing with each other,
null,"<div style=""font-size:60px;"">+</div>",,html-keyboard-response,340,2506278,0.0-19.0-0.4,13591,List1B,black,man,,,,null,,,,
null,"<img src=""stim_listB/dance6.gif""style=""height:400px;""></stim_listB>",,html-keyboard-response,341,2508284,0.0-19.0-1.4,13591,List1B,black,man,,,,null,,,,
null,are dancing with each other,,html-keyboard-response,342,2510288,0.0-19.0-2.4,13591,List1B,black,man,,,,null,,,,
10299,,,survey-text,343,2520589,0.0-19.0-3.4,13591,List1B,black,man,,,,,"{""Q0"":""luke and mike""}","<img src=""stim_listB/dance6.gif""style=""height:400px;""></stim_listB>",are dancing with each other,
null,"<div style=""font-size:60px;"">+</div>",,html-keyboard-response,344,2521093,0.0-19.0-0.5,13591,List1B,black,man,,,,null,,,,
null,"<img src=""stim_listB/marry8.gif""style=""height:400px;""></stim_listB>",,html-keyboard-response,345,2523098,0.0-19.0-1.5,13591,List1B,black,man,,,,null,,,,
null,are marrying each other,,html-keyboard-response,346,2525102,0.0-19.0-2.5,13591,List1B,black,man,,,,null,,,,
11028,,,survey-text,347,2536132,0.0-19.0-3.5,13591,List1B,black,man,,,,,"{""Q0"":""beth and jane""}","<img src=""stim_listB/marry8.gif""style=""height:400px;""></stim_listB>",are marrying each other,
null,"<div style=""font-size:60px;"">+</div>",,html-keyboard-response,348,2536634,0.0-19.0-0.6,13591,List1B,black,man,,,,null,,,,
null,"<img src=""stim_listB/talk4.gif""style=""height:400px;""></stim_listB>",,html-keyboard-response,349,2538640,0.0-19.0-1.6,13591,List1B,black,man,,,,null,,,,
null,are talking to each other,,html-keyboard-response,350,2540645,0.0-19.0-2.6,13591,List1B,black,man,,,,null,,,,
65346,,,survey-text,351,2605992,0.0-19.0-3.6,13591,List1B,black,man,,,,,"{""Q0"":""dave and ruth""}","<img src=""stim_listB/talk4.gif""style=""height:400px;""></stim_listB>",are talking to each other,
null,"<div style=""font-size:60px;"">+</div>",,html-keyboard-response,352,2606499,0.0-19.0-0.7,13591,List1B,black,man,,,,null,,,,
null,"<img src=""stim_listB/flirt8.gif""style=""height:400px;""></stim_listB>",,html-keyboard-response,353,2608503,0.0-19.0-1.7,13591,List1B,black,man,,,,null,,,,
null,are flirting with each other,,html-keyboard-response,354,2610507,0.0-19.0-2.7,13591,List1B,black,man,,,,null,,,,
16410,,,survey-text,355,2626919,0.0-19.0-3.7,13591,List1B,black,man,,,,,"{""Q0"":""ruth and jane""}","<img src=""stim_listB/flirt8.gif""style=""height:400px;""></stim_listB>",are flirting with each other,
null,"<div style=""font-size:60px;"">+</div>",,html-keyboard-response,356,2627424,0.0-19.0-0.8,13591,List1B,black,man,,,,null,,,,
null,"<img src=""stim_listB/touch4.gif""style=""height:400px;""></stim_listB>",,html-keyboard-response,357,2629429,0.0-19.0-1.8,13591,List1B,black,man,,,,null,,,,
null,are touching each other,,html-keyboard-response,358,2631434,0.0-19.0-2.8,13591,List1B,black,man,,,,null,,,,
9889,,,survey-text,359,2641324,0.0-19.0-3.8,13591,List1B,black,man,,,,,"{""Q0"":""luke and ruth""}","<img src=""stim_listB/touch4.gif""style=""height:400px;""></stim_listB>",are touching each other,
null,"<div style=""font-size:60px;"">+</div>",,html-keyboard-response,360,2641827,0.0-19.0-0.9,13591,List1B,black,man,,,,null,,,,
null,"<img src=""stim_listB/shout2.gif""style=""height:400px;""></stim_listB>",,html-keyboard-response,361,2643832,0.0-19.0-1.9,13591,List1B,black,man,,,,null,,,,
null,are shouting at each other,,html-keyboard-response,362,2645836,0.0-19.0-2.9,13591,List1B,black,man,,,,null,,,,
9594,,,survey-text,363,2655433,0.0-19.0-3.9,13591,List1B,black,man,,,,,"{""Q0"":""kate and mike""}","<img src=""stim_listB/shout2.gif""style=""height:400px;""></stim_listB>",are shouting at each other,
null,"<div style=""font-size:60px;"">+</div>",,html-keyboard-response,364,2655934,0.0-19.0-0.10,13591,List1B,black,man,,,,null,,,,
null,"<img src=""stim_listB/shout1.gif""style=""height:400px;""></stim_listB>",,html-keyboard-response,365,2657938,0.0-19.0-1.10,13591,List1B,black,man,,,,null,,,,
null,is shouting at,,html-keyboard-response,366,2659941,0.0-19.0-2.10,13591,List1B,black,man,,,,null,,,,
9896,,,survey-text,367,2669839,0.0-19.0-3.10,13591,List1B,black,man,,,,,"{""Q0"":""fred and beth""}","<img src=""stim_listB/shout1.gif""style=""height:400px;""></stim_listB>",is shouting at,
null,"<div style=""font-size:60px;"">+</div>",,html-keyboard-response,368,2670342,0.0-19.0-0.11,13591,List1B,black,man,,,,null,,,,
null,"<img src=""stim_listB/kiss8.gif""style=""height:400px;""></stim_listB>",,html-keyboard-response,369,2672348,0.0-19.0-1.11,13591,List1B,black,man,,,,null,,,,
null,are kissing each other,,html-keyboard-response,370,2674362,0.0-19.0-2.11,13591,List1B,black,man,,,,null,,,,
11199,,,survey-text,371,2685563,0.0-19.0-3.11,13591,List1B,black,man,,,,,"{""Q0"":""kate and jane""}","<img src=""stim_listB/kiss8.gif""style=""height:400px;""></stim_listB>",are kissing each other,
null,"<div style=""font-size:60px;"">+</div>",,html-keyboard-response,372,2686065,0.0-19.0-0.12,13591,List1B,black,man,,,,null,,,,
null,"<img src=""stim_listB/kiss6.gif""style=""height:400px;""></stim_listB>",,html-keyboard-response,373,2688071,0.0-19.0-1.12,13591,List1B,black,man,,,,null,,,,
null,are kissing each other,,html-keyboard-response,374,2690075,0.0-19.0-2.12,13591,List1B,black,man,,,,null,,,,
11448,,,survey-text,375,2701524,0.0-19.0-3.12,13591,List1B,black,man,,,,,"{""Q0"":""fred and dave""}","<img src=""stim_listB/kiss6.gif""style=""height:400px;""></stim_listB>",are kissing each other,
null,"<div style=""font-size:60px;"">+</div>",,html-keyboard-response,376,2702027,0.0-19.0-0.13,13591,List1B,black,man,,,,null,,,,
null,"<img src=""stim_listB/argue8.gif""style=""height:400px;""></stim_listB>",,html-keyboard-response,377,2704033,0.0-19.0-1.13,13591,List1B,black,man,,,,null,,,,
null,are arguing with each other,,html-keyboard-response,378,2706037,0.0-19.0-2.13,13591,List1B,black,man,,,,null,,,,
12425,,,survey-text,379,2718464,0.0-19.0-3.13,13591,List1B,black,man,,,,,"{""Q0"":""jane and beth""}","<img src=""stim_listB/argue8.gif""style=""height:400px;""></stim_listB>",are arguing with each other,
null,"<div style=""font-size:60px;"">+</div>",,html-keyboard-response,380,2718967,0.0-19.0-0.14,13591,List1B,black,man,,,,null,,,,
null,"<img src=""stim_listB/kiss3.gif""style=""height:400px;""></stim_listB>",,html-keyboard-response,381,2720971,0.0-19.0-1.14,13591,List1B,black,man,,,,null,,,,
null,is kissing,,html-keyboard-response,382,2722976,0.0-19.0-2.14,13591,List1B,black,man,,,,null,,,,
8964,,,survey-text,383,2731943,0.0-19.0-3.14,13591,List1B,black,man,,,,,"{""Q0"":""ruth and luke""}","<img src=""stim_listB/kiss3.gif""style=""height:400px;""></stim_listB>",is kissing,
null,"<div style=""font-size:60px;"">+</div>",,html-keyboard-response,384,2732446,0.0-19.0-0.15,13591,List1B,black,man,,,,null,,,,
null,"<img src=""stim_listB/talk6.gif""style=""height:400px;""></stim_listB>",,html-keyboard-response,385,2734454,0.0-19.0-1.15,13591,List1B,black,man,,,,null,,,,
null,are talking to each other,,html-keyboard-response,386,2736458,0.0-19.0-2.15,13591,List1B,black,man,,,,null,,,,
9400,,,survey-text,387,2745861,0.0-19.0-3.15,13591,List1B,black,man,,,,,"{""Q0"":""luke and mike""}","<img src=""stim_listB/talk6.gif""style=""height:400px;""></stim_listB>",are talking to each other,
null,"<div style=""font-size:60px;"">+</div>",,html-keyboard-response,388,2746363,0.0-19.0-0.16,13591,List1B,black,man,,,,null,,,,
null,"<img src=""stim_listB/marry6.gif""style=""height:400px;""></stim_listB>",,html-keyboard-response,389,2748368,0.0-19.0-1.16,13591,List1B,black,man,,,,null,,,,
null,are marrying each other,,html-keyboard-response,390,2750372,0.0-19.0-2.16,13591,List1B,black,man,,,,null,,,,
11202,,,survey-text,391,2761576,0.0-19.0-3.16,13591,List1B,black,man,,,,,"{""Q0"":""fred and dave""}","<img src=""stim_listB/marry6.gif""style=""height:400px;""></stim_listB>",are marrying each other,
null,"<div style=""font-size:60px;"">+</div>",,html-keyboard-response,392,2762081,0.0-19.0-0.17,13591,List1B,black,man,,,,null,,,,
null,"<img src=""stim_listB/touch5.gif""style=""height:400px;""></stim_listB>",,html-keyboard-response,393,2764085,0.0-19.0-1.17,13591,List1B,black,man,,,,null,,,,
null,is touching,,html-keyboard-response,394,2766090,0.0-19.0-2.17,13591,List1B,black,man,,,,null,,,,
10843,,,survey-text,395,2776935,0.0-19.0-3.17,13591,List1B,black,man,,,,,"{""Q0"":""fred and mike""}","<img src=""stim_listB/touch5.gif""style=""height:400px;""></stim_listB>",is touching,
null,"<div style=""font-size:60px;"">+</div>",,html-keyboard-response,396,2777440,0.0-19.0-0.18,13591,List1B,black,man,,,,null,,,,
null,"<img src=""stim_listB/talk2.gif""style=""height:400px;""></stim_listB>",,html-keyboard-response,397,2779443,0.0-19.0-1.18,13591,List1B,black,man,,,,null,,,,
null,are talking to each other,,html-keyboard-response,398,2781447,0.0-19.0-2.18,13591,List1B,black,man,,,,null,,,,
16769,,,survey-text,399,2798218,0.0-19.0-3.18,13591,List1B,black,man,,,,,"{""Q0"":""mike and beth""}","<img src=""stim_listB/talk2.gif""style=""height:400px;""></stim_listB>",are talking to each other,
null,"<div style=""font-size:60px;"">+</div>",,html-keyboard-response,400,2798720,0.0-19.0-0.19,13591,List1B,black,man,,,,null,,,,
null,"<img src=""stim_listB/fight3.gif""style=""height:400px;""></stim_listB>",,html-keyboard-response,401,2800725,0.0-19.0-1.19,13591,List1B,black,man,,,,null,,,,
null,is fighting,,html-keyboard-response,402,2802729,0.0-19.0-2.19,13591,List1B,black,man,,,,null,,,,
13602,,,survey-text,403,2816334,0.0-19.0-3.19,13591,List1B,black,man,,,,,"{""Q0"":""jane and dave""}","<img src=""stim_listB/fight3.gif""style=""height:400px;""></stim_listB>",is fighting,
3784,<p>Thank you for completing that task.</p><p>The final part of this session is a short questionnaire.</p><p>Press Continue.</p>,0,html-button-response,404,2820119,0.0-20.0,13591,List1B,black,man,,,,,,,,
59913,,,survey-text,405,2881040,0.0-21.0,13591,List1B,black,man,,,,,"{""Q0"":""33"",""Q1"":""English"",""Q2"":""English"",""Q3"":""United Kingdom"",""Q4"":""black"",""Q5"":""Male""}",,,demographics
14273,,,survey-likert,406,2895317,0.0-22.0,13591,List1B,black,man,,,,,"{""Q0"":2}",,,likert_ESS
14283,,,survey-likert,407,2909618,0.0-23.0,13591,List1B,black,man,,,,,"{""Q0"":5}",,,likert_NSSAL_Q1
4929,,,survey-likert,408,2914565,0.0-24.0,13591,List1B,black,man,,,,,"{""Q0"":5}",,,likert_NSSAL_Q2
6884,,,survey-likert,409,2921467,0.0-25.0,13591,List1B,black,man,,,,,"{""Q0"":5}",,,likert_CGRS_Q1
4923,,,survey-likert,410,2926407,0.0-26.0,13591,List1B,black,man,,,,,"{""Q0"":5}",,,likert_CGRS_Q2
3618,,,survey-likert,411,2930042,0.0-27.0,13591,List1B,black,man,,,,,"{""Q0"":5}",,,likert_CGRS_Q3
7052,,,survey-text,412,2937110,0.0-28.0,13591,List1B,black,man,,,,,"{""Q0"":""ccc""}",,,worker_id
21946,,,external-html,413,2959216,0.0-29.0,13591,List1B,black,man,debrief.html,,,,,,,
