rt,stimulus,button_pressed,trial_type,trial_index,time_elapsed,internal_node_id,subject,list,ppt_race,ppt_gender,url,first_guess,correct,key_press,responses,image_type,phrase_type,test_part
20310,Welcome to the experiment. Press Continue to begin.,0,html-button-response,0,20314,0.0-0.0,14039,List1B,white,woman,,,,,,,,
30877,,,external-html,1,52259,0.0-1.0,14039,List1B,white,woman,consent.html,,,,,,,
10803,"<p>On the next page, you will see portraits of 8 people and their names.</p><p>Your first task is to take a few minutes to memorise the names of these people.</p><p>You will have to recall their names during the rest of the experiment, so it is</p><p>essential that you try to memorise these people and their names as best as you can.</p><br><p><strong>You will then be tested on your memory of these names and portraits.</strong></p><br><p>The experiment will start after you have completed this memory test.</p><br><p>Ready?</p>",0,html-button-response,2,63065,0.0-2.0,14039,List1B,white,woman,,,,,,,,
75011,"<img src='img/portrait_matrix_list1.jpg' style='width:900px;height:500px;''></img><p>If you have memorised all the portraits and names and are ready to start, press Continue.</p><p><strong>Please note: Your memory of these faces will be tested 4 times during this experiment.</strong></p>",0,html-button-response,3,139079,0.0-3.0-0.0,14039,List1B,white,woman,,,,,,,,
3971,"<img src=""portrait/BM2.jpg""style=""height:400px;""></img>",5,html-button-response,4,144055,0.0-3.0-1.0,14039,List1B,white,woman,,TRUE,5,,,,,
null,CORRECT,,html-keyboard-response,5,145560,0.0-3.0-2.0-0.0,14039,List1B,white,woman,,,,null,,,,
4551,"<img src=""portrait/WM1.jpg""style=""height:400px;""></img>",6,html-button-response,6,150114,0.0-3.0-4.0,14039,List1B,white,woman,,TRUE,6,,,,,
null,CORRECT,,html-keyboard-response,7,151618,0.0-3.0-5.0-0.0,14039,List1B,white,woman,,,,null,,,,
5039,"<img src=""portrait/BW2.jpg""style=""height:400px;""></img>",2,html-button-response,8,156660,0.0-3.0-7.0,14039,List1B,white,woman,,TRUE,2,,,,,
null,CORRECT,,html-keyboard-response,9,158165,0.0-3.0-8.0-0.0,14039,List1B,white,woman,,,,null,,,,
5058,"<img src=""portrait/BW1.jpg""style=""height:400px;""></img>",0,html-button-response,10,163225,0.0-3.0-10.0,14039,List1B,white,woman,,TRUE,0,,,,,
null,CORRECT,,html-keyboard-response,11,164729,0.0-3.0-11.0-0.0,14039,List1B,white,woman,,,,null,,,,
4882,"<img src=""portrait/WW1.jpg""style=""height:400px;""></img>",1,html-button-response,12,169614,0.0-3.0-13.0,14039,List1B,white,woman,,TRUE,1,,,,,
null,CORRECT,,html-keyboard-response,13,171118,0.0-3.0-14.0-0.0,14039,List1B,white,woman,,,,null,,,,
1580,"<img src=""portrait/WW2.jpg""style=""height:400px;""></img>",3,html-button-response,14,172700,0.0-3.0-16.0,14039,List1B,white,woman,,TRUE,3,,,,,
null,CORRECT,,html-keyboard-response,15,174205,0.0-3.0-17.0-0.0,14039,List1B,white,woman,,,,null,,,,
2477,"<img src=""portrait/WM2.jpg""style=""height:400px;""></img>",7,html-button-response,16,176684,0.0-3.0-19.0,14039,List1B,white,woman,,TRUE,7,,,,,
null,CORRECT,,html-keyboard-response,17,178188,0.0-3.0-20.0-0.0,14039,List1B,white,woman,,,,null,,,,
1935,"<img src=""portrait/BM1.jpg""style=""height:400px;""></img>",4,html-button-response,18,180125,0.0-3.0-22.0,14039,List1B,white,woman,,TRUE,4,,,,,
null,CORRECT,,html-keyboard-response,19,181630,0.0-3.0-23.0-0.0,14039,List1B,white,woman,,,,null,,,,
1882,<p>You got 8 out of 8 right first time. Press Continue.</p>,0,html-button-response,20,183514,0.0-3.0-25.0,14039,List1B,white,woman,,,,,,,,
29092,"<p>In this experiment, you will view photographs of the people from the memory game interacting.</p><p>By using the <strong>exact</strong> phrase given <i>after</i> the photograph appears and recalling the correct names of the people in the photographs, form a sentence describing the interaction. You do not need to capitalise names.</p><p>Type your answer in the space provided. Please complete every sentence before moving onto the next trial.</p><p>You will only have a few seconds to memorise each given photograph and phrase before you can respond, so try your best to focus.</p><p>An example is given below. Press 'Continue' when you are ready.</p><img src='img/speaking_example.jpg' style='width:800px;height:460px;''></img>",0,html-button-response,21,213611,0.0-4.0,14039,List1B,white,woman,,,,,,,,
2398,"<p>Before the experiment starts, you will watch two example trials. Press 'Continue'.</p>",0,html-button-response,22,217011,0.0-5.0,14039,List1B,white,woman,,,,,,,,
null,<img src='img/meet_eg.gif' style='height:400px;''></img>,,html-keyboard-response,23,220016,0.0-6.0,14039,List1B,white,woman,,,,null,,,,
null,<p>is meeting</p>,,html-keyboard-response,24,222019,0.0-7.0,14039,List1B,white,woman,,,,null,,,,
4378,<p><b>Answer:</b> kate is meeting beth</p>,0,html-button-response,25,226399,0.0-8.0,14039,List1B,white,woman,,,,,,,,
null,<img src='img/look_eg.gif' style='height:400px;''></img>,,html-keyboard-response,26,229404,0.0-9.0,14039,List1B,white,woman,,,,null,,,,
null,<p>are looking at each other</p>,,html-keyboard-response,27,231407,0.0-10.0,14039,List1B,white,woman,,,,null,,,,
2129,<p><b>Answer:</b> luke and dave are looking at each other</p>,0,html-button-response,28,233536,0.0-11.0,14039,List1B,white,woman,,,,,,,,
3940,"<p>Ready to start the experiment?</p><br><p><strong>Remember to describe the picture using a full sentence,</strong></p><p><strong>that combines the names of the people with the <i>exact</i> phrase given.</strong></p><p><strong>To receive full payment you must do this correctly.</strong></p><p><strong> You do not need to capitalise names or use punctuation.</strong></p><br><p>Press 'Continue' to begin.</p>",0,html-button-response,29,238479,0.0-12.0,14039,List1B,white,woman,,,,,,,,
null,"<div style=""font-size:60px;"">+</div>",,html-keyboard-response,30,239983,0.0-13.0-0.0,14039,List1B,white,woman,,,,null,,,,
null,"<img src=""stim_listB/dance3.gif""style=""height:400px;""></stim_listB>",,html-keyboard-response,31,241987,0.0-13.0-1.0,14039,List1B,white,woman,,,,null,,,,
null,is dancing with,,html-keyboard-response,32,243990,0.0-13.0-2.0,14039,List1B,white,woman,,,,null,,,,
8197,,,survey-text,33,252190,0.0-13.0-3.0,14039,List1B,white,woman,,,,,"{""Q0"":""Luke is dancing with Jane""}","<img src=""stim_listB/dance3.gif""style=""height:400px;""></stim_listB>",is dancing with,
null,"<div style=""font-size:60px;"">+</div>",,html-keyboard-response,34,252694,0.0-13.0-0.1,14039,List1B,white,woman,,,,null,,,,
null,"<img src=""stim_listB/kiss2.gif""style=""height:400px;""></stim_listB>",,html-keyboard-response,35,254697,0.0-13.0-1.1,14039,List1B,white,woman,,,,null,,,,
null,are kissing each other,,html-keyboard-response,36,256700,0.0-13.0-2.1,14039,List1B,white,woman,,,,null,,,,
11067,,,survey-text,37,267768,0.0-13.0-3.1,14039,List1B,white,woman,,,,,"{""Q0"":""Mike is kissing Kate""}","<img src=""stim_listB/kiss2.gif""style=""height:400px;""></stim_listB>",are kissing each other,
null,"<div style=""font-size:60px;"">+</div>",,html-keyboard-response,38,268271,0.0-13.0-0.2,14039,List1B,white,woman,,,,null,,,,
null,"<img src=""stim_listB/kiss4.gif""style=""height:400px;""></stim_listB>",,html-keyboard-response,39,270275,0.0-13.0-1.2,14039,List1B,white,woman,,,,null,,,,
null,are kissing each other,,html-keyboard-response,40,272278,0.0-13.0-2.2,14039,List1B,white,woman,,,,null,,,,
9160,,,survey-text,41,281439,0.0-13.0-3.2,14039,List1B,white,woman,,,,,"{""Q0"":""Dave and Jane are kissing each other""}","<img src=""stim_listB/kiss4.gif""style=""height:400px;""></stim_listB>",are kissing each other,
null,"<div style=""font-size:60px;"">+</div>",,html-keyboard-response,42,281942,0.0-13.0-0.3,14039,List1B,white,woman,,,,null,,,,
null,"<img src=""stim_listB/flirt1.gif""style=""height:400px;""></stim_listB>",,html-keyboard-response,43,283947,0.0-13.0-1.3,14039,List1B,white,woman,,,,null,,,,
null,is flirting with,,html-keyboard-response,44,285951,0.0-13.0-2.3,14039,List1B,white,woman,,,,null,,,,
9000,,,survey-text,45,294952,0.0-13.0-3.3,14039,List1B,white,woman,,,,,"{""Q0"":""Fred is flirting with Kate""}","<img src=""stim_listB/flirt1.gif""style=""height:400px;""></stim_listB>",is flirting with,
null,"<div style=""font-size:60px;"">+</div>",,html-keyboard-response,46,295455,0.0-13.0-0.4,14039,List1B,white,woman,,,,null,,,,
null,"<img src=""stim_listB/talk8.gif""style=""height:400px;""></stim_listB>",,html-keyboard-response,47,297459,0.0-13.0-1.4,14039,List1B,white,woman,,,,null,,,,
null,are talking to each other,,html-keyboard-response,48,299462,0.0-13.0-2.4,14039,List1B,white,woman,,,,null,,,,
14374,,,survey-text,49,313838,0.0-13.0-3.4,14039,List1B,white,woman,,,,,"{""Q0"":""Ruth and Kate are talking to each other""}","<img src=""stim_listB/talk8.gif""style=""height:400px;""></stim_listB>",are talking to each other,
null,"<div style=""font-size:60px;"">+</div>",,html-keyboard-response,50,314341,0.0-13.0-0.5,14039,List1B,white,woman,,,,null,,,,
null,"<img src=""stim_listB/flirt7.gif""style=""height:400px;""></stim_listB>",,html-keyboard-response,51,316345,0.0-13.0-1.5,14039,List1B,white,woman,,,,null,,,,
null,is flirting with,,html-keyboard-response,52,318348,0.0-13.0-2.5,14039,List1B,white,woman,,,,null,,,,
8352,,,survey-text,53,326702,0.0-13.0-3.5,14039,List1B,white,woman,,,,,"{""Q0"":""Jane is flirting with Beth""}","<img src=""stim_listB/flirt7.gif""style=""height:400px;""></stim_listB>",is flirting with,
null,"<div style=""font-size:60px;"">+</div>",,html-keyboard-response,54,327205,0.0-13.0-0.6,14039,List1B,white,woman,,,,null,,,,
null,"<img src=""stim_listB/flirt4.gif""style=""height:400px;""></stim_listB>",,html-keyboard-response,55,329208,0.0-13.0-1.6,14039,List1B,white,woman,,,,null,,,,
null,are flirting with each other,,html-keyboard-response,56,331211,0.0-13.0-2.6,14039,List1B,white,woman,,,,null,,,,
13851,,,survey-text,57,345063,0.0-13.0-3.6,14039,List1B,white,woman,,,,,"{""Q0"":""Dave and Ruth are flirting with each other""}","<img src=""stim_listB/flirt4.gif""style=""height:400px;""></stim_listB>",are flirting with each other,
null,"<div style=""font-size:60px;"">+</div>",,html-keyboard-response,58,345567,0.0-13.0-0.7,14039,List1B,white,woman,,,,null,,,,
null,"<img src=""stim_listB/shout7.gif""style=""height:400px;""></stim_listB>",,html-keyboard-response,59,347570,0.0-13.0-1.7,14039,List1B,white,woman,,,,null,,,,
null,is shouting at,,html-keyboard-response,60,349573,0.0-13.0-2.7,14039,List1B,white,woman,,,,null,,,,
10289,,,survey-text,61,359863,0.0-13.0-3.7,14039,List1B,white,woman,,,,,"{""Q0"":""Beth and Ruth are yelling at each other""}","<img src=""stim_listB/shout7.gif""style=""height:400px;""></stim_listB>",is shouting at,
null,"<div style=""font-size:60px;"">+</div>",,html-keyboard-response,62,360366,0.0-13.0-0.8,14039,List1B,white,woman,,,,null,,,,
null,"<img src=""stim_listB/kiss6.gif""style=""height:400px;""></stim_listB>",,html-keyboard-response,63,362370,0.0-13.0-1.8,14039,List1B,white,woman,,,,null,,,,
null,are kissing each other,,html-keyboard-response,64,364373,0.0-13.0-2.8,14039,List1B,white,woman,,,,null,,,,
14224,,,survey-text,65,378600,0.0-13.0-3.8,14039,List1B,white,woman,,,,,"{""Q0"":""mike and Dave are flirting with each other""}","<img src=""stim_listB/kiss6.gif""style=""height:400px;""></stim_listB>",are kissing each other,
null,"<div style=""font-size:60px;"">+</div>",,html-keyboard-response,66,379103,0.0-13.0-0.9,14039,List1B,white,woman,,,,null,,,,
null,"<img src=""stim_listB/shout1.gif""style=""height:400px;""></stim_listB>",,html-keyboard-response,67,381106,0.0-13.0-1.9,14039,List1B,white,woman,,,,null,,,,
null,is shouting at,,html-keyboard-response,68,383109,0.0-13.0-2.9,14039,List1B,white,woman,,,,null,,,,
13033,,,survey-text,69,396143,0.0-13.0-3.9,14039,List1B,white,woman,,,,,"{""Q0"":""Fred is yelling at Beth""}","<img src=""stim_listB/shout1.gif""style=""height:400px;""></stim_listB>",is shouting at,
null,"<div style=""font-size:60px;"">+</div>",,html-keyboard-response,70,396646,0.0-13.0-0.10,14039,List1B,white,woman,,,,null,,,,
null,"<img src=""stim_listB/play8.gif""style=""height:400px;""></stim_listB>",,html-keyboard-response,71,398650,0.0-13.0-1.10,14039,List1B,white,woman,,,,null,,,,
null,are playing with each other,,html-keyboard-response,72,400653,0.0-13.0-2.10,14039,List1B,white,woman,,,,null,,,,
9045,,,survey-text,73,409699,0.0-13.0-3.10,14039,List1B,white,woman,,,,,"{""Q0"":""Beth and Jane are playing with each other""}","<img src=""stim_listB/play8.gif""style=""height:400px;""></stim_listB>",are playing with each other,
null,"<div style=""font-size:60px;"">+</div>",,html-keyboard-response,74,410202,0.0-13.0-0.11,14039,List1B,white,woman,,,,null,,,,
null,"<img src=""stim_listB/fight1.gif""style=""height:400px;""></stim_listB>",,html-keyboard-response,75,412205,0.0-13.0-1.11,14039,List1B,white,woman,,,,null,,,,
null,is fighting,,html-keyboard-response,76,414209,0.0-13.0-2.11,14039,List1B,white,woman,,,,null,,,,
4480,,,survey-text,77,418690,0.0-13.0-3.11,14039,List1B,white,woman,,,,,"{""Q0"":""Kate is fighting Mike""}","<img src=""stim_listB/fight1.gif""style=""height:400px;""></stim_listB>",is fighting,
null,"<div style=""font-size:60px;"">+</div>",,html-keyboard-response,78,419193,0.0-13.0-0.12,14039,List1B,white,woman,,,,null,,,,
null,"<img src=""stim_listB/talk2.gif""style=""height:400px;""></stim_listB>",,html-keyboard-response,79,421196,0.0-13.0-1.12,14039,List1B,white,woman,,,,null,,,,
null,are talking to each other,,html-keyboard-response,80,423200,0.0-13.0-2.12,14039,List1B,white,woman,,,,null,,,,
8148,,,survey-text,81,431349,0.0-13.0-3.12,14039,List1B,white,woman,,,,,"{""Q0"":""Beth and mike are talking to each other""}","<img src=""stim_listB/talk2.gif""style=""height:400px;""></stim_listB>",are talking to each other,
null,"<div style=""font-size:60px;"">+</div>",,html-keyboard-response,82,431852,0.0-13.0-0.13,14039,List1B,white,woman,,,,null,,,,
null,"<img src=""stim_listB/fight5.gif""style=""height:400px;""></stim_listB>",,html-keyboard-response,83,433856,0.0-13.0-1.13,14039,List1B,white,woman,,,,null,,,,
null,is fighting,,html-keyboard-response,84,435859,0.0-13.0-2.13,14039,List1B,white,woman,,,,null,,,,
7412,,,survey-text,85,443273,0.0-13.0-3.13,14039,List1B,white,woman,,,,,"{""Q0"":""Dave is fighting mike""}","<img src=""stim_listB/fight5.gif""style=""height:400px;""></stim_listB>",is fighting,
null,"<div style=""font-size:60px;"">+</div>",,html-keyboard-response,86,443776,0.0-13.0-0.14,14039,List1B,white,woman,,,,null,,,,
null,"<img src=""stim_listB/fight8.gif""style=""height:400px;""></stim_listB>",,html-keyboard-response,87,445779,0.0-13.0-1.14,14039,List1B,white,woman,,,,null,,,,
null,are fighting each other,,html-keyboard-response,88,447783,0.0-13.0-2.14,14039,List1B,white,woman,,,,null,,,,
10802,,,survey-text,89,458586,0.0-13.0-3.14,14039,List1B,white,woman,,,,,"{""Q0"":""Beth and Ruth are fighting each other""}","<img src=""stim_listB/fight8.gif""style=""height:400px;""></stim_listB>",are fighting each other,
null,"<div style=""font-size:60px;"">+</div>",,html-keyboard-response,90,459089,0.0-13.0-0.15,14039,List1B,white,woman,,,,null,,,,
null,"<img src=""stim_listB/play3.gif""style=""height:400px;""></stim_listB>",,html-keyboard-response,91,461093,0.0-13.0-1.15,14039,List1B,white,woman,,,,null,,,,
null,is playing with,,html-keyboard-response,92,463096,0.0-13.0-2.15,14039,List1B,white,woman,,,,null,,,,
5653,,,survey-text,93,468750,0.0-13.0-3.15,14039,List1B,white,woman,,,,,"{""Q0"":""Dave is playing with Jane""}","<img src=""stim_listB/play3.gif""style=""height:400px;""></stim_listB>",is playing with,
null,"<div style=""font-size:60px;"">+</div>",,html-keyboard-response,94,469253,0.0-13.0-0.16,14039,List1B,white,woman,,,,null,,,,
null,"<img src=""stim_listB/shout5.gif""style=""height:400px;""></stim_listB>",,html-keyboard-response,95,471256,0.0-13.0-1.16,14039,List1B,white,woman,,,,null,,,,
null,is shouting at,,html-keyboard-response,96,473260,0.0-13.0-2.16,14039,List1B,white,woman,,,,null,,,,
5330,,,survey-text,97,478591,0.0-13.0-3.16,14039,List1B,white,woman,,,,,"{""Q0"":""Luke is shouting at Fred""}","<img src=""stim_listB/shout5.gif""style=""height:400px;""></stim_listB>",is shouting at,
null,"<div style=""font-size:60px;"">+</div>",,html-keyboard-response,98,479094,0.0-13.0-0.17,14039,List1B,white,woman,,,,null,,,,
null,"<img src=""stim_listB/dance4.gif""style=""height:400px;""></stim_listB>",,html-keyboard-response,99,481097,0.0-13.0-1.17,14039,List1B,white,woman,,,,null,,,,
null,are dancing with each other,,html-keyboard-response,100,483100,0.0-13.0-2.17,14039,List1B,white,woman,,,,null,,,,
16661,,,survey-text,101,499763,0.0-13.0-3.17,14039,List1B,white,woman,,,,,"{""Q0"":""Dave and Ruth are dancing with each other""}","<img src=""stim_listB/dance4.gif""style=""height:400px;""></stim_listB>",are dancing with each other,
null,"<div style=""font-size:60px;"">+</div>",,html-keyboard-response,102,500266,0.0-13.0-0.18,14039,List1B,white,woman,,,,null,,,,
null,"<img src=""stim_listB/talk4.gif""style=""height:400px;""></stim_listB>",,html-keyboard-response,103,502268,0.0-13.0-1.18,14039,List1B,white,woman,,,,null,,,,
null,are talking to each other,,html-keyboard-response,104,504271,0.0-13.0-2.18,14039,List1B,white,woman,,,,null,,,,
7439,,,survey-text,105,511710,0.0-13.0-3.18,14039,List1B,white,woman,,,,,"{""Q0"":""Dave and Ruth are talking to each other""}","<img src=""stim_listB/talk4.gif""style=""height:400px;""></stim_listB>",are talking to each other,
null,"<div style=""font-size:60px;"">+</div>",,html-keyboard-response,106,512212,0.0-13.0-0.19,14039,List1B,white,woman,,,,null,,,,
null,"<img src=""stim_listB/dance5.gif""style=""height:400px;""></stim_listB>",,html-keyboard-response,107,514215,0.0-13.0-1.19,14039,List1B,white,woman,,,,null,,,,
null,is dancing with,,html-keyboard-response,108,516217,0.0-13.0-2.19,14039,List1B,white,woman,,,,null,,,,
4545,,,survey-text,109,520764,0.0-13.0-3.19,14039,List1B,white,woman,,,,,"{""Q0"":""Dave is dancing with Fred""}","<img src=""stim_listB/dance5.gif""style=""height:400px;""></stim_listB>",is dancing with,
13756,"<img src='img/portrait_matrix_list1.jpg' style='width:900px;height:500px;''></img><p>If you have memorised all the portraits and names and are ready to start, press Continue.</p><p><strong>Please note: Your memory of these faces will be tested 4 times during this experiment.</strong></p>",0,html-button-response,110,534522,0.0-14.0-0.0,14039,List1B,white,woman,,,,,,,,
3018,"<img src=""portrait/WM1.jpg""style=""height:400px;""></img>",6,html-button-response,111,538544,0.0-14.0-1.0,14039,List1B,white,woman,,TRUE,6,,,,,
null,CORRECT,,html-keyboard-response,112,540049,0.0-14.0-2.0-0.0,14039,List1B,white,woman,,,,null,,,,
2067,"<img src=""portrait/BM1.jpg""style=""height:400px;""></img>",4,html-button-response,113,542117,0.0-14.0-4.0,14039,List1B,white,woman,,TRUE,4,,,,,
null,CORRECT,,html-keyboard-response,114,543621,0.0-14.0-5.0-0.0,14039,List1B,white,woman,,,,null,,,,
3517,"<img src=""portrait/BW1.jpg""style=""height:400px;""></img>",0,html-button-response,115,547141,0.0-14.0-7.0,14039,List1B,white,woman,,TRUE,0,,,,,
null,CORRECT,,html-keyboard-response,116,548644,0.0-14.0-8.0-0.0,14039,List1B,white,woman,,,,null,,,,
2060,"<img src=""portrait/BW2.jpg""style=""height:400px;""></img>",2,html-button-response,117,550706,0.0-14.0-10.0,14039,List1B,white,woman,,TRUE,2,,,,,
null,CORRECT,,html-keyboard-response,118,552209,0.0-14.0-11.0-0.0,14039,List1B,white,woman,,,,null,,,,
1758,"<img src=""portrait/BM2.jpg""style=""height:400px;""></img>",5,html-button-response,119,553969,0.0-14.0-13.0,14039,List1B,white,woman,,TRUE,5,,,,,
null,CORRECT,,html-keyboard-response,120,555472,0.0-14.0-14.0-0.0,14039,List1B,white,woman,,,,null,,,,
1404,"<img src=""portrait/WW2.jpg""style=""height:400px;""></img>",3,html-button-response,121,556879,0.0-14.0-16.0,14039,List1B,white,woman,,TRUE,3,,,,,
null,CORRECT,,html-keyboard-response,122,558383,0.0-14.0-17.0-0.0,14039,List1B,white,woman,,,,null,,,,
1671,"<img src=""portrait/WW1.jpg""style=""height:400px;""></img>",1,html-button-response,123,560056,0.0-14.0-19.0,14039,List1B,white,woman,,TRUE,1,,,,,
null,CORRECT,,html-keyboard-response,124,561560,0.0-14.0-20.0-0.0,14039,List1B,white,woman,,,,null,,,,
2285,"<img src=""portrait/WM2.jpg""style=""height:400px;""></img>",7,html-button-response,125,563847,0.0-14.0-22.0,14039,List1B,white,woman,,TRUE,7,,,,,
null,CORRECT,,html-keyboard-response,126,565352,0.0-14.0-23.0-0.0,14039,List1B,white,woman,,,,null,,,,
1575,<p>You got 8 out of 8 right first time. Press Continue.</p>,0,html-button-response,127,566929,0.0-14.0-25.0,14039,List1B,white,woman,,,,,,,,
null,"<div style=""font-size:60px;"">+</div>",,html-keyboard-response,128,568434,0.0-15.0-0.0,14039,List1B,white,woman,,,,null,,,,
null,"<img src=""stim_listB/flirt5.gif""style=""height:400px;""></stim_listB>",,html-keyboard-response,129,570437,0.0-15.0-1.0,14039,List1B,white,woman,,,,null,,,,
null,is flirting with,,html-keyboard-response,130,572440,0.0-15.0-2.0,14039,List1B,white,woman,,,,null,,,,
6789,,,survey-text,131,579230,0.0-15.0-3.0,14039,List1B,white,woman,,,,,"{""Q0"":""Dave is flirting with Fred""}","<img src=""stim_listB/flirt5.gif""style=""height:400px;""></stim_listB>",is flirting with,
null,"<div style=""font-size:60px;"">+</div>",,html-keyboard-response,132,579733,0.0-15.0-0.1,14039,List1B,white,woman,,,,null,,,,
null,"<img src=""stim_listB/shout3.gif""style=""height:400px;""></stim_listB>",,html-keyboard-response,133,581736,0.0-15.0-1.1,14039,List1B,white,woman,,,,null,,,,
null,is shouting at,,html-keyboard-response,134,583738,0.0-15.0-2.1,14039,List1B,white,woman,,,,null,,,,
4974,,,survey-text,135,588713,0.0-15.0-3.1,14039,List1B,white,woman,,,,,"{""Q0"":""Ruth is shouting at Luke""}","<img src=""stim_listB/shout3.gif""style=""height:400px;""></stim_listB>",is shouting at,
null,"<div style=""font-size:60px;"">+</div>",,html-keyboard-response,136,589216,0.0-15.0-0.2,14039,List1B,white,woman,,,,null,,,,
null,"<img src=""stim_listB/dance7.gif""style=""height:400px;""></stim_listB>",,html-keyboard-response,137,591220,0.0-15.0-1.2,14039,List1B,white,woman,,,,null,,,,
null,is dancing with,,html-keyboard-response,138,593223,0.0-15.0-2.2,14039,List1B,white,woman,,,,null,,,,
5305,,,survey-text,139,598529,0.0-15.0-3.2,14039,List1B,white,woman,,,,,"{""Q0"":""Beth is dancing with Jane""}","<img src=""stim_listB/dance7.gif""style=""height:400px;""></stim_listB>",is dancing with,
null,"<div style=""font-size:60px;"">+</div>",,html-keyboard-response,140,599033,0.0-15.0-0.3,14039,List1B,white,woman,,,,null,,,,
null,"<img src=""stim_listB/argue7.gif""style=""height:400px;""></stim_listB>",,html-keyboard-response,141,601036,0.0-15.0-1.3,14039,List1B,white,woman,,,,null,,,,
null,is arguing with,,html-keyboard-response,142,603040,0.0-15.0-2.3,14039,List1B,white,woman,,,,null,,,,
6067,,,survey-text,143,609108,0.0-15.0-3.3,14039,List1B,white,woman,,,,,"{""Q0"":""Ruth is arguing with Kate""}","<img src=""stim_listB/argue7.gif""style=""height:400px;""></stim_listB>",is arguing with,
null,"<div style=""font-size:60px;"">+</div>",,html-keyboard-response,144,609611,0.0-15.0-0.4,14039,List1B,white,woman,,,,null,,,,
null,"<img src=""stim_listB/touch5.gif""style=""height:400px;""></stim_listB>",,html-keyboard-response,145,611615,0.0-15.0-1.4,14039,List1B,white,woman,,,,null,,,,
null,is touching,,html-keyboard-response,146,613618,0.0-15.0-2.4,14039,List1B,white,woman,,,,null,,,,
5724,,,survey-text,147,619342,0.0-15.0-3.4,14039,List1B,white,woman,,,,,"{""Q0"":""Dave is touching Mike""}","<img src=""stim_listB/touch5.gif""style=""height:400px;""></stim_listB>",is touching,
null,"<div style=""font-size:60px;"">+</div>",,html-keyboard-response,148,619844,0.0-15.0-0.5,14039,List1B,white,woman,,,,null,,,,
null,"<img src=""stim_listB/fight3.gif""style=""height:400px;""></stim_listB>",,html-keyboard-response,149,621848,0.0-15.0-1.5,14039,List1B,white,woman,,,,null,,,,
null,is fighting,,html-keyboard-response,150,623852,0.0-15.0-2.5,14039,List1B,white,woman,,,,null,,,,
6133,,,survey-text,151,629985,0.0-15.0-3.5,14039,List1B,white,woman,,,,,"{""Q0"":""Jane is fighting Dave""}","<img src=""stim_listB/fight3.gif""style=""height:400px;""></stim_listB>",is fighting,
null,"<div style=""font-size:60px;"">+</div>",,html-keyboard-response,152,630488,0.0-15.0-0.6,14039,List1B,white,woman,,,,null,,,,
null,"<img src=""stim_listB/shout6.gif""style=""height:400px;""></stim_listB>",,html-keyboard-response,153,632491,0.0-15.0-1.6,14039,List1B,white,woman,,,,null,,,,
null,are shouting at each other,,html-keyboard-response,154,634494,0.0-15.0-2.6,14039,List1B,white,woman,,,,null,,,,
6249,,,survey-text,155,640744,0.0-15.0-3.6,14039,List1B,white,woman,,,,,"{""Q0"":""Dave and Mike are shouting at each other""}","<img src=""stim_listB/shout6.gif""style=""height:400px;""></stim_listB>",are shouting at each other,
null,"<div style=""font-size:60px;"">+</div>",,html-keyboard-response,156,641248,0.0-15.0-0.7,14039,List1B,white,woman,,,,null,,,,
null,"<img src=""stim_listB/flirt6.gif""style=""height:400px;""></stim_listB>",,html-keyboard-response,157,643251,0.0-15.0-1.7,14039,List1B,white,woman,,,,null,,,,
null,are flirting with each other,,html-keyboard-response,158,645254,0.0-15.0-2.7,14039,List1B,white,woman,,,,null,,,,
8896,,,survey-text,159,654152,0.0-15.0-3.7,14039,List1B,white,woman,,,,,"{""Q0"":""Luke and Mike are flirting with each other""}","<img src=""stim_listB/flirt6.gif""style=""height:400px;""></stim_listB>",are flirting with each other,
null,"<div style=""font-size:60px;"">+</div>",,html-keyboard-response,160,654655,0.0-15.0-0.8,14039,List1B,white,woman,,,,null,,,,
null,"<img src=""stim_listB/fight6.gif""style=""height:400px;""></stim_listB>",,html-keyboard-response,161,656658,0.0-15.0-1.8,14039,List1B,white,woman,,,,null,,,,
null,are fighting each other,,html-keyboard-response,162,658661,0.0-15.0-2.8,14039,List1B,white,woman,,,,null,,,,
6878,,,survey-text,163,665540,0.0-15.0-3.8,14039,List1B,white,woman,,,,,"{""Q0"":""Fred and Luke are fighting each other""}","<img src=""stim_listB/fight6.gif""style=""height:400px;""></stim_listB>",are fighting each other,
null,"<div style=""font-size:60px;"">+</div>",,html-keyboard-response,164,666043,0.0-15.0-0.9,14039,List1B,white,woman,,,,null,,,,
null,"<img src=""stim_listB/argue1.gif""style=""height:400px;""></stim_listB>",,html-keyboard-response,165,668047,0.0-15.0-1.9,14039,List1B,white,woman,,,,null,,,,
null,is arguing with,,html-keyboard-response,166,670050,0.0-15.0-2.9,14039,List1B,white,woman,,,,null,,,,
4753,,,survey-text,167,674805,0.0-15.0-3.9,14039,List1B,white,woman,,,,,"{""Q0"":""Beth is arguing with Mike""}","<img src=""stim_listB/argue1.gif""style=""height:400px;""></stim_listB>",is arguing with,
null,"<div style=""font-size:60px;"">+</div>",,html-keyboard-response,168,675308,0.0-15.0-0.10,14039,List1B,white,woman,,,,null,,,,
null,"<img src=""stim_listB/flirt2.gif""style=""height:400px;""></stim_listB>",,html-keyboard-response,169,677310,0.0-15.0-1.10,14039,List1B,white,woman,,,,null,,,,
null,are flirting with each other,,html-keyboard-response,170,679314,0.0-15.0-2.10,14039,List1B,white,woman,,,,null,,,,
6231,,,survey-text,171,685546,0.0-15.0-3.10,14039,List1B,white,woman,,,,,"{""Q0"":""Beth and Mike are flirting with each other""}","<img src=""stim_listB/flirt2.gif""style=""height:400px;""></stim_listB>",are flirting with each other,
null,"<div style=""font-size:60px;"">+</div>",,html-keyboard-response,172,686049,0.0-15.0-0.11,14039,List1B,white,woman,,,,null,,,,
null,"<img src=""stim_listB/kiss3.gif""style=""height:400px;""></stim_listB>",,html-keyboard-response,173,688053,0.0-15.0-1.11,14039,List1B,white,woman,,,,null,,,,
null,is kissing,,html-keyboard-response,174,690056,0.0-15.0-2.11,14039,List1B,white,woman,,,,null,,,,
5629,,,survey-text,175,695687,0.0-15.0-3.11,14039,List1B,white,woman,,,,,"{""Q0"":""Ruth is kissing Luke""}","<img src=""stim_listB/kiss3.gif""style=""height:400px;""></stim_listB>",is kissing,
null,"<div style=""font-size:60px;"">+</div>",,html-keyboard-response,176,696190,0.0-15.0-0.12,14039,List1B,white,woman,,,,null,,,,
null,"<img src=""stim_listB/shout4.gif""style=""height:400px;""></stim_listB>",,html-keyboard-response,177,698193,0.0-15.0-1.12,14039,List1B,white,woman,,,,null,,,,
null,are shouting at each other,,html-keyboard-response,178,700197,0.0-15.0-2.12,14039,List1B,white,woman,,,,null,,,,
6864,,,survey-text,179,707062,0.0-15.0-3.12,14039,List1B,white,woman,,,,,"{""Q0"":""Dave and Jane are shouting at each other""}","<img src=""stim_listB/shout4.gif""style=""height:400px;""></stim_listB>",are shouting at each other,
null,"<div style=""font-size:60px;"">+</div>",,html-keyboard-response,180,707565,0.0-15.0-0.13,14039,List1B,white,woman,,,,null,,,,
null,"<img src=""stim_listB/dance2.gif""style=""height:400px;""></stim_listB>",,html-keyboard-response,181,709569,0.0-15.0-1.13,14039,List1B,white,woman,,,,null,,,,
null,are dancing with each other,,html-keyboard-response,182,711572,0.0-15.0-2.13,14039,List1B,white,woman,,,,null,,,,
6156,,,survey-text,183,717729,0.0-15.0-3.13,14039,List1B,white,woman,,,,,"{""Q0"":""Beth and Mike are dancing with each other""}","<img src=""stim_listB/dance2.gif""style=""height:400px;""></stim_listB>",are dancing with each other,
null,"<div style=""font-size:60px;"">+</div>",,html-keyboard-response,184,718231,0.0-15.0-0.14,14039,List1B,white,woman,,,,null,,,,
null,"<img src=""stim_listB/touch2.gif""style=""height:400px;""></stim_listB>",,html-keyboard-response,185,720234,0.0-15.0-1.14,14039,List1B,white,woman,,,,null,,,,
null,are touching each other,,html-keyboard-response,186,722238,0.0-15.0-2.14,14039,List1B,white,woman,,,,null,,,,
6182,,,survey-text,187,728421,0.0-15.0-3.14,14039,List1B,white,woman,,,,,"{""Q0"":""Beth and Fred are touching each other ""}","<img src=""stim_listB/touch2.gif""style=""height:400px;""></stim_listB>",are touching each other,
null,"<div style=""font-size:60px;"">+</div>",,html-keyboard-response,188,728923,0.0-15.0-0.15,14039,List1B,white,woman,,,,null,,,,
null,"<img src=""stim_listB/dance8.gif""style=""height:400px;""></stim_listB>",,html-keyboard-response,189,730927,0.0-15.0-1.15,14039,List1B,white,woman,,,,null,,,,
null,are dancing with each other,,html-keyboard-response,190,732929,0.0-15.0-2.15,14039,List1B,white,woman,,,,null,,,,
8049,,,survey-text,191,740979,0.0-15.0-3.15,14039,List1B,white,woman,,,,,"{""Q0"":""Kate and Ruth are dancing with each other""}","<img src=""stim_listB/dance8.gif""style=""height:400px;""></stim_listB>",are dancing with each other,
null,"<div style=""font-size:60px;"">+</div>",,html-keyboard-response,192,741482,0.0-15.0-0.16,14039,List1B,white,woman,,,,null,,,,
null,"<img src=""stim_listB/dance1.gif""style=""height:400px;""></stim_listB>",,html-keyboard-response,193,743487,0.0-15.0-1.16,14039,List1B,white,woman,,,,null,,,,
null,is dancing with,,html-keyboard-response,194,745492,0.0-15.0-2.16,14039,List1B,white,woman,,,,null,,,,
5854,,,survey-text,195,751346,0.0-15.0-3.16,14039,List1B,white,woman,,,,,"{""Q0"":""Kate is dancing with Fred""}","<img src=""stim_listB/dance1.gif""style=""height:400px;""></stim_listB>",is dancing with,
null,"<div style=""font-size:60px;"">+</div>",,html-keyboard-response,196,751849,0.0-15.0-0.17,14039,List1B,white,woman,,,,null,,,,
null,"<img src=""stim_listB/flirt3.gif""style=""height:400px;""></stim_listB>",,html-keyboard-response,197,753854,0.0-15.0-1.17,14039,List1B,white,woman,,,,null,,,,
null,is flirting with,,html-keyboard-response,198,755858,0.0-15.0-2.17,14039,List1B,white,woman,,,,null,,,,
6497,,,survey-text,199,762355,0.0-15.0-3.17,14039,List1B,white,woman,,,,,"{""Q0"":""Luke is flirting with Jane""}","<img src=""stim_listB/flirt3.gif""style=""height:400px;""></stim_listB>",is flirting with,
null,"<div style=""font-size:60px;"">+</div>",,html-keyboard-response,200,762859,0.0-15.0-0.18,14039,List1B,white,woman,,,,null,,,,
null,"<img src=""stim_listB/talk6.gif""style=""height:400px;""></stim_listB>",,html-keyboard-response,201,764862,0.0-15.0-1.18,14039,List1B,white,woman,,,,null,,,,
null,are talking to each other,,html-keyboard-response,202,766866,0.0-15.0-2.18,14039,List1B,white,woman,,,,null,,,,
14357,,,survey-text,203,781224,0.0-15.0-3.18,14039,List1B,white,woman,,,,,"{""Q0"":""Mike and Luke are talking to each other""}","<img src=""stim_listB/talk6.gif""style=""height:400px;""></stim_listB>",are talking to each other,
null,"<div style=""font-size:60px;"">+</div>",,html-keyboard-response,204,781728,0.0-15.0-0.19,14039,List1B,white,woman,,,,null,,,,
null,"<img src=""stim_listB/marry8.gif""style=""height:400px;""></stim_listB>",,html-keyboard-response,205,783731,0.0-15.0-1.19,14039,List1B,white,woman,,,,null,,,,
null,are marrying each other,,html-keyboard-response,206,785734,0.0-15.0-2.19,14039,List1B,white,woman,,,,null,,,,
6946,,,survey-text,207,792682,0.0-15.0-3.19,14039,List1B,white,woman,,,,,"{""Q0"":""Beth and Jane are marrying each other""}","<img src=""stim_listB/marry8.gif""style=""height:400px;""></stim_listB>",are marrying each other,
2540,"<img src='img/portrait_matrix_list1.jpg' style='width:900px;height:500px;''></img><p>If you have memorised all the portraits and names and are ready to start, press Continue.</p><p><strong>Please note: Your memory of these faces will be tested 4 times during this experiment.</strong></p>",0,html-button-response,208,795225,0.0-16.0-0.0,14039,List1B,white,woman,,,,,,,,
1296,"<img src=""portrait/BM2.jpg""style=""height:400px;""></img>",5,html-button-response,209,797521,0.0-16.0-1.0,14039,List1B,white,woman,,TRUE,5,,,,,
null,CORRECT,,html-keyboard-response,210,799025,0.0-16.0-2.0-0.0,14039,List1B,white,woman,,,,null,,,,
1436,"<img src=""portrait/BM1.jpg""style=""height:400px;""></img>",4,html-button-response,211,800463,0.0-16.0-4.0,14039,List1B,white,woman,,TRUE,4,,,,,
null,CORRECT,,html-keyboard-response,212,801967,0.0-16.0-5.0-0.0,14039,List1B,white,woman,,,,null,,,,
1464,"<img src=""portrait/WW2.jpg""style=""height:400px;""></img>",3,html-button-response,213,803433,0.0-16.0-7.0,14039,List1B,white,woman,,TRUE,3,,,,,
null,CORRECT,,html-keyboard-response,214,804937,0.0-16.0-8.0-0.0,14039,List1B,white,woman,,,,null,,,,
1524,"<img src=""portrait/BW1.jpg""style=""height:400px;""></img>",0,html-button-response,215,806463,0.0-16.0-10.0,14039,List1B,white,woman,,TRUE,0,,,,,
null,CORRECT,,html-keyboard-response,216,807967,0.0-16.0-11.0-0.0,14039,List1B,white,woman,,,,null,,,,
1436,"<img src=""portrait/BW2.jpg""style=""height:400px;""></img>",2,html-button-response,217,809404,0.0-16.0-13.0,14039,List1B,white,woman,,TRUE,2,,,,,
null,CORRECT,,html-keyboard-response,218,810908,0.0-16.0-14.0-0.0,14039,List1B,white,woman,,,,null,,,,
1853,"<img src=""portrait/WM1.jpg""style=""height:400px;""></img>",6,html-button-response,219,812764,0.0-16.0-16.0,14039,List1B,white,woman,,TRUE,6,,,,,
null,CORRECT,,html-keyboard-response,220,814268,0.0-16.0-17.0-0.0,14039,List1B,white,woman,,,,null,,,,
3777,"<img src=""portrait/WW1.jpg""style=""height:400px;""></img>",1,html-button-response,221,818047,0.0-16.0-19.0,14039,List1B,white,woman,,TRUE,1,,,,,
null,CORRECT,,html-keyboard-response,222,819550,0.0-16.0-20.0-0.0,14039,List1B,white,woman,,,,null,,,,
1405,"<img src=""portrait/WM2.jpg""style=""height:400px;""></img>",7,html-button-response,223,820956,0.0-16.0-22.0,14039,List1B,white,woman,,TRUE,7,,,,,
null,CORRECT,,html-keyboard-response,224,822460,0.0-16.0-23.0-0.0,14039,List1B,white,woman,,,,null,,,,
1401,<p>You got 8 out of 8 right first time. Press Continue.</p>,0,html-button-response,225,823863,0.0-16.0-25.0,14039,List1B,white,woman,,,,,,,,
null,"<div style=""font-size:60px;"">+</div>",,html-keyboard-response,226,825368,0.0-17.0-0.0,14039,List1B,white,woman,,,,null,,,,
null,"<img src=""stim_listB/talk5.gif""style=""height:400px;""></stim_listB>",,html-keyboard-response,227,827372,0.0-17.0-1.0,14039,List1B,white,woman,,,,null,,,,
null,is talking to,,html-keyboard-response,228,829375,0.0-17.0-2.0,14039,List1B,white,woman,,,,null,,,,
4125,,,survey-text,229,833502,0.0-17.0-3.0,14039,List1B,white,woman,,,,,"{""Q0"":""Dave is talking to Fred""}","<img src=""stim_listB/talk5.gif""style=""height:400px;""></stim_listB>",is talking to,
null,"<div style=""font-size:60px;"">+</div>",,html-keyboard-response,230,834005,0.0-17.0-0.1,14039,List1B,white,woman,,,,null,,,,
null,"<img src=""stim_listB/kiss8.gif""style=""height:400px;""></stim_listB>",,html-keyboard-response,231,836008,0.0-17.0-1.1,14039,List1B,white,woman,,,,null,,,,
null,are kissing each other,,html-keyboard-response,232,838011,0.0-17.0-2.1,14039,List1B,white,woman,,,,null,,,,
6098,,,survey-text,233,844110,0.0-17.0-3.1,14039,List1B,white,woman,,,,,"{""Q0"":""Kate and Jane are kissing eachother""}","<img src=""stim_listB/kiss8.gif""style=""height:400px;""></stim_listB>",are kissing each other,
null,"<div style=""font-size:60px;"">+</div>",,html-keyboard-response,234,844613,0.0-17.0-0.2,14039,List1B,white,woman,,,,null,,,,
null,"<img src=""stim_listB/kiss5.gif""style=""height:400px;""></stim_listB>",,html-keyboard-response,235,846616,0.0-17.0-1.2,14039,List1B,white,woman,,,,null,,,,
null,is kissing,,html-keyboard-response,236,848619,0.0-17.0-2.2,14039,List1B,white,woman,,,,null,,,,
3955,,,survey-text,237,852575,0.0-17.0-3.2,14039,List1B,white,woman,,,,,"{""Q0"":""Luke is kissing Fred""}","<img src=""stim_listB/kiss5.gif""style=""height:400px;""></stim_listB>",is kissing,
null,"<div style=""font-size:60px;"">+</div>",,html-keyboard-response,238,853078,0.0-17.0-0.3,14039,List1B,white,woman,,,,null,,,,
null,"<img src=""stim_listB/marry1.gif""style=""height:400px;""></stim_listB>",,html-keyboard-response,239,855081,0.0-17.0-1.3,14039,List1B,white,woman,,,,null,,,,
null,is marrying,,html-keyboard-response,240,857085,0.0-17.0-2.3,14039,List1B,white,woman,,,,null,,,,
5949,,,survey-text,241,863034,0.0-17.0-3.3,14039,List1B,white,woman,,,,,"{""Q0"":""Mike is marrying Beth""}","<img src=""stim_listB/marry1.gif""style=""height:400px;""></stim_listB>",is marrying,
null,"<div style=""font-size:60px;"">+</div>",,html-keyboard-response,242,863537,0.0-17.0-0.4,14039,List1B,white,woman,,,,null,,,,
null,"<img src=""stim_listB/marry4.gif""style=""height:400px;""></stim_listB>",,html-keyboard-response,243,865540,0.0-17.0-1.4,14039,List1B,white,woman,,,,null,,,,
null,are marrying each other,,html-keyboard-response,244,867544,0.0-17.0-2.4,14039,List1B,white,woman,,,,null,,,,
9103,,,survey-text,245,876647,0.0-17.0-3.4,14039,List1B,white,woman,,,,,"{""Q0"":""Jane and Luke are marrying each other""}","<img src=""stim_listB/marry4.gif""style=""height:400px;""></stim_listB>",are marrying each other,
null,"<div style=""font-size:60px;"">+</div>",,html-keyboard-response,246,877150,0.0-17.0-0.5,14039,List1B,white,woman,,,,null,,,,
null,"<img src=""stim_listB/marry2.gif""style=""height:400px;""></stim_listB>",,html-keyboard-response,247,879154,0.0-17.0-1.5,14039,List1B,white,woman,,,,null,,,,
null,are marrying each other,,html-keyboard-response,248,881157,0.0-17.0-2.5,14039,List1B,white,woman,,,,null,,,,
8564,,,survey-text,249,889723,0.0-17.0-3.5,14039,List1B,white,woman,,,,,"{""Q0"":""Fred and Kate are marrying each other""}","<img src=""stim_listB/marry2.gif""style=""height:400px;""></stim_listB>",are marrying each other,
null,"<div style=""font-size:60px;"">+</div>",,html-keyboard-response,250,890226,0.0-17.0-0.6,14039,List1B,white,woman,,,,null,,,,
null,"<img src=""stim_listB/argue6.gif""style=""height:400px;""></stim_listB>",,html-keyboard-response,251,892229,0.0-17.0-1.6,14039,List1B,white,woman,,,,null,,,,
null,are arguing with each other,,html-keyboard-response,252,894233,0.0-17.0-2.6,14039,List1B,white,woman,,,,null,,,,
7797,,,survey-text,253,902031,0.0-17.0-3.6,14039,List1B,white,woman,,,,,"{""Q0"":""Fred and Dave are arguing with each other""}","<img src=""stim_listB/argue6.gif""style=""height:400px;""></stim_listB>",are arguing with each other,
null,"<div style=""font-size:60px;"">+</div>",,html-keyboard-response,254,902534,0.0-17.0-0.7,14039,List1B,white,woman,,,,null,,,,
null,"<img src=""stim_listB/touch8.gif""style=""height:400px;""></stim_listB>",,html-keyboard-response,255,904543,0.0-17.0-1.7,14039,List1B,white,woman,,,,null,,,,
null,are touching each other,,html-keyboard-response,256,906546,0.0-17.0-2.7,14039,List1B,white,woman,,,,null,,,,
5761,,,survey-text,257,912310,0.0-17.0-3.7,14039,List1B,white,woman,,,,,"{""Q0"":""Beth and Ruth are touching each other""}","<img src=""stim_listB/touch8.gif""style=""height:400px;""></stim_listB>",are touching each other,
null,"<div style=""font-size:60px;"">+</div>",,html-keyboard-response,258,912813,0.0-17.0-0.8,14039,List1B,white,woman,,,,null,,,,
null,"<img src=""stim_listB/argue5.gif""style=""height:400px;""></stim_listB>",,html-keyboard-response,259,914816,0.0-17.0-1.8,14039,List1B,white,woman,,,,null,,,,
null,is arguing with,,html-keyboard-response,260,916820,0.0-17.0-2.8,14039,List1B,white,woman,,,,null,,,,
9241,,,survey-text,261,926062,0.0-17.0-3.8,14039,List1B,white,woman,,,,,"{""Q0"":""Luke is arguing with Mike""}","<img src=""stim_listB/argue5.gif""style=""height:400px;""></stim_listB>",is arguing with,
null,"<div style=""font-size:60px;"">+</div>",,html-keyboard-response,262,926565,0.0-17.0-0.9,14039,List1B,white,woman,,,,null,,,,
null,"<img src=""stim_listB/marry6.gif""style=""height:400px;""></stim_listB>",,html-keyboard-response,263,928569,0.0-17.0-1.9,14039,List1B,white,woman,,,,null,,,,
null,are marrying each other,,html-keyboard-response,264,930572,0.0-17.0-2.9,14039,List1B,white,woman,,,,null,,,,
7283,,,survey-text,265,937856,0.0-17.0-3.9,14039,List1B,white,woman,,,,,"{""Q0"":""Dave and Fred are marrying each other""}","<img src=""stim_listB/marry6.gif""style=""height:400px;""></stim_listB>",are marrying each other,
null,"<div style=""font-size:60px;"">+</div>",,html-keyboard-response,266,938360,0.0-17.0-0.10,14039,List1B,white,woman,,,,null,,,,
null,"<img src=""stim_listB/play1.gif""style=""height:400px;""></stim_listB>",,html-keyboard-response,267,940363,0.0-17.0-1.10,14039,List1B,white,woman,,,,null,,,,
null,is playing with,,html-keyboard-response,268,942366,0.0-17.0-2.10,14039,List1B,white,woman,,,,null,,,,
5807,,,survey-text,269,948177,0.0-17.0-3.10,14039,List1B,white,woman,,,,,"{""Q0"":""Kate is playing with Mike""}","<img src=""stim_listB/play1.gif""style=""height:400px;""></stim_listB>",is playing with,
null,"<div style=""font-size:60px;"">+</div>",,html-keyboard-response,270,948680,0.0-17.0-0.11,14039,List1B,white,woman,,,,null,,,,
null,"<img src=""stim_listB/shout8.gif""style=""height:400px;""></stim_listB>",,html-keyboard-response,271,950684,0.0-17.0-1.11,14039,List1B,white,woman,,,,null,,,,
null,are shouting at each other,,html-keyboard-response,272,952687,0.0-17.0-2.11,14039,List1B,white,woman,,,,null,,,,
9656,,,survey-text,273,962344,0.0-17.0-3.11,14039,List1B,white,woman,,,,,"{""Q0"":""Kate and Jane are shouting at each other""}","<img src=""stim_listB/shout8.gif""style=""height:400px;""></stim_listB>",are shouting at each other,
null,"<div style=""font-size:60px;"">+</div>",,html-keyboard-response,274,962847,0.0-17.0-0.12,14039,List1B,white,woman,,,,null,,,,
null,"<img src=""stim_listB/play6.gif""style=""height:400px;""></stim_listB>",,html-keyboard-response,275,964851,0.0-17.0-1.12,14039,List1B,white,woman,,,,null,,,,
null,are playing with each other,,html-keyboard-response,276,966854,0.0-17.0-2.12,14039,List1B,white,woman,,,,null,,,,
10387,,,survey-text,277,977242,0.0-17.0-3.12,14039,List1B,white,woman,,,,,"{""Q0"":""Fred and Luke are playing with each other""}","<img src=""stim_listB/play6.gif""style=""height:400px;""></stim_listB>",are playing with each other,
null,"<div style=""font-size:60px;"">+</div>",,html-keyboard-response,278,977745,0.0-17.0-0.13,14039,List1B,white,woman,,,,null,,,,
null,"<img src=""stim_listB/talk3.gif""style=""height:400px;""></stim_listB>",,html-keyboard-response,279,979749,0.0-17.0-1.13,14039,List1B,white,woman,,,,null,,,,
null,is talking to,,html-keyboard-response,280,981752,0.0-17.0-2.13,14039,List1B,white,woman,,,,null,,,,
6535,,,survey-text,281,988289,0.0-17.0-3.13,14039,List1B,white,woman,,,,,"{""Q0"":""Jane is talking to Luke""}","<img src=""stim_listB/talk3.gif""style=""height:400px;""></stim_listB>",is talking to,
null,"<div style=""font-size:60px;"">+</div>",,html-keyboard-response,282,988792,0.0-17.0-0.14,14039,List1B,white,woman,,,,null,,,,
null,"<img src=""stim_listB/talk7.gif""style=""height:400px;""></stim_listB>",,html-keyboard-response,283,990795,0.0-17.0-1.14,14039,List1B,white,woman,,,,null,,,,
null,is talking to,,html-keyboard-response,284,992798,0.0-17.0-2.14,14039,List1B,white,woman,,,,null,,,,
5344,,,survey-text,285,998146,0.0-17.0-3.14,14039,List1B,white,woman,,,,,"{""Q0"":""Jane is talking to Beth""}","<img src=""stim_listB/talk7.gif""style=""height:400px;""></stim_listB>",is talking to,
null,"<div style=""font-size:60px;"">+</div>",,html-keyboard-response,286,998649,0.0-17.0-0.15,14039,List1B,white,woman,,,,null,,,,
null,"<img src=""stim_listB/marry5.gif""style=""height:400px;""></stim_listB>",,html-keyboard-response,287,1000652,0.0-17.0-1.15,14039,List1B,white,woman,,,,null,,,,
null,is marrying,,html-keyboard-response,288,1002655,0.0-17.0-2.15,14039,List1B,white,woman,,,,null,,,,
4806,,,survey-text,289,1007463,0.0-17.0-3.15,14039,List1B,white,woman,,,,,"{""Q0"":""Luke is marrying Mike""}","<img src=""stim_listB/marry5.gif""style=""height:400px;""></stim_listB>",is marrying,
null,"<div style=""font-size:60px;"">+</div>",,html-keyboard-response,290,1007966,0.0-17.0-0.16,14039,List1B,white,woman,,,,null,,,,
null,"<img src=""stim_listB/kiss7.gif""style=""height:400px;""></stim_listB>",,html-keyboard-response,291,1009969,0.0-17.0-1.16,14039,List1B,white,woman,,,,null,,,,
null,is kissing,,html-keyboard-response,292,1011973,0.0-17.0-2.16,14039,List1B,white,woman,,,,null,,,,
4255,,,survey-text,293,1016229,0.0-17.0-3.16,14039,List1B,white,woman,,,,,"{""Q0"":""Ruth is kissing Beth""}","<img src=""stim_listB/kiss7.gif""style=""height:400px;""></stim_listB>",is kissing,
null,"<div style=""font-size:60px;"">+</div>",,html-keyboard-response,294,1016730,0.0-17.0-0.17,14039,List1B,white,woman,,,,null,,,,
null,"<img src=""stim_listB/dance6.gif""style=""height:400px;""></stim_listB>",,html-keyboard-response,295,1018733,0.0-17.0-1.17,14039,List1B,white,woman,,,,null,,,,
null,are dancing with each other,,html-keyboard-response,296,1020739,0.0-17.0-2.17,14039,List1B,white,woman,,,,null,,,,
12836,,,survey-text,297,1033576,0.0-17.0-3.17,14039,List1B,white,woman,,,,,"{""Q0"":""Mike and Luke are dancing with each other ""}","<img src=""stim_listB/dance6.gif""style=""height:400px;""></stim_listB>",are dancing with each other,
null,"<div style=""font-size:60px;"">+</div>",,html-keyboard-response,298,1034080,0.0-17.0-0.18,14039,List1B,white,woman,,,,null,,,,
null,"<img src=""stim_listB/argue4.gif""style=""height:400px;""></stim_listB>",,html-keyboard-response,299,1036083,0.0-17.0-1.18,14039,List1B,white,woman,,,,null,,,,
null,are arguing with each other,,html-keyboard-response,300,1038086,0.0-17.0-2.18,14039,List1B,white,woman,,,,null,,,,
6864,,,survey-text,301,1044951,0.0-17.0-3.18,14039,List1B,white,woman,,,,,"{""Q0"":""Luke and Jane are arguing with each other""}","<img src=""stim_listB/argue4.gif""style=""height:400px;""></stim_listB>",are arguing with each other,
null,"<div style=""font-size:60px;"">+</div>",,html-keyboard-response,302,1045455,0.0-17.0-0.19,14039,List1B,white,woman,,,,null,,,,
null,"<img src=""stim_listB/fight7.gif""style=""height:400px;""></stim_listB>",,html-keyboard-response,303,1047458,0.0-17.0-1.19,14039,List1B,white,woman,,,,null,,,,
null,is fighting,,html-keyboard-response,304,1049461,0.0-17.0-2.19,14039,List1B,white,woman,,,,null,,,,
5539,,,survey-text,305,1055001,0.0-17.0-3.19,14039,List1B,white,woman,,,,,"{""Q0"":""Kate is fighting Jane""}","<img src=""stim_listB/fight7.gif""style=""height:400px;""></stim_listB>",is fighting,
1704,"<img src='img/portrait_matrix_list1.jpg' style='width:900px;height:500px;''></img><p>If you have memorised all the portraits and names and are ready to start, press Continue.</p><p><strong>Please note: Your memory of these faces will be tested 4 times during this experiment.</strong></p>",0,html-button-response,306,1056706,0.0-18.0-0.0,14039,List1B,white,woman,,,,,,,,
1275,"<img src=""portrait/WM1.jpg""style=""height:400px;""></img>",6,html-button-response,307,1058984,0.0-18.0-1.0,14039,List1B,white,woman,,TRUE,6,,,,,
null,CORRECT,,html-keyboard-response,308,1060488,0.0-18.0-2.0-0.0,14039,List1B,white,woman,,,,null,,,,
1579,"<img src=""portrait/WW1.jpg""style=""height:400px;""></img>",1,html-button-response,309,1062070,0.0-18.0-4.0,14039,List1B,white,woman,,TRUE,1,,,,,
null,CORRECT,,html-keyboard-response,310,1063574,0.0-18.0-5.0-0.0,14039,List1B,white,woman,,,,null,,,,
1175,"<img src=""portrait/WW2.jpg""style=""height:400px;""></img>",3,html-button-response,311,1064751,0.0-18.0-7.0,14039,List1B,white,woman,,TRUE,3,,,,,
null,CORRECT,,html-keyboard-response,312,1066255,0.0-18.0-8.0-0.0,14039,List1B,white,woman,,,,null,,,,
1308,"<img src=""portrait/BW1.jpg""style=""height:400px;""></img>",0,html-button-response,313,1067564,0.0-18.0-10.0,14039,List1B,white,woman,,TRUE,0,,,,,
null,CORRECT,,html-keyboard-response,314,1069069,0.0-18.0-11.0-0.0,14039,List1B,white,woman,,,,null,,,,
1608,"<img src=""portrait/WM2.jpg""style=""height:400px;""></img>",7,html-button-response,315,1070678,0.0-18.0-13.0,14039,List1B,white,woman,,TRUE,7,,,,,
null,CORRECT,,html-keyboard-response,316,1072183,0.0-18.0-14.0-0.0,14039,List1B,white,woman,,,,null,,,,
1291,"<img src=""portrait/BM2.jpg""style=""height:400px;""></img>",5,html-button-response,317,1073476,0.0-18.0-16.0,14039,List1B,white,woman,,TRUE,5,,,,,
null,CORRECT,,html-keyboard-response,318,1074980,0.0-18.0-17.0-0.0,14039,List1B,white,woman,,,,null,,,,
1446,"<img src=""portrait/BW2.jpg""style=""height:400px;""></img>",2,html-button-response,319,1076430,0.0-18.0-19.0,14039,List1B,white,woman,,TRUE,2,,,,,
null,CORRECT,,html-keyboard-response,320,1077934,0.0-18.0-20.0-0.0,14039,List1B,white,woman,,,,null,,,,
1515,"<img src=""portrait/BM1.jpg""style=""height:400px;""></img>",4,html-button-response,321,1079452,0.0-18.0-22.0,14039,List1B,white,woman,,TRUE,4,,,,,
null,CORRECT,,html-keyboard-response,322,1080957,0.0-18.0-23.0-0.0,14039,List1B,white,woman,,,,null,,,,
1535,<p>You got 8 out of 8 right first time. Press Continue.</p>,0,html-button-response,323,1082494,0.0-18.0-25.0,14039,List1B,white,woman,,,,,,,,
null,"<div style=""font-size:60px;"">+</div>",,html-keyboard-response,324,1083999,0.0-19.0-0.0,14039,List1B,white,woman,,,,null,,,,
null,"<img src=""stim_listB/play4.gif""style=""height:400px;""></stim_listB>",,html-keyboard-response,325,1086003,0.0-19.0-1.0,14039,List1B,white,woman,,,,null,,,,
null,are playing with each other,,html-keyboard-response,326,1088006,0.0-19.0-2.0,14039,List1B,white,woman,,,,null,,,,
8727,,,survey-text,327,1096734,0.0-19.0-3.0,14039,List1B,white,woman,,,,,"{""Q0"":""Ruth and Luke are playing eachother ""}","<img src=""stim_listB/play4.gif""style=""height:400px;""></stim_listB>",are playing with each other,
null,"<div style=""font-size:60px;"">+</div>",,html-keyboard-response,328,1097237,0.0-19.0-0.1,14039,List1B,white,woman,,,,null,,,,
null,"<img src=""stim_listB/play5.gif""style=""height:400px;""></stim_listB>",,html-keyboard-response,329,1099239,0.0-19.0-1.1,14039,List1B,white,woman,,,,null,,,,
null,is playing with,,html-keyboard-response,330,1101243,0.0-19.0-2.1,14039,List1B,white,woman,,,,null,,,,
5609,,,survey-text,331,1106852,0.0-19.0-3.1,14039,List1B,white,woman,,,,,"{""Q0"":""Dave is playing with Mike""}","<img src=""stim_listB/play5.gif""style=""height:400px;""></stim_listB>",is playing with,
null,"<div style=""font-size:60px;"">+</div>",,html-keyboard-response,332,1107355,0.0-19.0-0.2,14039,List1B,white,woman,,,,null,,,,
null,"<img src=""stim_listB/touch1.gif""style=""height:400px;""></stim_listB>",,html-keyboard-response,333,1109358,0.0-19.0-1.2,14039,List1B,white,woman,,,,null,,,,
null,is touching,,html-keyboard-response,334,1111364,0.0-19.0-2.2,14039,List1B,white,woman,,,,null,,,,
7921,,,survey-text,335,1119286,0.0-19.0-3.2,14039,List1B,white,woman,,,,,"{""Q0"":""Mike is touching Kate""}","<img src=""stim_listB/touch1.gif""style=""height:400px;""></stim_listB>",is touching,
null,"<div style=""font-size:60px;"">+</div>",,html-keyboard-response,336,1119789,0.0-19.0-0.3,14039,List1B,white,woman,,,,null,,,,
null,"<img src=""stim_listB/marry7.gif""style=""height:400px;""></stim_listB>",,html-keyboard-response,337,1121792,0.0-19.0-1.3,14039,List1B,white,woman,,,,null,,,,
null,is marrying,,html-keyboard-response,338,1123795,0.0-19.0-2.3,14039,List1B,white,woman,,,,null,,,,
5678,,,survey-text,339,1129477,0.0-19.0-3.3,14039,List1B,white,woman,,,,,"{""Q0"":""Ruth is marrying Kate""}","<img src=""stim_listB/marry7.gif""style=""height:400px;""></stim_listB>",is marrying,
null,"<div style=""font-size:60px;"">+</div>",,html-keyboard-response,340,1129980,0.0-19.0-0.4,14039,List1B,white,woman,,,,null,,,,
null,"<img src=""stim_listB/play7.gif""style=""height:400px;""></stim_listB>",,html-keyboard-response,341,1131984,0.0-19.0-1.4,14039,List1B,white,woman,,,,null,,,,
null,is playing with,,html-keyboard-response,342,1133986,0.0-19.0-2.4,14039,List1B,white,woman,,,,null,,,,
5485,,,survey-text,343,1139472,0.0-19.0-3.4,14039,List1B,white,woman,,,,,"{""Q0"":""Jane is playing with Kate""}","<img src=""stim_listB/play7.gif""style=""height:400px;""></stim_listB>",is playing with,
null,"<div style=""font-size:60px;"">+</div>",,html-keyboard-response,344,1139975,0.0-19.0-0.5,14039,List1B,white,woman,,,,null,,,,
null,"<img src=""stim_listB/marry3.gif""style=""height:400px;""></stim_listB>",,html-keyboard-response,345,1141979,0.0-19.0-1.5,14039,List1B,white,woman,,,,null,,,,
null,is marrying,,html-keyboard-response,346,1143982,0.0-19.0-2.5,14039,List1B,white,woman,,,,null,,,,
4935,,,survey-text,347,1148920,0.0-19.0-3.5,14039,List1B,white,woman,,,,,"{""Q0"":""Ruth is marrying Dave""}","<img src=""stim_listB/marry3.gif""style=""height:400px;""></stim_listB>",is marrying,
null,"<div style=""font-size:60px;"">+</div>",,html-keyboard-response,348,1149423,0.0-19.0-0.6,14039,List1B,white,woman,,,,null,,,,
null,"<img src=""stim_listB/touch6.gif""style=""height:400px;""></stim_listB>",,html-keyboard-response,349,1151427,0.0-19.0-1.6,14039,List1B,white,woman,,,,null,,,,
null,are touching each other,,html-keyboard-response,350,1153430,0.0-19.0-2.6,14039,List1B,white,woman,,,,null,,,,
7455,,,survey-text,351,1160887,0.0-19.0-3.6,14039,List1B,white,woman,,,,,"{""Q0"":""Fred and Luke are touching eachother""}","<img src=""stim_listB/touch6.gif""style=""height:400px;""></stim_listB>",are touching each other,
null,"<div style=""font-size:60px;"">+</div>",,html-keyboard-response,352,1161390,0.0-19.0-0.7,14039,List1B,white,woman,,,,null,,,,
null,"<img src=""stim_listB/kiss1.gif""style=""height:400px;""></stim_listB>",,html-keyboard-response,353,1163393,0.0-19.0-1.7,14039,List1B,white,woman,,,,null,,,,
null,is kissing,,html-keyboard-response,354,1165396,0.0-19.0-2.7,14039,List1B,white,woman,,,,null,,,,
4561,,,survey-text,355,1169958,0.0-19.0-3.7,14039,List1B,white,woman,,,,,"{""Q0"":""Beth is kissing Fred""}","<img src=""stim_listB/kiss1.gif""style=""height:400px;""></stim_listB>",is kissing,
null,"<div style=""font-size:60px;"">+</div>",,html-keyboard-response,356,1170462,0.0-19.0-0.8,14039,List1B,white,woman,,,,null,,,,
null,"<img src=""stim_listB/fight4.gif""style=""height:400px;""></stim_listB>",,html-keyboard-response,357,1172465,0.0-19.0-1.8,14039,List1B,white,woman,,,,null,,,,
null,are fighting each other,,html-keyboard-response,358,1174470,0.0-19.0-2.8,14039,List1B,white,woman,,,,null,,,,
7445,,,survey-text,359,1181916,0.0-19.0-3.8,14039,List1B,white,woman,,,,,"{""Q0"":""Ruth and Luke are fighting eachother""}","<img src=""stim_listB/fight4.gif""style=""height:400px;""></stim_listB>",are fighting each other,
null,"<div style=""font-size:60px;"">+</div>",,html-keyboard-response,360,1182419,0.0-19.0-0.9,14039,List1B,white,woman,,,,null,,,,
null,"<img src=""stim_listB/talk1.gif""style=""height:400px;""></stim_listB>",,html-keyboard-response,361,1184422,0.0-19.0-1.9,14039,List1B,white,woman,,,,null,,,,
null,is talking to,,html-keyboard-response,362,1186426,0.0-19.0-2.9,14039,List1B,white,woman,,,,null,,,,
4309,,,survey-text,363,1190736,0.0-19.0-3.9,14039,List1B,white,woman,,,,,"{""Q0"":""Kate is talking to Fred""}","<img src=""stim_listB/talk1.gif""style=""height:400px;""></stim_listB>",is talking to,
null,"<div style=""font-size:60px;"">+</div>",,html-keyboard-response,364,1191239,0.0-19.0-0.10,14039,List1B,white,woman,,,,null,,,,
null,"<img src=""stim_listB/argue3.gif""style=""height:400px;""></stim_listB>",,html-keyboard-response,365,1193242,0.0-19.0-1.10,14039,List1B,white,woman,,,,null,,,,
null,is arguing with,,html-keyboard-response,366,1195245,0.0-19.0-2.10,14039,List1B,white,woman,,,,null,,,,
4726,,,survey-text,367,1199975,0.0-19.0-3.10,14039,List1B,white,woman,,,,,"{""Q0"":""Ruth is arguing with Dave""}","<img src=""stim_listB/argue3.gif""style=""height:400px;""></stim_listB>",is arguing with,
null,"<div style=""font-size:60px;"">+</div>",,html-keyboard-response,368,1200478,0.0-19.0-0.11,14039,List1B,white,woman,,,,null,,,,
null,"<img src=""stim_listB/shout2.gif""style=""height:400px;""></stim_listB>",,html-keyboard-response,369,1202481,0.0-19.0-1.11,14039,List1B,white,woman,,,,null,,,,
null,are shouting at each other,,html-keyboard-response,370,1204485,0.0-19.0-2.11,14039,List1B,white,woman,,,,null,,,,
14775,,,survey-text,371,1219263,0.0-19.0-3.11,14039,List1B,white,woman,,,,,"{""Q0"":""Mike and Kate are arguing with eachother""}","<img src=""stim_listB/shout2.gif""style=""height:400px;""></stim_listB>",are shouting at each other,
null,"<div style=""font-size:60px;"">+</div>",,html-keyboard-response,372,1219766,0.0-19.0-0.12,14039,List1B,white,woman,,,,null,,,,
null,"<img src=""stim_listB/touch7.gif""style=""height:400px;""></stim_listB>",,html-keyboard-response,373,1221769,0.0-19.0-1.12,14039,List1B,white,woman,,,,null,,,,
null,is touching,,html-keyboard-response,374,1223773,0.0-19.0-2.12,14039,List1B,white,woman,,,,null,,,,
3706,,,survey-text,375,1227479,0.0-19.0-3.12,14039,List1B,white,woman,,,,,"{""Q0"":""Kate is touching Jane""}","<img src=""stim_listB/touch7.gif""style=""height:400px;""></stim_listB>",is touching,
null,"<div style=""font-size:60px;"">+</div>",,html-keyboard-response,376,1227983,0.0-19.0-0.13,14039,List1B,white,woman,,,,null,,,,
null,"<img src=""stim_listB/play2.gif""style=""height:400px;""></stim_listB>",,html-keyboard-response,377,1229986,0.0-19.0-1.13,14039,List1B,white,woman,,,,null,,,,
null,are playing with each other,,html-keyboard-response,378,1231990,0.0-19.0-2.13,14039,List1B,white,woman,,,,null,,,,
7359,,,survey-text,379,1239350,0.0-19.0-3.13,14039,List1B,white,woman,,,,,"{""Q0"":""Fred and Beth are playing with eachother""}","<img src=""stim_listB/play2.gif""style=""height:400px;""></stim_listB>",are playing with each other,
null,"<div style=""font-size:60px;"">+</div>",,html-keyboard-response,380,1239854,0.0-19.0-0.14,14039,List1B,white,woman,,,,null,,,,
null,"<img src=""stim_listB/touch3.gif""style=""height:400px;""></stim_listB>",,html-keyboard-response,381,1241857,0.0-19.0-1.14,14039,List1B,white,woman,,,,null,,,,
null,is touching,,html-keyboard-response,382,1243860,0.0-19.0-2.14,14039,List1B,white,woman,,,,null,,,,
5106,,,survey-text,383,1248967,0.0-19.0-3.14,14039,List1B,white,woman,,,,,"{""Q0"":""Dave is touching Jane""}","<img src=""stim_listB/touch3.gif""style=""height:400px;""></stim_listB>",is touching,
null,"<div style=""font-size:60px;"">+</div>",,html-keyboard-response,384,1249471,0.0-19.0-0.15,14039,List1B,white,woman,,,,null,,,,
null,"<img src=""stim_listB/touch4.gif""style=""height:400px;""></stim_listB>",,html-keyboard-response,385,1251474,0.0-19.0-1.15,14039,List1B,white,woman,,,,null,,,,
null,are touching each other,,html-keyboard-response,386,1253477,0.0-19.0-2.15,14039,List1B,white,woman,,,,null,,,,
6868,,,survey-text,387,1260346,0.0-19.0-3.15,14039,List1B,white,woman,,,,,"{""Q0"":""Luke and Ruth are touching eachother""}","<img src=""stim_listB/touch4.gif""style=""height:400px;""></stim_listB>",are touching each other,
null,"<div style=""font-size:60px;"">+</div>",,html-keyboard-response,388,1260849,0.0-19.0-0.16,14039,List1B,white,woman,,,,null,,,,
null,"<img src=""stim_listB/flirt8.gif""style=""height:400px;""></stim_listB>",,html-keyboard-response,389,1262852,0.0-19.0-1.16,14039,List1B,white,woman,,,,null,,,,
null,are flirting with each other,,html-keyboard-response,390,1264855,0.0-19.0-2.16,14039,List1B,white,woman,,,,null,,,,
6516,,,survey-text,391,1271372,0.0-19.0-3.16,14039,List1B,white,woman,,,,,"{""Q0"":""Kate and Ruth are flirting with eachother""}","<img src=""stim_listB/flirt8.gif""style=""height:400px;""></stim_listB>",are flirting with each other,
null,"<div style=""font-size:60px;"">+</div>",,html-keyboard-response,392,1271876,0.0-19.0-0.17,14039,List1B,white,woman,,,,null,,,,
null,"<img src=""stim_listB/argue8.gif""style=""height:400px;""></stim_listB>",,html-keyboard-response,393,1273881,0.0-19.0-1.17,14039,List1B,white,woman,,,,null,,,,
null,are arguing with each other,,html-keyboard-response,394,1275885,0.0-19.0-2.17,14039,List1B,white,woman,,,,null,,,,
6848,,,survey-text,395,1282734,0.0-19.0-3.17,14039,List1B,white,woman,,,,,"{""Q0"":""Beth and Jane are arguing with eachother""}","<img src=""stim_listB/argue8.gif""style=""height:400px;""></stim_listB>",are arguing with each other,
null,"<div style=""font-size:60px;"">+</div>",,html-keyboard-response,396,1283238,0.0-19.0-0.18,14039,List1B,white,woman,,,,null,,,,
null,"<img src=""stim_listB/fight2.gif""style=""height:400px;""></stim_listB>",,html-keyboard-response,397,1285241,0.0-19.0-1.18,14039,List1B,white,woman,,,,null,,,,
null,are fighting each other,,html-keyboard-response,398,1287244,0.0-19.0-2.18,14039,List1B,white,woman,,,,null,,,,
8848,,,survey-text,399,1296095,0.0-19.0-3.18,14039,List1B,white,woman,,,,,"{""Q0"":""Fred and Beth are arguing with eachother""}","<img src=""stim_listB/fight2.gif""style=""height:400px;""></stim_listB>",are fighting each other,
null,"<div style=""font-size:60px;"">+</div>",,html-keyboard-response,400,1296598,0.0-19.0-0.19,14039,List1B,white,woman,,,,null,,,,
null,"<img src=""stim_listB/argue2.gif""style=""height:400px;""></stim_listB>",,html-keyboard-response,401,1298601,0.0-19.0-1.19,14039,List1B,white,woman,,,,null,,,,
null,are arguing with each other,,html-keyboard-response,402,1300604,0.0-19.0-2.19,14039,List1B,white,woman,,,,null,,,,
10464,,,survey-text,403,1311071,0.0-19.0-3.19,14039,List1B,white,woman,,,,,"{""Q0"":""Fred and Kate are arguing with eachother""}","<img src=""stim_listB/argue2.gif""style=""height:400px;""></stim_listB>",are arguing with each other,
2241,<p>Thank you for completing that task.</p><p>The final part of this session is a short questionnaire.</p><p>Press Continue.</p>,0,html-button-response,404,1313314,0.0-20.0,14039,List1B,white,woman,,,,,,,,
17947,,,survey-text,405,1332263,0.0-21.0,14039,List1B,white,woman,,,,,"{""Q0"":""21"",""Q1"":""English"",""Q2"":""English"",""Q3"":""Wales"",""Q4"":""British"",""Q5"":""Female""}",,,demographics
6004,,,survey-likert,406,1338271,0.0-22.0,14039,List1B,white,woman,,,,,"{""Q0"":4}",,,likert_ESS
5986,,,survey-likert,407,1344262,0.0-23.0,14039,List1B,white,woman,,,,,"{""Q0"":4}",,,likert_NSSAL_Q1
6267,,,survey-likert,408,1350534,0.0-24.0,14039,List1B,white,woman,,,,,"{""Q0"":4}",,,likert_NSSAL_Q2
4333,,,survey-likert,409,1354871,0.0-25.0,14039,List1B,white,woman,,,,,"{""Q0"":4}",,,likert_CGRS_Q1
3946,,,survey-likert,410,1358821,0.0-26.0,14039,List1B,white,woman,,,,,"{""Q0"":4}",,,likert_CGRS_Q2
3574,,,survey-likert,411,1362400,0.0-27.0,14039,List1B,white,woman,,,,,"{""Q0"":4}",,,likert_CGRS_Q3
3447,,,survey-text,412,1365851,0.0-28.0,14039,List1B,white,woman,,,,,"{""Q0"":""ccc""}",,,worker_id
7369,,,external-html,413,1373275,0.0-29.0,14039,List1B,white,woman,debrief.html,,,,,,,
