rt,stimulus,button_pressed,trial_type,trial_index,time_elapsed,internal_node_id,subject,list,ppt_race,ppt_gender,url,first_guess,correct,key_press,responses,image_type,phrase_type,test_part
2454,Welcome to the experiment. Press Continue to begin.,0,html-button-response,0,2458,0.0-0.0,14304,List1A,white,man,,,,,,,,
106803,,,external-html,1,110323,0.0-1.0,14304,List1A,white,man,consent.html,,,,,,,
6540,"<p>On the next page, you will see portraits of 8 people and their names.</p><p>Your first task is to take a few minutes to memorise the names of these people.</p><p>You will have to recall their names during the rest of the experiment, so it is</p><p>essential that you try to memorise these people and their names as best as you can.</p><br><p><strong>You will then be tested on your memory of these names and portraits.</strong></p><br><p>The experiment will start after you have completed this memory test.</p><br><p>Ready?</p>",0,html-button-response,2,116866,0.0-2.0,14304,List1A,white,man,,,,,,,,
133830,"<img src='img/portrait_matrix_list1.jpg' style='width:900px;height:500px;''></img><p>If you have memorised all the portraits and names and are ready to start, press Continue.</p><p><strong>Please note: Your memory of these faces will be tested 4 times during this experiment.</strong></p>",0,html-button-response,3,251706,0.0-3.0-0.0,14304,List1A,white,man,,,,,,,,
6547,"<img src=""portrait/WW1.jpg""style=""height:400px;""></img>",1,html-button-response,4,259257,0.0-3.0-1.0,14304,List1A,white,man,,TRUE,1,,,,,
null,CORRECT,,html-keyboard-response,5,260770,0.0-3.0-2.0-0.0,14304,List1A,white,man,,,,null,,,,
6269,"<img src=""portrait/WW2.jpg""style=""height:400px;""></img>",2,html-button-response,6,267042,0.0-3.0-4.0,14304,List1A,white,man,,TRUE,3,,,,,
5690,"<img src=""portrait/WW2.jpg""style=""height:400px;""></img>",3,html-button-response,7,273738,0.0-3.0-6.0-0.0,14304,List1A,white,man,,FALSE,3,,,,,
null,CORRECT,,html-keyboard-response,8,275251,0.0-3.0-6.0-1.0-0.0,14304,List1A,white,man,,,,null,,,,
5291,"<img src=""portrait/BM2.jpg""style=""height:400px;""></img>",5,html-button-response,9,280545,0.0-3.0-7.0,14304,List1A,white,man,,TRUE,5,,,,,
null,CORRECT,,html-keyboard-response,10,282050,0.0-3.0-8.0-0.0,14304,List1A,white,man,,,,null,,,,
4397,"<img src=""portrait/BM1.jpg""style=""height:400px;""></img>",4,html-button-response,11,286450,0.0-3.0-10.0,14304,List1A,white,man,,TRUE,4,,,,,
null,CORRECT,,html-keyboard-response,12,287957,0.0-3.0-11.0-0.0,14304,List1A,white,man,,,,null,,,,
9793,"<img src=""portrait/BW2.jpg""style=""height:400px;""></img>",2,html-button-response,13,297753,0.0-3.0-13.0,14304,List1A,white,man,,TRUE,2,,,,,
null,CORRECT,,html-keyboard-response,14,299266,0.0-3.0-14.0-0.0,14304,List1A,white,man,,,,null,,,,
5428,"<img src=""portrait/WM1.jpg""style=""height:400px;""></img>",6,html-button-response,15,304698,0.0-3.0-16.0,14304,List1A,white,man,,TRUE,6,,,,,
null,CORRECT,,html-keyboard-response,16,306203,0.0-3.0-17.0-0.0,14304,List1A,white,man,,,,null,,,,
4651,"<img src=""portrait/BW1.jpg""style=""height:400px;""></img>",0,html-button-response,17,310858,0.0-3.0-19.0,14304,List1A,white,man,,TRUE,0,,,,,
null,CORRECT,,html-keyboard-response,18,312364,0.0-3.0-20.0-0.0,14304,List1A,white,man,,,,null,,,,
5627,"<img src=""portrait/WM2.jpg""style=""height:400px;""></img>",7,html-button-response,19,317994,0.0-3.0-22.0,14304,List1A,white,man,,TRUE,7,,,,,
null,CORRECT,,html-keyboard-response,20,319503,0.0-3.0-23.0-0.0,14304,List1A,white,man,,,,null,,,,
1864,<p>You got 7 out of 8 right first time. Press Continue.</p>,0,html-button-response,21,321369,0.0-3.0-25.0,14304,List1A,white,man,,,,,,,,
2725,"As you did not score 100%, the memory game will repeat. Press Continue.",0,html-button-response,22,325097,0.0-3.0-26.0-0.0,14304,List1A,white,man,,,,,,,,
2248,"<img src='img/portrait_matrix_list1.jpg' style='width:900px;height:500px;''></img><p>If you have memorised all the portraits and names and are ready to start, press Continue.</p><p><strong>Please note: Your memory of these faces will be tested 4 times during this experiment.</strong></p>",0,html-button-response,23,328353,0.0-3.1-0.1,14304,List1A,white,man,,,,,,,,
7197,"<img src=""portrait/WW1.jpg""style=""height:400px;""></img>",1,html-button-response,24,336553,0.0-3.1-1.1,14304,List1A,white,man,,TRUE,1,,,,,
null,CORRECT,,html-keyboard-response,25,338059,0.0-3.1-2.1-0.1,14304,List1A,white,man,,,,null,,,,
3372,"<img src=""portrait/WW2.jpg""style=""height:400px;""></img>",3,html-button-response,26,341433,0.0-3.1-4.1,14304,List1A,white,man,,TRUE,3,,,,,
null,CORRECT,,html-keyboard-response,27,342939,0.0-3.1-5.1-0.1,14304,List1A,white,man,,,,null,,,,
3101,"<img src=""portrait/BM2.jpg""style=""height:400px;""></img>",5,html-button-response,28,346042,0.0-3.1-7.1,14304,List1A,white,man,,TRUE,5,,,,,
null,CORRECT,,html-keyboard-response,29,347550,0.0-3.1-8.1-0.1,14304,List1A,white,man,,,,null,,,,
3888,"<img src=""portrait/BM1.jpg""style=""height:400px;""></img>",4,html-button-response,30,351442,0.0-3.1-10.1,14304,List1A,white,man,,TRUE,4,,,,,
null,CORRECT,,html-keyboard-response,31,352946,0.0-3.1-11.1-0.1,14304,List1A,white,man,,,,null,,,,
3397,"<img src=""portrait/BW2.jpg""style=""height:400px;""></img>",2,html-button-response,32,356345,0.0-3.1-13.1,14304,List1A,white,man,,TRUE,2,,,,,
null,CORRECT,,html-keyboard-response,33,357857,0.0-3.1-14.1-0.1,14304,List1A,white,man,,,,null,,,,
2798,"<img src=""portrait/WM1.jpg""style=""height:400px;""></img>",6,html-button-response,34,360657,0.0-3.1-16.1,14304,List1A,white,man,,TRUE,6,,,,,
null,CORRECT,,html-keyboard-response,35,362165,0.0-3.1-17.1-0.1,14304,List1A,white,man,,,,null,,,,
3259,"<img src=""portrait/BW1.jpg""style=""height:400px;""></img>",0,html-button-response,36,365425,0.0-3.1-19.1,14304,List1A,white,man,,TRUE,0,,,,,
null,CORRECT,,html-keyboard-response,37,366935,0.0-3.1-20.1-0.1,14304,List1A,white,man,,,,null,,,,
3161,"<img src=""portrait/WM2.jpg""style=""height:400px;""></img>",7,html-button-response,38,370098,0.0-3.1-22.1,14304,List1A,white,man,,TRUE,7,,,,,
null,CORRECT,,html-keyboard-response,39,371608,0.0-3.1-23.1-0.1,14304,List1A,white,man,,,,null,,,,
1600,<p>You got 8 out of 8 right first time. Press Continue.</p>,0,html-button-response,40,373209,0.0-3.1-25.1,14304,List1A,white,man,,,,,,,,
20291,"<p>In this experiment, you will view photographs of the people from the memory game interacting.</p><p>By using the <strong>exact</strong> phrase given <i>after</i> the photograph appears and recalling the correct names of the people in the photographs, form a sentence describing the interaction. You do not need to capitalise names.</p><p>Type your answer in the space provided. Please complete every sentence before moving onto the next trial.</p><p>You will only have a few seconds to memorise each given photograph and phrase before you can respond, so try your best to focus.</p><p>An example is given below. Press 'Continue' when you are ready.</p><img src='img/speaking_example.jpg' style='width:800px;height:460px;''></img>",0,html-button-response,41,394506,0.0-4.0,14304,List1A,white,man,,,,,,,,
4464,"<p>Before the experiment starts, you will watch two example trials. Press 'Continue'.</p>",0,html-button-response,42,399977,0.0-5.0,14304,List1A,white,man,,,,,,,,
null,<img src='img/meet_eg.gif' style='height:400px;''></img>,,html-keyboard-response,43,402990,0.0-6.0,14304,List1A,white,man,,,,null,,,,
null,<p>is meeting</p>,,html-keyboard-response,44,404994,0.0-7.0,14304,List1A,white,man,,,,null,,,,
7567,<p><b>Answer:</b> kate is meeting beth</p>,0,html-button-response,45,412562,0.0-8.0,14304,List1A,white,man,,,,,,,,
null,<img src='img/look_eg.gif' style='height:400px;''></img>,,html-keyboard-response,46,415571,0.0-9.0,14304,List1A,white,man,,,,null,,,,
null,<p>are looking at each other</p>,,html-keyboard-response,47,417577,0.0-10.0,14304,List1A,white,man,,,,null,,,,
7432,<p><b>Answer:</b> luke and dave are looking at each other</p>,0,html-button-response,48,425010,0.0-11.0,14304,List1A,white,man,,,,,,,,
6468,"<p>Ready to start the experiment?</p><br><p><strong>Remember to describe the picture using a full sentence,</strong></p><p><strong>that combines the names of the people with the <i>exact</i> phrase given.</strong></p><p><strong>To receive full payment you must do this correctly.</strong></p><p><strong> You do not need to capitalise names or use punctuation.</strong></p><br><p>Press 'Continue' to begin.</p>",0,html-button-response,49,432482,0.0-12.0,14304,List1A,white,man,,,,,,,,
null,"<div style=""font-size:60px;"">+</div>",,html-keyboard-response,50,433988,0.0-13.0-0.0,14304,List1A,white,man,,,,null,,,,
null,"<img src=""stim_listA/argue5.gif""style=""height:400px;""></stim_listA>",,html-keyboard-response,51,435990,0.0-13.0-1.0,14304,List1A,white,man,,,,null,,,,
null,is arguing with,,html-keyboard-response,52,437994,0.0-13.0-2.0,14304,List1A,white,man,,,,null,,,,
23069,,,survey-text,53,461066,0.0-13.0-3.0,14304,List1A,white,man,,,,,"{""Q0"":""mike is argueing with luke""}","<img src=""stim_listA/argue5.gif""style=""height:400px;""></stim_listA>",is arguing with,
null,"<div style=""font-size:60px;"">+</div>",,html-keyboard-response,54,461571,0.0-13.0-0.1,14304,List1A,white,man,,,,null,,,,
null,"<img src=""stim_listA/marry2.gif""style=""height:400px;""></stim_listA>",,html-keyboard-response,55,463573,0.0-13.0-1.1,14304,List1A,white,man,,,,null,,,,
null,are marrying each other,,html-keyboard-response,56,465580,0.0-13.0-2.1,14304,List1A,white,man,,,,null,,,,
17004,,,survey-text,57,482585,0.0-13.0-3.1,14304,List1A,white,man,,,,,"{""Q0"":""fred and kate are marrying each other""}","<img src=""stim_listA/marry2.gif""style=""height:400px;""></stim_listA>",are marrying each other,
null,"<div style=""font-size:60px;"">+</div>",,html-keyboard-response,58,483092,0.0-13.0-0.2,14304,List1A,white,man,,,,null,,,,
null,"<img src=""stim_listA/shout5.gif""style=""height:400px;""></stim_listA>",,html-keyboard-response,59,485096,0.0-13.0-1.2,14304,List1A,white,man,,,,null,,,,
null,is shouting at,,html-keyboard-response,60,487098,0.0-13.0-2.2,14304,List1A,white,man,,,,null,,,,
10951,,,survey-text,61,498050,0.0-13.0-3.2,14304,List1A,white,man,,,,,"{""Q0"":""fred is shouting at luke""}","<img src=""stim_listA/shout5.gif""style=""height:400px;""></stim_listA>",is shouting at,
null,"<div style=""font-size:60px;"">+</div>",,html-keyboard-response,62,498554,0.0-13.0-0.3,14304,List1A,white,man,,,,null,,,,
null,"<img src=""stim_listA/fight7.gif""style=""height:400px;""></stim_listA>",,html-keyboard-response,63,500562,0.0-13.0-1.3,14304,List1A,white,man,,,,null,,,,
null,is fighting,,html-keyboard-response,64,502564,0.0-13.0-2.3,14304,List1A,white,man,,,,null,,,,
14828,,,survey-text,65,517393,0.0-13.0-3.3,14304,List1A,white,man,,,,,"{""Q0"":""kate is fighting jane""}","<img src=""stim_listA/fight7.gif""style=""height:400px;""></stim_listA>",is fighting,
null,"<div style=""font-size:60px;"">+</div>",,html-keyboard-response,66,517895,0.0-13.0-0.4,14304,List1A,white,man,,,,null,,,,
null,"<img src=""stim_listA/shout4.gif""style=""height:400px;""></stim_listA>",,html-keyboard-response,67,519897,0.0-13.0-1.4,14304,List1A,white,man,,,,null,,,,
null,are shouting at each other,,html-keyboard-response,68,521902,0.0-13.0-2.4,14304,List1A,white,man,,,,null,,,,
20514,,,survey-text,69,542417,0.0-13.0-3.4,14304,List1A,white,man,,,,,"{""Q0"":""jane and luke are shouting at each other""}","<img src=""stim_listA/shout4.gif""style=""height:400px;""></stim_listA>",are shouting at each other,
null,"<div style=""font-size:60px;"">+</div>",,html-keyboard-response,70,542920,0.0-13.0-0.5,14304,List1A,white,man,,,,null,,,,
null,"<img src=""stim_listA/touch2.gif""style=""height:400px;""></stim_listA>",,html-keyboard-response,71,544922,0.0-13.0-1.5,14304,List1A,white,man,,,,null,,,,
null,are touching each other,,html-keyboard-response,72,546927,0.0-13.0-2.5,14304,List1A,white,man,,,,null,,,,
15123,,,survey-text,73,562050,0.0-13.0-3.5,14304,List1A,white,man,,,,,"{""Q0"":""fred and beth are touching each other""}","<img src=""stim_listA/touch2.gif""style=""height:400px;""></stim_listA>",are touching each other,
null,"<div style=""font-size:60px;"">+</div>",,html-keyboard-response,74,562552,0.0-13.0-0.6,14304,List1A,white,man,,,,null,,,,
null,"<img src=""stim_listA/fight8.gif""style=""height:400px;""></stim_listA>",,html-keyboard-response,75,564556,0.0-13.0-1.6,14304,List1A,white,man,,,,null,,,,
null,are fighting each other,,html-keyboard-response,76,566562,0.0-13.0-2.6,14304,List1A,white,man,,,,null,,,,
13614,,,survey-text,77,580177,0.0-13.0-3.6,14304,List1A,white,man,,,,,"{""Q0"":""beth and ruth are fighting each other""}","<img src=""stim_listA/fight8.gif""style=""height:400px;""></stim_listA>",are fighting each other,
null,"<div style=""font-size:60px;"">+</div>",,html-keyboard-response,78,580680,0.0-13.0-0.7,14304,List1A,white,man,,,,null,,,,
null,"<img src=""stim_listA/talk5.gif""style=""height:400px;""></stim_listA>",,html-keyboard-response,79,582682,0.0-13.0-1.7,14304,List1A,white,man,,,,null,,,,
null,is talking to,,html-keyboard-response,80,584686,0.0-13.0-2.7,14304,List1A,white,man,,,,null,,,,
11707,,,survey-text,81,596394,0.0-13.0-3.7,14304,List1A,white,man,,,,,"{""Q0"":""fred is talking to dave""}","<img src=""stim_listA/talk5.gif""style=""height:400px;""></stim_listA>",is talking to,
null,"<div style=""font-size:60px;"">+</div>",,html-keyboard-response,82,596897,0.0-13.0-0.8,14304,List1A,white,man,,,,null,,,,
null,"<img src=""stim_listA/talk8.gif""style=""height:400px;""></stim_listA>",,html-keyboard-response,83,598900,0.0-13.0-1.8,14304,List1A,white,man,,,,null,,,,
null,are talking to each other,,html-keyboard-response,84,600901,0.0-13.0-2.8,14304,List1A,white,man,,,,null,,,,
12908,,,survey-text,85,613810,0.0-13.0-3.8,14304,List1A,white,man,,,,,"{""Q0"":""ruth is talking to kate""}","<img src=""stim_listA/talk8.gif""style=""height:400px;""></stim_listA>",are talking to each other,
null,"<div style=""font-size:60px;"">+</div>",,html-keyboard-response,86,614313,0.0-13.0-0.9,14304,List1A,white,man,,,,null,,,,
null,"<img src=""stim_listA/flirt1.gif""style=""height:400px;""></stim_listA>",,html-keyboard-response,87,616321,0.0-13.0-1.9,14304,List1A,white,man,,,,null,,,,
null,is flirting with,,html-keyboard-response,88,618323,0.0-13.0-2.9,14304,List1A,white,man,,,,null,,,,
11181,,,survey-text,89,629505,0.0-13.0-3.9,14304,List1A,white,man,,,,,"{""Q0"":""fred is flirting with kate""}","<img src=""stim_listA/flirt1.gif""style=""height:400px;""></stim_listA>",is flirting with,
null,"<div style=""font-size:60px;"">+</div>",,html-keyboard-response,90,630012,0.0-13.0-0.10,14304,List1A,white,man,,,,null,,,,
null,"<img src=""stim_listA/touch4.gif""style=""height:400px;""></stim_listA>",,html-keyboard-response,91,632014,0.0-13.0-1.10,14304,List1A,white,man,,,,null,,,,
null,are touching each other,,html-keyboard-response,92,634016,0.0-13.0-2.10,14304,List1A,white,man,,,,null,,,,
12673,,,survey-text,93,646690,0.0-13.0-3.10,14304,List1A,white,man,,,,,"{""Q0"":""ruth and luke are touching each other""}","<img src=""stim_listA/touch4.gif""style=""height:400px;""></stim_listA>",are touching each other,
null,"<div style=""font-size:60px;"">+</div>",,html-keyboard-response,94,647192,0.0-13.0-0.11,14304,List1A,white,man,,,,null,,,,
null,"<img src=""stim_listA/flirt6.gif""style=""height:400px;""></stim_listA>",,html-keyboard-response,95,649197,0.0-13.0-1.11,14304,List1A,white,man,,,,null,,,,
null,are flirting with each other,,html-keyboard-response,96,651200,0.0-13.0-2.11,14304,List1A,white,man,,,,null,,,,
15562,,,survey-text,97,666764,0.0-13.0-3.11,14304,List1A,white,man,,,,,"{""Q0"":""mike and luke are flirting with each other""}","<img src=""stim_listA/flirt6.gif""style=""height:400px;""></stim_listA>",are flirting with each other,
null,"<div style=""font-size:60px;"">+</div>",,html-keyboard-response,98,667267,0.0-13.0-0.12,14304,List1A,white,man,,,,null,,,,
null,"<img src=""stim_listA/touch8.gif""style=""height:400px;""></stim_listA>",,html-keyboard-response,99,669270,0.0-13.0-1.12,14304,List1A,white,man,,,,null,,,,
null,are touching each other,,html-keyboard-response,100,671273,0.0-13.0-2.12,14304,List1A,white,man,,,,null,,,,
11965,,,survey-text,101,683242,0.0-13.0-3.12,14304,List1A,white,man,,,,,"{""Q0"":""beth and ruth are touching each other""}","<img src=""stim_listA/touch8.gif""style=""height:400px;""></stim_listA>",are touching each other,
null,"<div style=""font-size:60px;"">+</div>",,html-keyboard-response,102,683747,0.0-13.0-0.13,14304,List1A,white,man,,,,null,,,,
null,"<img src=""stim_listA/talk4.gif""style=""height:400px;""></stim_listA>",,html-keyboard-response,103,685749,0.0-13.0-1.13,14304,List1A,white,man,,,,null,,,,
null,are talking to each other,,html-keyboard-response,104,687751,0.0-13.0-2.13,14304,List1A,white,man,,,,null,,,,
21592,,,survey-text,105,709345,0.0-13.0-3.13,14304,List1A,white,man,,,,,"{""Q0"":""ruth and luke are talking to each other""}","<img src=""stim_listA/talk4.gif""style=""height:400px;""></stim_listA>",are talking to each other,
null,"<div style=""font-size:60px;"">+</div>",,html-keyboard-response,106,709849,0.0-13.0-0.14,14304,List1A,white,man,,,,null,,,,
null,"<img src=""stim_listA/talk6.gif""style=""height:400px;""></stim_listA>",,html-keyboard-response,107,711851,0.0-13.0-1.14,14304,List1A,white,man,,,,null,,,,
null,are talking to each other,,html-keyboard-response,108,713855,0.0-13.0-2.14,14304,List1A,white,man,,,,null,,,,
17194,,,survey-text,109,731050,0.0-13.0-3.14,14304,List1A,white,man,,,,,"{""Q0"":""mike and luke are talking to each other""}","<img src=""stim_listA/talk6.gif""style=""height:400px;""></stim_listA>",are talking to each other,
null,"<div style=""font-size:60px;"">+</div>",,html-keyboard-response,110,731555,0.0-13.0-0.15,14304,List1A,white,man,,,,null,,,,
null,"<img src=""stim_listA/argue2.gif""style=""height:400px;""></stim_listA>",,html-keyboard-response,111,733561,0.0-13.0-1.15,14304,List1A,white,man,,,,null,,,,
null,are arguing with each other,,html-keyboard-response,112,735563,0.0-13.0-2.15,14304,List1A,white,man,,,,null,,,,
15342,,,survey-text,113,750907,0.0-13.0-3.15,14304,List1A,white,man,,,,,"{""Q0"":""fred and kate are arguing with each other""}","<img src=""stim_listA/argue2.gif""style=""height:400px;""></stim_listA>",are arguing with each other,
null,"<div style=""font-size:60px;"">+</div>",,html-keyboard-response,114,751409,0.0-13.0-0.16,14304,List1A,white,man,,,,null,,,,
null,"<img src=""stim_listA/flirt3.gif""style=""height:400px;""></stim_listA>",,html-keyboard-response,115,753410,0.0-13.0-1.16,14304,List1A,white,man,,,,null,,,,
null,is flirting with,,html-keyboard-response,116,755414,0.0-13.0-2.16,14304,List1A,white,man,,,,null,,,,
11860,,,survey-text,117,767274,0.0-13.0-3.16,14304,List1A,white,man,,,,,"{""Q0"":""jane is flirting with luke""}","<img src=""stim_listA/flirt3.gif""style=""height:400px;""></stim_listA>",is flirting with,
null,"<div style=""font-size:60px;"">+</div>",,html-keyboard-response,118,767778,0.0-13.0-0.17,14304,List1A,white,man,,,,null,,,,
null,"<img src=""stim_listA/marry4.gif""style=""height:400px;""></stim_listA>",,html-keyboard-response,119,769781,0.0-13.0-1.17,14304,List1A,white,man,,,,null,,,,
null,are marrying each other,,html-keyboard-response,120,771782,0.0-13.0-2.17,14304,List1A,white,man,,,,null,,,,
10955,,,survey-text,121,782738,0.0-13.0-3.17,14304,List1A,white,man,,,,,"{""Q0"":""jane and luke are marrying each other""}","<img src=""stim_listA/marry4.gif""style=""height:400px;""></stim_listA>",are marrying each other,
null,"<div style=""font-size:60px;"">+</div>",,html-keyboard-response,122,783242,0.0-13.0-0.18,14304,List1A,white,man,,,,null,,,,
null,"<img src=""stim_listA/talk1.gif""style=""height:400px;""></stim_listA>",,html-keyboard-response,123,785246,0.0-13.0-1.18,14304,List1A,white,man,,,,null,,,,
null,is talking to,,html-keyboard-response,124,787249,0.0-13.0-2.18,14304,List1A,white,man,,,,null,,,,
10040,,,survey-text,125,797289,0.0-13.0-3.18,14304,List1A,white,man,,,,,"{""Q0"":""fred is talking to kate""}","<img src=""stim_listA/talk1.gif""style=""height:400px;""></stim_listA>",is talking to,
null,"<div style=""font-size:60px;"">+</div>",,html-keyboard-response,126,797794,0.0-13.0-0.19,14304,List1A,white,man,,,,null,,,,
null,"<img src=""stim_listA/marry6.gif""style=""height:400px;""></stim_listA>",,html-keyboard-response,127,799795,0.0-13.0-1.19,14304,List1A,white,man,,,,null,,,,
null,are marrying each other,,html-keyboard-response,128,801795,0.0-13.0-2.19,14304,List1A,white,man,,,,null,,,,
12391,,,survey-text,129,814186,0.0-13.0-3.19,14304,List1A,white,man,,,,,"{""Q0"":""fred and dave are marrying each other""}","<img src=""stim_listA/marry6.gif""style=""height:400px;""></stim_listA>",are marrying each other,
9735,"<img src='img/portrait_matrix_list1.jpg' style='width:900px;height:500px;''></img><p>If you have memorised all the portraits and names and are ready to start, press Continue.</p><p><strong>Please note: Your memory of these faces will be tested 4 times during this experiment.</strong></p>",0,html-button-response,130,823923,0.0-14.0-0.0,14304,List1A,white,man,,,,,,,,
3746,"<img src=""portrait/WM2.jpg""style=""height:400px;""></img>",7,html-button-response,131,828673,0.0-14.0-1.0,14304,List1A,white,man,,TRUE,7,,,,,
null,CORRECT,,html-keyboard-response,132,830179,0.0-14.0-2.0-0.0,14304,List1A,white,man,,,,null,,,,
3333,"<img src=""portrait/WW1.jpg""style=""height:400px;""></img>",1,html-button-response,133,833514,0.0-14.0-4.0,14304,List1A,white,man,,TRUE,1,,,,,
null,CORRECT,,html-keyboard-response,134,835017,0.0-14.0-5.0-0.0,14304,List1A,white,man,,,,null,,,,
2670,"<img src=""portrait/WM1.jpg""style=""height:400px;""></img>",6,html-button-response,135,837690,0.0-14.0-7.0,14304,List1A,white,man,,TRUE,6,,,,,
null,CORRECT,,html-keyboard-response,136,839202,0.0-14.0-8.0-0.0,14304,List1A,white,man,,,,null,,,,
4701,"<img src=""portrait/BM1.jpg""style=""height:400px;""></img>",4,html-button-response,137,843906,0.0-14.0-10.0,14304,List1A,white,man,,TRUE,4,,,,,
null,CORRECT,,html-keyboard-response,138,845413,0.0-14.0-11.0-0.0,14304,List1A,white,man,,,,null,,,,
4362,"<img src=""portrait/WW2.jpg""style=""height:400px;""></img>",3,html-button-response,139,849778,0.0-14.0-13.0,14304,List1A,white,man,,TRUE,3,,,,,
null,CORRECT,,html-keyboard-response,140,851282,0.0-14.0-14.0-0.0,14304,List1A,white,man,,,,null,,,,
3743,"<img src=""portrait/BM2.jpg""style=""height:400px;""></img>",5,html-button-response,141,855026,0.0-14.0-16.0,14304,List1A,white,man,,TRUE,5,,,,,
null,CORRECT,,html-keyboard-response,142,856535,0.0-14.0-17.0-0.0,14304,List1A,white,man,,,,null,,,,
3704,"<img src=""portrait/BW2.jpg""style=""height:400px;""></img>",2,html-button-response,143,860242,0.0-14.0-19.0,14304,List1A,white,man,,TRUE,2,,,,,
null,CORRECT,,html-keyboard-response,144,861751,0.0-14.0-20.0-0.0,14304,List1A,white,man,,,,null,,,,
3209,"<img src=""portrait/BW1.jpg""style=""height:400px;""></img>",0,html-button-response,145,864962,0.0-14.0-22.0,14304,List1A,white,man,,TRUE,0,,,,,
null,CORRECT,,html-keyboard-response,146,866471,0.0-14.0-23.0-0.0,14304,List1A,white,man,,,,null,,,,
1736,<p>You got 8 out of 8 right first time. Press Continue.</p>,0,html-button-response,147,868210,0.0-14.0-25.0,14304,List1A,white,man,,,,,,,,
null,"<div style=""font-size:60px;"">+</div>",,html-keyboard-response,148,869717,0.0-15.0-0.0,14304,List1A,white,man,,,,null,,,,
null,"<img src=""stim_listA/dance5.gif""style=""height:400px;""></stim_listA>",,html-keyboard-response,149,871721,0.0-15.0-1.0,14304,List1A,white,man,,,,null,,,,
null,is dancing with,,html-keyboard-response,150,873725,0.0-15.0-2.0,14304,List1A,white,man,,,,null,,,,
8149,,,survey-text,151,881875,0.0-15.0-3.0,14304,List1A,white,man,,,,,"{""Q0"":""fred is dancing with dave""}","<img src=""stim_listA/dance5.gif""style=""height:400px;""></stim_listA>",is dancing with,
null,"<div style=""font-size:60px;"">+</div>",,html-keyboard-response,152,882380,0.0-15.0-0.1,14304,List1A,white,man,,,,null,,,,
null,"<img src=""stim_listA/touch7.gif""style=""height:400px;""></stim_listA>",,html-keyboard-response,153,884381,0.0-15.0-1.1,14304,List1A,white,man,,,,null,,,,
null,is touching,,html-keyboard-response,154,886383,0.0-15.0-2.1,14304,List1A,white,man,,,,null,,,,
11641,,,survey-text,155,898026,0.0-15.0-3.1,14304,List1A,white,man,,,,,"{""Q0"":""kate is touching jane""}","<img src=""stim_listA/touch7.gif""style=""height:400px;""></stim_listA>",is touching,
null,"<div style=""font-size:60px;"">+</div>",,html-keyboard-response,156,898531,0.0-15.0-0.2,14304,List1A,white,man,,,,null,,,,
null,"<img src=""stim_listA/shout8.gif""style=""height:400px;""></stim_listA>",,html-keyboard-response,157,900536,0.0-15.0-1.2,14304,List1A,white,man,,,,null,,,,
null,are shouting at each other,,html-keyboard-response,158,902539,0.0-15.0-2.2,14304,List1A,white,man,,,,null,,,,
10805,,,survey-text,159,913345,0.0-15.0-3.2,14304,List1A,white,man,,,,,"{""Q0"":""kate and jane are shouting at each other""}","<img src=""stim_listA/shout8.gif""style=""height:400px;""></stim_listA>",are shouting at each other,
null,"<div style=""font-size:60px;"">+</div>",,html-keyboard-response,160,913847,0.0-15.0-0.3,14304,List1A,white,man,,,,null,,,,
null,"<img src=""stim_listA/dance1.gif""style=""height:400px;""></stim_listA>",,html-keyboard-response,161,915853,0.0-15.0-1.3,14304,List1A,white,man,,,,null,,,,
null,is dancing with,,html-keyboard-response,162,917857,0.0-15.0-2.3,14304,List1A,white,man,,,,null,,,,
9304,,,survey-text,163,927163,0.0-15.0-3.3,14304,List1A,white,man,,,,,"{""Q0"":""fred is dancing with kate""}","<img src=""stim_listA/dance1.gif""style=""height:400px;""></stim_listA>",is dancing with,
null,"<div style=""font-size:60px;"">+</div>",,html-keyboard-response,164,927665,0.0-15.0-0.4,14304,List1A,white,man,,,,null,,,,
null,"<img src=""stim_listA/play2.gif""style=""height:400px;""></stim_listA>",,html-keyboard-response,165,929672,0.0-15.0-1.4,14304,List1A,white,man,,,,null,,,,
null,are playing with each other,,html-keyboard-response,166,931675,0.0-15.0-2.4,14304,List1A,white,man,,,,null,,,,
14630,,,survey-text,167,946306,0.0-15.0-3.4,14304,List1A,white,man,,,,,"{""Q0"":""fred and beth are playing with each other""}","<img src=""stim_listA/play2.gif""style=""height:400px;""></stim_listA>",are playing with each other,
null,"<div style=""font-size:60px;"">+</div>",,html-keyboard-response,168,946808,0.0-15.0-0.5,14304,List1A,white,man,,,,null,,,,
null,"<img src=""stim_listA/fight4.gif""style=""height:400px;""></stim_listA>",,html-keyboard-response,169,948811,0.0-15.0-1.5,14304,List1A,white,man,,,,null,,,,
null,are fighting each other,,html-keyboard-response,170,950813,0.0-15.0-2.5,14304,List1A,white,man,,,,null,,,,
11595,,,survey-text,171,962410,0.0-15.0-3.5,14304,List1A,white,man,,,,,"{""Q0"":""ruth and luke are fighting each other""}","<img src=""stim_listA/fight4.gif""style=""height:400px;""></stim_listA>",are fighting each other,
null,"<div style=""font-size:60px;"">+</div>",,html-keyboard-response,172,962912,0.0-15.0-0.6,14304,List1A,white,man,,,,null,,,,
null,"<img src=""stim_listA/play7.gif""style=""height:400px;""></stim_listA>",,html-keyboard-response,173,964915,0.0-15.0-1.6,14304,List1A,white,man,,,,null,,,,
null,is playing with,,html-keyboard-response,174,966921,0.0-15.0-2.6,14304,List1A,white,man,,,,null,,,,
8040,,,survey-text,175,974962,0.0-15.0-3.6,14304,List1A,white,man,,,,,"{""Q0"":""kate is playing with jane""}","<img src=""stim_listA/play7.gif""style=""height:400px;""></stim_listA>",is playing with,
null,"<div style=""font-size:60px;"">+</div>",,html-keyboard-response,176,975465,0.0-15.0-0.7,14304,List1A,white,man,,,,null,,,,
null,"<img src=""stim_listA/shout6.gif""style=""height:400px;""></stim_listA>",,html-keyboard-response,177,977471,0.0-15.0-1.7,14304,List1A,white,man,,,,null,,,,
null,are shouting at each other,,html-keyboard-response,178,979472,0.0-15.0-2.7,14304,List1A,white,man,,,,null,,,,
16409,,,survey-text,179,995881,0.0-15.0-3.7,14304,List1A,white,man,,,,,"{""Q0"":""dave and mike are shouting at each other""}","<img src=""stim_listA/shout6.gif""style=""height:400px;""></stim_listA>",are shouting at each other,
null,"<div style=""font-size:60px;"">+</div>",,html-keyboard-response,180,996385,0.0-15.0-0.8,14304,List1A,white,man,,,,null,,,,
null,"<img src=""stim_listA/argue7.gif""style=""height:400px;""></stim_listA>",,html-keyboard-response,181,998389,0.0-15.0-1.8,14304,List1A,white,man,,,,null,,,,
null,is arguing with,,html-keyboard-response,182,1000392,0.0-15.0-2.8,14304,List1A,white,man,,,,null,,,,
11058,,,survey-text,183,1011450,0.0-15.0-3.8,14304,List1A,white,man,,,,,"{""Q0"":""kate is arguing with jane""}","<img src=""stim_listA/argue7.gif""style=""height:400px;""></stim_listA>",is arguing with,
null,"<div style=""font-size:60px;"">+</div>",,html-keyboard-response,184,1011952,0.0-15.0-0.9,14304,List1A,white,man,,,,null,,,,
null,"<img src=""stim_listA/kiss2.gif""style=""height:400px;""></stim_listA>",,html-keyboard-response,185,1013955,0.0-15.0-1.9,14304,List1A,white,man,,,,null,,,,
null,are kissing each other,,html-keyboard-response,186,1015957,0.0-15.0-2.9,14304,List1A,white,man,,,,null,,,,
10156,,,survey-text,187,1026114,0.0-15.0-3.9,14304,List1A,white,man,,,,,"{""Q0"":""kate and mike are kissing each other""}","<img src=""stim_listA/kiss2.gif""style=""height:400px;""></stim_listA>",are kissing each other,
null,"<div style=""font-size:60px;"">+</div>",,html-keyboard-response,188,1026618,0.0-15.0-0.10,14304,List1A,white,man,,,,null,,,,
null,"<img src=""stim_listA/kiss1.gif""style=""height:400px;""></stim_listA>",,html-keyboard-response,189,1028622,0.0-15.0-1.10,14304,List1A,white,man,,,,null,,,,
null,is kissing,,html-keyboard-response,190,1030627,0.0-15.0-2.10,14304,List1A,white,man,,,,null,,,,
8907,,,survey-text,191,1039538,0.0-15.0-3.10,14304,List1A,white,man,,,,,"{""Q0"":""fred is kissing beth""}","<img src=""stim_listA/kiss1.gif""style=""height:400px;""></stim_listA>",is kissing,
null,"<div style=""font-size:60px;"">+</div>",,html-keyboard-response,192,1040041,0.0-15.0-0.11,14304,List1A,white,man,,,,null,,,,
null,"<img src=""stim_listA/marry5.gif""style=""height:400px;""></stim_listA>",,html-keyboard-response,193,1042046,0.0-15.0-1.11,14304,List1A,white,man,,,,null,,,,
null,is marrying,,html-keyboard-response,194,1044049,0.0-15.0-2.11,14304,List1A,white,man,,,,null,,,,
7064,,,survey-text,195,1051114,0.0-15.0-3.11,14304,List1A,white,man,,,,,"{""Q0"":""mike is marrying luke""}","<img src=""stim_listA/marry5.gif""style=""height:400px;""></stim_listA>",is marrying,
null,"<div style=""font-size:60px;"">+</div>",,html-keyboard-response,196,1051616,0.0-15.0-0.12,14304,List1A,white,man,,,,null,,,,
null,"<img src=""stim_listA/play6.gif""style=""height:400px;""></stim_listA>",,html-keyboard-response,197,1053620,0.0-15.0-1.12,14304,List1A,white,man,,,,null,,,,
null,are playing with each other,,html-keyboard-response,198,1055622,0.0-15.0-2.12,14304,List1A,white,man,,,,null,,,,
14491,,,survey-text,199,1070114,0.0-15.0-3.12,14304,List1A,white,man,,,,,"{""Q0"":""fred and luke are playing with each other""}","<img src=""stim_listA/play6.gif""style=""height:400px;""></stim_listA>",are playing with each other,
null,"<div style=""font-size:60px;"">+</div>",,html-keyboard-response,200,1070615,0.0-15.0-0.13,14304,List1A,white,man,,,,null,,,,
null,"<img src=""stim_listA/flirt8.gif""style=""height:400px;""></stim_listA>",,html-keyboard-response,201,1072619,0.0-15.0-1.13,14304,List1A,white,man,,,,null,,,,
null,are flirting with each other,,html-keyboard-response,202,1074621,0.0-15.0-2.13,14304,List1A,white,man,,,,null,,,,
11450,,,survey-text,203,1086074,0.0-15.0-3.13,14304,List1A,white,man,,,,,"{""Q0"":""kate and jane are flirting with each other""}","<img src=""stim_listA/flirt8.gif""style=""height:400px;""></stim_listA>",are flirting with each other,
null,"<div style=""font-size:60px;"">+</div>",,html-keyboard-response,204,1086575,0.0-15.0-0.14,14304,List1A,white,man,,,,null,,,,
null,"<img src=""stim_listA/dance7.gif""style=""height:400px;""></stim_listA>",,html-keyboard-response,205,1088582,0.0-15.0-1.14,14304,List1A,white,man,,,,null,,,,
null,is dancing with,,html-keyboard-response,206,1090586,0.0-15.0-2.14,14304,List1A,white,man,,,,null,,,,
11158,,,survey-text,207,1101745,0.0-15.0-3.14,14304,List1A,white,man,,,,,"{""Q0"":""beth is dancing with jane""}","<img src=""stim_listA/dance7.gif""style=""height:400px;""></stim_listA>",is dancing with,
null,"<div style=""font-size:60px;"">+</div>",,html-keyboard-response,208,1102252,0.0-15.0-0.15,14304,List1A,white,man,,,,null,,,,
null,"<img src=""stim_listA/argue1.gif""style=""height:400px;""></stim_listA>",,html-keyboard-response,209,1104260,0.0-15.0-1.15,14304,List1A,white,man,,,,null,,,,
null,is arguing with,,html-keyboard-response,210,1106262,0.0-15.0-2.15,14304,List1A,white,man,,,,null,,,,
7762,,,survey-text,211,1114025,0.0-15.0-3.15,14304,List1A,white,man,,,,,"{""Q0"":""beth is arguing with mike""}","<img src=""stim_listA/argue1.gif""style=""height:400px;""></stim_listA>",is arguing with,
null,"<div style=""font-size:60px;"">+</div>",,html-keyboard-response,212,1114531,0.0-15.0-0.16,14304,List1A,white,man,,,,null,,,,
null,"<img src=""stim_listA/marry3.gif""style=""height:400px;""></stim_listA>",,html-keyboard-response,213,1116536,0.0-15.0-1.16,14304,List1A,white,man,,,,null,,,,
null,is marrying,,html-keyboard-response,214,1118541,0.0-15.0-2.16,14304,List1A,white,man,,,,null,,,,
6572,,,survey-text,215,1125114,0.0-15.0-3.16,14304,List1A,white,man,,,,,"{""Q0"":""dave is marrying ruth""}","<img src=""stim_listA/marry3.gif""style=""height:400px;""></stim_listA>",is marrying,
null,"<div style=""font-size:60px;"">+</div>",,html-keyboard-response,216,1125620,0.0-15.0-0.17,14304,List1A,white,man,,,,null,,,,
null,"<img src=""stim_listA/dance8.gif""style=""height:400px;""></stim_listA>",,html-keyboard-response,217,1127622,0.0-15.0-1.17,14304,List1A,white,man,,,,null,,,,
null,are dancing with each other,,html-keyboard-response,218,1129625,0.0-15.0-2.17,14304,List1A,white,man,,,,null,,,,
11032,,,survey-text,219,1140658,0.0-15.0-3.17,14304,List1A,white,man,,,,,"{""Q0"":""kate and jane are dancing with each other""}","<img src=""stim_listA/dance8.gif""style=""height:400px;""></stim_listA>",are dancing with each other,
null,"<div style=""font-size:60px;"">+</div>",,html-keyboard-response,220,1141161,0.0-15.0-0.18,14304,List1A,white,man,,,,null,,,,
null,"<img src=""stim_listA/flirt2.gif""style=""height:400px;""></stim_listA>",,html-keyboard-response,221,1143165,0.0-15.0-1.18,14304,List1A,white,man,,,,null,,,,
null,are flirting with each other,,html-keyboard-response,222,1145170,0.0-15.0-2.18,14304,List1A,white,man,,,,null,,,,
11360,,,survey-text,223,1156531,0.0-15.0-3.18,14304,List1A,white,man,,,,,"{""Q0"":""beth and mike are flirting with each other""}","<img src=""stim_listA/flirt2.gif""style=""height:400px;""></stim_listA>",are flirting with each other,
null,"<div style=""font-size:60px;"">+</div>",,html-keyboard-response,224,1157035,0.0-15.0-0.19,14304,List1A,white,man,,,,null,,,,
null,"<img src=""stim_listA/fight3.gif""style=""height:400px;""></stim_listA>",,html-keyboard-response,225,1159040,0.0-15.0-1.19,14304,List1A,white,man,,,,null,,,,
null,is fighting,,html-keyboard-response,226,1161044,0.0-15.0-2.19,14304,List1A,white,man,,,,null,,,,
6598,,,survey-text,227,1167643,0.0-15.0-3.19,14304,List1A,white,man,,,,,"{""Q0"":""dave is fighting jane""}","<img src=""stim_listA/fight3.gif""style=""height:400px;""></stim_listA>",is fighting,
14006,"<img src='img/portrait_matrix_list1.jpg' style='width:900px;height:500px;''></img><p>If you have memorised all the portraits and names and are ready to start, press Continue.</p><p><strong>Please note: Your memory of these faces will be tested 4 times during this experiment.</strong></p>",0,html-button-response,228,1181650,0.0-16.0-0.0,14304,List1A,white,man,,,,,,,,
3834,"<img src=""portrait/BW2.jpg""style=""height:400px;""></img>",2,html-button-response,229,1186491,0.0-16.0-1.0,14304,List1A,white,man,,TRUE,2,,,,,
null,CORRECT,,html-keyboard-response,230,1187993,0.0-16.0-2.0-0.0,14304,List1A,white,man,,,,null,,,,
2477,"<img src=""portrait/WM1.jpg""style=""height:400px;""></img>",6,html-button-response,231,1190474,0.0-16.0-4.0,14304,List1A,white,man,,TRUE,6,,,,,
null,CORRECT,,html-keyboard-response,232,1191977,0.0-16.0-5.0-0.0,14304,List1A,white,man,,,,null,,,,
4455,"<img src=""portrait/BW1.jpg""style=""height:400px;""></img>",0,html-button-response,233,1196434,0.0-16.0-7.0,14304,List1A,white,man,,TRUE,0,,,,,
null,CORRECT,,html-keyboard-response,234,1197937,0.0-16.0-8.0-0.0,14304,List1A,white,man,,,,null,,,,
3478,"<img src=""portrait/WW2.jpg""style=""height:400px;""></img>",3,html-button-response,235,1201418,0.0-16.0-10.0,14304,List1A,white,man,,TRUE,3,,,,,
null,CORRECT,,html-keyboard-response,236,1202921,0.0-16.0-11.0-0.0,14304,List1A,white,man,,,,null,,,,
1469,"<img src=""portrait/WW1.jpg""style=""height:400px;""></img>",1,html-button-response,237,1204394,0.0-16.0-13.0,14304,List1A,white,man,,TRUE,1,,,,,
null,CORRECT,,html-keyboard-response,238,1205898,0.0-16.0-14.0-0.0,14304,List1A,white,man,,,,null,,,,
3134,"<img src=""portrait/WM2.jpg""style=""height:400px;""></img>",7,html-button-response,239,1209034,0.0-16.0-16.0,14304,List1A,white,man,,TRUE,7,,,,,
null,CORRECT,,html-keyboard-response,240,1210541,0.0-16.0-17.0-0.0,14304,List1A,white,man,,,,null,,,,
3489,"<img src=""portrait/BM2.jpg""style=""height:400px;""></img>",5,html-button-response,241,1214034,0.0-16.0-19.0,14304,List1A,white,man,,TRUE,5,,,,,
null,CORRECT,,html-keyboard-response,242,1215542,0.0-16.0-20.0-0.0,14304,List1A,white,man,,,,null,,,,
2721,"<img src=""portrait/BM1.jpg""style=""height:400px;""></img>",4,html-button-response,243,1218266,0.0-16.0-22.0,14304,List1A,white,man,,TRUE,4,,,,,
null,CORRECT,,html-keyboard-response,244,1219774,0.0-16.0-23.0-0.0,14304,List1A,white,man,,,,null,,,,
1665,<p>You got 8 out of 8 right first time. Press Continue.</p>,0,html-button-response,245,1221443,0.0-16.0-25.0,14304,List1A,white,man,,,,,,,,
null,"<div style=""font-size:60px;"">+</div>",,html-keyboard-response,246,1222949,0.0-17.0-0.0,14304,List1A,white,man,,,,null,,,,
null,"<img src=""stim_listA/kiss6.gif""style=""height:400px;""></stim_listA>",,html-keyboard-response,247,1224951,0.0-17.0-1.0,14304,List1A,white,man,,,,null,,,,
null,are kissing each other,,html-keyboard-response,248,1226953,0.0-17.0-2.0,14304,List1A,white,man,,,,null,,,,
15576,,,survey-text,249,1242529,0.0-17.0-3.0,14304,List1A,white,man,,,,,"{""Q0"":""dave and mike are kissing each other""}","<img src=""stim_listA/kiss6.gif""style=""height:400px;""></stim_listA>",are kissing each other,
null,"<div style=""font-size:60px;"">+</div>",,html-keyboard-response,250,1243032,0.0-17.0-0.1,14304,List1A,white,man,,,,null,,,,
null,"<img src=""stim_listA/dance3.gif""style=""height:400px;""></stim_listA>",,html-keyboard-response,251,1245035,0.0-17.0-1.1,14304,List1A,white,man,,,,null,,,,
null,is dancing with,,html-keyboard-response,252,1247038,0.0-17.0-2.1,14304,List1A,white,man,,,,null,,,,
14722,,,survey-text,253,1261762,0.0-17.0-3.1,14304,List1A,white,man,,,,,"{""Q0"":""ruth is dancing with luke""}","<img src=""stim_listA/dance3.gif""style=""height:400px;""></stim_listA>",is dancing with,
null,"<div style=""font-size:60px;"">+</div>",,html-keyboard-response,254,1262264,0.0-17.0-0.2,14304,List1A,white,man,,,,null,,,,
null,"<img src=""stim_listA/shout7.gif""style=""height:400px;""></stim_listA>",,html-keyboard-response,255,1264267,0.0-17.0-1.2,14304,List1A,white,man,,,,null,,,,
null,is shouting at,,html-keyboard-response,256,1266273,0.0-17.0-2.2,14304,List1A,white,man,,,,null,,,,
8576,,,survey-text,257,1274850,0.0-17.0-3.2,14304,List1A,white,man,,,,,"{""Q0"":""beth is shouting at ruth""}","<img src=""stim_listA/shout7.gif""style=""height:400px;""></stim_listA>",is shouting at,
null,"<div style=""font-size:60px;"">+</div>",,html-keyboard-response,258,1275355,0.0-17.0-0.3,14304,List1A,white,man,,,,null,,,,
null,"<img src=""stim_listA/argue6.gif""style=""height:400px;""></stim_listA>",,html-keyboard-response,259,1277361,0.0-17.0-1.3,14304,List1A,white,man,,,,null,,,,
null,are arguing with each other,,html-keyboard-response,260,1279365,0.0-17.0-2.3,14304,List1A,white,man,,,,null,,,,
13139,,,survey-text,261,1292506,0.0-17.0-3.3,14304,List1A,white,man,,,,,"{""Q0"":""fred and dave are arguing with each other""}","<img src=""stim_listA/argue6.gif""style=""height:400px;""></stim_listA>",are arguing with each other,
null,"<div style=""font-size:60px;"">+</div>",,html-keyboard-response,262,1293009,0.0-17.0-0.4,14304,List1A,white,man,,,,null,,,,
null,"<img src=""stim_listA/touch5.gif""style=""height:400px;""></stim_listA>",,html-keyboard-response,263,1295013,0.0-17.0-1.4,14304,List1A,white,man,,,,null,,,,
null,is touching,,html-keyboard-response,264,1297015,0.0-17.0-2.4,14304,List1A,white,man,,,,null,,,,
5946,,,survey-text,265,1302963,0.0-17.0-3.4,14304,List1A,white,man,,,,,"{""Q0"":""dave is touching mike""}","<img src=""stim_listA/touch5.gif""style=""height:400px;""></stim_listA>",is touching,
null,"<div style=""font-size:60px;"">+</div>",,html-keyboard-response,266,1303466,0.0-17.0-0.5,14304,List1A,white,man,,,,null,,,,
null,"<img src=""stim_listA/marry7.gif""style=""height:400px;""></stim_listA>",,html-keyboard-response,267,1305471,0.0-17.0-1.5,14304,List1A,white,man,,,,null,,,,
null,is marrying,,html-keyboard-response,268,1307474,0.0-17.0-2.5,14304,List1A,white,man,,,,null,,,,
8478,,,survey-text,269,1315954,0.0-17.0-3.5,14304,List1A,white,man,,,,,"{""Q0"":""ruth is marrying kate""}","<img src=""stim_listA/marry7.gif""style=""height:400px;""></stim_listA>",is marrying,
null,"<div style=""font-size:60px;"">+</div>",,html-keyboard-response,270,1316455,0.0-17.0-0.6,14304,List1A,white,man,,,,null,,,,
null,"<img src=""stim_listA/flirt5.gif""style=""height:400px;""></stim_listA>",,html-keyboard-response,271,1318458,0.0-17.0-1.6,14304,List1A,white,man,,,,null,,,,
null,is flirting with,,html-keyboard-response,272,1320461,0.0-17.0-2.6,14304,List1A,white,man,,,,null,,,,
9907,,,survey-text,273,1330370,0.0-17.0-3.6,14304,List1A,white,man,,,,,"{""Q0"":""fred is flirting with dave""}","<img src=""stim_listA/flirt5.gif""style=""height:400px;""></stim_listA>",is flirting with,
null,"<div style=""font-size:60px;"">+</div>",,html-keyboard-response,274,1330871,0.0-17.0-0.7,14304,List1A,white,man,,,,null,,,,
null,"<img src=""stim_listA/touch3.gif""style=""height:400px;""></stim_listA>",,html-keyboard-response,275,1332876,0.0-17.0-1.7,14304,List1A,white,man,,,,null,,,,
null,is touching,,html-keyboard-response,276,1334881,0.0-17.0-2.7,14304,List1A,white,man,,,,null,,,,
9992,,,survey-text,277,1344874,0.0-17.0-3.7,14304,List1A,white,man,,,,,"{""Q0"":""dave is touching jane""}","<img src=""stim_listA/touch3.gif""style=""height:400px;""></stim_listA>",is touching,
null,"<div style=""font-size:60px;"">+</div>",,html-keyboard-response,278,1345382,0.0-17.0-0.8,14304,List1A,white,man,,,,null,,,,
null,"<img src=""stim_listA/kiss4.gif""style=""height:400px;""></stim_listA>",,html-keyboard-response,279,1347385,0.0-17.0-1.8,14304,List1A,white,man,,,,null,,,,
null,are kissing each other,,html-keyboard-response,280,1349388,0.0-17.0-2.8,14304,List1A,white,man,,,,null,,,,
8709,,,survey-text,281,1358098,0.0-17.0-3.8,14304,List1A,white,man,,,,,"{""Q0"":""dave and jane are kissing each other""}","<img src=""stim_listA/kiss4.gif""style=""height:400px;""></stim_listA>",are kissing each other,
null,"<div style=""font-size:60px;"">+</div>",,html-keyboard-response,282,1358601,0.0-17.0-0.9,14304,List1A,white,man,,,,null,,,,
null,"<img src=""stim_listA/kiss3.gif""style=""height:400px;""></stim_listA>",,html-keyboard-response,283,1360604,0.0-17.0-1.9,14304,List1A,white,man,,,,null,,,,
null,is kissing,,html-keyboard-response,284,1362609,0.0-17.0-2.9,14304,List1A,white,man,,,,null,,,,
12536,,,survey-text,285,1375145,0.0-17.0-3.9,14304,List1A,white,man,,,,,"{""Q0"":""ruth and luke are kissing each other""}","<img src=""stim_listA/kiss3.gif""style=""height:400px;""></stim_listA>",is kissing,
null,"<div style=""font-size:60px;"">+</div>",,html-keyboard-response,286,1375648,0.0-17.0-0.10,14304,List1A,white,man,,,,null,,,,
null,"<img src=""stim_listA/play8.gif""style=""height:400px;""></stim_listA>",,html-keyboard-response,287,1377651,0.0-17.0-1.10,14304,List1A,white,man,,,,null,,,,
null,are playing with each other,,html-keyboard-response,288,1379655,0.0-17.0-2.10,14304,List1A,white,man,,,,null,,,,
11851,,,survey-text,289,1391506,0.0-17.0-3.10,14304,List1A,white,man,,,,,"{""Q0"":""beth and ruth are playing with each other""}","<img src=""stim_listA/play8.gif""style=""height:400px;""></stim_listA>",are playing with each other,
null,"<div style=""font-size:60px;"">+</div>",,html-keyboard-response,290,1392009,0.0-17.0-0.11,14304,List1A,white,man,,,,null,,,,
null,"<img src=""stim_listA/touch1.gif""style=""height:400px;""></stim_listA>",,html-keyboard-response,291,1394015,0.0-17.0-1.11,14304,List1A,white,man,,,,null,,,,
null,is touching,,html-keyboard-response,292,1396022,0.0-17.0-2.11,14304,List1A,white,man,,,,null,,,,
9146,,,survey-text,293,1405170,0.0-17.0-3.11,14304,List1A,white,man,,,,,"{""Q0"":""kate is touching mike""}","<img src=""stim_listA/touch1.gif""style=""height:400px;""></stim_listA>",is touching,
null,"<div style=""font-size:60px;"">+</div>",,html-keyboard-response,294,1405673,0.0-17.0-0.12,14304,List1A,white,man,,,,null,,,,
null,"<img src=""stim_listA/fight1.gif""style=""height:400px;""></stim_listA>",,html-keyboard-response,295,1407676,0.0-17.0-1.12,14304,List1A,white,man,,,,null,,,,
null,is fighting,,html-keyboard-response,296,1409681,0.0-17.0-2.12,14304,List1A,white,man,,,,null,,,,
6697,,,survey-text,297,1416378,0.0-17.0-3.12,14304,List1A,white,man,,,,,"{""Q0"":""kate is fighting mike""}","<img src=""stim_listA/fight1.gif""style=""height:400px;""></stim_listA>",is fighting,
null,"<div style=""font-size:60px;"">+</div>",,html-keyboard-response,298,1416881,0.0-17.0-0.13,14304,List1A,white,man,,,,null,,,,
null,"<img src=""stim_listA/shout1.gif""style=""height:400px;""></stim_listA>",,html-keyboard-response,299,1418885,0.0-17.0-1.13,14304,List1A,white,man,,,,null,,,,
null,is shouting at,,html-keyboard-response,300,1420891,0.0-17.0-2.13,14304,List1A,white,man,,,,null,,,,
9118,,,survey-text,301,1430010,0.0-17.0-3.13,14304,List1A,white,man,,,,,"{""Q0"":""fred is shouting at beth""}","<img src=""stim_listA/shout1.gif""style=""height:400px;""></stim_listA>",is shouting at,
null,"<div style=""font-size:60px;"">+</div>",,html-keyboard-response,302,1430514,0.0-17.0-0.14,14304,List1A,white,man,,,,null,,,,
null,"<img src=""stim_listA/talk3.gif""style=""height:400px;""></stim_listA>",,html-keyboard-response,303,1432521,0.0-17.0-1.14,14304,List1A,white,man,,,,null,,,,
null,is talking to,,html-keyboard-response,304,1434522,0.0-17.0-2.14,14304,List1A,white,man,,,,null,,,,
7582,,,survey-text,305,1442106,0.0-17.0-3.14,14304,List1A,white,man,,,,,"{""Q0"":""jane is talking to luke""}","<img src=""stim_listA/talk3.gif""style=""height:400px;""></stim_listA>",is talking to,
null,"<div style=""font-size:60px;"">+</div>",,html-keyboard-response,306,1442609,0.0-17.0-0.15,14304,List1A,white,man,,,,null,,,,
null,"<img src=""stim_listA/flirt4.gif""style=""height:400px;""></stim_listA>",,html-keyboard-response,307,1444614,0.0-17.0-1.15,14304,List1A,white,man,,,,null,,,,
null,are flirting with each other,,html-keyboard-response,308,1446616,0.0-17.0-2.15,14304,List1A,white,man,,,,null,,,,
20225,,,survey-text,309,1466841,0.0-17.0-3.15,14304,List1A,white,man,,,,,"{""Q0"":""fred and ruth are flirting with each other""}","<img src=""stim_listA/flirt4.gif""style=""height:400px;""></stim_listA>",are flirting with each other,
null,"<div style=""font-size:60px;"">+</div>",,html-keyboard-response,310,1467343,0.0-17.0-0.16,14304,List1A,white,man,,,,null,,,,
null,"<img src=""stim_listA/argue8.gif""style=""height:400px;""></stim_listA>",,html-keyboard-response,311,1469345,0.0-17.0-1.16,14304,List1A,white,man,,,,null,,,,
null,are arguing with each other,,html-keyboard-response,312,1471348,0.0-17.0-2.16,14304,List1A,white,man,,,,null,,,,
14396,,,survey-text,313,1485746,0.0-17.0-3.16,14304,List1A,white,man,,,,,"{""Q0"":""beth and jane are arguing with each other""}","<img src=""stim_listA/argue8.gif""style=""height:400px;""></stim_listA>",are arguing with each other,
null,"<div style=""font-size:60px;"">+</div>",,html-keyboard-response,314,1486248,0.0-17.0-0.17,14304,List1A,white,man,,,,null,,,,
null,"<img src=""stim_listA/argue3.gif""style=""height:400px;""></stim_listA>",,html-keyboard-response,315,1488252,0.0-17.0-1.17,14304,List1A,white,man,,,,null,,,,
null,is arguing with,,html-keyboard-response,316,1490253,0.0-17.0-2.17,14304,List1A,white,man,,,,null,,,,
8157,,,survey-text,317,1498411,0.0-17.0-3.17,14304,List1A,white,man,,,,,"{""Q0"":""fred is arguing with ruth""}","<img src=""stim_listA/argue3.gif""style=""height:400px;""></stim_listA>",is arguing with,
null,"<div style=""font-size:60px;"">+</div>",,html-keyboard-response,318,1498912,0.0-17.0-0.18,14304,List1A,white,man,,,,null,,,,
null,"<img src=""stim_listA/kiss7.gif""style=""height:400px;""></stim_listA>",,html-keyboard-response,319,1500916,0.0-17.0-1.18,14304,List1A,white,man,,,,null,,,,
null,is kissing,,html-keyboard-response,320,1502922,0.0-17.0-2.18,14304,List1A,white,man,,,,null,,,,
7430,,,survey-text,321,1510354,0.0-17.0-3.18,14304,List1A,white,man,,,,,"{""Q0"":""beth is kissing ruth""}","<img src=""stim_listA/kiss7.gif""style=""height:400px;""></stim_listA>",is kissing,
null,"<div style=""font-size:60px;"">+</div>",,html-keyboard-response,322,1510856,0.0-17.0-0.19,14304,List1A,white,man,,,,null,,,,
null,"<img src=""stim_listA/shout3.gif""style=""height:400px;""></stim_listA>",,html-keyboard-response,323,1512863,0.0-17.0-1.19,14304,List1A,white,man,,,,null,,,,
null,is shouting at,,html-keyboard-response,324,1514864,0.0-17.0-2.19,14304,List1A,white,man,,,,null,,,,
7840,,,survey-text,325,1522705,0.0-17.0-3.19,14304,List1A,white,man,,,,,"{""Q0"":""ruth is shouting at luke""}","<img src=""stim_listA/shout3.gif""style=""height:400px;""></stim_listA>",is shouting at,
4167,"<img src='img/portrait_matrix_list1.jpg' style='width:900px;height:500px;''></img><p>If you have memorised all the portraits and names and are ready to start, press Continue.</p><p><strong>Please note: Your memory of these faces will be tested 4 times during this experiment.</strong></p>",0,html-button-response,326,1526875,0.0-18.0-0.0,14304,List1A,white,man,,,,,,,,
3373,"<img src=""portrait/WM2.jpg""style=""height:400px;""></img>",7,html-button-response,327,1531251,0.0-18.0-1.0,14304,List1A,white,man,,TRUE,7,,,,,
null,CORRECT,,html-keyboard-response,328,1532758,0.0-18.0-2.0-0.0,14304,List1A,white,man,,,,null,,,,
2810,"<img src=""portrait/WM1.jpg""style=""height:400px;""></img>",6,html-button-response,329,1535571,0.0-18.0-4.0,14304,List1A,white,man,,TRUE,6,,,,,
null,CORRECT,,html-keyboard-response,330,1537075,0.0-18.0-5.0-0.0,14304,List1A,white,man,,,,null,,,,
2988,"<img src=""portrait/BW2.jpg""style=""height:400px;""></img>",2,html-button-response,331,1540066,0.0-18.0-7.0,14304,List1A,white,man,,TRUE,2,,,,,
null,CORRECT,,html-keyboard-response,332,1541574,0.0-18.0-8.0-0.0,14304,List1A,white,man,,,,null,,,,
4585,"<img src=""portrait/BW1.jpg""style=""height:400px;""></img>",0,html-button-response,333,1546163,0.0-18.0-10.0,14304,List1A,white,man,,TRUE,0,,,,,
null,CORRECT,,html-keyboard-response,334,1547671,0.0-18.0-11.0-0.0,14304,List1A,white,man,,,,null,,,,
2752,"<img src=""portrait/WW2.jpg""style=""height:400px;""></img>",3,html-button-response,335,1550426,0.0-18.0-13.0,14304,List1A,white,man,,TRUE,3,,,,,
null,CORRECT,,html-keyboard-response,336,1551936,0.0-18.0-14.0-0.0,14304,List1A,white,man,,,,null,,,,
2512,"<img src=""portrait/BM1.jpg""style=""height:400px;""></img>",4,html-button-response,337,1554450,0.0-18.0-16.0,14304,List1A,white,man,,TRUE,4,,,,,
null,CORRECT,,html-keyboard-response,338,1555955,0.0-18.0-17.0-0.0,14304,List1A,white,man,,,,null,,,,
2821,"<img src=""portrait/BM2.jpg""style=""height:400px;""></img>",5,html-button-response,339,1558779,0.0-18.0-19.0,14304,List1A,white,man,,TRUE,5,,,,,
null,CORRECT,,html-keyboard-response,340,1560285,0.0-18.0-20.0-0.0,14304,List1A,white,man,,,,null,,,,
1523,"<img src=""portrait/WW1.jpg""style=""height:400px;""></img>",1,html-button-response,341,1561811,0.0-18.0-22.0,14304,List1A,white,man,,TRUE,1,,,,,
null,CORRECT,,html-keyboard-response,342,1563320,0.0-18.0-23.0-0.0,14304,List1A,white,man,,,,null,,,,
1921,<p>You got 8 out of 8 right first time. Press Continue.</p>,0,html-button-response,343,1565242,0.0-18.0-25.0,14304,List1A,white,man,,,,,,,,
null,"<div style=""font-size:60px;"">+</div>",,html-keyboard-response,344,1566750,0.0-19.0-0.0,14304,List1A,white,man,,,,null,,,,
null,"<img src=""stim_listA/dance4.gif""style=""height:400px;""></stim_listA>",,html-keyboard-response,345,1568753,0.0-19.0-1.0,14304,List1A,white,man,,,,null,,,,
null,are dancing with each other,,html-keyboard-response,346,1570757,0.0-19.0-2.0,14304,List1A,white,man,,,,null,,,,
10293,,,survey-text,347,1581050,0.0-19.0-3.0,14304,List1A,white,man,,,,,"{""Q0"":""dave and ruth are dancing with each other""}","<img src=""stim_listA/dance4.gif""style=""height:400px;""></stim_listA>",are dancing with each other,
null,"<div style=""font-size:60px;"">+</div>",,html-keyboard-response,348,1581554,0.0-19.0-0.1,14304,List1A,white,man,,,,null,,,,
null,"<img src=""stim_listA/kiss8.gif""style=""height:400px;""></stim_listA>",,html-keyboard-response,349,1583556,0.0-19.0-1.1,14304,List1A,white,man,,,,null,,,,
null,are kissing each other,,html-keyboard-response,350,1585557,0.0-19.0-2.1,14304,List1A,white,man,,,,null,,,,
8956,,,survey-text,351,1594514,0.0-19.0-3.1,14304,List1A,white,man,,,,,"{""Q0"":""kate and jane are kissing each other""}","<img src=""stim_listA/kiss8.gif""style=""height:400px;""></stim_listA>",are kissing each other,
null,"<div style=""font-size:60px;"">+</div>",,html-keyboard-response,352,1595016,0.0-19.0-0.2,14304,List1A,white,man,,,,null,,,,
null,"<img src=""stim_listA/flirt7.gif""style=""height:400px;""></stim_listA>",,html-keyboard-response,353,1597023,0.0-19.0-1.2,14304,List1A,white,man,,,,null,,,,
null,is flirting with,,html-keyboard-response,354,1599026,0.0-19.0-2.2,14304,List1A,white,man,,,,null,,,,
10047,,,survey-text,355,1609075,0.0-19.0-3.2,14304,List1A,white,man,,,,,"{""Q0"":""beth is flirthing with jane""}","<img src=""stim_listA/flirt7.gif""style=""height:400px;""></stim_listA>",is flirting with,
null,"<div style=""font-size:60px;"">+</div>",,html-keyboard-response,356,1609580,0.0-19.0-0.3,14304,List1A,white,man,,,,null,,,,
null,"<img src=""stim_listA/marry1.gif""style=""height:400px;""></stim_listA>",,html-keyboard-response,357,1611583,0.0-19.0-1.3,14304,List1A,white,man,,,,null,,,,
null,is marrying,,html-keyboard-response,358,1613586,0.0-19.0-2.3,14304,List1A,white,man,,,,null,,,,
9231,,,survey-text,359,1622819,0.0-19.0-3.3,14304,List1A,white,man,,,,,"{""Q0"":""beth is marrying mike""}","<img src=""stim_listA/marry1.gif""style=""height:400px;""></stim_listA>",is marrying,
null,"<div style=""font-size:60px;"">+</div>",,html-keyboard-response,360,1623321,0.0-19.0-0.4,14304,List1A,white,man,,,,null,,,,
null,"<img src=""stim_listA/play3.gif""style=""height:400px;""></stim_listA>",,html-keyboard-response,361,1625324,0.0-19.0-1.4,14304,List1A,white,man,,,,null,,,,
null,is playing with,,html-keyboard-response,362,1627327,0.0-19.0-2.4,14304,List1A,white,man,,,,null,,,,
7330,,,survey-text,363,1634658,0.0-19.0-3.4,14304,List1A,white,man,,,,,"{""Q0"":""dave is playing with jane""}","<img src=""stim_listA/play3.gif""style=""height:400px;""></stim_listA>",is playing with,
null,"<div style=""font-size:60px;"">+</div>",,html-keyboard-response,364,1635162,0.0-19.0-0.5,14304,List1A,white,man,,,,null,,,,
null,"<img src=""stim_listA/talk2.gif""style=""height:400px;""></stim_listA>",,html-keyboard-response,365,1637167,0.0-19.0-1.5,14304,List1A,white,man,,,,null,,,,
null,are talking to each other,,html-keyboard-response,366,1639171,0.0-19.0-2.5,14304,List1A,white,man,,,,null,,,,
9838,,,survey-text,367,1649011,0.0-19.0-3.5,14304,List1A,white,man,,,,,"{""Q0"":""beth and mike are talking to each other""}","<img src=""stim_listA/talk2.gif""style=""height:400px;""></stim_listA>",are talking to each other,
null,"<div style=""font-size:60px;"">+</div>",,html-keyboard-response,368,1649515,0.0-19.0-0.6,14304,List1A,white,man,,,,null,,,,
null,"<img src=""stim_listA/play4.gif""style=""height:400px;""></stim_listA>",,html-keyboard-response,369,1651520,0.0-19.0-1.6,14304,List1A,white,man,,,,null,,,,
null,are playing with each other,,html-keyboard-response,370,1653524,0.0-19.0-2.6,14304,List1A,white,man,,,,null,,,,
16461,,,survey-text,371,1669986,0.0-19.0-3.6,14304,List1A,white,man,,,,,"{""Q0"":""ruth and luke are playing with each other""}","<img src=""stim_listA/play4.gif""style=""height:400px;""></stim_listA>",are playing with each other,
null,"<div style=""font-size:60px;"">+</div>",,html-keyboard-response,372,1670490,0.0-19.0-0.7,14304,List1A,white,man,,,,null,,,,
null,"<img src=""stim_listA/argue4.gif""style=""height:400px;""></stim_listA>",,html-keyboard-response,373,1672492,0.0-19.0-1.7,14304,List1A,white,man,,,,null,,,,
null,are arguing with each other,,html-keyboard-response,374,1674494,0.0-19.0-2.7,14304,List1A,white,man,,,,null,,,,
12899,,,survey-text,375,1687394,0.0-19.0-3.7,14304,List1A,white,man,,,,,"{""Q0"":""jane and luke are arguing with each other""}","<img src=""stim_listA/argue4.gif""style=""height:400px;""></stim_listA>",are arguing with each other,
null,"<div style=""font-size:60px;"">+</div>",,html-keyboard-response,376,1687898,0.0-19.0-0.8,14304,List1A,white,man,,,,null,,,,
null,"<img src=""stim_listA/play1.gif""style=""height:400px;""></stim_listA>",,html-keyboard-response,377,1689901,0.0-19.0-1.8,14304,List1A,white,man,,,,null,,,,
null,is playing with,,html-keyboard-response,378,1691904,0.0-19.0-2.8,14304,List1A,white,man,,,,null,,,,
11281,,,survey-text,379,1703186,0.0-19.0-3.8,14304,List1A,white,man,,,,,"{""Q0"":""kate is playing with mike""}","<img src=""stim_listA/play1.gif""style=""height:400px;""></stim_listA>",is playing with,
null,"<div style=""font-size:60px;"">+</div>",,html-keyboard-response,380,1703690,0.0-19.0-0.9,14304,List1A,white,man,,,,null,,,,
null,"<img src=""stim_listA/marry8.gif""style=""height:400px;""></stim_listA>",,html-keyboard-response,381,1705693,0.0-19.0-1.9,14304,List1A,white,man,,,,null,,,,
null,are marrying each other,,html-keyboard-response,382,1707700,0.0-19.0-2.9,14304,List1A,white,man,,,,null,,,,
11934,,,survey-text,383,1719635,0.0-19.0-3.9,14304,List1A,white,man,,,,,"{""Q0"":""ruth and jane are marrying each other""}","<img src=""stim_listA/marry8.gif""style=""height:400px;""></stim_listA>",are marrying each other,
null,"<div style=""font-size:60px;"">+</div>",,html-keyboard-response,384,1720137,0.0-19.0-0.10,14304,List1A,white,man,,,,null,,,,
null,"<img src=""stim_listA/talk7.gif""style=""height:400px;""></stim_listA>",,html-keyboard-response,385,1722140,0.0-19.0-1.10,14304,List1A,white,man,,,,null,,,,
null,is talking to,,html-keyboard-response,386,1724143,0.0-19.0-2.10,14304,List1A,white,man,,,,null,,,,
8561,,,survey-text,387,1732706,0.0-19.0-3.10,14304,List1A,white,man,,,,,"{""Q0"":""beth is talking to jane""}","<img src=""stim_listA/talk7.gif""style=""height:400px;""></stim_listA>",is talking to,
null,"<div style=""font-size:60px;"">+</div>",,html-keyboard-response,388,1733211,0.0-19.0-0.11,14304,List1A,white,man,,,,null,,,,
null,"<img src=""stim_listA/play5.gif""style=""height:400px;""></stim_listA>",,html-keyboard-response,389,1735214,0.0-19.0-1.11,14304,List1A,white,man,,,,null,,,,
null,is playing with,,html-keyboard-response,390,1737215,0.0-19.0-2.11,14304,List1A,white,man,,,,null,,,,
6514,,,survey-text,391,1743731,0.0-19.0-3.11,14304,List1A,white,man,,,,,"{""Q0"":""dave is playing with mike""}","<img src=""stim_listA/play5.gif""style=""height:400px;""></stim_listA>",is playing with,
null,"<div style=""font-size:60px;"">+</div>",,html-keyboard-response,392,1744233,0.0-19.0-0.12,14304,List1A,white,man,,,,null,,,,
null,"<img src=""stim_listA/fight6.gif""style=""height:400px;""></stim_listA>",,html-keyboard-response,393,1746236,0.0-19.0-1.12,14304,List1A,white,man,,,,null,,,,
null,are fighting each other,,html-keyboard-response,394,1748242,0.0-19.0-2.12,14304,List1A,white,man,,,,null,,,,
13919,,,survey-text,395,1762162,0.0-19.0-3.12,14304,List1A,white,man,,,,,"{""Q0"":""fred and luke are fighting each other""}","<img src=""stim_listA/fight6.gif""style=""height:400px;""></stim_listA>",are fighting each other,
null,"<div style=""font-size:60px;"">+</div>",,html-keyboard-response,396,1762666,0.0-19.0-0.13,14304,List1A,white,man,,,,null,,,,
null,"<img src=""stim_listA/fight2.gif""style=""height:400px;""></stim_listA>",,html-keyboard-response,397,1764670,0.0-19.0-1.13,14304,List1A,white,man,,,,null,,,,
null,are fighting each other,,html-keyboard-response,398,1766675,0.0-19.0-2.13,14304,List1A,white,man,,,,null,,,,
13663,,,survey-text,399,1780338,0.0-19.0-3.13,14304,List1A,white,man,,,,,"{""Q0"":""fred and beth are fighting each other""}","<img src=""stim_listA/fight2.gif""style=""height:400px;""></stim_listA>",are fighting each other,
null,"<div style=""font-size:60px;"">+</div>",,html-keyboard-response,400,1780841,0.0-19.0-0.14,14304,List1A,white,man,,,,null,,,,
null,"<img src=""stim_listA/dance2.gif""style=""height:400px;""></stim_listA>",,html-keyboard-response,401,1782843,0.0-19.0-1.14,14304,List1A,white,man,,,,null,,,,
null,are dancing with each other,,html-keyboard-response,402,1784845,0.0-19.0-2.14,14304,List1A,white,man,,,,null,,,,
14076,,,survey-text,403,1798922,0.0-19.0-3.14,14304,List1A,white,man,,,,,"{""Q0"":""beth and mike are dancing with each other""}","<img src=""stim_listA/dance2.gif""style=""height:400px;""></stim_listA>",are dancing with each other,
null,"<div style=""font-size:60px;"">+</div>",,html-keyboard-response,404,1799424,0.0-19.0-0.15,14304,List1A,white,man,,,,null,,,,
null,"<img src=""stim_listA/touch6.gif""style=""height:400px;""></stim_listA>",,html-keyboard-response,405,1801432,0.0-19.0-1.15,14304,List1A,white,man,,,,null,,,,
null,are touching each other,,html-keyboard-response,406,1803433,0.0-19.0-2.15,14304,List1A,white,man,,,,null,,,,
9239,,,survey-text,407,1812673,0.0-19.0-3.15,14304,List1A,white,man,,,,,"{""Q0"":""dave and luke are touching each other""}","<img src=""stim_listA/touch6.gif""style=""height:400px;""></stim_listA>",are touching each other,
null,"<div style=""font-size:60px;"">+</div>",,html-keyboard-response,408,1813177,0.0-19.0-0.16,14304,List1A,white,man,,,,null,,,,
null,"<img src=""stim_listA/fight5.gif""style=""height:400px;""></stim_listA>",,html-keyboard-response,409,1815182,0.0-19.0-1.16,14304,List1A,white,man,,,,null,,,,
null,is fighting,,html-keyboard-response,410,1817187,0.0-19.0-2.16,14304,List1A,white,man,,,,null,,,,
9134,,,survey-text,411,1826322,0.0-19.0-3.16,14304,List1A,white,man,,,,,"{""Q0"":""dave is fighting mike""}","<img src=""stim_listA/fight5.gif""style=""height:400px;""></stim_listA>",is fighting,
null,"<div style=""font-size:60px;"">+</div>",,html-keyboard-response,412,1826825,0.0-19.0-0.17,14304,List1A,white,man,,,,null,,,,
null,"<img src=""stim_listA/dance6.gif""style=""height:400px;""></stim_listA>",,html-keyboard-response,413,1828832,0.0-19.0-1.17,14304,List1A,white,man,,,,null,,,,
null,are dancing with each other,,html-keyboard-response,414,1830836,0.0-19.0-2.17,14304,List1A,white,man,,,,null,,,,
13269,,,survey-text,415,1844106,0.0-19.0-3.17,14304,List1A,white,man,,,,,"{""Q0"":""mike and luke are dancing with each other""}","<img src=""stim_listA/dance6.gif""style=""height:400px;""></stim_listA>",are dancing with each other,
null,"<div style=""font-size:60px;"">+</div>",,html-keyboard-response,416,1844610,0.0-19.0-0.18,14304,List1A,white,man,,,,null,,,,
null,"<img src=""stim_listA/kiss5.gif""style=""height:400px;""></stim_listA>",,html-keyboard-response,417,1846614,0.0-19.0-1.18,14304,List1A,white,man,,,,null,,,,
null,is kissing,,html-keyboard-response,418,1848616,0.0-19.0-2.18,14304,List1A,white,man,,,,null,,,,
5889,,,survey-text,419,1854506,0.0-19.0-3.18,14304,List1A,white,man,,,,,"{""Q0"":""dave is kissing luke""}","<img src=""stim_listA/kiss5.gif""style=""height:400px;""></stim_listA>",is kissing,
null,"<div style=""font-size:60px;"">+</div>",,html-keyboard-response,420,1855012,0.0-19.0-0.19,14304,List1A,white,man,,,,null,,,,
null,"<img src=""stim_listA/shout2.gif""style=""height:400px;""></stim_listA>",,html-keyboard-response,421,1857017,0.0-19.0-1.19,14304,List1A,white,man,,,,null,,,,
null,are shouting at each other,,html-keyboard-response,422,1859022,0.0-19.0-2.19,14304,List1A,white,man,,,,null,,,,
10747,,,survey-text,423,1869771,0.0-19.0-3.19,14304,List1A,white,man,,,,,"{""Q0"":""kate and mike are shouting at each other""}","<img src=""stim_listA/shout2.gif""style=""height:400px;""></stim_listA>",are shouting at each other,
3926,<p>Thank you for completing that task.</p><p>The final part of this session is a short questionnaire.</p><p>Press Continue.</p>,0,html-button-response,424,1873698,0.0-20.0,14304,List1A,white,man,,,,,,,,
29667,,,survey-text,425,1904371,0.0-21.0,14304,List1A,white,man,,,,,"{""Q0"":""50"",""Q1"":""english"",""Q2"":""english"",""Q3"":""United Kingdom"",""Q4"":""caucasian"",""Q5"":""male""}",,,demographics
8367,,,survey-likert,426,1912741,0.0-22.0,14304,List1A,white,man,,,,,"{""Q0"":4}",,,likert_ESS
8252,,,survey-likert,427,1920996,0.0-23.0,14304,List1A,white,man,,,,,"{""Q0"":4}",,,likert_NSSAL_Q1
3350,,,survey-likert,428,1924347,0.0-24.0,14304,List1A,white,man,,,,,"{""Q0"":4}",,,likert_NSSAL_Q2
6030,,,survey-likert,429,1930379,0.0-25.0,14304,List1A,white,man,,,,,"{""Q0"":4}",,,likert_CGRS_Q1
2439,,,survey-likert,430,1932819,0.0-26.0,14304,List1A,white,man,,,,,"{""Q0"":4}",,,likert_CGRS_Q2
2645,,,survey-likert,431,1935466,0.0-27.0,14304,List1A,white,man,,,,,"{""Q0"":4}",,,likert_CGRS_Q3
3198,,,survey-text,432,1938666,0.0-28.0,14304,List1A,white,man,,,,,"{""Q0"":""ccc""}",,,worker_id
12508,,,external-html,433,1951266,0.0-29.0,14304,List1A,white,man,debrief.html,,,,,,,
