rt,stimulus,button_pressed,trial_type,trial_index,time_elapsed,internal_node_id,subject,list,ppt_race,ppt_gender,url,first_guess,correct,key_press,responses,image_type,phrase_type,test_part
9416,Welcome to the experiment. Press Continue to begin.,0,html-button-response,0,9419,0.0-0.0,14308,List1B,black,woman,,,,,,,,
6540,,,external-html,1,17180,0.0-1.0,14308,List1B,black,woman,consent.html,,,,,,,
2109,"<p>On the next page, you will see portraits of 8 people and their names.</p><p>Your first task is to take a few minutes to memorise the names of these people.</p><p>You will have to recall their names during the rest of the experiment, so it is</p><p>essential that you try to memorise these people and their names as best as you can.</p><br><p><strong>You will then be tested on your memory of these names and portraits.</strong></p><br><p>The experiment will start after you have completed this memory test.</p><br><p>Ready?</p>",0,html-button-response,2,19291,0.0-2.0,14308,List1B,black,woman,,,,,,,,
6349,"<img src='img/portrait_matrix_list1.jpg' style='width:900px;height:500px;''></img><p>If you have memorised all the portraits and names and are ready to start, press Continue.</p><p><strong>Please note: Your memory of these faces will be tested 4 times during this experiment.</strong></p>",0,html-button-response,3,26642,0.0-3.0-0.0,14308,List1B,black,woman,,,,,,,,
5023,"<img src=""portrait/BM1.jpg""style=""height:400px;""></img>",4,html-button-response,4,32666,0.0-3.0-1.0,14308,List1B,black,woman,,TRUE,4,,,,,
null,CORRECT,,html-keyboard-response,5,34172,0.0-3.0-2.0-0.0,14308,List1B,black,woman,,,,null,,,,
3013,"<img src=""portrait/BW1.jpg""style=""height:400px;""></img>",0,html-button-response,6,37186,0.0-3.0-4.0,14308,List1B,black,woman,,TRUE,0,,,,,
null,CORRECT,,html-keyboard-response,7,38689,0.0-3.0-5.0-0.0,14308,List1B,black,woman,,,,null,,,,
2920,"<img src=""portrait/WM1.jpg""style=""height:400px;""></img>",5,html-button-response,8,41611,0.0-3.0-7.0,14308,List1B,black,woman,,TRUE,6,,,,,
2261,"<img src=""portrait/WM1.jpg""style=""height:400px;""></img>",6,html-button-response,9,44875,0.0-3.0-9.0-0.0,14308,List1B,black,woman,,FALSE,6,,,,,
null,CORRECT,,html-keyboard-response,10,46379,0.0-3.0-9.0-1.0-0.0,14308,List1B,black,woman,,,,null,,,,
2198,"<img src=""portrait/WW1.jpg""style=""height:400px;""></img>",3,html-button-response,11,48579,0.0-3.0-10.0,14308,List1B,black,woman,,TRUE,1,,,,,
2158,"<img src=""portrait/WW1.jpg""style=""height:400px;""></img>",1,html-button-response,12,51739,0.0-3.0-12.0-0.0,14308,List1B,black,woman,,FALSE,1,,,,,
null,CORRECT,,html-keyboard-response,13,53241,0.0-3.0-12.0-1.0-0.0,14308,List1B,black,woman,,,,null,,,,
3955,"<img src=""portrait/WM2.jpg""style=""height:400px;""></img>",5,html-button-response,14,57196,0.0-3.0-13.0,14308,List1B,black,woman,,TRUE,7,,,,,
1541,"<img src=""portrait/WM2.jpg""style=""height:400px;""></img>",7,html-button-response,15,59739,0.0-3.0-15.0-0.0,14308,List1B,black,woman,,FALSE,7,,,,,
null,CORRECT,,html-keyboard-response,16,61242,0.0-3.0-15.0-1.0-0.0,14308,List1B,black,woman,,,,null,,,,
4481,"<img src=""portrait/BM2.jpg""style=""height:400px;""></img>",5,html-button-response,17,65723,0.0-3.0-16.0,14308,List1B,black,woman,,TRUE,5,,,,,
null,CORRECT,,html-keyboard-response,18,67226,0.0-3.0-17.0-0.0,14308,List1B,black,woman,,,,null,,,,
3223,"<img src=""portrait/WW2.jpg""style=""height:400px;""></img>",3,html-button-response,19,70451,0.0-3.0-19.0,14308,List1B,black,woman,,TRUE,3,,,,,
null,CORRECT,,html-keyboard-response,20,71953,0.0-3.0-20.0-0.0,14308,List1B,black,woman,,,,null,,,,
1865,"<img src=""portrait/BW2.jpg""style=""height:400px;""></img>",2,html-button-response,21,73819,0.0-3.0-22.0,14308,List1B,black,woman,,TRUE,2,,,,,
null,CORRECT,,html-keyboard-response,22,75323,0.0-3.0-23.0-0.0,14308,List1B,black,woman,,,,null,,,,
1662,<p>You got 5 out of 8 right first time. Press Continue.</p>,0,html-button-response,23,76987,0.0-3.0-25.0,14308,List1B,black,woman,,,,,,,,
2926,"As you did not score 100%, the memory game will repeat. Press Continue.",0,html-button-response,24,80915,0.0-3.0-26.0-0.0,14308,List1B,black,woman,,,,,,,,
13662,"<img src='img/portrait_matrix_list1.jpg' style='width:900px;height:500px;''></img><p>If you have memorised all the portraits and names and are ready to start, press Continue.</p><p><strong>Please note: Your memory of these faces will be tested 4 times during this experiment.</strong></p>",0,html-button-response,25,95580,0.0-3.1-0.1,14308,List1B,black,woman,,,,,,,,
4789,"<img src=""portrait/BM1.jpg""style=""height:400px;""></img>",4,html-button-response,26,101370,0.0-3.1-1.1,14308,List1B,black,woman,,TRUE,4,,,,,
null,CORRECT,,html-keyboard-response,27,102873,0.0-3.1-2.1-0.1,14308,List1B,black,woman,,,,null,,,,
1769,"<img src=""portrait/BW1.jpg""style=""height:400px;""></img>",0,html-button-response,28,104643,0.0-3.1-4.1,14308,List1B,black,woman,,TRUE,0,,,,,
null,CORRECT,,html-keyboard-response,29,106145,0.0-3.1-5.1-0.1,14308,List1B,black,woman,,,,null,,,,
5170,"<img src=""portrait/WM1.jpg""style=""height:400px;""></img>",6,html-button-response,30,111315,0.0-3.1-7.1,14308,List1B,black,woman,,TRUE,6,,,,,
null,CORRECT,,html-keyboard-response,31,112817,0.0-3.1-8.1-0.1,14308,List1B,black,woman,,,,null,,,,
3376,"<img src=""portrait/WW1.jpg""style=""height:400px;""></img>",1,html-button-response,32,116195,0.0-3.1-10.1,14308,List1B,black,woman,,TRUE,1,,,,,
null,CORRECT,,html-keyboard-response,33,117696,0.0-3.1-11.1-0.1,14308,List1B,black,woman,,,,null,,,,
65434,"<img src=""portrait/WM2.jpg""style=""height:400px;""></img>",7,html-button-response,34,183131,0.0-3.1-13.1,14308,List1B,black,woman,,TRUE,7,,,,,
null,CORRECT,,html-keyboard-response,35,184634,0.0-3.1-14.1-0.1,14308,List1B,black,woman,,,,null,,,,
9672,"<img src=""portrait/BM2.jpg""style=""height:400px;""></img>",5,html-button-response,36,194306,0.0-3.1-16.1,14308,List1B,black,woman,,TRUE,5,,,,,
null,CORRECT,,html-keyboard-response,37,195810,0.0-3.1-17.1-0.1,14308,List1B,black,woman,,,,null,,,,
5416,"<img src=""portrait/WW2.jpg""style=""height:400px;""></img>",3,html-button-response,38,201226,0.0-3.1-19.1,14308,List1B,black,woman,,TRUE,3,,,,,
null,CORRECT,,html-keyboard-response,39,202730,0.0-3.1-20.1-0.1,14308,List1B,black,woman,,,,null,,,,
15144,"<img src=""portrait/BW2.jpg""style=""height:400px;""></img>",2,html-button-response,40,217875,0.0-3.1-22.1,14308,List1B,black,woman,,TRUE,2,,,,,
null,CORRECT,,html-keyboard-response,41,219378,0.0-3.1-23.1-0.1,14308,List1B,black,woman,,,,null,,,,
1431,<p>You got 8 out of 8 right first time. Press Continue.</p>,0,html-button-response,42,220810,0.0-3.1-25.1,14308,List1B,black,woman,,,,,,,,
9262,"<p>In this experiment, you will view photographs of the people from the memory game interacting.</p><p>By using the <strong>exact</strong> phrase given <i>after</i> the photograph appears and recalling the correct names of the people in the photographs, form a sentence describing the interaction. You do not need to capitalise names.</p><p>Type your answer in the space provided. Please complete every sentence before moving onto the next trial.</p><p>You will only have a few seconds to memorise each given photograph and phrase before you can respond, so try your best to focus.</p><p>An example is given below. Press 'Continue' when you are ready.</p><img src='img/speaking_example.jpg' style='width:800px;height:460px;''></img>",0,html-button-response,43,231074,0.0-4.0,14308,List1B,black,woman,,,,,,,,
1302,"<p>Before the experiment starts, you will watch two example trials. Press 'Continue'.</p>",0,html-button-response,44,233379,0.0-5.0,14308,List1B,black,woman,,,,,,,,
null,<img src='img/meet_eg.gif' style='height:400px;''></img>,,html-keyboard-response,45,236382,0.0-6.0,14308,List1B,black,woman,,,,null,,,,
null,<p>is meeting</p>,,html-keyboard-response,46,238384,0.0-7.0,14308,List1B,black,woman,,,,null,,,,
2178,<p><b>Answer:</b> kate is meeting beth</p>,0,html-button-response,47,240563,0.0-8.0,14308,List1B,black,woman,,,,,,,,
null,<img src='img/look_eg.gif' style='height:400px;''></img>,,html-keyboard-response,48,243565,0.0-9.0,14308,List1B,black,woman,,,,null,,,,
null,<p>are looking at each other</p>,,html-keyboard-response,49,245567,0.0-10.0,14308,List1B,black,woman,,,,null,,,,
1995,<p><b>Answer:</b> luke and dave are looking at each other</p>,0,html-button-response,50,247563,0.0-11.0,14308,List1B,black,woman,,,,,,,,
2438,"<p>Ready to start the experiment?</p><br><p><strong>Remember to describe the picture using a full sentence,</strong></p><p><strong>that combines the names of the people with the <i>exact</i> phrase given.</strong></p><p><strong>To receive full payment you must do this correctly.</strong></p><p><strong> You do not need to capitalise names or use punctuation.</strong></p><br><p>Press 'Continue' to begin.</p>",0,html-button-response,51,251003,0.0-12.0,14308,List1B,black,woman,,,,,,,,
null,"<div style=""font-size:60px;"">+</div>",,html-keyboard-response,52,252506,0.0-13.0-0.0,14308,List1B,black,woman,,,,null,,,,
null,"<img src=""stim_listB/marry8.gif""style=""height:400px;""></stim_listB>",,html-keyboard-response,53,254508,0.0-13.0-1.0,14308,List1B,black,woman,,,,null,,,,
null,are marrying each other,,html-keyboard-response,54,256509,0.0-13.0-2.0,14308,List1B,black,woman,,,,null,,,,
22748,,,survey-text,55,279260,0.0-13.0-3.0,14308,List1B,black,woman,,,,,"{""Q0"":""Jane and Beth are marrying each other""}","<img src=""stim_listB/marry8.gif""style=""height:400px;""></stim_listB>",are marrying each other,
null,"<div style=""font-size:60px;"">+</div>",,html-keyboard-response,56,279761,0.0-13.0-0.1,14308,List1B,black,woman,,,,null,,,,
null,"<img src=""stim_listB/flirt5.gif""style=""height:400px;""></stim_listB>",,html-keyboard-response,57,281763,0.0-13.0-1.1,14308,List1B,black,woman,,,,null,,,,
null,is flirting with,,html-keyboard-response,58,283766,0.0-13.0-2.1,14308,List1B,black,woman,,,,null,,,,
10428,,,survey-text,59,294195,0.0-13.0-3.1,14308,List1B,black,woman,,,,,"{""Q0"":""Dave and Fred ""}","<img src=""stim_listB/flirt5.gif""style=""height:400px;""></stim_listB>",is flirting with,
null,"<div style=""font-size:60px;"">+</div>",,html-keyboard-response,60,294697,0.0-13.0-0.2,14308,List1B,black,woman,,,,null,,,,
null,"<img src=""stim_listB/marry7.gif""style=""height:400px;""></stim_listB>",,html-keyboard-response,61,296698,0.0-13.0-1.2,14308,List1B,black,woman,,,,null,,,,
null,is marrying,,html-keyboard-response,62,298699,0.0-13.0-2.2,14308,List1B,black,woman,,,,null,,,,
14912,,,survey-text,63,313611,0.0-13.0-3.2,14308,List1B,black,woman,,,,,"{""Q0"":""Ruth is marrying Kate ""}","<img src=""stim_listB/marry7.gif""style=""height:400px;""></stim_listB>",is marrying,
null,"<div style=""font-size:60px;"">+</div>",,html-keyboard-response,64,314114,0.0-13.0-0.3,14308,List1B,black,woman,,,,null,,,,
null,"<img src=""stim_listB/play7.gif""style=""height:400px;""></stim_listB>",,html-keyboard-response,65,316117,0.0-13.0-1.3,14308,List1B,black,woman,,,,null,,,,
null,is playing with,,html-keyboard-response,66,318119,0.0-13.0-2.3,14308,List1B,black,woman,,,,null,,,,
892507,,,survey-text,67,1210626,0.0-13.0-3.3,14308,List1B,black,woman,,,,,"{""Q0"":""not sure""}","<img src=""stim_listB/play7.gif""style=""height:400px;""></stim_listB>",is playing with,
null,"<div style=""font-size:60px;"">+</div>",,html-keyboard-response,68,1211127,0.0-13.0-0.4,14308,List1B,black,woman,,,,null,,,,
null,"<img src=""stim_listB/dance7.gif""style=""height:400px;""></stim_listB>",,html-keyboard-response,69,1213128,0.0-13.0-1.4,14308,List1B,black,woman,,,,null,,,,
null,is dancing with,,html-keyboard-response,70,1215130,0.0-13.0-2.4,14308,List1B,black,woman,,,,null,,,,
18136,,,survey-text,71,1233266,0.0-13.0-3.4,14308,List1B,black,woman,,,,,"{""Q0"":""jane is dancing with beth""}","<img src=""stim_listB/dance7.gif""style=""height:400px;""></stim_listB>",is dancing with,
null,"<div style=""font-size:60px;"">+</div>",,html-keyboard-response,72,1233768,0.0-13.0-0.5,14308,List1B,black,woman,,,,null,,,,
null,"<img src=""stim_listB/shout6.gif""style=""height:400px;""></stim_listB>",,html-keyboard-response,73,1235770,0.0-13.0-1.5,14308,List1B,black,woman,,,,null,,,,
null,are shouting at each other,,html-keyboard-response,74,1237771,0.0-13.0-2.5,14308,List1B,black,woman,,,,null,,,,
26094,,,survey-text,75,1263865,0.0-13.0-3.5,14308,List1B,black,woman,,,,,"{""Q0"":""dave and mike are shouting at each other ""}","<img src=""stim_listB/shout6.gif""style=""height:400px;""></stim_listB>",are shouting at each other,
null,"<div style=""font-size:60px;"">+</div>",,html-keyboard-response,76,1264367,0.0-13.0-0.6,14308,List1B,black,woman,,,,null,,,,
null,"<img src=""stim_listB/flirt7.gif""style=""height:400px;""></stim_listB>",,html-keyboard-response,77,1266369,0.0-13.0-1.6,14308,List1B,black,woman,,,,null,,,,
null,is flirting with,,html-keyboard-response,78,1268369,0.0-13.0-2.6,14308,List1B,black,woman,,,,null,,,,
17095,,,survey-text,79,1285465,0.0-13.0-3.6,14308,List1B,black,woman,,,,,"{""Q0"":""jane and beth are flirting with each other ""}","<img src=""stim_listB/flirt7.gif""style=""height:400px;""></stim_listB>",is flirting with,
null,"<div style=""font-size:60px;"">+</div>",,html-keyboard-response,80,1285967,0.0-13.0-0.7,14308,List1B,black,woman,,,,null,,,,
null,"<img src=""stim_listB/touch4.gif""style=""height:400px;""></stim_listB>",,html-keyboard-response,81,1287968,0.0-13.0-1.7,14308,List1B,black,woman,,,,null,,,,
null,are touching each other,,html-keyboard-response,82,1289969,0.0-13.0-2.7,14308,List1B,black,woman,,,,null,,,,
15863,,,survey-text,83,1305834,0.0-13.0-3.7,14308,List1B,black,woman,,,,,"{""Q0"":""luke and ruth are touching each other ""}","<img src=""stim_listB/touch4.gif""style=""height:400px;""></stim_listB>",are touching each other,
null,"<div style=""font-size:60px;"">+</div>",,html-keyboard-response,84,1306335,0.0-13.0-0.8,14308,List1B,black,woman,,,,null,,,,
null,"<img src=""stim_listB/flirt1.gif""style=""height:400px;""></stim_listB>",,html-keyboard-response,85,1308337,0.0-13.0-1.8,14308,List1B,black,woman,,,,null,,,,
null,is flirting with,,html-keyboard-response,86,1310339,0.0-13.0-2.8,14308,List1B,black,woman,,,,null,,,,
12911,,,survey-text,87,1323250,0.0-13.0-3.8,14308,List1B,black,woman,,,,,"{""Q0"":""""}","<img src=""stim_listB/flirt1.gif""style=""height:400px;""></stim_listB>",is flirting with,
null,"<div style=""font-size:60px;"">+</div>",,html-keyboard-response,88,1323754,0.0-13.0-0.9,14308,List1B,black,woman,,,,null,,,,
null,"<img src=""stim_listB/play3.gif""style=""height:400px;""></stim_listB>",,html-keyboard-response,89,1325758,0.0-13.0-1.9,14308,List1B,black,woman,,,,null,,,,
null,is playing with,,html-keyboard-response,90,1327758,0.0-13.0-2.9,14308,List1B,black,woman,,,,null,,,,
15283,,,survey-text,91,1343042,0.0-13.0-3.9,14308,List1B,black,woman,,,,,"{""Q0"":""jane is playing with dave""}","<img src=""stim_listB/play3.gif""style=""height:400px;""></stim_listB>",is playing with,
null,"<div style=""font-size:60px;"">+</div>",,html-keyboard-response,92,1343544,0.0-13.0-0.10,14308,List1B,black,woman,,,,null,,,,
null,"<img src=""stim_listB/fight2.gif""style=""height:400px;""></stim_listB>",,html-keyboard-response,93,1345546,0.0-13.0-1.10,14308,List1B,black,woman,,,,null,,,,
null,are fighting each other,,html-keyboard-response,94,1347547,0.0-13.0-2.10,14308,List1B,black,woman,,,,null,,,,
12198,,,survey-text,95,1359747,0.0-13.0-3.10,14308,List1B,black,woman,,,,,"{""Q0"":""fred and beth are fighting each other""}","<img src=""stim_listB/fight2.gif""style=""height:400px;""></stim_listB>",are fighting each other,
null,"<div style=""font-size:60px;"">+</div>",,html-keyboard-response,96,1360248,0.0-13.0-0.11,14308,List1B,black,woman,,,,null,,,,
null,"<img src=""stim_listB/kiss8.gif""style=""height:400px;""></stim_listB>",,html-keyboard-response,97,1362250,0.0-13.0-1.11,14308,List1B,black,woman,,,,null,,,,
null,are kissing each other,,html-keyboard-response,98,1364251,0.0-13.0-2.11,14308,List1B,black,woman,,,,null,,,,
9695,,,survey-text,99,1373946,0.0-13.0-3.11,14308,List1B,black,woman,,,,,"{""Q0"":""kate and jane ""}","<img src=""stim_listB/kiss8.gif""style=""height:400px;""></stim_listB>",are kissing each other,
null,"<div style=""font-size:60px;"">+</div>",,html-keyboard-response,100,1374449,0.0-13.0-0.12,14308,List1B,black,woman,,,,null,,,,
null,"<img src=""stim_listB/argue6.gif""style=""height:400px;""></stim_listB>",,html-keyboard-response,101,1376452,0.0-13.0-1.12,14308,List1B,black,woman,,,,null,,,,
null,are arguing with each other,,html-keyboard-response,102,1378454,0.0-13.0-2.12,14308,List1B,black,woman,,,,null,,,,
15018,,,survey-text,103,1393473,0.0-13.0-3.12,14308,List1B,black,woman,,,,,"{""Q0"":""fred and dave are arguing with each other ""}","<img src=""stim_listB/argue6.gif""style=""height:400px;""></stim_listB>",are arguing with each other,
null,"<div style=""font-size:60px;"">+</div>",,html-keyboard-response,104,1393975,0.0-13.0-0.13,14308,List1B,black,woman,,,,null,,,,
null,"<img src=""stim_listB/talk5.gif""style=""height:400px;""></stim_listB>",,html-keyboard-response,105,1395976,0.0-13.0-1.13,14308,List1B,black,woman,,,,null,,,,
null,is talking to,,html-keyboard-response,106,1397977,0.0-13.0-2.13,14308,List1B,black,woman,,,,null,,,,
8550,,,survey-text,107,1406529,0.0-13.0-3.13,14308,List1B,black,woman,,,,,"{""Q0"":""fred and dave ""}","<img src=""stim_listB/talk5.gif""style=""height:400px;""></stim_listB>",is talking to,
null,"<div style=""font-size:60px;"">+</div>",,html-keyboard-response,108,1407032,0.0-13.0-0.14,14308,List1B,black,woman,,,,null,,,,
null,"<img src=""stim_listB/talk2.gif""style=""height:400px;""></stim_listB>",,html-keyboard-response,109,1409034,0.0-13.0-1.14,14308,List1B,black,woman,,,,null,,,,
null,are talking to each other,,html-keyboard-response,110,1411035,0.0-13.0-2.14,14308,List1B,black,woman,,,,null,,,,
13518,,,survey-text,111,1424554,0.0-13.0-3.14,14308,List1B,black,woman,,,,,"{""Q0"":""beth and mike are talking to each other""}","<img src=""stim_listB/talk2.gif""style=""height:400px;""></stim_listB>",are talking to each other,
null,"<div style=""font-size:60px;"">+</div>",,html-keyboard-response,112,1425055,0.0-13.0-0.15,14308,List1B,black,woman,,,,null,,,,
null,"<img src=""stim_listB/talk1.gif""style=""height:400px;""></stim_listB>",,html-keyboard-response,113,1427056,0.0-13.0-1.15,14308,List1B,black,woman,,,,null,,,,
null,is talking to,,html-keyboard-response,114,1429058,0.0-13.0-2.15,14308,List1B,black,woman,,,,null,,,,
11182,,,survey-text,115,1440241,0.0-13.0-3.15,14308,List1B,black,woman,,,,,"{""Q0"":""kate is talking to milke""}","<img src=""stim_listB/talk1.gif""style=""height:400px;""></stim_listB>",is talking to,
null,"<div style=""font-size:60px;"">+</div>",,html-keyboard-response,116,1440743,0.0-13.0-0.16,14308,List1B,black,woman,,,,null,,,,
null,"<img src=""stim_listB/kiss2.gif""style=""height:400px;""></stim_listB>",,html-keyboard-response,117,1442747,0.0-13.0-1.16,14308,List1B,black,woman,,,,null,,,,
null,are kissing each other,,html-keyboard-response,118,1444749,0.0-13.0-2.16,14308,List1B,black,woman,,,,null,,,,
69173,,,survey-text,119,1513924,0.0-13.0-3.16,14308,List1B,black,woman,,,,,"{""Q0"":""mike and kate are talking to each other""}","<img src=""stim_listB/kiss2.gif""style=""height:400px;""></stim_listB>",are kissing each other,
null,"<div style=""font-size:60px;"">+</div>",,html-keyboard-response,120,1514425,0.0-13.0-0.17,14308,List1B,black,woman,,,,null,,,,
null,"<img src=""stim_listB/argue1.gif""style=""height:400px;""></stim_listB>",,html-keyboard-response,121,1516426,0.0-13.0-1.17,14308,List1B,black,woman,,,,null,,,,
null,is arguing with,,html-keyboard-response,122,1518427,0.0-13.0-2.17,14308,List1B,black,woman,,,,null,,,,
12703,,,survey-text,123,1531130,0.0-13.0-3.17,14308,List1B,black,woman,,,,,"{""Q0"":""beth is arguing with mike""}","<img src=""stim_listB/argue1.gif""style=""height:400px;""></stim_listB>",is arguing with,
null,"<div style=""font-size:60px;"">+</div>",,html-keyboard-response,124,1531632,0.0-13.0-0.18,14308,List1B,black,woman,,,,null,,,,
null,"<img src=""stim_listB/shout1.gif""style=""height:400px;""></stim_listB>",,html-keyboard-response,125,1533633,0.0-13.0-1.18,14308,List1B,black,woman,,,,null,,,,
null,is shouting at,,html-keyboard-response,126,1535635,0.0-13.0-2.18,14308,List1B,black,woman,,,,null,,,,
14566,,,survey-text,127,1550202,0.0-13.0-3.18,14308,List1B,black,woman,,,,,"{""Q0"":""beth is shouting at fred""}","<img src=""stim_listB/shout1.gif""style=""height:400px;""></stim_listB>",is shouting at,
null,"<div style=""font-size:60px;"">+</div>",,html-keyboard-response,128,1550703,0.0-13.0-0.19,14308,List1B,black,woman,,,,null,,,,
null,"<img src=""stim_listB/dance2.gif""style=""height:400px;""></stim_listB>",,html-keyboard-response,129,1552705,0.0-13.0-1.19,14308,List1B,black,woman,,,,null,,,,
null,are dancing with each other,,html-keyboard-response,130,1554706,0.0-13.0-2.19,14308,List1B,black,woman,,,,null,,,,
16375,,,survey-text,131,1571082,0.0-13.0-3.19,14308,List1B,black,woman,,,,,"{""Q0"":""mike and beth are dancing with each other""}","<img src=""stim_listB/dance2.gif""style=""height:400px;""></stim_listB>",are dancing with each other,
11623,"<img src='img/portrait_matrix_list1.jpg' style='width:900px;height:500px;''></img><p>If you have memorised all the portraits and names and are ready to start, press Continue.</p><p><strong>Please note: Your memory of these faces will be tested 4 times during this experiment.</strong></p>",0,html-button-response,132,1582705,0.0-14.0-0.0,14308,List1B,black,woman,,,,,,,,
6141,"<img src=""portrait/WW1.jpg""style=""height:400px;""></img>",1,html-button-response,133,1589850,0.0-14.0-1.0,14308,List1B,black,woman,,TRUE,1,,,,,
null,CORRECT,,html-keyboard-response,134,1591351,0.0-14.0-2.0-0.0,14308,List1B,black,woman,,,,null,,,,
2017,"<img src=""portrait/BW2.jpg""style=""height:400px;""></img>",2,html-button-response,135,1593370,0.0-14.0-4.0,14308,List1B,black,woman,,TRUE,2,,,,,
null,CORRECT,,html-keyboard-response,136,1594875,0.0-14.0-5.0-0.0,14308,List1B,black,woman,,,,null,,,,
2022,"<img src=""portrait/WM1.jpg""style=""height:400px;""></img>",6,html-button-response,137,1596898,0.0-14.0-7.0,14308,List1B,black,woman,,TRUE,6,,,,,
null,CORRECT,,html-keyboard-response,138,1598402,0.0-14.0-8.0-0.0,14308,List1B,black,woman,,,,null,,,,
2121,"<img src=""portrait/BW1.jpg""style=""height:400px;""></img>",0,html-button-response,139,1600524,0.0-14.0-10.0,14308,List1B,black,woman,,TRUE,0,,,,,
null,CORRECT,,html-keyboard-response,140,1602026,0.0-14.0-11.0-0.0,14308,List1B,black,woman,,,,null,,,,
3991,"<img src=""portrait/WM2.jpg""style=""height:400px;""></img>",7,html-button-response,141,1606017,0.0-14.0-13.0,14308,List1B,black,woman,,TRUE,7,,,,,
null,CORRECT,,html-keyboard-response,142,1607520,0.0-14.0-14.0-0.0,14308,List1B,black,woman,,,,null,,,,
6296,"<img src=""portrait/BM1.jpg""style=""height:400px;""></img>",4,html-button-response,143,1613817,0.0-14.0-16.0,14308,List1B,black,woman,,TRUE,4,,,,,
null,CORRECT,,html-keyboard-response,144,1615321,0.0-14.0-17.0-0.0,14308,List1B,black,woman,,,,null,,,,
4482,"<img src=""portrait/WW2.jpg""style=""height:400px;""></img>",2,html-button-response,145,1619804,0.0-14.0-19.0,14308,List1B,black,woman,,TRUE,3,,,,,
1395,"<img src=""portrait/WW2.jpg""style=""height:400px;""></img>",3,html-button-response,146,1622201,0.0-14.0-21.0-0.0,14308,List1B,black,woman,,FALSE,3,,,,,
null,CORRECT,,html-keyboard-response,147,1623704,0.0-14.0-21.0-1.0-0.0,14308,List1B,black,woman,,,,null,,,,
4040,"<img src=""portrait/BM2.jpg""style=""height:400px;""></img>",6,html-button-response,148,1627746,0.0-14.0-22.0,14308,List1B,black,woman,,TRUE,5,,,,,
5895,"<img src=""portrait/BM2.jpg""style=""height:400px;""></img>",5,html-button-response,149,1634642,0.0-14.0-24.0-0.0,14308,List1B,black,woman,,FALSE,5,,,,,
null,CORRECT,,html-keyboard-response,150,1636147,0.0-14.0-24.0-1.0-0.0,14308,List1B,black,woman,,,,null,,,,
2462,<p>You got 6 out of 8 right first time. Press Continue.</p>,0,html-button-response,151,1638610,0.0-14.0-25.0,14308,List1B,black,woman,,,,,,,,
2165,"As you did not score 100%, the memory game will repeat. Press Continue.",0,html-button-response,152,1641778,0.0-14.0-26.0-0.0,14308,List1B,black,woman,,,,,,,,
9156,"<img src='img/portrait_matrix_list1.jpg' style='width:900px;height:500px;''></img><p>If you have memorised all the portraits and names and are ready to start, press Continue.</p><p><strong>Please note: Your memory of these faces will be tested 4 times during this experiment.</strong></p>",0,html-button-response,153,1651938,0.0-14.1-0.1,14308,List1B,black,woman,,,,,,,,
1597,"<img src=""portrait/WW1.jpg""style=""height:400px;""></img>",1,html-button-response,154,1654538,0.0-14.1-1.1,14308,List1B,black,woman,,TRUE,1,,,,,
null,CORRECT,,html-keyboard-response,155,1656040,0.0-14.1-2.1-0.1,14308,List1B,black,woman,,,,null,,,,
3667,"<img src=""portrait/BW2.jpg""style=""height:400px;""></img>",2,html-button-response,156,1659707,0.0-14.1-4.1,14308,List1B,black,woman,,TRUE,2,,,,,
null,CORRECT,,html-keyboard-response,157,1661210,0.0-14.1-5.1-0.1,14308,List1B,black,woman,,,,null,,,,
7625,"<img src=""portrait/WM1.jpg""style=""height:400px;""></img>",6,html-button-response,158,1668837,0.0-14.1-7.1,14308,List1B,black,woman,,TRUE,6,,,,,
null,CORRECT,,html-keyboard-response,159,1670340,0.0-14.1-8.1-0.1,14308,List1B,black,woman,,,,null,,,,
1973,"<img src=""portrait/BW1.jpg""style=""height:400px;""></img>",0,html-button-response,160,1672313,0.0-14.1-10.1,14308,List1B,black,woman,,TRUE,0,,,,,
null,CORRECT,,html-keyboard-response,161,1673817,0.0-14.1-11.1-0.1,14308,List1B,black,woman,,,,null,,,,
1446,"<img src=""portrait/WM2.jpg""style=""height:400px;""></img>",7,html-button-response,162,1675266,0.0-14.1-13.1,14308,List1B,black,woman,,TRUE,7,,,,,
null,CORRECT,,html-keyboard-response,163,1676769,0.0-14.1-14.1-0.1,14308,List1B,black,woman,,,,null,,,,
3658,"<img src=""portrait/BM1.jpg""style=""height:400px;""></img>",4,html-button-response,164,1680427,0.0-14.1-16.1,14308,List1B,black,woman,,TRUE,4,,,,,
null,CORRECT,,html-keyboard-response,165,1681931,0.0-14.1-17.1-0.1,14308,List1B,black,woman,,,,null,,,,
4652,"<img src=""portrait/WW2.jpg""style=""height:400px;""></img>",3,html-button-response,166,1686586,0.0-14.1-19.1,14308,List1B,black,woman,,TRUE,3,,,,,
null,CORRECT,,html-keyboard-response,167,1688091,0.0-14.1-20.1-0.1,14308,List1B,black,woman,,,,null,,,,
5022,"<img src=""portrait/BM2.jpg""style=""height:400px;""></img>",5,html-button-response,168,1693114,0.0-14.1-22.1,14308,List1B,black,woman,,TRUE,5,,,,,
null,CORRECT,,html-keyboard-response,169,1694616,0.0-14.1-23.1-0.1,14308,List1B,black,woman,,,,null,,,,
4776,<p>You got 8 out of 8 right first time. Press Continue.</p>,0,html-button-response,170,1699394,0.0-14.1-25.1,14308,List1B,black,woman,,,,,,,,
null,"<div style=""font-size:60px;"">+</div>",,html-keyboard-response,171,1700896,0.0-15.0-0.0,14308,List1B,black,woman,,,,null,,,,
null,"<img src=""stim_listB/marry5.gif""style=""height:400px;""></stim_listB>",,html-keyboard-response,172,1702899,0.0-15.0-1.0,14308,List1B,black,woman,,,,null,,,,
null,is marrying,,html-keyboard-response,173,1704901,0.0-15.0-2.0,14308,List1B,black,woman,,,,null,,,,
8189,,,survey-text,174,1713090,0.0-15.0-3.0,14308,List1B,black,woman,,,,,"{""Q0"":""Luke is marrying mike""}","<img src=""stim_listB/marry5.gif""style=""height:400px;""></stim_listB>",is marrying,
null,"<div style=""font-size:60px;"">+</div>",,html-keyboard-response,175,1713592,0.0-15.0-0.1,14308,List1B,black,woman,,,,null,,,,
null,"<img src=""stim_listB/kiss1.gif""style=""height:400px;""></stim_listB>",,html-keyboard-response,176,1715593,0.0-15.0-1.1,14308,List1B,black,woman,,,,null,,,,
null,is kissing,,html-keyboard-response,177,1717594,0.0-15.0-2.1,14308,List1B,black,woman,,,,null,,,,
9718,,,survey-text,178,1727313,0.0-15.0-3.1,14308,List1B,black,woman,,,,,"{""Q0"":""beth is kissing fred""}","<img src=""stim_listB/kiss1.gif""style=""height:400px;""></stim_listB>",is kissing,
null,"<div style=""font-size:60px;"">+</div>",,html-keyboard-response,179,1727816,0.0-15.0-0.2,14308,List1B,black,woman,,,,null,,,,
null,"<img src=""stim_listB/dance3.gif""style=""height:400px;""></stim_listB>",,html-keyboard-response,180,1729819,0.0-15.0-1.2,14308,List1B,black,woman,,,,null,,,,
null,is dancing with,,html-keyboard-response,181,1731821,0.0-15.0-2.2,14308,List1B,black,woman,,,,null,,,,
10891,,,survey-text,182,1742714,0.0-15.0-3.2,14308,List1B,black,woman,,,,,"{""Q0"":""jane is dancing with luke""}","<img src=""stim_listB/dance3.gif""style=""height:400px;""></stim_listB>",is dancing with,
null,"<div style=""font-size:60px;"">+</div>",,html-keyboard-response,183,1743215,0.0-15.0-0.3,14308,List1B,black,woman,,,,null,,,,
null,"<img src=""stim_listB/shout5.gif""style=""height:400px;""></stim_listB>",,html-keyboard-response,184,1745216,0.0-15.0-1.3,14308,List1B,black,woman,,,,null,,,,
null,is shouting at,,html-keyboard-response,185,1747218,0.0-15.0-2.3,14308,List1B,black,woman,,,,null,,,,
9960,,,survey-text,186,1757178,0.0-15.0-3.3,14308,List1B,black,woman,,,,,"{""Q0"":""luke is shouting at fred""}","<img src=""stim_listB/shout5.gif""style=""height:400px;""></stim_listB>",is shouting at,
null,"<div style=""font-size:60px;"">+</div>",,html-keyboard-response,187,1757680,0.0-15.0-0.4,14308,List1B,black,woman,,,,null,,,,
null,"<img src=""stim_listB/argue4.gif""style=""height:400px;""></stim_listB>",,html-keyboard-response,188,1759681,0.0-15.0-1.4,14308,List1B,black,woman,,,,null,,,,
null,are arguing with each other,,html-keyboard-response,189,1761682,0.0-15.0-2.4,14308,List1B,black,woman,,,,null,,,,
14671,,,survey-text,190,1776353,0.0-15.0-3.4,14308,List1B,black,woman,,,,,"{""Q0"":""luke and jane are arguing with each other ""}","<img src=""stim_listB/argue4.gif""style=""height:400px;""></stim_listB>",are arguing with each other,
null,"<div style=""font-size:60px;"">+</div>",,html-keyboard-response,191,1776855,0.0-15.0-0.5,14308,List1B,black,woman,,,,null,,,,
null,"<img src=""stim_listB/fight8.gif""style=""height:400px;""></stim_listB>",,html-keyboard-response,192,1778856,0.0-15.0-1.5,14308,List1B,black,woman,,,,null,,,,
null,are fighting each other,,html-keyboard-response,193,1780858,0.0-15.0-2.5,14308,List1B,black,woman,,,,null,,,,
9846,,,survey-text,194,1790706,0.0-15.0-3.5,14308,List1B,black,woman,,,,,"{""Q0"":""beth and ruth are fighting each other ""}","<img src=""stim_listB/fight8.gif""style=""height:400px;""></stim_listB>",are fighting each other,
null,"<div style=""font-size:60px;"">+</div>",,html-keyboard-response,195,1791208,0.0-15.0-0.6,14308,List1B,black,woman,,,,null,,,,
null,"<img src=""stim_listB/flirt2.gif""style=""height:400px;""></stim_listB>",,html-keyboard-response,196,1793209,0.0-15.0-1.6,14308,List1B,black,woman,,,,null,,,,
null,are flirting with each other,,html-keyboard-response,197,1795210,0.0-15.0-2.6,14308,List1B,black,woman,,,,null,,,,
359,,,survey-text,198,1795570,0.0-15.0-3.6,14308,List1B,black,woman,,,,,"{""Q0"":""""}","<img src=""stim_listB/flirt2.gif""style=""height:400px;""></stim_listB>",are flirting with each other,
null,"<div style=""font-size:60px;"">+</div>",,html-keyboard-response,199,1796071,0.0-15.0-0.7,14308,List1B,black,woman,,,,null,,,,
null,"<img src=""stim_listB/argue7.gif""style=""height:400px;""></stim_listB>",,html-keyboard-response,200,1798073,0.0-15.0-1.7,14308,List1B,black,woman,,,,null,,,,
null,is arguing with,,html-keyboard-response,201,1800074,0.0-15.0-2.7,14308,List1B,black,woman,,,,null,,,,
7359,,,survey-text,202,1807433,0.0-15.0-3.7,14308,List1B,black,woman,,,,,"{""Q0"":""ruth is arguing with kate""}","<img src=""stim_listB/argue7.gif""style=""height:400px;""></stim_listB>",is arguing with,
null,"<div style=""font-size:60px;"">+</div>",,html-keyboard-response,203,1807934,0.0-15.0-0.8,14308,List1B,black,woman,,,,null,,,,
null,"<img src=""stim_listB/fight5.gif""style=""height:400px;""></stim_listB>",,html-keyboard-response,204,1809936,0.0-15.0-1.8,14308,List1B,black,woman,,,,null,,,,
null,is fighting,,html-keyboard-response,205,1811937,0.0-15.0-2.8,14308,List1B,black,woman,,,,null,,,,
8168,,,survey-text,206,1820106,0.0-15.0-3.8,14308,List1B,black,woman,,,,,"{""Q0"":""dave is fighting with mike ""}","<img src=""stim_listB/fight5.gif""style=""height:400px;""></stim_listB>",is fighting,
null,"<div style=""font-size:60px;"">+</div>",,html-keyboard-response,207,1820608,0.0-15.0-0.9,14308,List1B,black,woman,,,,null,,,,
null,"<img src=""stim_listB/talk3.gif""style=""height:400px;""></stim_listB>",,html-keyboard-response,208,1822610,0.0-15.0-1.9,14308,List1B,black,woman,,,,null,,,,
null,is talking to,,html-keyboard-response,209,1824611,0.0-15.0-2.9,14308,List1B,black,woman,,,,null,,,,
6798,,,survey-text,210,1831410,0.0-15.0-3.9,14308,List1B,black,woman,,,,,"{""Q0"":""jane is talking to luke ""}","<img src=""stim_listB/talk3.gif""style=""height:400px;""></stim_listB>",is talking to,
null,"<div style=""font-size:60px;"">+</div>",,html-keyboard-response,211,1831912,0.0-15.0-0.10,14308,List1B,black,woman,,,,null,,,,
null,"<img src=""stim_listB/dance6.gif""style=""height:400px;""></stim_listB>",,html-keyboard-response,212,1833914,0.0-15.0-1.10,14308,List1B,black,woman,,,,null,,,,
null,are dancing with each other,,html-keyboard-response,213,1835915,0.0-15.0-2.10,14308,List1B,black,woman,,,,null,,,,
3782,,,survey-text,214,1839697,0.0-15.0-3.10,14308,List1B,black,woman,,,,,"{""Q0"":""""}","<img src=""stim_listB/dance6.gif""style=""height:400px;""></stim_listB>",are dancing with each other,
null,"<div style=""font-size:60px;"">+</div>",,html-keyboard-response,215,1840200,0.0-15.0-0.11,14308,List1B,black,woman,,,,null,,,,
null,"<img src=""stim_listB/shout3.gif""style=""height:400px;""></stim_listB>",,html-keyboard-response,216,1842202,0.0-15.0-1.11,14308,List1B,black,woman,,,,null,,,,
null,is shouting at,,html-keyboard-response,217,1844203,0.0-15.0-2.11,14308,List1B,black,woman,,,,null,,,,
9861,,,survey-text,218,1854065,0.0-15.0-3.11,14308,List1B,black,woman,,,,,"{""Q0"":""ruth is shouting at luke""}","<img src=""stim_listB/shout3.gif""style=""height:400px;""></stim_listB>",is shouting at,
null,"<div style=""font-size:60px;"">+</div>",,html-keyboard-response,219,1854568,0.0-15.0-0.12,14308,List1B,black,woman,,,,null,,,,
null,"<img src=""stim_listB/fight3.gif""style=""height:400px;""></stim_listB>",,html-keyboard-response,220,1856570,0.0-15.0-1.12,14308,List1B,black,woman,,,,null,,,,
null,is fighting,,html-keyboard-response,221,1858571,0.0-15.0-2.12,14308,List1B,black,woman,,,,null,,,,
6069,,,survey-text,222,1864641,0.0-15.0-3.12,14308,List1B,black,woman,,,,,"{""Q0"":""jane and dave""}","<img src=""stim_listB/fight3.gif""style=""height:400px;""></stim_listB>",is fighting,
null,"<div style=""font-size:60px;"">+</div>",,html-keyboard-response,223,1865143,0.0-15.0-0.13,14308,List1B,black,woman,,,,null,,,,
null,"<img src=""stim_listB/flirt8.gif""style=""height:400px;""></stim_listB>",,html-keyboard-response,224,1867146,0.0-15.0-1.13,14308,List1B,black,woman,,,,null,,,,
null,are flirting with each other,,html-keyboard-response,225,1869148,0.0-15.0-2.13,14308,List1B,black,woman,,,,null,,,,
8452,,,survey-text,226,1877601,0.0-15.0-3.13,14308,List1B,black,woman,,,,,"{""Q0"":""kate and ruth are flirting with each other ""}","<img src=""stim_listB/flirt8.gif""style=""height:400px;""></stim_listB>",are flirting with each other,
null,"<div style=""font-size:60px;"">+</div>",,html-keyboard-response,227,1878102,0.0-15.0-0.14,14308,List1B,black,woman,,,,null,,,,
null,"<img src=""stim_listB/flirt6.gif""style=""height:400px;""></stim_listB>",,html-keyboard-response,228,1880105,0.0-15.0-1.14,14308,List1B,black,woman,,,,null,,,,
null,are flirting with each other,,html-keyboard-response,229,1882107,0.0-15.0-2.14,14308,List1B,black,woman,,,,null,,,,
9045,,,survey-text,230,1891153,0.0-15.0-3.14,14308,List1B,black,woman,,,,,"{""Q0"":""mike and luke are flirting with each other ""}","<img src=""stim_listB/flirt6.gif""style=""height:400px;""></stim_listB>",are flirting with each other,
null,"<div style=""font-size:60px;"">+</div>",,html-keyboard-response,231,1891654,0.0-15.0-0.15,14308,List1B,black,woman,,,,null,,,,
null,"<img src=""stim_listB/marry4.gif""style=""height:400px;""></stim_listB>",,html-keyboard-response,232,1893656,0.0-15.0-1.15,14308,List1B,black,woman,,,,null,,,,
null,are marrying each other,,html-keyboard-response,233,1895658,0.0-15.0-2.15,14308,List1B,black,woman,,,,null,,,,
15311,,,survey-text,234,1910971,0.0-15.0-3.15,14308,List1B,black,woman,,,,,"{""Q0"":""luke and jane are marrying each other ""}","<img src=""stim_listB/marry4.gif""style=""height:400px;""></stim_listB>",are marrying each other,
null,"<div style=""font-size:60px;"">+</div>",,html-keyboard-response,235,1911472,0.0-15.0-0.16,14308,List1B,black,woman,,,,null,,,,
null,"<img src=""stim_listB/shout8.gif""style=""height:400px;""></stim_listB>",,html-keyboard-response,236,1913475,0.0-15.0-1.16,14308,List1B,black,woman,,,,null,,,,
null,are shouting at each other,,html-keyboard-response,237,1915476,0.0-15.0-2.16,14308,List1B,black,woman,,,,null,,,,
10549,,,survey-text,238,1926025,0.0-15.0-3.16,14308,List1B,black,woman,,,,,"{""Q0"":""kate and jane are shouting at each other ""}","<img src=""stim_listB/shout8.gif""style=""height:400px;""></stim_listB>",are shouting at each other,
null,"<div style=""font-size:60px;"">+</div>",,html-keyboard-response,239,1926528,0.0-15.0-0.17,14308,List1B,black,woman,,,,null,,,,
null,"<img src=""stim_listB/touch1.gif""style=""height:400px;""></stim_listB>",,html-keyboard-response,240,1928531,0.0-15.0-1.17,14308,List1B,black,woman,,,,null,,,,
null,is touching,,html-keyboard-response,241,1930532,0.0-15.0-2.17,14308,List1B,black,woman,,,,null,,,,
5540,,,survey-text,242,1936073,0.0-15.0-3.17,14308,List1B,black,woman,,,,,"{""Q0"":""kate is touching mike""}","<img src=""stim_listB/touch1.gif""style=""height:400px;""></stim_listB>",is touching,
null,"<div style=""font-size:60px;"">+</div>",,html-keyboard-response,243,1936575,0.0-15.0-0.18,14308,List1B,black,woman,,,,null,,,,
null,"<img src=""stim_listB/talk6.gif""style=""height:400px;""></stim_listB>",,html-keyboard-response,244,1938576,0.0-15.0-1.18,14308,List1B,black,woman,,,,null,,,,
null,are talking to each other,,html-keyboard-response,245,1940577,0.0-15.0-2.18,14308,List1B,black,woman,,,,null,,,,
9614,,,survey-text,246,1950193,0.0-15.0-3.18,14308,List1B,black,woman,,,,,"{""Q0"":""mike and luke are talking to each other ""}","<img src=""stim_listB/talk6.gif""style=""height:400px;""></stim_listB>",are talking to each other,
null,"<div style=""font-size:60px;"">+</div>",,html-keyboard-response,247,1950695,0.0-15.0-0.19,14308,List1B,black,woman,,,,null,,,,
null,"<img src=""stim_listB/fight4.gif""style=""height:400px;""></stim_listB>",,html-keyboard-response,248,1952699,0.0-15.0-1.19,14308,List1B,black,woman,,,,null,,,,
null,are fighting each other,,html-keyboard-response,249,1954701,0.0-15.0-2.19,14308,List1B,black,woman,,,,null,,,,
12331,,,survey-text,250,1967032,0.0-15.0-3.19,14308,List1B,black,woman,,,,,"{""Q0"":""luke and ruth are fighting each other ""}","<img src=""stim_listB/fight4.gif""style=""height:400px;""></stim_listB>",are fighting each other,
293952,"<img src='img/portrait_matrix_list1.jpg' style='width:900px;height:500px;''></img><p>If you have memorised all the portraits and names and are ready to start, press Continue.</p><p><strong>Please note: Your memory of these faces will be tested 4 times during this experiment.</strong></p>",0,html-button-response,251,2260986,0.0-16.0-0.0,14308,List1B,black,woman,,,,,,,,
1433,"<img src=""portrait/WW2.jpg""style=""height:400px;""></img>",3,html-button-response,252,2263425,0.0-16.0-1.0,14308,List1B,black,woman,,TRUE,3,,,,,
null,CORRECT,,html-keyboard-response,253,2264926,0.0-16.0-2.0-0.0,14308,List1B,black,woman,,,,null,,,,
1633,"<img src=""portrait/WW1.jpg""style=""height:400px;""></img>",1,html-button-response,254,2266561,0.0-16.0-4.0,14308,List1B,black,woman,,TRUE,1,,,,,
null,CORRECT,,html-keyboard-response,255,2268064,0.0-16.0-5.0-0.0,14308,List1B,black,woman,,,,null,,,,
1745,"<img src=""portrait/BM2.jpg""style=""height:400px;""></img>",5,html-button-response,256,2269809,0.0-16.0-7.0,14308,List1B,black,woman,,TRUE,5,,,,,
null,CORRECT,,html-keyboard-response,257,2271311,0.0-16.0-8.0-0.0,14308,List1B,black,woman,,,,null,,,,
1215,"<img src=""portrait/WM2.jpg""style=""height:400px;""></img>",7,html-button-response,258,2272528,0.0-16.0-10.0,14308,List1B,black,woman,,TRUE,7,,,,,
null,CORRECT,,html-keyboard-response,259,2274031,0.0-16.0-11.0-0.0,14308,List1B,black,woman,,,,null,,,,
67474,"<img src=""portrait/BW2.jpg""style=""height:400px;""></img>",2,html-button-response,260,2341506,0.0-16.0-13.0,14308,List1B,black,woman,,TRUE,2,,,,,
null,CORRECT,,html-keyboard-response,261,2343009,0.0-16.0-14.0-0.0,14308,List1B,black,woman,,,,null,,,,
4062,"<img src=""portrait/BM1.jpg""style=""height:400px;""></img>",4,html-button-response,262,2347073,0.0-16.0-16.0,14308,List1B,black,woman,,TRUE,4,,,,,
null,CORRECT,,html-keyboard-response,263,2348576,0.0-16.0-17.0-0.0,14308,List1B,black,woman,,,,null,,,,
6303,"<img src=""portrait/WM1.jpg""style=""height:400px;""></img>",6,html-button-response,264,2354880,0.0-16.0-19.0,14308,List1B,black,woman,,TRUE,6,,,,,
null,CORRECT,,html-keyboard-response,265,2356388,0.0-16.0-20.0-0.0,14308,List1B,black,woman,,,,null,,,,
2219,"<img src=""portrait/BW1.jpg""style=""height:400px;""></img>",0,html-button-response,266,2358608,0.0-16.0-22.0,14308,List1B,black,woman,,TRUE,0,,,,,
null,CORRECT,,html-keyboard-response,267,2360111,0.0-16.0-23.0-0.0,14308,List1B,black,woman,,,,null,,,,
1150,<p>You got 8 out of 8 right first time. Press Continue.</p>,0,html-button-response,268,2361266,0.0-16.0-25.0,14308,List1B,black,woman,,,,,,,,
null,"<div style=""font-size:60px;"">+</div>",,html-keyboard-response,269,2362771,0.0-17.0-0.0,14308,List1B,black,woman,,,,null,,,,
null,"<img src=""stim_listB/shout2.gif""style=""height:400px;""></stim_listB>",,html-keyboard-response,270,2364773,0.0-17.0-1.0,14308,List1B,black,woman,,,,null,,,,
null,are shouting at each other,,html-keyboard-response,271,2366775,0.0-17.0-2.0,14308,List1B,black,woman,,,,null,,,,
10489,,,survey-text,272,2377264,0.0-17.0-3.0,14308,List1B,black,woman,,,,,"{""Q0"":""mike and kate are shouting each other ""}","<img src=""stim_listB/shout2.gif""style=""height:400px;""></stim_listB>",are shouting at each other,
null,"<div style=""font-size:60px;"">+</div>",,html-keyboard-response,273,2377766,0.0-17.0-0.1,14308,List1B,black,woman,,,,null,,,,
null,"<img src=""stim_listB/touch8.gif""style=""height:400px;""></stim_listB>",,html-keyboard-response,274,2379768,0.0-17.0-1.1,14308,List1B,black,woman,,,,null,,,,
null,are touching each other,,html-keyboard-response,275,2381769,0.0-17.0-2.1,14308,List1B,black,woman,,,,null,,,,
8712,,,survey-text,276,2390481,0.0-17.0-3.1,14308,List1B,black,woman,,,,,"{""Q0"":""beth and ruth are touching each other ""}","<img src=""stim_listB/touch8.gif""style=""height:400px;""></stim_listB>",are touching each other,
null,"<div style=""font-size:60px;"">+</div>",,html-keyboard-response,277,2390983,0.0-17.0-0.2,14308,List1B,black,woman,,,,null,,,,
null,"<img src=""stim_listB/touch2.gif""style=""height:400px;""></stim_listB>",,html-keyboard-response,278,2392987,0.0-17.0-1.2,14308,List1B,black,woman,,,,null,,,,
null,are touching each other,,html-keyboard-response,279,2394989,0.0-17.0-2.2,14308,List1B,black,woman,,,,null,,,,
7036,,,survey-text,280,2402027,0.0-17.0-3.2,14308,List1B,black,woman,,,,,"{""Q0"":""fred and beth are touching each other""}","<img src=""stim_listB/touch2.gif""style=""height:400px;""></stim_listB>",are touching each other,
null,"<div style=""font-size:60px;"">+</div>",,html-keyboard-response,281,2402529,0.0-17.0-0.3,14308,List1B,black,woman,,,,null,,,,
null,"<img src=""stim_listB/talk8.gif""style=""height:400px;""></stim_listB>",,html-keyboard-response,282,2404530,0.0-17.0-1.3,14308,List1B,black,woman,,,,null,,,,
null,are talking to each other,,html-keyboard-response,283,2406532,0.0-17.0-2.3,14308,List1B,black,woman,,,,null,,,,
9932,,,survey-text,284,2416466,0.0-17.0-3.3,14308,List1B,black,woman,,,,,"{""Q0"":""kate and ruth are talking to each other ""}","<img src=""stim_listB/talk8.gif""style=""height:400px;""></stim_listB>",are talking to each other,
null,"<div style=""font-size:60px;"">+</div>",,html-keyboard-response,285,2416967,0.0-17.0-0.4,14308,List1B,black,woman,,,,null,,,,
null,"<img src=""stim_listB/dance4.gif""style=""height:400px;""></stim_listB>",,html-keyboard-response,286,2418971,0.0-17.0-1.4,14308,List1B,black,woman,,,,null,,,,
null,are dancing with each other,,html-keyboard-response,287,2420974,0.0-17.0-2.4,14308,List1B,black,woman,,,,null,,,,
78402,,,survey-text,288,2499377,0.0-17.0-3.4,14308,List1B,black,woman,,,,,"{""Q0"":""dave and ruth are dancing with each other ""}","<img src=""stim_listB/dance4.gif""style=""height:400px;""></stim_listB>",are dancing with each other,
null,"<div style=""font-size:60px;"">+</div>",,html-keyboard-response,289,2499878,0.0-17.0-0.5,14308,List1B,black,woman,,,,null,,,,
null,"<img src=""stim_listB/touch6.gif""style=""height:400px;""></stim_listB>",,html-keyboard-response,290,2501879,0.0-17.0-1.5,14308,List1B,black,woman,,,,null,,,,
null,are touching each other,,html-keyboard-response,291,2503882,0.0-17.0-2.5,14308,List1B,black,woman,,,,null,,,,
11326,,,survey-text,292,2515209,0.0-17.0-3.5,14308,List1B,black,woman,,,,,"{""Q0"":""fred and luke are touching each other""}","<img src=""stim_listB/touch6.gif""style=""height:400px;""></stim_listB>",are touching each other,
null,"<div style=""font-size:60px;"">+</div>",,html-keyboard-response,293,2515712,0.0-17.0-0.6,14308,List1B,black,woman,,,,null,,,,
null,"<img src=""stim_listB/shout7.gif""style=""height:400px;""></stim_listB>",,html-keyboard-response,294,2517713,0.0-17.0-1.6,14308,List1B,black,woman,,,,null,,,,
null,is shouting at,,html-keyboard-response,295,2519714,0.0-17.0-2.6,14308,List1B,black,woman,,,,null,,,,
7471,,,survey-text,296,2527186,0.0-17.0-3.6,14308,List1B,black,woman,,,,,"{""Q0"":""ruth is shouting at beth""}","<img src=""stim_listB/shout7.gif""style=""height:400px;""></stim_listB>",is shouting at,
null,"<div style=""font-size:60px;"">+</div>",,html-keyboard-response,297,2527688,0.0-17.0-0.7,14308,List1B,black,woman,,,,null,,,,
null,"<img src=""stim_listB/talk4.gif""style=""height:400px;""></stim_listB>",,html-keyboard-response,298,2529689,0.0-17.0-1.7,14308,List1B,black,woman,,,,null,,,,
null,are talking to each other,,html-keyboard-response,299,2531692,0.0-17.0-2.7,14308,List1B,black,woman,,,,null,,,,
11613,,,survey-text,300,2543305,0.0-17.0-3.7,14308,List1B,black,woman,,,,,"{""Q0"":""dave and ruth are talking to each other ""}","<img src=""stim_listB/talk4.gif""style=""height:400px;""></stim_listB>",are talking to each other,
null,"<div style=""font-size:60px;"">+</div>",,html-keyboard-response,301,2543807,0.0-17.0-0.8,14308,List1B,black,woman,,,,null,,,,
null,"<img src=""stim_listB/marry2.gif""style=""height:400px;""></stim_listB>",,html-keyboard-response,302,2545810,0.0-17.0-1.8,14308,List1B,black,woman,,,,null,,,,
null,are marrying each other,,html-keyboard-response,303,2547812,0.0-17.0-2.8,14308,List1B,black,woman,,,,null,,,,
10814,,,survey-text,304,2558627,0.0-17.0-3.8,14308,List1B,black,woman,,,,,"{""Q0"":""fred and kate are marrying each other ""}","<img src=""stim_listB/marry2.gif""style=""height:400px;""></stim_listB>",are marrying each other,
null,"<div style=""font-size:60px;"">+</div>",,html-keyboard-response,305,2559128,0.0-17.0-0.9,14308,List1B,black,woman,,,,null,,,,
null,"<img src=""stim_listB/argue8.gif""style=""height:400px;""></stim_listB>",,html-keyboard-response,306,2561130,0.0-17.0-1.9,14308,List1B,black,woman,,,,null,,,,
null,are arguing with each other,,html-keyboard-response,307,2563131,0.0-17.0-2.9,14308,List1B,black,woman,,,,null,,,,
62333,,,survey-text,308,2625465,0.0-17.0-3.9,14308,List1B,black,woman,,,,,"{""Q0"":""beth and jane are arguing with each other ""}","<img src=""stim_listB/argue8.gif""style=""height:400px;""></stim_listB>",are arguing with each other,
null,"<div style=""font-size:60px;"">+</div>",,html-keyboard-response,309,2625968,0.0-17.0-0.10,14308,List1B,black,woman,,,,null,,,,
null,"<img src=""stim_listB/fight1.gif""style=""height:400px;""></stim_listB>",,html-keyboard-response,310,2627970,0.0-17.0-1.10,14308,List1B,black,woman,,,,null,,,,
null,is fighting,,html-keyboard-response,311,2629973,0.0-17.0-2.10,14308,List1B,black,woman,,,,null,,,,
8619,,,survey-text,312,2638593,0.0-17.0-3.10,14308,List1B,black,woman,,,,,"{""Q0"":""kate is fighting mike""}","<img src=""stim_listB/fight1.gif""style=""height:400px;""></stim_listB>",is fighting,
null,"<div style=""font-size:60px;"">+</div>",,html-keyboard-response,313,2639095,0.0-17.0-0.11,14308,List1B,black,woman,,,,null,,,,
null,"<img src=""stim_listB/play6.gif""style=""height:400px;""></stim_listB>",,html-keyboard-response,314,2641097,0.0-17.0-1.11,14308,List1B,black,woman,,,,null,,,,
null,are playing with each other,,html-keyboard-response,315,2643099,0.0-17.0-2.11,14308,List1B,black,woman,,,,null,,,,
8661,,,survey-text,316,2651760,0.0-17.0-3.11,14308,List1B,black,woman,,,,,"{""Q0"":""fred and luke are playing with each other ""}","<img src=""stim_listB/play6.gif""style=""height:400px;""></stim_listB>",are playing with each other,
null,"<div style=""font-size:60px;"">+</div>",,html-keyboard-response,317,2652262,0.0-17.0-0.12,14308,List1B,black,woman,,,,null,,,,
null,"<img src=""stim_listB/kiss4.gif""style=""height:400px;""></stim_listB>",,html-keyboard-response,318,2654265,0.0-17.0-1.12,14308,List1B,black,woman,,,,null,,,,
null,are kissing each other,,html-keyboard-response,319,2656267,0.0-17.0-2.12,14308,List1B,black,woman,,,,null,,,,
11429,,,survey-text,320,2667697,0.0-17.0-3.12,14308,List1B,black,woman,,,,,"{""Q0"":""dave and jane are kissing each other ""}","<img src=""stim_listB/kiss4.gif""style=""height:400px;""></stim_listB>",are kissing each other,
null,"<div style=""font-size:60px;"">+</div>",,html-keyboard-response,321,2668199,0.0-17.0-0.13,14308,List1B,black,woman,,,,null,,,,
null,"<img src=""stim_listB/play1.gif""style=""height:400px;""></stim_listB>",,html-keyboard-response,322,2670200,0.0-17.0-1.13,14308,List1B,black,woman,,,,null,,,,
null,is playing with,,html-keyboard-response,323,2672201,0.0-17.0-2.13,14308,List1B,black,woman,,,,null,,,,
9959,,,survey-text,324,2682161,0.0-17.0-3.13,14308,List1B,black,woman,,,,,"{""Q0"":""kate is playing with mike ""}","<img src=""stim_listB/play1.gif""style=""height:400px;""></stim_listB>",is playing with,
null,"<div style=""font-size:60px;"">+</div>",,html-keyboard-response,325,2682662,0.0-17.0-0.14,14308,List1B,black,woman,,,,null,,,,
null,"<img src=""stim_listB/play5.gif""style=""height:400px;""></stim_listB>",,html-keyboard-response,326,2684665,0.0-17.0-1.14,14308,List1B,black,woman,,,,null,,,,
null,is playing with,,html-keyboard-response,327,2686667,0.0-17.0-2.14,14308,List1B,black,woman,,,,null,,,,
6341,,,survey-text,328,2693009,0.0-17.0-3.14,14308,List1B,black,woman,,,,,"{""Q0"":""dave is playing with mike ""}","<img src=""stim_listB/play5.gif""style=""height:400px;""></stim_listB>",is playing with,
null,"<div style=""font-size:60px;"">+</div>",,html-keyboard-response,329,2693511,0.0-17.0-0.15,14308,List1B,black,woman,,,,null,,,,
null,"<img src=""stim_listB/flirt3.gif""style=""height:400px;""></stim_listB>",,html-keyboard-response,330,2695515,0.0-17.0-1.15,14308,List1B,black,woman,,,,null,,,,
null,is flirting with,,html-keyboard-response,331,2697516,0.0-17.0-2.15,14308,List1B,black,woman,,,,null,,,,
7732,,,survey-text,332,2705249,0.0-17.0-3.15,14308,List1B,black,woman,,,,,"{""Q0"":""jane is flirting with luke ""}","<img src=""stim_listB/flirt3.gif""style=""height:400px;""></stim_listB>",is flirting with,
null,"<div style=""font-size:60px;"">+</div>",,html-keyboard-response,333,2705751,0.0-17.0-0.16,14308,List1B,black,woman,,,,null,,,,
null,"<img src=""stim_listB/shout4.gif""style=""height:400px;""></stim_listB>",,html-keyboard-response,334,2707754,0.0-17.0-1.16,14308,List1B,black,woman,,,,null,,,,
null,are shouting at each other,,html-keyboard-response,335,2709756,0.0-17.0-2.16,14308,List1B,black,woman,,,,null,,,,
10924,,,survey-text,336,2720681,0.0-17.0-3.16,14308,List1B,black,woman,,,,,"{""Q0"":""dave and jane are shouting at each other ""}","<img src=""stim_listB/shout4.gif""style=""height:400px;""></stim_listB>",are shouting at each other,
null,"<div style=""font-size:60px;"">+</div>",,html-keyboard-response,337,2721182,0.0-17.0-0.17,14308,List1B,black,woman,,,,null,,,,
null,"<img src=""stim_listB/kiss6.gif""style=""height:400px;""></stim_listB>",,html-keyboard-response,338,2723184,0.0-17.0-1.17,14308,List1B,black,woman,,,,null,,,,
null,are kissing each other,,html-keyboard-response,339,2725187,0.0-17.0-2.17,14308,List1B,black,woman,,,,null,,,,
12647,,,survey-text,340,2737835,0.0-17.0-3.17,14308,List1B,black,woman,,,,,"{""Q0"":""mike and dave are kissing each other ""}","<img src=""stim_listB/kiss6.gif""style=""height:400px;""></stim_listB>",are kissing each other,
null,"<div style=""font-size:60px;"">+</div>",,html-keyboard-response,341,2738337,0.0-17.0-0.18,14308,List1B,black,woman,,,,null,,,,
null,"<img src=""stim_listB/dance8.gif""style=""height:400px;""></stim_listB>",,html-keyboard-response,342,2740338,0.0-17.0-1.18,14308,List1B,black,woman,,,,null,,,,
null,are dancing with each other,,html-keyboard-response,343,2742339,0.0-17.0-2.18,14308,List1B,black,woman,,,,null,,,,
8460,,,survey-text,344,2750801,0.0-17.0-3.18,14308,List1B,black,woman,,,,,"{""Q0"":""kate and ruth are dancing with each other ""}","<img src=""stim_listB/dance8.gif""style=""height:400px;""></stim_listB>",are dancing with each other,
null,"<div style=""font-size:60px;"">+</div>",,html-keyboard-response,345,2751302,0.0-17.0-0.19,14308,List1B,black,woman,,,,null,,,,
null,"<img src=""stim_listB/kiss7.gif""style=""height:400px;""></stim_listB>",,html-keyboard-response,346,2753304,0.0-17.0-1.19,14308,List1B,black,woman,,,,null,,,,
null,is kissing,,html-keyboard-response,347,2755306,0.0-17.0-2.19,14308,List1B,black,woman,,,,null,,,,
137342,,,survey-text,348,2892649,0.0-17.0-3.19,14308,List1B,black,woman,,,,,"{""Q0"":""ruth is kissing beth""}","<img src=""stim_listB/kiss7.gif""style=""height:400px;""></stim_listB>",is kissing,
1966,"<img src='img/portrait_matrix_list1.jpg' style='width:900px;height:500px;''></img><p>If you have memorised all the portraits and names and are ready to start, press Continue.</p><p><strong>Please note: Your memory of these faces will be tested 4 times during this experiment.</strong></p>",0,html-button-response,349,2894617,0.0-18.0-0.0,14308,List1B,black,woman,,,,,,,,
1831,"<img src=""portrait/BW1.jpg""style=""height:400px;""></img>",0,html-button-response,350,2897450,0.0-18.0-1.0,14308,List1B,black,woman,,TRUE,0,,,,,
null,CORRECT,,html-keyboard-response,351,2898952,0.0-18.0-2.0-0.0,14308,List1B,black,woman,,,,null,,,,
1346,"<img src=""portrait/WW2.jpg""style=""height:400px;""></img>",3,html-button-response,352,2900298,0.0-18.0-4.0,14308,List1B,black,woman,,TRUE,3,,,,,
null,CORRECT,,html-keyboard-response,353,2901803,0.0-18.0-5.0-0.0,14308,List1B,black,woman,,,,null,,,,
2334,"<img src=""portrait/WM1.jpg""style=""height:400px;""></img>",6,html-button-response,354,2904137,0.0-18.0-7.0,14308,List1B,black,woman,,TRUE,6,,,,,
null,CORRECT,,html-keyboard-response,355,2905640,0.0-18.0-8.0-0.0,14308,List1B,black,woman,,,,null,,,,
1647,"<img src=""portrait/BM2.jpg""style=""height:400px;""></img>",5,html-button-response,356,2907289,0.0-18.0-10.0,14308,List1B,black,woman,,TRUE,5,,,,,
null,CORRECT,,html-keyboard-response,357,2908791,0.0-18.0-11.0-0.0,14308,List1B,black,woman,,,,null,,,,
1178,"<img src=""portrait/BM1.jpg""style=""height:400px;""></img>",4,html-button-response,358,2909969,0.0-18.0-13.0,14308,List1B,black,woman,,TRUE,4,,,,,
null,CORRECT,,html-keyboard-response,359,2911473,0.0-18.0-14.0-0.0,14308,List1B,black,woman,,,,null,,,,
1214,"<img src=""portrait/WM2.jpg""style=""height:400px;""></img>",7,html-button-response,360,2912689,0.0-18.0-16.0,14308,List1B,black,woman,,TRUE,7,,,,,
null,CORRECT,,html-keyboard-response,361,2914191,0.0-18.0-17.0-0.0,14308,List1B,black,woman,,,,null,,,,
1655,"<img src=""portrait/WW1.jpg""style=""height:400px;""></img>",1,html-button-response,362,2915849,0.0-18.0-19.0,14308,List1B,black,woman,,TRUE,1,,,,,
null,CORRECT,,html-keyboard-response,363,2917351,0.0-18.0-20.0-0.0,14308,List1B,black,woman,,,,null,,,,
1356,"<img src=""portrait/BW2.jpg""style=""height:400px;""></img>",2,html-button-response,364,2918707,0.0-18.0-22.0,14308,List1B,black,woman,,TRUE,2,,,,,
null,CORRECT,,html-keyboard-response,365,2920210,0.0-18.0-23.0-0.0,14308,List1B,black,woman,,,,null,,,,
1037,<p>You got 8 out of 8 right first time. Press Continue.</p>,0,html-button-response,366,2921248,0.0-18.0-25.0,14308,List1B,black,woman,,,,,,,,
null,"<div style=""font-size:60px;"">+</div>",,html-keyboard-response,367,2922752,0.0-19.0-0.0,14308,List1B,black,woman,,,,null,,,,
null,"<img src=""stim_listB/dance5.gif""style=""height:400px;""></stim_listB>",,html-keyboard-response,368,2924753,0.0-19.0-1.0,14308,List1B,black,woman,,,,null,,,,
null,is dancing with,,html-keyboard-response,369,2926755,0.0-19.0-2.0,14308,List1B,black,woman,,,,null,,,,
153033,,,survey-text,370,3079788,0.0-19.0-3.0,14308,List1B,black,woman,,,,,"{""Q0"":""dave is dancing with fred""}","<img src=""stim_listB/dance5.gif""style=""height:400px;""></stim_listB>",is dancing with,
null,"<div style=""font-size:60px;"">+</div>",,html-keyboard-response,371,3080290,0.0-19.0-0.1,14308,List1B,black,woman,,,,null,,,,
null,"<img src=""stim_listB/play8.gif""style=""height:400px;""></stim_listB>",,html-keyboard-response,372,3082294,0.0-19.0-1.1,14308,List1B,black,woman,,,,null,,,,
null,are playing with each other,,html-keyboard-response,373,3084296,0.0-19.0-2.1,14308,List1B,black,woman,,,,null,,,,
393,,,survey-text,374,3084691,0.0-19.0-3.1,14308,List1B,black,woman,,,,,"{""Q0"":""""}","<img src=""stim_listB/play8.gif""style=""height:400px;""></stim_listB>",are playing with each other,
null,"<div style=""font-size:60px;"">+</div>",,html-keyboard-response,375,3085193,0.0-19.0-0.2,14308,List1B,black,woman,,,,null,,,,
null,"<img src=""stim_listB/marry1.gif""style=""height:400px;""></stim_listB>",,html-keyboard-response,376,3087195,0.0-19.0-1.2,14308,List1B,black,woman,,,,null,,,,
null,is marrying,,html-keyboard-response,377,3089196,0.0-19.0-2.2,14308,List1B,black,woman,,,,null,,,,
5343,,,survey-text,378,3094539,0.0-19.0-3.2,14308,List1B,black,woman,,,,,"{""Q0"":""beth is marrying mike ""}","<img src=""stim_listB/marry1.gif""style=""height:400px;""></stim_listB>",is marrying,
null,"<div style=""font-size:60px;"">+</div>",,html-keyboard-response,379,3095042,0.0-19.0-0.3,14308,List1B,black,woman,,,,null,,,,
null,"<img src=""stim_listB/play2.gif""style=""height:400px;""></stim_listB>",,html-keyboard-response,380,3097046,0.0-19.0-1.3,14308,List1B,black,woman,,,,null,,,,
null,are playing with each other,,html-keyboard-response,381,3099047,0.0-19.0-2.3,14308,List1B,black,woman,,,,null,,,,
32915,,,survey-text,382,3131963,0.0-19.0-3.3,14308,List1B,black,woman,,,,,"{""Q0"":""fred and beth are playing with each other ""}","<img src=""stim_listB/play2.gif""style=""height:400px;""></stim_listB>",are playing with each other,
null,"<div style=""font-size:60px;"">+</div>",,html-keyboard-response,383,3132465,0.0-19.0-0.4,14308,List1B,black,woman,,,,null,,,,
null,"<img src=""stim_listB/dance1.gif""style=""height:400px;""></stim_listB>",,html-keyboard-response,384,3134468,0.0-19.0-1.4,14308,List1B,black,woman,,,,null,,,,
null,is dancing with,,html-keyboard-response,385,3136470,0.0-19.0-2.4,14308,List1B,black,woman,,,,null,,,,
9948,,,survey-text,386,3146420,0.0-19.0-3.4,14308,List1B,black,woman,,,,,"{""Q0"":""kate is dancing with fred ""}","<img src=""stim_listB/dance1.gif""style=""height:400px;""></stim_listB>",is dancing with,
null,"<div style=""font-size:60px;"">+</div>",,html-keyboard-response,387,3146921,0.0-19.0-0.5,14308,List1B,black,woman,,,,null,,,,
null,"<img src=""stim_listB/play4.gif""style=""height:400px;""></stim_listB>",,html-keyboard-response,388,3148924,0.0-19.0-1.5,14308,List1B,black,woman,,,,null,,,,
null,are playing with each other,,html-keyboard-response,389,3150927,0.0-19.0-2.5,14308,List1B,black,woman,,,,null,,,,
11603,,,survey-text,390,3162532,0.0-19.0-3.5,14308,List1B,black,woman,,,,,"{""Q0"":""luke and ruth are playing with each other ""}","<img src=""stim_listB/play4.gif""style=""height:400px;""></stim_listB>",are playing with each other,
null,"<div style=""font-size:60px;"">+</div>",,html-keyboard-response,391,3163033,0.0-19.0-0.6,14308,List1B,black,woman,,,,null,,,,
null,"<img src=""stim_listB/argue2.gif""style=""height:400px;""></stim_listB>",,html-keyboard-response,392,3165035,0.0-19.0-1.6,14308,List1B,black,woman,,,,null,,,,
null,are arguing with each other,,html-keyboard-response,393,3167036,0.0-19.0-2.6,14308,List1B,black,woman,,,,null,,,,
29551,,,survey-text,394,3196588,0.0-19.0-3.6,14308,List1B,black,woman,,,,,"{""Q0"":""fred and kate are arguing with each other ""}","<img src=""stim_listB/argue2.gif""style=""height:400px;""></stim_listB>",are arguing with each other,
null,"<div style=""font-size:60px;"">+</div>",,html-keyboard-response,395,3197091,0.0-19.0-0.7,14308,List1B,black,woman,,,,null,,,,
null,"<img src=""stim_listB/kiss5.gif""style=""height:400px;""></stim_listB>",,html-keyboard-response,396,3199093,0.0-19.0-1.7,14308,List1B,black,woman,,,,null,,,,
null,is kissing,,html-keyboard-response,397,3201096,0.0-19.0-2.7,14308,List1B,black,woman,,,,null,,,,
5595,,,survey-text,398,3206692,0.0-19.0-3.7,14308,List1B,black,woman,,,,,"{""Q0"":""luke is kissing fred ""}","<img src=""stim_listB/kiss5.gif""style=""height:400px;""></stim_listB>",is kissing,
null,"<div style=""font-size:60px;"">+</div>",,html-keyboard-response,399,3207194,0.0-19.0-0.8,14308,List1B,black,woman,,,,null,,,,
null,"<img src=""stim_listB/marry6.gif""style=""height:400px;""></stim_listB>",,html-keyboard-response,400,3209196,0.0-19.0-1.8,14308,List1B,black,woman,,,,null,,,,
null,are marrying each other,,html-keyboard-response,401,3211197,0.0-19.0-2.8,14308,List1B,black,woman,,,,null,,,,
9238,,,survey-text,402,3220436,0.0-19.0-3.8,14308,List1B,black,woman,,,,,"{""Q0"":""fred and dave are marrying each other ""}","<img src=""stim_listB/marry6.gif""style=""height:400px;""></stim_listB>",are marrying each other,
null,"<div style=""font-size:60px;"">+</div>",,html-keyboard-response,403,3220938,0.0-19.0-0.9,14308,List1B,black,woman,,,,null,,,,
null,"<img src=""stim_listB/argue3.gif""style=""height:400px;""></stim_listB>",,html-keyboard-response,404,3222941,0.0-19.0-1.9,14308,List1B,black,woman,,,,null,,,,
null,is arguing with,,html-keyboard-response,405,3224942,0.0-19.0-2.9,14308,List1B,black,woman,,,,null,,,,
98615,,,survey-text,406,3323557,0.0-19.0-3.9,14308,List1B,black,woman,,,,,"{""Q0"":""ruth is arguing with dave ""}","<img src=""stim_listB/argue3.gif""style=""height:400px;""></stim_listB>",is arguing with,
null,"<div style=""font-size:60px;"">+</div>",,html-keyboard-response,407,3324061,0.0-19.0-0.10,14308,List1B,black,woman,,,,null,,,,
null,"<img src=""stim_listB/kiss3.gif""style=""height:400px;""></stim_listB>",,html-keyboard-response,408,3326064,0.0-19.0-1.10,14308,List1B,black,woman,,,,null,,,,
null,is kissing,,html-keyboard-response,409,3328065,0.0-19.0-2.10,14308,List1B,black,woman,,,,null,,,,
6268,,,survey-text,410,3334334,0.0-19.0-3.10,14308,List1B,black,woman,,,,,"{""Q0"":""ruth is kissing luke ""}","<img src=""stim_listB/kiss3.gif""style=""height:400px;""></stim_listB>",is kissing,
null,"<div style=""font-size:60px;"">+</div>",,html-keyboard-response,411,3334835,0.0-19.0-0.11,14308,List1B,black,woman,,,,null,,,,
null,"<img src=""stim_listB/touch7.gif""style=""height:400px;""></stim_listB>",,html-keyboard-response,412,3336838,0.0-19.0-1.11,14308,List1B,black,woman,,,,null,,,,
null,is touching,,html-keyboard-response,413,3338840,0.0-19.0-2.11,14308,List1B,black,woman,,,,null,,,,
7790,,,survey-text,414,3346631,0.0-19.0-3.11,14308,List1B,black,woman,,,,,"{""Q0"":""jane is touching kate ""}","<img src=""stim_listB/touch7.gif""style=""height:400px;""></stim_listB>",is touching,
null,"<div style=""font-size:60px;"">+</div>",,html-keyboard-response,415,3347132,0.0-19.0-0.12,14308,List1B,black,woman,,,,null,,,,
null,"<img src=""stim_listB/touch3.gif""style=""height:400px;""></stim_listB>",,html-keyboard-response,416,3349134,0.0-19.0-1.12,14308,List1B,black,woman,,,,null,,,,
null,is touching,,html-keyboard-response,417,3351136,0.0-19.0-2.12,14308,List1B,black,woman,,,,null,,,,
67021,,,survey-text,418,3418158,0.0-19.0-3.12,14308,List1B,black,woman,,,,,"{""Q0"":""jane is touching dave""}","<img src=""stim_listB/touch3.gif""style=""height:400px;""></stim_listB>",is touching,
null,"<div style=""font-size:60px;"">+</div>",,html-keyboard-response,419,3418660,0.0-19.0-0.13,14308,List1B,black,woman,,,,null,,,,
null,"<img src=""stim_listB/fight6.gif""style=""height:400px;""></stim_listB>",,html-keyboard-response,420,3420663,0.0-19.0-1.13,14308,List1B,black,woman,,,,null,,,,
null,are fighting each other,,html-keyboard-response,421,3422665,0.0-19.0-2.13,14308,List1B,black,woman,,,,null,,,,
8148,,,survey-text,422,3430814,0.0-19.0-3.13,14308,List1B,black,woman,,,,,"{""Q0"":""fred and luke are fighting each other ""}","<img src=""stim_listB/fight6.gif""style=""height:400px;""></stim_listB>",are fighting each other,
null,"<div style=""font-size:60px;"">+</div>",,html-keyboard-response,423,3431317,0.0-19.0-0.14,14308,List1B,black,woman,,,,null,,,,
null,"<img src=""stim_listB/touch5.gif""style=""height:400px;""></stim_listB>",,html-keyboard-response,424,3433321,0.0-19.0-1.14,14308,List1B,black,woman,,,,null,,,,
null,is touching,,html-keyboard-response,425,3435323,0.0-19.0-2.14,14308,List1B,black,woman,,,,null,,,,
14929,,,survey-text,426,3450254,0.0-19.0-3.14,14308,List1B,black,woman,,,,,"{""Q0"":""dave is touching mike""}","<img src=""stim_listB/touch5.gif""style=""height:400px;""></stim_listB>",is touching,
null,"<div style=""font-size:60px;"">+</div>",,html-keyboard-response,427,3450756,0.0-19.0-0.15,14308,List1B,black,woman,,,,null,,,,
null,"<img src=""stim_listB/talk7.gif""style=""height:400px;""></stim_listB>",,html-keyboard-response,428,3452758,0.0-19.0-1.15,14308,List1B,black,woman,,,,null,,,,
null,is talking to,,html-keyboard-response,429,3454760,0.0-19.0-2.15,14308,List1B,black,woman,,,,null,,,,
6445,,,survey-text,430,3461206,0.0-19.0-3.15,14308,List1B,black,woman,,,,,"{""Q0"":""jane is talking to beth ""}","<img src=""stim_listB/talk7.gif""style=""height:400px;""></stim_listB>",is talking to,
null,"<div style=""font-size:60px;"">+</div>",,html-keyboard-response,431,3461708,0.0-19.0-0.16,14308,List1B,black,woman,,,,null,,,,
null,"<img src=""stim_listB/argue5.gif""style=""height:400px;""></stim_listB>",,html-keyboard-response,432,3463709,0.0-19.0-1.16,14308,List1B,black,woman,,,,null,,,,
null,is arguing with,,html-keyboard-response,433,3465710,0.0-19.0-2.16,14308,List1B,black,woman,,,,null,,,,
6488,,,survey-text,434,3472199,0.0-19.0-3.16,14308,List1B,black,woman,,,,,"{""Q0"":""luke is arguing with mike ""}","<img src=""stim_listB/argue5.gif""style=""height:400px;""></stim_listB>",is arguing with,
null,"<div style=""font-size:60px;"">+</div>",,html-keyboard-response,435,3472700,0.0-19.0-0.17,14308,List1B,black,woman,,,,null,,,,
null,"<img src=""stim_listB/fight7.gif""style=""height:400px;""></stim_listB>",,html-keyboard-response,436,3474702,0.0-19.0-1.17,14308,List1B,black,woman,,,,null,,,,
null,is fighting,,html-keyboard-response,437,3476703,0.0-19.0-2.17,14308,List1B,black,woman,,,,null,,,,
6591,,,survey-text,438,3483296,0.0-19.0-3.17,14308,List1B,black,woman,,,,,"{""Q0"":""jane is fighting kate ""}","<img src=""stim_listB/fight7.gif""style=""height:400px;""></stim_listB>",is fighting,
null,"<div style=""font-size:60px;"">+</div>",,html-keyboard-response,439,3483797,0.0-19.0-0.18,14308,List1B,black,woman,,,,null,,,,
null,"<img src=""stim_listB/flirt4.gif""style=""height:400px;""></stim_listB>",,html-keyboard-response,440,3485799,0.0-19.0-1.18,14308,List1B,black,woman,,,,null,,,,
null,are flirting with each other,,html-keyboard-response,441,3487802,0.0-19.0-2.18,14308,List1B,black,woman,,,,null,,,,
14523,,,survey-text,442,3502327,0.0-19.0-3.18,14308,List1B,black,woman,,,,,"{""Q0"":""dave and ruth are flirting with each other ""}","<img src=""stim_listB/flirt4.gif""style=""height:400px;""></stim_listB>",are flirting with each other,
null,"<div style=""font-size:60px;"">+</div>",,html-keyboard-response,443,3502829,0.0-19.0-0.19,14308,List1B,black,woman,,,,null,,,,
null,"<img src=""stim_listB/marry3.gif""style=""height:400px;""></stim_listB>",,html-keyboard-response,444,3504832,0.0-19.0-1.19,14308,List1B,black,woman,,,,null,,,,
null,is marrying,,html-keyboard-response,445,3506834,0.0-19.0-2.19,14308,List1B,black,woman,,,,null,,,,
25693,,,survey-text,446,3532527,0.0-19.0-3.19,14308,List1B,black,woman,,,,,"{""Q0"":""ruth is marrying dave""}","<img src=""stim_listB/marry3.gif""style=""height:400px;""></stim_listB>",is marrying,
1223,<p>Thank you for completing that task.</p><p>The final part of this session is a short questionnaire.</p><p>Press Continue.</p>,0,html-button-response,447,3533751,0.0-20.0,14308,List1B,black,woman,,,,,,,,
20351,,,survey-text,448,3555104,0.0-21.0,14308,List1B,black,woman,,,,,"{""Q0"":""33"",""Q1"":""English"",""Q2"":""English"",""Q3"":""United Kingdom"",""Q4"":""Black African"",""Q5"":""Female""}",,,demographics
6718,,,survey-likert,449,3561825,0.0-22.0,14308,List1B,black,woman,,,,,"{""Q0"":0}",,,likert_ESS
3661,,,survey-likert,450,3565489,0.0-23.0,14308,List1B,black,woman,,,,,"{""Q0"":0}",,,likert_NSSAL_Q1
4774,,,survey-likert,451,3570264,0.0-24.0,14308,List1B,black,woman,,,,,"{""Q0"":0}",,,likert_NSSAL_Q2
10814,,,survey-likert,452,3581080,0.0-25.0,14308,List1B,black,woman,,,,,"{""Q0"":3}",,,likert_CGRS_Q1
3647,,,survey-likert,453,3584728,0.0-26.0,14308,List1B,black,woman,,,,,"{""Q0"":3}",,,likert_CGRS_Q2
13312,,,survey-likert,454,3598041,0.0-27.0,14308,List1B,black,woman,,,,,"{""Q0"":3}",,,likert_CGRS_Q3
9542,,,survey-text,455,3607584,0.0-28.0,14308,List1B,black,woman,,,,,"{""Q0"":""ccc""}",,,worker_id
2207,,,external-html,456,3609936,0.0-29.0,14308,List1B,black,woman,debrief.html,,,,,,,
