rt,stimulus,button_pressed,trial_type,trial_index,time_elapsed,internal_node_id,subject,list,ppt_race,ppt_gender,url,first_guess,correct,key_press,responses,image_type,phrase_type,test_part
2728,Welcome to the experiment. Press Continue to begin.,0,html-button-response,0,2735,0.0-0.0,14739,List1B,white,woman,,,,,,,,
17926,,,external-html,1,21758,0.0-1.0,14739,List1B,white,woman,consent.html,,,,,,,
5677,"<p>On the next page, you will see portraits of 8 people and their names.</p><p>Your first task is to take a few minutes to memorise the names of these people.</p><p>You will have to recall their names during the rest of the experiment, so it is</p><p>essential that you try to memorise these people and their names as best as you can.</p><br><p><strong>You will then be tested on your memory of these names and portraits.</strong></p><br><p>The experiment will start after you have completed this memory test.</p><br><p>Ready?</p>",0,html-button-response,2,27443,0.0-2.0,14739,List1B,white,woman,,,,,,,,
29611,"<img src='img/portrait_matrix_list1.jpg' style='width:900px;height:500px;''></img><p>If you have memorised all the portraits and names and are ready to start, press Continue.</p><p><strong>Please note: Your memory of these faces will be tested 4 times during this experiment.</strong></p>",0,html-button-response,3,58076,0.0-3.0-0.0,14739,List1B,white,woman,,,,,,,,
3820,"<img src=""portrait/WM1.jpg""style=""height:400px;""></img>",6,html-button-response,4,63129,0.0-3.0-1.0,14739,List1B,white,woman,,TRUE,6,,,,,
null,CORRECT,,html-keyboard-response,5,64637,0.0-3.0-2.0-0.0,14739,List1B,white,woman,,,,null,,,,
7915,"<img src=""portrait/WW1.jpg""style=""height:400px;""></img>",1,html-button-response,6,72600,0.0-3.0-4.0,14739,List1B,white,woman,,TRUE,1,,,,,
null,CORRECT,,html-keyboard-response,7,74116,0.0-3.0-5.0-0.0,14739,List1B,white,woman,,,,null,,,,
8615,"<img src=""portrait/BM2.jpg""style=""height:400px;""></img>",4,html-button-response,8,82737,0.0-3.0-7.0,14739,List1B,white,woman,,TRUE,5,,,,,
3479,"<img src=""portrait/BM2.jpg""style=""height:400px;""></img>",5,html-button-response,9,87221,0.0-3.0-9.0-0.0,14739,List1B,white,woman,,FALSE,5,,,,,
null,CORRECT,,html-keyboard-response,10,88727,0.0-3.0-9.0-1.0-0.0,14739,List1B,white,woman,,,,null,,,,
6821,"<img src=""portrait/WW2.jpg""style=""height:400px;""></img>",3,html-button-response,11,95552,0.0-3.0-10.0,14739,List1B,white,woman,,TRUE,3,,,,,
null,CORRECT,,html-keyboard-response,12,97055,0.0-3.0-11.0-0.0,14739,List1B,white,woman,,,,null,,,,
4314,"<img src=""portrait/WM2.jpg""style=""height:400px;""></img>",7,html-button-response,13,101373,0.0-3.0-13.0,14739,List1B,white,woman,,TRUE,7,,,,,
null,CORRECT,,html-keyboard-response,14,102876,0.0-3.0-14.0-0.0,14739,List1B,white,woman,,,,null,,,,
6061,"<img src=""portrait/BW2.jpg""style=""height:400px;""></img>",0,html-button-response,15,108940,0.0-3.0-16.0,14739,List1B,white,woman,,TRUE,2,,,,,
2136,"<img src=""portrait/BW2.jpg""style=""height:400px;""></img>",2,html-button-response,16,112081,0.0-3.0-18.0-0.0,14739,List1B,white,woman,,FALSE,2,,,,,
null,CORRECT,,html-keyboard-response,17,113584,0.0-3.0-18.0-1.0-0.0,14739,List1B,white,woman,,,,null,,,,
5975,"<img src=""portrait/BW1.jpg""style=""height:400px;""></img>",0,html-button-response,18,119585,0.0-3.0-19.0,14739,List1B,white,woman,,TRUE,0,,,,,
null,CORRECT,,html-keyboard-response,19,121090,0.0-3.0-20.0-0.0,14739,List1B,white,woman,,,,null,,,,
7086,"<img src=""portrait/BM1.jpg""style=""height:400px;""></img>",4,html-button-response,20,128236,0.0-3.0-22.0,14739,List1B,white,woman,,TRUE,4,,,,,
null,CORRECT,,html-keyboard-response,21,129740,0.0-3.0-23.0-0.0,14739,List1B,white,woman,,,,null,,,,
1807,<p>You got 6 out of 8 right first time. Press Continue.</p>,0,html-button-response,22,131550,0.0-3.0-25.0,14739,List1B,white,woman,,,,,,,,
2013,"As you did not score 100%, the memory game will repeat. Press Continue.",0,html-button-response,23,134566,0.0-3.0-26.0-0.0,14739,List1B,white,woman,,,,,,,,
17888,"<img src='img/portrait_matrix_list1.jpg' style='width:900px;height:500px;''></img><p>If you have memorised all the portraits and names and are ready to start, press Continue.</p><p><strong>Please note: Your memory of these faces will be tested 4 times during this experiment.</strong></p>",0,html-button-response,24,153871,0.0-3.1-0.1,14739,List1B,white,woman,,,,,,,,
3010,"<img src=""portrait/WM1.jpg""style=""height:400px;""></img>",6,html-button-response,25,157887,0.0-3.1-1.1,14739,List1B,white,woman,,TRUE,6,,,,,
null,CORRECT,,html-keyboard-response,26,159421,0.0-3.1-2.1-0.1,14739,List1B,white,woman,,,,null,,,,
6236,"<img src=""portrait/WW1.jpg""style=""height:400px;""></img>",0,html-button-response,27,165660,0.0-3.1-4.1,14739,List1B,white,woman,,TRUE,1,,,,,
4204,"<img src=""portrait/WW1.jpg""style=""height:400px;""></img>",1,html-button-response,28,170868,0.0-3.1-6.1-0.1,14739,List1B,white,woman,,FALSE,1,,,,,
null,CORRECT,,html-keyboard-response,29,172373,0.0-3.1-6.1-1.1-0.1,14739,List1B,white,woman,,,,null,,,,
4985,"<img src=""portrait/BM2.jpg""style=""height:400px;""></img>",5,html-button-response,30,177362,0.0-3.1-7.1,14739,List1B,white,woman,,TRUE,5,,,,,
null,CORRECT,,html-keyboard-response,31,178864,0.0-3.1-8.1-0.1,14739,List1B,white,woman,,,,null,,,,
3467,"<img src=""portrait/WW2.jpg""style=""height:400px;""></img>",3,html-button-response,32,182338,0.0-3.1-10.1,14739,List1B,white,woman,,TRUE,3,,,,,
null,CORRECT,,html-keyboard-response,33,183840,0.0-3.1-11.1-0.1,14739,List1B,white,woman,,,,null,,,,
9127,"<img src=""portrait/WM2.jpg""style=""height:400px;""></img>",7,html-button-response,34,192971,0.0-3.1-13.1,14739,List1B,white,woman,,TRUE,7,,,,,
null,CORRECT,,html-keyboard-response,35,194473,0.0-3.1-14.1-0.1,14739,List1B,white,woman,,,,null,,,,
2074,"<img src=""portrait/BW2.jpg""style=""height:400px;""></img>",7,html-button-response,36,196551,0.0-3.1-16.1,14739,List1B,white,woman,,TRUE,2,,,,,
3224,"<img src=""portrait/BW2.jpg""style=""height:400px;""></img>",2,html-button-response,37,200780,0.0-3.1-18.1-0.1,14739,List1B,white,woman,,FALSE,2,,,,,
null,CORRECT,,html-keyboard-response,38,202283,0.0-3.1-18.1-1.1-0.1,14739,List1B,white,woman,,,,null,,,,
9866,"<img src=""portrait/BW1.jpg""style=""height:400px;""></img>",0,html-button-response,39,212152,0.0-3.1-19.1,14739,List1B,white,woman,,TRUE,0,,,,,
null,CORRECT,,html-keyboard-response,40,213655,0.0-3.1-20.1-0.1,14739,List1B,white,woman,,,,null,,,,
4585,"<img src=""portrait/BM1.jpg""style=""height:400px;""></img>",4,html-button-response,41,218246,0.0-3.1-22.1,14739,List1B,white,woman,,TRUE,4,,,,,
null,CORRECT,,html-keyboard-response,42,219749,0.0-3.1-23.1-0.1,14739,List1B,white,woman,,,,null,,,,
1382,<p>You got 6 out of 8 right first time. Press Continue.</p>,0,html-button-response,43,221146,0.0-3.1-25.1,14739,List1B,white,woman,,,,,,,,
1891,"As you did not score 100%, the memory game will repeat. Press Continue.",0,html-button-response,44,224040,0.0-3.1-26.1-0.1,14739,List1B,white,woman,,,,,,,,
10203,"<img src='img/portrait_matrix_list1.jpg' style='width:900px;height:500px;''></img><p>If you have memorised all the portraits and names and are ready to start, press Continue.</p><p><strong>Please note: Your memory of these faces will be tested 4 times during this experiment.</strong></p>",0,html-button-response,45,235327,0.0-3.2-0.2,14739,List1B,white,woman,,,,,,,,
2052,"<img src=""portrait/WM1.jpg""style=""height:400px;""></img>",7,html-button-response,46,238384,0.0-3.2-1.2,14739,List1B,white,woman,,TRUE,6,,,,,
7439,"<img src=""portrait/WM1.jpg""style=""height:400px;""></img>",6,html-button-response,47,246830,0.0-3.2-3.2-0.2,14739,List1B,white,woman,,FALSE,6,,,,,
null,CORRECT,,html-keyboard-response,48,248332,0.0-3.2-3.2-1.2-0.2,14739,List1B,white,woman,,,,null,,,,
3794,"<img src=""portrait/WW1.jpg""style=""height:400px;""></img>",1,html-button-response,49,252130,0.0-3.2-4.2,14739,List1B,white,woman,,TRUE,1,,,,,
null,CORRECT,,html-keyboard-response,50,253634,0.0-3.2-5.2-0.2,14739,List1B,white,woman,,,,null,,,,
5073,"<img src=""portrait/BM2.jpg""style=""height:400px;""></img>",5,html-button-response,51,258716,0.0-3.2-7.2,14739,List1B,white,woman,,TRUE,5,,,,,
null,CORRECT,,html-keyboard-response,52,260221,0.0-3.2-8.2-0.2,14739,List1B,white,woman,,,,null,,,,
2402,"<img src=""portrait/WW2.jpg""style=""height:400px;""></img>",3,html-button-response,53,262645,0.0-3.2-10.2,14739,List1B,white,woman,,TRUE,3,,,,,
null,CORRECT,,html-keyboard-response,54,264151,0.0-3.2-11.2-0.2,14739,List1B,white,woman,,,,null,,,,
5968,"<img src=""portrait/WM2.jpg""style=""height:400px;""></img>",7,html-button-response,55,270128,0.0-3.2-13.2,14739,List1B,white,woman,,TRUE,7,,,,,
null,CORRECT,,html-keyboard-response,56,271634,0.0-3.2-14.2-0.2,14739,List1B,white,woman,,,,null,,,,
5460,"<img src=""portrait/BW2.jpg""style=""height:400px;""></img>",2,html-button-response,57,277106,0.0-3.2-16.2,14739,List1B,white,woman,,TRUE,2,,,,,
null,CORRECT,,html-keyboard-response,58,278612,0.0-3.2-17.2-0.2,14739,List1B,white,woman,,,,null,,,,
2357,"<img src=""portrait/BW1.jpg""style=""height:400px;""></img>",0,html-button-response,59,280977,0.0-3.2-19.2,14739,List1B,white,woman,,TRUE,0,,,,,
null,CORRECT,,html-keyboard-response,60,282482,0.0-3.2-20.2-0.2,14739,List1B,white,woman,,,,null,,,,
2239,"<img src=""portrait/BM1.jpg""style=""height:400px;""></img>",4,html-button-response,61,284729,0.0-3.2-22.2,14739,List1B,white,woman,,TRUE,4,,,,,
null,CORRECT,,html-keyboard-response,62,286235,0.0-3.2-23.2-0.2,14739,List1B,white,woman,,,,null,,,,
1534,<p>You got 7 out of 8 right first time. Press Continue.</p>,0,html-button-response,63,287773,0.0-3.2-25.2,14739,List1B,white,woman,,,,,,,,
1254,"As you did not score 100%, the memory game will repeat. Press Continue.",0,html-button-response,64,290034,0.0-3.2-26.2-0.2,14739,List1B,white,woman,,,,,,,,
2062,"<img src='img/portrait_matrix_list1.jpg' style='width:900px;height:500px;''></img><p>If you have memorised all the portraits and names and are ready to start, press Continue.</p><p><strong>Please note: Your memory of these faces will be tested 4 times during this experiment.</strong></p>",0,html-button-response,65,293103,0.0-3.3-0.3,14739,List1B,white,woman,,,,,,,,
1560,"<img src=""portrait/WM1.jpg""style=""height:400px;""></img>",6,html-button-response,66,295672,0.0-3.3-1.3,14739,List1B,white,woman,,TRUE,6,,,,,
null,CORRECT,,html-keyboard-response,67,297176,0.0-3.3-2.3-0.3,14739,List1B,white,woman,,,,null,,,,
3506,"<img src=""portrait/WW1.jpg""style=""height:400px;""></img>",1,html-button-response,68,300689,0.0-3.3-4.3,14739,List1B,white,woman,,TRUE,1,,,,,
null,CORRECT,,html-keyboard-response,69,302194,0.0-3.3-5.3-0.3,14739,List1B,white,woman,,,,null,,,,
4690,"<img src=""portrait/BM2.jpg""style=""height:400px;""></img>",5,html-button-response,70,306889,0.0-3.3-7.3,14739,List1B,white,woman,,TRUE,5,,,,,
null,CORRECT,,html-keyboard-response,71,308393,0.0-3.3-8.3-0.3,14739,List1B,white,woman,,,,null,,,,
1612,"<img src=""portrait/WW2.jpg""style=""height:400px;""></img>",3,html-button-response,72,310010,0.0-3.3-10.3,14739,List1B,white,woman,,TRUE,3,,,,,
null,CORRECT,,html-keyboard-response,73,311517,0.0-3.3-11.3-0.3,14739,List1B,white,woman,,,,null,,,,
5088,"<img src=""portrait/WM2.jpg""style=""height:400px;""></img>",7,html-button-response,74,316615,0.0-3.3-13.3,14739,List1B,white,woman,,TRUE,7,,,,,
null,CORRECT,,html-keyboard-response,75,318119,0.0-3.3-14.3-0.3,14739,List1B,white,woman,,,,null,,,,
6331,"<img src=""portrait/BW2.jpg""style=""height:400px;""></img>",2,html-button-response,76,324453,0.0-3.3-16.3,14739,List1B,white,woman,,TRUE,2,,,,,
null,CORRECT,,html-keyboard-response,77,325956,0.0-3.3-17.3-0.3,14739,List1B,white,woman,,,,null,,,,
2320,"<img src=""portrait/BW1.jpg""style=""height:400px;""></img>",0,html-button-response,78,328284,0.0-3.3-19.3,14739,List1B,white,woman,,TRUE,0,,,,,
null,CORRECT,,html-keyboard-response,79,329791,0.0-3.3-20.3-0.3,14739,List1B,white,woman,,,,null,,,,
4092,"<img src=""portrait/BM1.jpg""style=""height:400px;""></img>",4,html-button-response,80,333892,0.0-3.3-22.3,14739,List1B,white,woman,,TRUE,4,,,,,
null,CORRECT,,html-keyboard-response,81,335397,0.0-3.3-23.3-0.3,14739,List1B,white,woman,,,,null,,,,
2289,<p>You got 8 out of 8 right first time. Press Continue.</p>,0,html-button-response,82,337693,0.0-3.3-25.3,14739,List1B,white,woman,,,,,,,,
17976,"<p>In this experiment, you will view photographs of the people from the memory game interacting.</p><p>By using the <strong>exact</strong> phrase given <i>after</i> the photograph appears and recalling the correct names of the people in the photographs, form a sentence describing the interaction. You do not need to capitalise names.</p><p>Type your answer in the space provided. Please complete every sentence before moving onto the next trial.</p><p>You will only have a few seconds to memorise each given photograph and phrase before you can respond, so try your best to focus.</p><p>An example is given below. Press 'Continue' when you are ready.</p><img src='img/speaking_example.jpg' style='width:800px;height:460px;''></img>",0,html-button-response,83,356683,0.0-4.0,14739,List1B,white,woman,,,,,,,,
3079,"<p>Before the experiment starts, you will watch two example trials. Press 'Continue'.</p>",0,html-button-response,84,360765,0.0-5.0,14739,List1B,white,woman,,,,,,,,
null,<img src='img/meet_eg.gif' style='height:400px;''></img>,,html-keyboard-response,85,363789,0.0-6.0,14739,List1B,white,woman,,,,null,,,,
null,<p>is meeting</p>,,html-keyboard-response,86,365792,0.0-7.0,14739,List1B,white,woman,,,,null,,,,
3307,<p><b>Answer:</b> kate is meeting beth</p>,0,html-button-response,87,369103,0.0-8.0,14739,List1B,white,woman,,,,,,,,
null,<img src='img/look_eg.gif' style='height:400px;''></img>,,html-keyboard-response,88,372110,0.0-9.0,14739,List1B,white,woman,,,,null,,,,
null,<p>are looking at each other</p>,,html-keyboard-response,89,374113,0.0-10.0,14739,List1B,white,woman,,,,null,,,,
1612,<p><b>Answer:</b> luke and dave are looking at each other</p>,0,html-button-response,90,375730,0.0-11.0,14739,List1B,white,woman,,,,,,,,
7621,"<p>Ready to start the experiment?</p><br><p><strong>Remember to describe the picture using a full sentence,</strong></p><p><strong>that combines the names of the people with the <i>exact</i> phrase given.</strong></p><p><strong>To receive full payment you must do this correctly.</strong></p><p><strong> You do not need to capitalise names or use punctuation.</strong></p><br><p>Press 'Continue' to begin.</p>",0,html-button-response,91,384357,0.0-12.0,14739,List1B,white,woman,,,,,,,,
null,"<div style=""font-size:60px;"">+</div>",,html-keyboard-response,92,385861,0.0-13.0-0.0,14739,List1B,white,woman,,,,null,,,,
null,"<img src=""stim_listB/marry2.gif""style=""height:400px;""></stim_listB>",,html-keyboard-response,93,387865,0.0-13.0-1.0,14739,List1B,white,woman,,,,null,,,,
null,are marrying each other,,html-keyboard-response,94,389868,0.0-13.0-2.0,14739,List1B,white,woman,,,,null,,,,
23935,,,survey-text,95,413820,0.0-13.0-3.0,14739,List1B,white,woman,,,,,"{""Q0"":""fred and kate are marrying each other""}","<img src=""stim_listB/marry2.gif""style=""height:400px;""></stim_listB>",are marrying each other,
null,"<div style=""font-size:60px;"">+</div>",,html-keyboard-response,96,414324,0.0-13.0-0.1,14739,List1B,white,woman,,,,null,,,,
null,"<img src=""stim_listB/talk7.gif""style=""height:400px;""></stim_listB>",,html-keyboard-response,97,416328,0.0-13.0-1.1,14739,List1B,white,woman,,,,null,,,,
null,is talking to,,html-keyboard-response,98,418331,0.0-13.0-2.1,14739,List1B,white,woman,,,,null,,,,
21258,,,survey-text,99,439592,0.0-13.0-3.1,14739,List1B,white,woman,,,,,"{""Q0"":""beth is talking to ruth""}","<img src=""stim_listB/talk7.gif""style=""height:400px;""></stim_listB>",is talking to,
null,"<div style=""font-size:60px;"">+</div>",,html-keyboard-response,100,440096,0.0-13.0-0.2,14739,List1B,white,woman,,,,null,,,,
null,"<img src=""stim_listB/kiss4.gif""style=""height:400px;""></stim_listB>",,html-keyboard-response,101,442103,0.0-13.0-1.2,14739,List1B,white,woman,,,,null,,,,
null,are kissing each other,,html-keyboard-response,102,444104,0.0-13.0-2.2,14739,List1B,white,woman,,,,null,,,,
29188,,,survey-text,103,473294,0.0-13.0-3.2,14739,List1B,white,woman,,,,,"{""Q0"":""dave and ruth are kissing each other ""}","<img src=""stim_listB/kiss4.gif""style=""height:400px;""></stim_listB>",are kissing each other,
null,"<div style=""font-size:60px;"">+</div>",,html-keyboard-response,104,473797,0.0-13.0-0.3,14739,List1B,white,woman,,,,null,,,,
null,"<img src=""stim_listB/marry4.gif""style=""height:400px;""></stim_listB>",,html-keyboard-response,105,475802,0.0-13.0-1.3,14739,List1B,white,woman,,,,null,,,,
null,are marrying each other,,html-keyboard-response,106,477804,0.0-13.0-2.3,14739,List1B,white,woman,,,,null,,,,
21293,,,survey-text,107,499099,0.0-13.0-3.3,14739,List1B,white,woman,,,,,"{""Q0"":""ruth and luke are marrying each other""}","<img src=""stim_listB/marry4.gif""style=""height:400px;""></stim_listB>",are marrying each other,
null,"<div style=""font-size:60px;"">+</div>",,html-keyboard-response,108,499603,0.0-13.0-0.4,14739,List1B,white,woman,,,,null,,,,
null,"<img src=""stim_listB/argue5.gif""style=""height:400px;""></stim_listB>",,html-keyboard-response,109,501607,0.0-13.0-1.4,14739,List1B,white,woman,,,,null,,,,
null,is arguing with,,html-keyboard-response,110,503609,0.0-13.0-2.4,14739,List1B,white,woman,,,,null,,,,
18979,,,survey-text,111,522591,0.0-13.0-3.4,14739,List1B,white,woman,,,,,"{""Q0"":""luke is arguing with mike""}","<img src=""stim_listB/argue5.gif""style=""height:400px;""></stim_listB>",is arguing with,
null,"<div style=""font-size:60px;"">+</div>",,html-keyboard-response,112,523097,0.0-13.0-0.5,14739,List1B,white,woman,,,,null,,,,
null,"<img src=""stim_listB/flirt6.gif""style=""height:400px;""></stim_listB>",,html-keyboard-response,113,525102,0.0-13.0-1.5,14739,List1B,white,woman,,,,null,,,,
null,are flirting with each other,,html-keyboard-response,114,527104,0.0-13.0-2.5,14739,List1B,white,woman,,,,null,,,,
22673,,,survey-text,115,549780,0.0-13.0-3.5,14739,List1B,white,woman,,,,,"{""Q0"":""mike and luke are flirting with each other ""}","<img src=""stim_listB/flirt6.gif""style=""height:400px;""></stim_listB>",are flirting with each other,
null,"<div style=""font-size:60px;"">+</div>",,html-keyboard-response,116,550284,0.0-13.0-0.6,14739,List1B,white,woman,,,,null,,,,
null,"<img src=""stim_listB/flirt8.gif""style=""height:400px;""></stim_listB>",,html-keyboard-response,117,552291,0.0-13.0-1.6,14739,List1B,white,woman,,,,null,,,,
null,are flirting with each other,,html-keyboard-response,118,554294,0.0-13.0-2.6,14739,List1B,white,woman,,,,null,,,,
28187,,,survey-text,119,582483,0.0-13.0-3.6,14739,List1B,white,woman,,,,,"{""Q0"":""jane and kate are flirting with each other""}","<img src=""stim_listB/flirt8.gif""style=""height:400px;""></stim_listB>",are flirting with each other,
null,"<div style=""font-size:60px;"">+</div>",,html-keyboard-response,120,582986,0.0-13.0-0.7,14739,List1B,white,woman,,,,null,,,,
null,"<img src=""stim_listB/play1.gif""style=""height:400px;""></stim_listB>",,html-keyboard-response,121,584992,0.0-13.0-1.7,14739,List1B,white,woman,,,,null,,,,
null,is playing with,,html-keyboard-response,122,586994,0.0-13.0-2.7,14739,List1B,white,woman,,,,null,,,,
22021,,,survey-text,123,609018,0.0-13.0-3.7,14739,List1B,white,woman,,,,,"{""Q0"":""kate is playing with mike""}","<img src=""stim_listB/play1.gif""style=""height:400px;""></stim_listB>",is playing with,
null,"<div style=""font-size:60px;"">+</div>",,html-keyboard-response,124,609521,0.0-13.0-0.8,14739,List1B,white,woman,,,,null,,,,
null,"<img src=""stim_listB/shout2.gif""style=""height:400px;""></stim_listB>",,html-keyboard-response,125,611524,0.0-13.0-1.8,14739,List1B,white,woman,,,,null,,,,
null,are shouting at each other,,html-keyboard-response,126,613527,0.0-13.0-2.8,14739,List1B,white,woman,,,,null,,,,
16428,,,survey-text,127,629958,0.0-13.0-3.8,14739,List1B,white,woman,,,,,"{""Q0"":""kate and mike are shouting at each other#""}","<img src=""stim_listB/shout2.gif""style=""height:400px;""></stim_listB>",are shouting at each other,
null,"<div style=""font-size:60px;"">+</div>",,html-keyboard-response,128,630460,0.0-13.0-0.9,14739,List1B,white,woman,,,,null,,,,
null,"<img src=""stim_listB/kiss8.gif""style=""height:400px;""></stim_listB>",,html-keyboard-response,129,632465,0.0-13.0-1.9,14739,List1B,white,woman,,,,null,,,,
null,are kissing each other,,html-keyboard-response,130,634469,0.0-13.0-2.9,14739,List1B,white,woman,,,,null,,,,
11510,,,survey-text,131,645981,0.0-13.0-3.9,14739,List1B,white,woman,,,,,"{""Q0"":""ruth and kate are kissing each other""}","<img src=""stim_listB/kiss8.gif""style=""height:400px;""></stim_listB>",are kissing each other,
null,"<div style=""font-size:60px;"">+</div>",,html-keyboard-response,132,646484,0.0-13.0-0.10,14739,List1B,white,woman,,,,null,,,,
null,"<img src=""stim_listB/dance8.gif""style=""height:400px;""></stim_listB>",,html-keyboard-response,133,648487,0.0-13.0-1.10,14739,List1B,white,woman,,,,null,,,,
null,are dancing with each other,,html-keyboard-response,134,650490,0.0-13.0-2.10,14739,List1B,white,woman,,,,null,,,,
19654,,,survey-text,135,670151,0.0-13.0-3.10,14739,List1B,white,woman,,,,,"{""Q0"":""ruth and kate are dancing with each other""}","<img src=""stim_listB/dance8.gif""style=""height:400px;""></stim_listB>",are dancing with each other,
null,"<div style=""font-size:60px;"">+</div>",,html-keyboard-response,136,670655,0.0-13.0-0.11,14739,List1B,white,woman,,,,null,,,,
null,"<img src=""stim_listB/touch8.gif""style=""height:400px;""></stim_listB>",,html-keyboard-response,137,672660,0.0-13.0-1.11,14739,List1B,white,woman,,,,null,,,,
null,are touching each other,,html-keyboard-response,138,674662,0.0-13.0-2.11,14739,List1B,white,woman,,,,null,,,,
14240,,,survey-text,139,688905,0.0-13.0-3.11,14739,List1B,white,woman,,,,,"{""Q0"":""ruth and beth are touching each other""}","<img src=""stim_listB/touch8.gif""style=""height:400px;""></stim_listB>",are touching each other,
null,"<div style=""font-size:60px;"">+</div>",,html-keyboard-response,140,689408,0.0-13.0-0.12,14739,List1B,white,woman,,,,null,,,,
null,"<img src=""stim_listB/kiss1.gif""style=""height:400px;""></stim_listB>",,html-keyboard-response,141,691414,0.0-13.0-1.12,14739,List1B,white,woman,,,,null,,,,
null,is kissing,,html-keyboard-response,142,693417,0.0-13.0-2.12,14739,List1B,white,woman,,,,null,,,,
7632,,,survey-text,143,701055,0.0-13.0-3.12,14739,List1B,white,woman,,,,,"{""Q0"":""fred is kissing beth""}","<img src=""stim_listB/kiss1.gif""style=""height:400px;""></stim_listB>",is kissing,
null,"<div style=""font-size:60px;"">+</div>",,html-keyboard-response,144,701558,0.0-13.0-0.13,14739,List1B,white,woman,,,,null,,,,
null,"<img src=""stim_listB/touch2.gif""style=""height:400px;""></stim_listB>",,html-keyboard-response,145,703563,0.0-13.0-1.13,14739,List1B,white,woman,,,,null,,,,
null,are touching each other,,html-keyboard-response,146,705564,0.0-13.0-2.13,14739,List1B,white,woman,,,,null,,,,
8817,,,survey-text,147,714383,0.0-13.0-3.13,14739,List1B,white,woman,,,,,"{""Q0"":""fred and beth are touching each other""}","<img src=""stim_listB/touch2.gif""style=""height:400px;""></stim_listB>",are touching each other,
null,"<div style=""font-size:60px;"">+</div>",,html-keyboard-response,148,714887,0.0-13.0-0.14,14739,List1B,white,woman,,,,null,,,,
null,"<img src=""stim_listB/shout7.gif""style=""height:400px;""></stim_listB>",,html-keyboard-response,149,716893,0.0-13.0-1.14,14739,List1B,white,woman,,,,null,,,,
null,is shouting at,,html-keyboard-response,150,718894,0.0-13.0-2.14,14739,List1B,white,woman,,,,null,,,,
14346,,,survey-text,151,733246,0.0-13.0-3.14,14739,List1B,white,woman,,,,,"{""Q0"":""beth is shouting at ruth""}","<img src=""stim_listB/shout7.gif""style=""height:400px;""></stim_listB>",is shouting at,
null,"<div style=""font-size:60px;"">+</div>",,html-keyboard-response,152,733752,0.0-13.0-0.15,14739,List1B,white,woman,,,,null,,,,
null,"<img src=""stim_listB/dance1.gif""style=""height:400px;""></stim_listB>",,html-keyboard-response,153,735757,0.0-13.0-1.15,14739,List1B,white,woman,,,,null,,,,
null,is dancing with,,html-keyboard-response,154,737759,0.0-13.0-2.15,14739,List1B,white,woman,,,,null,,,,
8480,,,survey-text,155,746242,0.0-13.0-3.15,14739,List1B,white,woman,,,,,"{""Q0"":""fred is dancing with kate""}","<img src=""stim_listB/dance1.gif""style=""height:400px;""></stim_listB>",is dancing with,
null,"<div style=""font-size:60px;"">+</div>",,html-keyboard-response,156,746745,0.0-13.0-0.16,14739,List1B,white,woman,,,,null,,,,
null,"<img src=""stim_listB/marry5.gif""style=""height:400px;""></stim_listB>",,html-keyboard-response,157,748750,0.0-13.0-1.16,14739,List1B,white,woman,,,,null,,,,
null,is marrying,,html-keyboard-response,158,750753,0.0-13.0-2.16,14739,List1B,white,woman,,,,null,,,,
7632,,,survey-text,159,758387,0.0-13.0-3.16,14739,List1B,white,woman,,,,,"{""Q0"":""luke is marrying mike""}","<img src=""stim_listB/marry5.gif""style=""height:400px;""></stim_listB>",is marrying,
null,"<div style=""font-size:60px;"">+</div>",,html-keyboard-response,160,758890,0.0-13.0-0.17,14739,List1B,white,woman,,,,null,,,,
null,"<img src=""stim_listB/marry6.gif""style=""height:400px;""></stim_listB>",,html-keyboard-response,161,760894,0.0-13.0-1.17,14739,List1B,white,woman,,,,null,,,,
null,are marrying each other,,html-keyboard-response,162,762897,0.0-13.0-2.17,14739,List1B,white,woman,,,,null,,,,
20068,,,survey-text,163,782968,0.0-13.0-3.17,14739,List1B,white,woman,,,,,"{""Q0"":""fred and dave are marrying each other""}","<img src=""stim_listB/marry6.gif""style=""height:400px;""></stim_listB>",are marrying each other,
null,"<div style=""font-size:60px;"">+</div>",,html-keyboard-response,164,783472,0.0-13.0-0.18,14739,List1B,white,woman,,,,null,,,,
null,"<img src=""stim_listB/talk5.gif""style=""height:400px;""></stim_listB>",,html-keyboard-response,165,785479,0.0-13.0-1.18,14739,List1B,white,woman,,,,null,,,,
null,is talking to,,html-keyboard-response,166,787482,0.0-13.0-2.18,14739,List1B,white,woman,,,,null,,,,
10282,,,survey-text,167,797770,0.0-13.0-3.18,14739,List1B,white,woman,,,,,"{""Q0"":""fred is talking to dave""}","<img src=""stim_listB/talk5.gif""style=""height:400px;""></stim_listB>",is talking to,
null,"<div style=""font-size:60px;"">+</div>",,html-keyboard-response,168,798274,0.0-13.0-0.19,14739,List1B,white,woman,,,,null,,,,
null,"<img src=""stim_listB/talk8.gif""style=""height:400px;""></stim_listB>",,html-keyboard-response,169,800278,0.0-13.0-1.19,14739,List1B,white,woman,,,,null,,,,
null,are talking to each other,,html-keyboard-response,170,802282,0.0-13.0-2.19,14739,List1B,white,woman,,,,null,,,,
17465,,,survey-text,171,819750,0.0-13.0-3.19,14739,List1B,white,woman,,,,,"{""Q0"":""ruth and kate are talking to each other""}","<img src=""stim_listB/talk8.gif""style=""height:400px;""></stim_listB>",are talking to each other,
7917,"<img src='img/portrait_matrix_list1.jpg' style='width:900px;height:500px;''></img><p>If you have memorised all the portraits and names and are ready to start, press Continue.</p><p><strong>Please note: Your memory of these faces will be tested 4 times during this experiment.</strong></p>",0,html-button-response,172,827671,0.0-14.0-0.0,14739,List1B,white,woman,,,,,,,,
2226,"<img src=""portrait/WM1.jpg""style=""height:400px;""></img>",6,html-button-response,173,830907,0.0-14.0-1.0,14739,List1B,white,woman,,TRUE,6,,,,,
null,CORRECT,,html-keyboard-response,174,832412,0.0-14.0-2.0-0.0,14739,List1B,white,woman,,,,null,,,,
1014,"<img src=""portrait/WW1.jpg""style=""height:400px;""></img>",6,html-button-response,175,833433,0.0-14.0-4.0,14739,List1B,white,woman,,TRUE,1,,,,,
1847,"<img src=""portrait/WW1.jpg""style=""height:400px;""></img>",1,html-button-response,176,836288,0.0-14.0-6.0-0.0,14739,List1B,white,woman,,FALSE,1,,,,,
null,CORRECT,,html-keyboard-response,177,837795,0.0-14.0-6.0-1.0-0.0,14739,List1B,white,woman,,,,null,,,,
2360,"<img src=""portrait/BW1.jpg""style=""height:400px;""></img>",0,html-button-response,178,840159,0.0-14.0-7.0,14739,List1B,white,woman,,TRUE,0,,,,,
null,CORRECT,,html-keyboard-response,179,841663,0.0-14.0-8.0-0.0,14739,List1B,white,woman,,,,null,,,,
2207,"<img src=""portrait/BM2.jpg""style=""height:400px;""></img>",7,html-button-response,180,843880,0.0-14.0-10.0,14739,List1B,white,woman,,TRUE,5,,,,,
2049,"<img src=""portrait/BM2.jpg""style=""height:400px;""></img>",5,html-button-response,181,846941,0.0-14.0-12.0-0.0,14739,List1B,white,woman,,FALSE,5,,,,,
null,CORRECT,,html-keyboard-response,182,848449,0.0-14.0-12.0-1.0-0.0,14739,List1B,white,woman,,,,null,,,,
1674,"<img src=""portrait/WM2.jpg""style=""height:400px;""></img>",7,html-button-response,183,850132,0.0-14.0-13.0,14739,List1B,white,woman,,TRUE,7,,,,,
null,CORRECT,,html-keyboard-response,184,851637,0.0-14.0-14.0-0.0,14739,List1B,white,woman,,,,null,,,,
1876,"<img src=""portrait/BM1.jpg""style=""height:400px;""></img>",4,html-button-response,185,853520,0.0-14.0-16.0,14739,List1B,white,woman,,TRUE,4,,,,,
null,CORRECT,,html-keyboard-response,186,855027,0.0-14.0-17.0-0.0,14739,List1B,white,woman,,,,null,,,,
1930,"<img src=""portrait/WW2.jpg""style=""height:400px;""></img>",3,html-button-response,187,856966,0.0-14.0-19.0,14739,List1B,white,woman,,TRUE,3,,,,,
null,CORRECT,,html-keyboard-response,188,858471,0.0-14.0-20.0-0.0,14739,List1B,white,woman,,,,null,,,,
2979,"<img src=""portrait/BW2.jpg""style=""height:400px;""></img>",0,html-button-response,189,861457,0.0-14.0-22.0,14739,List1B,white,woman,,TRUE,2,,,,,
3115,"<img src=""portrait/BW2.jpg""style=""height:400px;""></img>",2,html-button-response,190,865576,0.0-14.0-24.0-0.0,14739,List1B,white,woman,,FALSE,2,,,,,
null,CORRECT,,html-keyboard-response,191,867083,0.0-14.0-24.0-1.0-0.0,14739,List1B,white,woman,,,,null,,,,
1199,<p>You got 5 out of 8 right first time. Press Continue.</p>,0,html-button-response,192,868288,0.0-14.0-25.0,14739,List1B,white,woman,,,,,,,,
1100,"As you did not score 100%, the memory game will repeat. Press Continue.",0,html-button-response,193,870395,0.0-14.0-26.0-0.0,14739,List1B,white,woman,,,,,,,,
1912,"<img src='img/portrait_matrix_list1.jpg' style='width:900px;height:500px;''></img><p>If you have memorised all the portraits and names and are ready to start, press Continue.</p><p><strong>Please note: Your memory of these faces will be tested 4 times during this experiment.</strong></p>",0,html-button-response,194,873314,0.0-14.1-0.1,14739,List1B,white,woman,,,,,,,,
1839,"<img src=""portrait/WM1.jpg""style=""height:400px;""></img>",6,html-button-response,195,876163,0.0-14.1-1.1,14739,List1B,white,woman,,TRUE,6,,,,,
null,CORRECT,,html-keyboard-response,196,877667,0.0-14.1-2.1-0.1,14739,List1B,white,woman,,,,null,,,,
2214,"<img src=""portrait/WW1.jpg""style=""height:400px;""></img>",1,html-button-response,197,879887,0.0-14.1-4.1,14739,List1B,white,woman,,TRUE,1,,,,,
null,CORRECT,,html-keyboard-response,198,881394,0.0-14.1-5.1-0.1,14739,List1B,white,woman,,,,null,,,,
3914,"<img src=""portrait/BW1.jpg""style=""height:400px;""></img>",0,html-button-response,199,885312,0.0-14.1-7.1,14739,List1B,white,woman,,TRUE,0,,,,,
null,CORRECT,,html-keyboard-response,200,886815,0.0-14.1-8.1-0.1,14739,List1B,white,woman,,,,null,,,,
2635,"<img src=""portrait/BM2.jpg""style=""height:400px;""></img>",7,html-button-response,201,889455,0.0-14.1-10.1,14739,List1B,white,woman,,TRUE,5,,,,,
2042,"<img src=""portrait/BM2.jpg""style=""height:400px;""></img>",5,html-button-response,202,892511,0.0-14.1-12.1-0.1,14739,List1B,white,woman,,FALSE,5,,,,,
null,CORRECT,,html-keyboard-response,203,894016,0.0-14.1-12.1-1.1-0.1,14739,List1B,white,woman,,,,null,,,,
3234,"<img src=""portrait/WM2.jpg""style=""height:400px;""></img>",4,html-button-response,204,897259,0.0-14.1-13.1,14739,List1B,white,woman,,TRUE,7,,,,,
1830,"<img src=""portrait/WM2.jpg""style=""height:400px;""></img>",7,html-button-response,205,900100,0.0-14.1-15.1-0.1,14739,List1B,white,woman,,FALSE,7,,,,,
null,CORRECT,,html-keyboard-response,206,901607,0.0-14.1-15.1-1.1-0.1,14739,List1B,white,woman,,,,null,,,,
2054,"<img src=""portrait/BM1.jpg""style=""height:400px;""></img>",4,html-button-response,207,903666,0.0-14.1-16.1,14739,List1B,white,woman,,TRUE,4,,,,,
null,CORRECT,,html-keyboard-response,208,905172,0.0-14.1-17.1-0.1,14739,List1B,white,woman,,,,null,,,,
1724,"<img src=""portrait/WW2.jpg""style=""height:400px;""></img>",3,html-button-response,209,906904,0.0-14.1-19.1,14739,List1B,white,woman,,TRUE,3,,,,,
null,CORRECT,,html-keyboard-response,210,908409,0.0-14.1-20.1-0.1,14739,List1B,white,woman,,,,null,,,,
3409,"<img src=""portrait/BW2.jpg""style=""height:400px;""></img>",2,html-button-response,211,911828,0.0-14.1-22.1,14739,List1B,white,woman,,TRUE,2,,,,,
null,CORRECT,,html-keyboard-response,212,913335,0.0-14.1-23.1-0.1,14739,List1B,white,woman,,,,null,,,,
3894,<p>You got 6 out of 8 right first time. Press Continue.</p>,0,html-button-response,213,917236,0.0-14.1-25.1,14739,List1B,white,woman,,,,,,,,
1256,"As you did not score 100%, the memory game will repeat. Press Continue.",0,html-button-response,214,919497,0.0-14.1-26.1-0.1,14739,List1B,white,woman,,,,,,,,
2338,"<img src='img/portrait_matrix_list1.jpg' style='width:900px;height:500px;''></img><p>If you have memorised all the portraits and names and are ready to start, press Continue.</p><p><strong>Please note: Your memory of these faces will be tested 4 times during this experiment.</strong></p>",0,html-button-response,215,922840,0.0-14.2-0.2,14739,List1B,white,woman,,,,,,,,
1054,"<img src=""portrait/WM1.jpg""style=""height:400px;""></img>",6,html-button-response,216,924899,0.0-14.2-1.2,14739,List1B,white,woman,,TRUE,6,,,,,
null,CORRECT,,html-keyboard-response,217,926403,0.0-14.2-2.2-0.2,14739,List1B,white,woman,,,,null,,,,
2644,"<img src=""portrait/WW1.jpg""style=""height:400px;""></img>",1,html-button-response,218,929052,0.0-14.2-4.2,14739,List1B,white,woman,,TRUE,1,,,,,
null,CORRECT,,html-keyboard-response,219,930558,0.0-14.2-5.2-0.2,14739,List1B,white,woman,,,,null,,,,
5122,"<img src=""portrait/BW1.jpg""style=""height:400px;""></img>",0,html-button-response,220,935685,0.0-14.2-7.2,14739,List1B,white,woman,,TRUE,0,,,,,
null,CORRECT,,html-keyboard-response,221,937188,0.0-14.2-8.2-0.2,14739,List1B,white,woman,,,,null,,,,
3298,"<img src=""portrait/BM2.jpg""style=""height:400px;""></img>",5,html-button-response,222,940491,0.0-14.2-10.2,14739,List1B,white,woman,,TRUE,5,,,,,
null,CORRECT,,html-keyboard-response,223,941997,0.0-14.2-11.2-0.2,14739,List1B,white,woman,,,,null,,,,
3766,"<img src=""portrait/WM2.jpg""style=""height:400px;""></img>",7,html-button-response,224,945770,0.0-14.2-13.2,14739,List1B,white,woman,,TRUE,7,,,,,
null,CORRECT,,html-keyboard-response,225,947274,0.0-14.2-14.2-0.2,14739,List1B,white,woman,,,,null,,,,
1896,"<img src=""portrait/BM1.jpg""style=""height:400px;""></img>",4,html-button-response,226,949176,0.0-14.2-16.2,14739,List1B,white,woman,,TRUE,4,,,,,
null,CORRECT,,html-keyboard-response,227,950684,0.0-14.2-17.2-0.2,14739,List1B,white,woman,,,,null,,,,
1760,"<img src=""portrait/WW2.jpg""style=""height:400px;""></img>",3,html-button-response,228,952451,0.0-14.2-19.2,14739,List1B,white,woman,,TRUE,3,,,,,
null,CORRECT,,html-keyboard-response,229,953958,0.0-14.2-20.2-0.2,14739,List1B,white,woman,,,,null,,,,
3323,"<img src=""portrait/BW2.jpg""style=""height:400px;""></img>",2,html-button-response,230,957289,0.0-14.2-22.2,14739,List1B,white,woman,,TRUE,2,,,,,
null,CORRECT,,html-keyboard-response,231,958794,0.0-14.2-23.2-0.2,14739,List1B,white,woman,,,,null,,,,
1489,<p>You got 8 out of 8 right first time. Press Continue.</p>,0,html-button-response,232,960286,0.0-14.2-25.2,14739,List1B,white,woman,,,,,,,,
null,"<div style=""font-size:60px;"">+</div>",,html-keyboard-response,233,961798,0.0-15.0-0.0,14739,List1B,white,woman,,,,null,,,,
null,"<img src=""stim_listB/kiss2.gif""style=""height:400px;""></stim_listB>",,html-keyboard-response,234,963806,0.0-15.0-1.0,14739,List1B,white,woman,,,,null,,,,
null,are kissing each other,,html-keyboard-response,235,965809,0.0-15.0-2.0,14739,List1B,white,woman,,,,null,,,,
565,,,survey-text,236,966380,0.0-15.0-3.0,14739,List1B,white,woman,,,,,"{""Q0"":""""}","<img src=""stim_listB/kiss2.gif""style=""height:400px;""></stim_listB>",are kissing each other,
null,"<div style=""font-size:60px;"">+</div>",,html-keyboard-response,237,966883,0.0-15.0-0.1,14739,List1B,white,woman,,,,null,,,,
null,"<img src=""stim_listB/fight5.gif""style=""height:400px;""></stim_listB>",,html-keyboard-response,238,968887,0.0-15.0-1.1,14739,List1B,white,woman,,,,null,,,,
null,is fighting,,html-keyboard-response,239,970890,0.0-15.0-2.1,14739,List1B,white,woman,,,,null,,,,
8574,,,survey-text,240,979469,0.0-15.0-3.1,14739,List1B,white,woman,,,,,"{""Q0"":""""}","<img src=""stim_listB/fight5.gif""style=""height:400px;""></stim_listB>",is fighting,
null,"<div style=""font-size:60px;"">+</div>",,html-keyboard-response,241,979973,0.0-15.0-0.2,14739,List1B,white,woman,,,,null,,,,
null,"<img src=""stim_listB/dance5.gif""style=""height:400px;""></stim_listB>",,html-keyboard-response,242,981977,0.0-15.0-1.2,14739,List1B,white,woman,,,,null,,,,
null,is dancing with,,html-keyboard-response,243,983981,0.0-15.0-2.2,14739,List1B,white,woman,,,,null,,,,
13411,,,survey-text,244,997397,0.0-15.0-3.2,14739,List1B,white,woman,,,,,"{""Q0"":""fred is dancing with mike""}","<img src=""stim_listB/dance5.gif""style=""height:400px;""></stim_listB>",is dancing with,
null,"<div style=""font-size:60px;"">+</div>",,html-keyboard-response,245,997900,0.0-15.0-0.3,14739,List1B,white,woman,,,,null,,,,
null,"<img src=""stim_listB/kiss3.gif""style=""height:400px;""></stim_listB>",,html-keyboard-response,246,999906,0.0-15.0-1.3,14739,List1B,white,woman,,,,null,,,,
null,is kissing,,html-keyboard-response,247,1001909,0.0-15.0-2.3,14739,List1B,white,woman,,,,null,,,,
12675,,,survey-text,248,1014588,0.0-15.0-3.3,14739,List1B,white,woman,,,,,"{""Q0"":""luke is kissing ruth""}","<img src=""stim_listB/kiss3.gif""style=""height:400px;""></stim_listB>",is kissing,
null,"<div style=""font-size:60px;"">+</div>",,html-keyboard-response,249,1015092,0.0-15.0-0.4,14739,List1B,white,woman,,,,null,,,,
null,"<img src=""stim_listB/talk3.gif""style=""height:400px;""></stim_listB>",,html-keyboard-response,250,1017096,0.0-15.0-1.4,14739,List1B,white,woman,,,,null,,,,
null,is talking to,,html-keyboard-response,251,1019099,0.0-15.0-2.4,14739,List1B,white,woman,,,,null,,,,
7348,,,survey-text,252,1026451,0.0-15.0-3.4,14739,List1B,white,woman,,,,,"{""Q0"":""jane is talking to luke""}","<img src=""stim_listB/talk3.gif""style=""height:400px;""></stim_listB>",is talking to,
null,"<div style=""font-size:60px;"">+</div>",,html-keyboard-response,253,1026954,0.0-15.0-0.5,14739,List1B,white,woman,,,,null,,,,
null,"<img src=""stim_listB/dance2.gif""style=""height:400px;""></stim_listB>",,html-keyboard-response,254,1028957,0.0-15.0-1.5,14739,List1B,white,woman,,,,null,,,,
null,are dancing with each other,,html-keyboard-response,255,1030960,0.0-15.0-2.5,14739,List1B,white,woman,,,,null,,,,
12002,,,survey-text,256,1042967,0.0-15.0-3.5,14739,List1B,white,woman,,,,,"{""Q0"":""mike and beth are dancing together""}","<img src=""stim_listB/dance2.gif""style=""height:400px;""></stim_listB>",are dancing with each other,
null,"<div style=""font-size:60px;"">+</div>",,html-keyboard-response,257,1043470,0.0-15.0-0.6,14739,List1B,white,woman,,,,null,,,,
null,"<img src=""stim_listB/touch6.gif""style=""height:400px;""></stim_listB>",,html-keyboard-response,258,1045475,0.0-15.0-1.6,14739,List1B,white,woman,,,,null,,,,
null,are touching each other,,html-keyboard-response,259,1047479,0.0-15.0-2.6,14739,List1B,white,woman,,,,null,,,,
14372,,,survey-text,260,1061856,0.0-15.0-3.6,14739,List1B,white,woman,,,,,"{""Q0"":""fred and luke are touching each other""}","<img src=""stim_listB/touch6.gif""style=""height:400px;""></stim_listB>",are touching each other,
null,"<div style=""font-size:60px;"">+</div>",,html-keyboard-response,261,1062361,0.0-15.0-0.7,14739,List1B,white,woman,,,,null,,,,
null,"<img src=""stim_listB/fight8.gif""style=""height:400px;""></stim_listB>",,html-keyboard-response,262,1064366,0.0-15.0-1.7,14739,List1B,white,woman,,,,null,,,,
null,are fighting each other,,html-keyboard-response,263,1066368,0.0-15.0-2.7,14739,List1B,white,woman,,,,null,,,,
12375,,,survey-text,264,1078747,0.0-15.0-3.7,14739,List1B,white,woman,,,,,"{""Q0"":""beth and ruth are fighting each other""}","<img src=""stim_listB/fight8.gif""style=""height:400px;""></stim_listB>",are fighting each other,
null,"<div style=""font-size:60px;"">+</div>",,html-keyboard-response,265,1079251,0.0-15.0-0.8,14739,List1B,white,woman,,,,null,,,,
null,"<img src=""stim_listB/argue7.gif""style=""height:400px;""></stim_listB>",,html-keyboard-response,266,1081255,0.0-15.0-1.8,14739,List1B,white,woman,,,,null,,,,
null,is arguing with,,html-keyboard-response,267,1083257,0.0-15.0-2.8,14739,List1B,white,woman,,,,null,,,,
14022,,,survey-text,268,1097283,0.0-15.0-3.8,14739,List1B,white,woman,,,,,"{""Q0"":""kate is arguing with ruth""}","<img src=""stim_listB/argue7.gif""style=""height:400px;""></stim_listB>",is arguing with,
null,"<div style=""font-size:60px;"">+</div>",,html-keyboard-response,269,1097787,0.0-15.0-0.9,14739,List1B,white,woman,,,,null,,,,
null,"<img src=""stim_listB/play8.gif""style=""height:400px;""></stim_listB>",,html-keyboard-response,270,1099793,0.0-15.0-1.9,14739,List1B,white,woman,,,,null,,,,
null,are playing with each other,,html-keyboard-response,271,1101796,0.0-15.0-2.9,14739,List1B,white,woman,,,,null,,,,
19681,,,survey-text,272,1121481,0.0-15.0-3.9,14739,List1B,white,woman,,,,,"{""Q0"":""beth and ruth are playing with each other""}","<img src=""stim_listB/play8.gif""style=""height:400px;""></stim_listB>",are playing with each other,
null,"<div style=""font-size:60px;"">+</div>",,html-keyboard-response,273,1121985,0.0-15.0-0.10,14739,List1B,white,woman,,,,null,,,,
null,"<img src=""stim_listB/fight2.gif""style=""height:400px;""></stim_listB>",,html-keyboard-response,274,1123994,0.0-15.0-1.10,14739,List1B,white,woman,,,,null,,,,
null,are fighting each other,,html-keyboard-response,275,1125997,0.0-15.0-2.10,14739,List1B,white,woman,,,,null,,,,
15273,,,survey-text,276,1141274,0.0-15.0-3.10,14739,List1B,white,woman,,,,,"{""Q0"":""beth and fred are fighting each other""}","<img src=""stim_listB/fight2.gif""style=""height:400px;""></stim_listB>",are fighting each other,
null,"<div style=""font-size:60px;"">+</div>",,html-keyboard-response,277,1141777,0.0-15.0-0.11,14739,List1B,white,woman,,,,null,,,,
null,"<img src=""stim_listB/touch5.gif""style=""height:400px;""></stim_listB>",,html-keyboard-response,278,1143784,0.0-15.0-1.11,14739,List1B,white,woman,,,,null,,,,
null,is touching,,html-keyboard-response,279,1145788,0.0-15.0-2.11,14739,List1B,white,woman,,,,null,,,,
17543,,,survey-text,280,1163335,0.0-15.0-3.11,14739,List1B,white,woman,,,,,"{""Q0"":""mike is touching dave""}","<img src=""stim_listB/touch5.gif""style=""height:400px;""></stim_listB>",is touching,
null,"<div style=""font-size:60px;"">+</div>",,html-keyboard-response,281,1163840,0.0-15.0-0.12,14739,List1B,white,woman,,,,null,,,,
null,"<img src=""stim_listB/flirt7.gif""style=""height:400px;""></stim_listB>",,html-keyboard-response,282,1165845,0.0-15.0-1.12,14739,List1B,white,woman,,,,null,,,,
null,is flirting with,,html-keyboard-response,283,1167848,0.0-15.0-2.12,14739,List1B,white,woman,,,,null,,,,
9347,,,survey-text,284,1177198,0.0-15.0-3.12,14739,List1B,white,woman,,,,,"{""Q0"":""beth is flirting with ruth""}","<img src=""stim_listB/flirt7.gif""style=""height:400px;""></stim_listB>",is flirting with,
null,"<div style=""font-size:60px;"">+</div>",,html-keyboard-response,285,1177703,0.0-15.0-0.13,14739,List1B,white,woman,,,,null,,,,
null,"<img src=""stim_listB/fight4.gif""style=""height:400px;""></stim_listB>",,html-keyboard-response,286,1179712,0.0-15.0-1.13,14739,List1B,white,woman,,,,null,,,,
null,are fighting each other,,html-keyboard-response,287,1181716,0.0-15.0-2.13,14739,List1B,white,woman,,,,null,,,,
13189,,,survey-text,288,1194910,0.0-15.0-3.13,14739,List1B,white,woman,,,,,"{""Q0"":""ruth and luke are fighting each other""}","<img src=""stim_listB/fight4.gif""style=""height:400px;""></stim_listB>",are fighting each other,
null,"<div style=""font-size:60px;"">+</div>",,html-keyboard-response,289,1195414,0.0-15.0-0.14,14739,List1B,white,woman,,,,null,,,,
null,"<img src=""stim_listB/talk4.gif""style=""height:400px;""></stim_listB>",,html-keyboard-response,290,1197417,0.0-15.0-1.14,14739,List1B,white,woman,,,,null,,,,
null,are talking to each other,,html-keyboard-response,291,1199420,0.0-15.0-2.14,14739,List1B,white,woman,,,,null,,,,
14322,,,survey-text,292,1213746,0.0-15.0-3.14,14739,List1B,white,woman,,,,,"{""Q0"":""dave and ruth are talking to each other""}","<img src=""stim_listB/talk4.gif""style=""height:400px;""></stim_listB>",are talking to each other,
null,"<div style=""font-size:60px;"">+</div>",,html-keyboard-response,293,1214251,0.0-15.0-0.15,14739,List1B,white,woman,,,,null,,,,
null,"<img src=""stim_listB/fight7.gif""style=""height:400px;""></stim_listB>",,html-keyboard-response,294,1216255,0.0-15.0-1.15,14739,List1B,white,woman,,,,null,,,,
null,is fighting,,html-keyboard-response,295,1218257,0.0-15.0-2.15,14739,List1B,white,woman,,,,null,,,,
7082,,,survey-text,296,1225341,0.0-15.0-3.15,14739,List1B,white,woman,,,,,"{""Q0"":""kate is fighting jane""}","<img src=""stim_listB/fight7.gif""style=""height:400px;""></stim_listB>",is fighting,
null,"<div style=""font-size:60px;"">+</div>",,html-keyboard-response,297,1225845,0.0-15.0-0.16,14739,List1B,white,woman,,,,null,,,,
null,"<img src=""stim_listB/play6.gif""style=""height:400px;""></stim_listB>",,html-keyboard-response,298,1227851,0.0-15.0-1.16,14739,List1B,white,woman,,,,null,,,,
null,are playing with each other,,html-keyboard-response,299,1229855,0.0-15.0-2.16,14739,List1B,white,woman,,,,null,,,,
10725,,,survey-text,300,1240585,0.0-15.0-3.16,14739,List1B,white,woman,,,,,"{""Q0"":""fred and luke are playing with each other""}","<img src=""stim_listB/play6.gif""style=""height:400px;""></stim_listB>",are playing with each other,
null,"<div style=""font-size:60px;"">+</div>",,html-keyboard-response,301,1241089,0.0-15.0-0.17,14739,List1B,white,woman,,,,null,,,,
null,"<img src=""stim_listB/kiss6.gif""style=""height:400px;""></stim_listB>",,html-keyboard-response,302,1243096,0.0-15.0-1.17,14739,List1B,white,woman,,,,null,,,,
null,are kissing each other,,html-keyboard-response,303,1245099,0.0-15.0-2.17,14739,List1B,white,woman,,,,null,,,,
11480,,,survey-text,304,1256583,0.0-15.0-3.17,14739,List1B,white,woman,,,,,"{""Q0"":""mike and dave are kissing each other""}","<img src=""stim_listB/kiss6.gif""style=""height:400px;""></stim_listB>",are kissing each other,
null,"<div style=""font-size:60px;"">+</div>",,html-keyboard-response,305,1257088,0.0-15.0-0.18,14739,List1B,white,woman,,,,null,,,,
null,"<img src=""stim_listB/flirt3.gif""style=""height:400px;""></stim_listB>",,html-keyboard-response,306,1259095,0.0-15.0-1.18,14739,List1B,white,woman,,,,null,,,,
null,is flirting with,,html-keyboard-response,307,1261098,0.0-15.0-2.18,14739,List1B,white,woman,,,,null,,,,
8775,,,survey-text,308,1269878,0.0-15.0-3.18,14739,List1B,white,woman,,,,,"{""Q0"":""luke is flirting with ruth""}","<img src=""stim_listB/flirt3.gif""style=""height:400px;""></stim_listB>",is flirting with,
null,"<div style=""font-size:60px;"">+</div>",,html-keyboard-response,309,1270381,0.0-15.0-0.19,14739,List1B,white,woman,,,,null,,,,
null,"<img src=""stim_listB/dance6.gif""style=""height:400px;""></stim_listB>",,html-keyboard-response,310,1272386,0.0-15.0-1.19,14739,List1B,white,woman,,,,null,,,,
null,are dancing with each other,,html-keyboard-response,311,1274389,0.0-15.0-2.19,14739,List1B,white,woman,,,,null,,,,
13966,,,survey-text,312,1288358,0.0-15.0-3.19,14739,List1B,white,woman,,,,,"{""Q0"":""luke and mike are dancing with each other""}","<img src=""stim_listB/dance6.gif""style=""height:400px;""></stim_listB>",are dancing with each other,
4627,"<img src='img/portrait_matrix_list1.jpg' style='width:900px;height:500px;''></img><p>If you have memorised all the portraits and names and are ready to start, press Continue.</p><p><strong>Please note: Your memory of these faces will be tested 4 times during this experiment.</strong></p>",0,html-button-response,313,1292991,0.0-16.0-0.0,14739,List1B,white,woman,,,,,,,,
2620,"<img src=""portrait/WW2.jpg""style=""height:400px;""></img>",3,html-button-response,314,1296616,0.0-16.0-1.0,14739,List1B,white,woman,,TRUE,3,,,,,
null,CORRECT,,html-keyboard-response,315,1298119,0.0-16.0-2.0-0.0,14739,List1B,white,woman,,,,null,,,,
3451,"<img src=""portrait/BW1.jpg""style=""height:400px;""></img>",0,html-button-response,316,1301573,0.0-16.0-4.0,14739,List1B,white,woman,,TRUE,0,,,,,
null,CORRECT,,html-keyboard-response,317,1303080,0.0-16.0-5.0-0.0,14739,List1B,white,woman,,,,null,,,,
3867,"<img src=""portrait/BM2.jpg""style=""height:400px;""></img>",5,html-button-response,318,1306956,0.0-16.0-7.0,14739,List1B,white,woman,,TRUE,5,,,,,
null,CORRECT,,html-keyboard-response,319,1308464,0.0-16.0-8.0-0.0,14739,List1B,white,woman,,,,null,,,,
2569,"<img src=""portrait/BM1.jpg""style=""height:400px;""></img>",4,html-button-response,320,1311043,0.0-16.0-10.0,14739,List1B,white,woman,,TRUE,4,,,,,
null,CORRECT,,html-keyboard-response,321,1312548,0.0-16.0-11.0-0.0,14739,List1B,white,woman,,,,null,,,,
2050,"<img src=""portrait/WM1.jpg""style=""height:400px;""></img>",6,html-button-response,322,1314606,0.0-16.0-13.0,14739,List1B,white,woman,,TRUE,6,,,,,
null,CORRECT,,html-keyboard-response,323,1316116,0.0-16.0-14.0-0.0,14739,List1B,white,woman,,,,null,,,,
2023,"<img src=""portrait/WW1.jpg""style=""height:400px;""></img>",1,html-button-response,324,1318148,0.0-16.0-16.0,14739,List1B,white,woman,,TRUE,1,,,,,
null,CORRECT,,html-keyboard-response,325,1319653,0.0-16.0-17.0-0.0,14739,List1B,white,woman,,,,null,,,,
2400,"<img src=""portrait/BW2.jpg""style=""height:400px;""></img>",2,html-button-response,326,1322060,0.0-16.0-19.0,14739,List1B,white,woman,,TRUE,2,,,,,
null,CORRECT,,html-keyboard-response,327,1323566,0.0-16.0-20.0-0.0,14739,List1B,white,woman,,,,null,,,,
2764,"<img src=""portrait/WM2.jpg""style=""height:400px;""></img>",7,html-button-response,328,1326333,0.0-16.0-22.0,14739,List1B,white,woman,,TRUE,7,,,,,
null,CORRECT,,html-keyboard-response,329,1327838,0.0-16.0-23.0-0.0,14739,List1B,white,woman,,,,null,,,,
1404,<p>You got 8 out of 8 right first time. Press Continue.</p>,0,html-button-response,330,1329247,0.0-16.0-25.0,14739,List1B,white,woman,,,,,,,,
null,"<div style=""font-size:60px;"">+</div>",,html-keyboard-response,331,1330752,0.0-17.0-0.0,14739,List1B,white,woman,,,,null,,,,
null,"<img src=""stim_listB/kiss7.gif""style=""height:400px;""></stim_listB>",,html-keyboard-response,332,1332756,0.0-17.0-1.0,14739,List1B,white,woman,,,,null,,,,
null,is kissing,,html-keyboard-response,333,1334758,0.0-17.0-2.0,14739,List1B,white,woman,,,,null,,,,
11726,,,survey-text,334,1346488,0.0-17.0-3.0,14739,List1B,white,woman,,,,,"{""Q0"":""beth is kissing ruth""}","<img src=""stim_listB/kiss7.gif""style=""height:400px;""></stim_listB>",is kissing,
null,"<div style=""font-size:60px;"">+</div>",,html-keyboard-response,335,1346992,0.0-17.0-0.1,14739,List1B,white,woman,,,,null,,,,
null,"<img src=""stim_listB/kiss5.gif""style=""height:400px;""></stim_listB>",,html-keyboard-response,336,1349000,0.0-17.0-1.1,14739,List1B,white,woman,,,,null,,,,
null,is kissing,,html-keyboard-response,337,1351002,0.0-17.0-2.1,14739,List1B,white,woman,,,,null,,,,
6419,,,survey-text,338,1357424,0.0-17.0-3.1,14739,List1B,white,woman,,,,,"{""Q0"":""fred is kissng luke""}","<img src=""stim_listB/kiss5.gif""style=""height:400px;""></stim_listB>",is kissing,
null,"<div style=""font-size:60px;"">+</div>",,html-keyboard-response,339,1357930,0.0-17.0-0.2,14739,List1B,white,woman,,,,null,,,,
null,"<img src=""stim_listB/argue1.gif""style=""height:400px;""></stim_listB>",,html-keyboard-response,340,1359938,0.0-17.0-1.2,14739,List1B,white,woman,,,,null,,,,
null,is arguing with,,html-keyboard-response,341,1361942,0.0-17.0-2.2,14739,List1B,white,woman,,,,null,,,,
7420,,,survey-text,342,1369367,0.0-17.0-3.2,14739,List1B,white,woman,,,,,"{""Q0"":""beth is arguing with mike""}","<img src=""stim_listB/argue1.gif""style=""height:400px;""></stim_listB>",is arguing with,
null,"<div style=""font-size:60px;"">+</div>",,html-keyboard-response,343,1369872,0.0-17.0-0.3,14739,List1B,white,woman,,,,null,,,,
null,"<img src=""stim_listB/play2.gif""style=""height:400px;""></stim_listB>",,html-keyboard-response,344,1371880,0.0-17.0-1.3,14739,List1B,white,woman,,,,null,,,,
null,are playing with each other,,html-keyboard-response,345,1373883,0.0-17.0-2.3,14739,List1B,white,woman,,,,null,,,,
13686,,,survey-text,346,1387573,0.0-17.0-3.3,14739,List1B,white,woman,,,,,"{""Q0"":""beth and fred are playing each other""}","<img src=""stim_listB/play2.gif""style=""height:400px;""></stim_listB>",are playing with each other,
null,"<div style=""font-size:60px;"">+</div>",,html-keyboard-response,347,1388078,0.0-17.0-0.4,14739,List1B,white,woman,,,,null,,,,
null,"<img src=""stim_listB/marry3.gif""style=""height:400px;""></stim_listB>",,html-keyboard-response,348,1390084,0.0-17.0-1.4,14739,List1B,white,woman,,,,null,,,,
null,is marrying,,html-keyboard-response,349,1392087,0.0-17.0-2.4,14739,List1B,white,woman,,,,null,,,,
19962,,,survey-text,350,1412051,0.0-17.0-3.4,14739,List1B,white,woman,,,,,"{""Q0"":""ruth is marrying dave""}","<img src=""stim_listB/marry3.gif""style=""height:400px;""></stim_listB>",is marrying,
null,"<div style=""font-size:60px;"">+</div>",,html-keyboard-response,351,1412555,0.0-17.0-0.5,14739,List1B,white,woman,,,,null,,,,
null,"<img src=""stim_listB/argue6.gif""style=""height:400px;""></stim_listB>",,html-keyboard-response,352,1414563,0.0-17.0-1.5,14739,List1B,white,woman,,,,null,,,,
null,are arguing with each other,,html-keyboard-response,353,1416566,0.0-17.0-2.5,14739,List1B,white,woman,,,,null,,,,
10691,,,survey-text,354,1427259,0.0-17.0-3.5,14739,List1B,white,woman,,,,,"{""Q0"":""fred and dave are arguing with each other""}","<img src=""stim_listB/argue6.gif""style=""height:400px;""></stim_listB>",are arguing with each other,
null,"<div style=""font-size:60px;"">+</div>",,html-keyboard-response,355,1427762,0.0-17.0-0.6,14739,List1B,white,woman,,,,null,,,,
null,"<img src=""stim_listB/argue3.gif""style=""height:400px;""></stim_listB>",,html-keyboard-response,356,1429767,0.0-17.0-1.6,14739,List1B,white,woman,,,,null,,,,
null,is arguing with,,html-keyboard-response,357,1431769,0.0-17.0-2.6,14739,List1B,white,woman,,,,null,,,,
10753,,,survey-text,358,1442525,0.0-17.0-3.6,14739,List1B,white,woman,,,,,"{""Q0"":""ruth is arging with dave""}","<img src=""stim_listB/argue3.gif""style=""height:400px;""></stim_listB>",is arguing with,
null,"<div style=""font-size:60px;"">+</div>",,html-keyboard-response,359,1443030,0.0-17.0-0.7,14739,List1B,white,woman,,,,null,,,,
null,"<img src=""stim_listB/play4.gif""style=""height:400px;""></stim_listB>",,html-keyboard-response,360,1445035,0.0-17.0-1.7,14739,List1B,white,woman,,,,null,,,,
null,are playing with each other,,html-keyboard-response,361,1447039,0.0-17.0-2.7,14739,List1B,white,woman,,,,null,,,,
11464,,,survey-text,362,1458508,0.0-17.0-3.7,14739,List1B,white,woman,,,,,"{""Q0"":""luke and ruth are playing with each other""}","<img src=""stim_listB/play4.gif""style=""height:400px;""></stim_listB>",are playing with each other,
null,"<div style=""font-size:60px;"">+</div>",,html-keyboard-response,363,1459013,0.0-17.0-0.8,14739,List1B,white,woman,,,,null,,,,
null,"<img src=""stim_listB/marry1.gif""style=""height:400px;""></stim_listB>",,html-keyboard-response,364,1461019,0.0-17.0-1.8,14739,List1B,white,woman,,,,null,,,,
null,is marrying,,html-keyboard-response,365,1463023,0.0-17.0-2.8,14739,List1B,white,woman,,,,null,,,,
6564,,,survey-text,366,1469589,0.0-17.0-3.8,14739,List1B,white,woman,,,,,"{""Q0"":""beth is marrying mike""}","<img src=""stim_listB/marry1.gif""style=""height:400px;""></stim_listB>",is marrying,
null,"<div style=""font-size:60px;"">+</div>",,html-keyboard-response,367,1470092,0.0-17.0-0.9,14739,List1B,white,woman,,,,null,,,,
null,"<img src=""stim_listB/argue2.gif""style=""height:400px;""></stim_listB>",,html-keyboard-response,368,1472097,0.0-17.0-1.9,14739,List1B,white,woman,,,,null,,,,
null,are arguing with each other,,html-keyboard-response,369,1474101,0.0-17.0-2.9,14739,List1B,white,woman,,,,null,,,,
13506,,,survey-text,370,1487612,0.0-17.0-3.9,14739,List1B,white,woman,,,,,"{""Q0"":""fred and kate are arguing with each other""}","<img src=""stim_listB/argue2.gif""style=""height:400px;""></stim_listB>",are arguing with each other,
null,"<div style=""font-size:60px;"">+</div>",,html-keyboard-response,371,1488116,0.0-17.0-0.10,14739,List1B,white,woman,,,,null,,,,
null,"<img src=""stim_listB/play5.gif""style=""height:400px;""></stim_listB>",,html-keyboard-response,372,1490122,0.0-17.0-1.10,14739,List1B,white,woman,,,,null,,,,
null,is playing with,,html-keyboard-response,373,1492125,0.0-17.0-2.10,14739,List1B,white,woman,,,,null,,,,
13334,,,survey-text,374,1505464,0.0-17.0-3.10,14739,List1B,white,woman,,,,,"{""Q0"":""dave is playing with luke""}","<img src=""stim_listB/play5.gif""style=""height:400px;""></stim_listB>",is playing with,
null,"<div style=""font-size:60px;"">+</div>",,html-keyboard-response,375,1505968,0.0-17.0-0.11,14739,List1B,white,woman,,,,null,,,,
null,"<img src=""stim_listB/shout3.gif""style=""height:400px;""></stim_listB>",,html-keyboard-response,376,1507977,0.0-17.0-1.11,14739,List1B,white,woman,,,,null,,,,
null,is shouting at,,html-keyboard-response,377,1509979,0.0-17.0-2.11,14739,List1B,white,woman,,,,null,,,,
10421,,,survey-text,378,1520403,0.0-17.0-3.11,14739,List1B,white,woman,,,,,"{""Q0"":""ruth is shouting at luke""}","<img src=""stim_listB/shout3.gif""style=""height:400px;""></stim_listB>",is shouting at,
null,"<div style=""font-size:60px;"">+</div>",,html-keyboard-response,379,1520906,0.0-17.0-0.12,14739,List1B,white,woman,,,,null,,,,
null,"<img src=""stim_listB/shout4.gif""style=""height:400px;""></stim_listB>",,html-keyboard-response,380,1522916,0.0-17.0-1.12,14739,List1B,white,woman,,,,null,,,,
null,are shouting at each other,,html-keyboard-response,381,1524920,0.0-17.0-2.12,14739,List1B,white,woman,,,,null,,,,
12557,,,survey-text,382,1537484,0.0-17.0-3.12,14739,List1B,white,woman,,,,,"{""Q0"":""mike and jane are shouting at each other""}","<img src=""stim_listB/shout4.gif""style=""height:400px;""></stim_listB>",are shouting at each other,
null,"<div style=""font-size:60px;"">+</div>",,html-keyboard-response,383,1537989,0.0-17.0-0.13,14739,List1B,white,woman,,,,null,,,,
null,"<img src=""stim_listB/talk2.gif""style=""height:400px;""></stim_listB>",,html-keyboard-response,384,1539994,0.0-17.0-1.13,14739,List1B,white,woman,,,,null,,,,
null,are talking to each other,,html-keyboard-response,385,1541997,0.0-17.0-2.13,14739,List1B,white,woman,,,,null,,,,
14126,,,survey-text,386,1556127,0.0-17.0-3.13,14739,List1B,white,woman,,,,,"{""Q0"":""beth and mike are talking to each other""}","<img src=""stim_listB/talk2.gif""style=""height:400px;""></stim_listB>",are talking to each other,
null,"<div style=""font-size:60px;"">+</div>",,html-keyboard-response,387,1556632,0.0-17.0-0.14,14739,List1B,white,woman,,,,null,,,,
null,"<img src=""stim_listB/shout1.gif""style=""height:400px;""></stim_listB>",,html-keyboard-response,388,1558636,0.0-17.0-1.14,14739,List1B,white,woman,,,,null,,,,
null,is shouting at,,html-keyboard-response,389,1560638,0.0-17.0-2.14,14739,List1B,white,woman,,,,null,,,,
7470,,,survey-text,390,1568112,0.0-17.0-3.14,14739,List1B,white,woman,,,,,"{""Q0"":""beth is shouting at fred""}","<img src=""stim_listB/shout1.gif""style=""height:400px;""></stim_listB>",is shouting at,
null,"<div style=""font-size:60px;"">+</div>",,html-keyboard-response,391,1568616,0.0-17.0-0.15,14739,List1B,white,woman,,,,null,,,,
null,"<img src=""stim_listB/dance3.gif""style=""height:400px;""></stim_listB>",,html-keyboard-response,392,1570625,0.0-17.0-1.15,14739,List1B,white,woman,,,,null,,,,
null,is dancing with,,html-keyboard-response,393,1572627,0.0-17.0-2.15,14739,List1B,white,woman,,,,null,,,,
8403,,,survey-text,394,1581032,0.0-17.0-3.15,14739,List1B,white,woman,,,,,"{""Q0"":""luke is dancing with ruth""}","<img src=""stim_listB/dance3.gif""style=""height:400px;""></stim_listB>",is dancing with,
null,"<div style=""font-size:60px;"">+</div>",,html-keyboard-response,395,1581536,0.0-17.0-0.16,14739,List1B,white,woman,,,,null,,,,
null,"<img src=""stim_listB/play7.gif""style=""height:400px;""></stim_listB>",,html-keyboard-response,396,1583539,0.0-17.0-1.16,14739,List1B,white,woman,,,,null,,,,
null,is playing with,,html-keyboard-response,397,1585541,0.0-17.0-2.16,14739,List1B,white,woman,,,,null,,,,
11895,,,survey-text,398,1597440,0.0-17.0-3.16,14739,List1B,white,woman,,,,,"{""Q0"":"" kate is playing with jane""}","<img src=""stim_listB/play7.gif""style=""height:400px;""></stim_listB>",is playing with,
null,"<div style=""font-size:60px;"">+</div>",,html-keyboard-response,399,1597945,0.0-17.0-0.17,14739,List1B,white,woman,,,,null,,,,
null,"<img src=""stim_listB/fight1.gif""style=""height:400px;""></stim_listB>",,html-keyboard-response,400,1599950,0.0-17.0-1.17,14739,List1B,white,woman,,,,null,,,,
null,is fighting,,html-keyboard-response,401,1601953,0.0-17.0-2.17,14739,List1B,white,woman,,,,null,,,,
6394,,,survey-text,402,1608350,0.0-17.0-3.17,14739,List1B,white,woman,,,,,"{""Q0"":""kate is fighting mike""}","<img src=""stim_listB/fight1.gif""style=""height:400px;""></stim_listB>",is fighting,
null,"<div style=""font-size:60px;"">+</div>",,html-keyboard-response,403,1608853,0.0-17.0-0.18,14739,List1B,white,woman,,,,null,,,,
null,"<img src=""stim_listB/argue4.gif""style=""height:400px;""></stim_listB>",,html-keyboard-response,404,1610858,0.0-17.0-1.18,14739,List1B,white,woman,,,,null,,,,
null,are arguing with each other,,html-keyboard-response,405,1612860,0.0-17.0-2.18,14739,List1B,white,woman,,,,null,,,,
10084,,,survey-text,406,1622949,0.0-17.0-3.18,14739,List1B,white,woman,,,,,"{""Q0"":""luke and jane are fighting each other""}","<img src=""stim_listB/argue4.gif""style=""height:400px;""></stim_listB>",are arguing with each other,
null,"<div style=""font-size:60px;"">+</div>",,html-keyboard-response,407,1623454,0.0-17.0-0.19,14739,List1B,white,woman,,,,null,,,,
null,"<img src=""stim_listB/touch3.gif""style=""height:400px;""></stim_listB>",,html-keyboard-response,408,1625462,0.0-17.0-1.19,14739,List1B,white,woman,,,,null,,,,
null,is touching,,html-keyboard-response,409,1627464,0.0-17.0-2.19,14739,List1B,white,woman,,,,null,,,,
10474,,,survey-text,410,1637941,0.0-17.0-3.19,14739,List1B,white,woman,,,,,"{""Q0"":""jane is touching dave""}","<img src=""stim_listB/touch3.gif""style=""height:400px;""></stim_listB>",is touching,
2222,"<img src='img/portrait_matrix_list1.jpg' style='width:900px;height:500px;''></img><p>If you have memorised all the portraits and names and are ready to start, press Continue.</p><p><strong>Please note: Your memory of these faces will be tested 4 times during this experiment.</strong></p>",0,html-button-response,411,1640168,0.0-18.0-0.0,14739,List1B,white,woman,,,,,,,,
2230,"<img src=""portrait/WW1.jpg""style=""height:400px;""></img>",1,html-button-response,412,1643405,0.0-18.0-1.0,14739,List1B,white,woman,,TRUE,1,,,,,
null,CORRECT,,html-keyboard-response,413,1644909,0.0-18.0-2.0-0.0,14739,List1B,white,woman,,,,null,,,,
2886,"<img src=""portrait/BM2.jpg""style=""height:400px;""></img>",5,html-button-response,414,1647801,0.0-18.0-4.0,14739,List1B,white,woman,,TRUE,5,,,,,
null,CORRECT,,html-keyboard-response,415,1649305,0.0-18.0-5.0-0.0,14739,List1B,white,woman,,,,null,,,,
3926,"<img src=""portrait/WM1.jpg""style=""height:400px;""></img>",6,html-button-response,416,1653238,0.0-18.0-7.0,14739,List1B,white,woman,,TRUE,6,,,,,
null,CORRECT,,html-keyboard-response,417,1654742,0.0-18.0-8.0-0.0,14739,List1B,white,woman,,,,null,,,,
1760,"<img src=""portrait/WW2.jpg""style=""height:400px;""></img>",3,html-button-response,418,1656508,0.0-18.0-10.0,14739,List1B,white,woman,,TRUE,3,,,,,
null,CORRECT,,html-keyboard-response,419,1658017,0.0-18.0-11.0-0.0,14739,List1B,white,woman,,,,null,,,,
2574,"<img src=""portrait/WM2.jpg""style=""height:400px;""></img>",7,html-button-response,420,1660602,0.0-18.0-13.0,14739,List1B,white,woman,,TRUE,7,,,,,
null,CORRECT,,html-keyboard-response,421,1662105,0.0-18.0-14.0-0.0,14739,List1B,white,woman,,,,null,,,,
2188,"<img src=""portrait/BW1.jpg""style=""height:400px;""></img>",0,html-button-response,422,1664297,0.0-18.0-16.0,14739,List1B,white,woman,,TRUE,0,,,,,
null,CORRECT,,html-keyboard-response,423,1665803,0.0-18.0-17.0-0.0,14739,List1B,white,woman,,,,null,,,,
2089,"<img src=""portrait/BM1.jpg""style=""height:400px;""></img>",4,html-button-response,424,1667897,0.0-18.0-19.0,14739,List1B,white,woman,,TRUE,4,,,,,
null,CORRECT,,html-keyboard-response,425,1669404,0.0-18.0-20.0-0.0,14739,List1B,white,woman,,,,null,,,,
1051,"<img src=""portrait/BW2.jpg""style=""height:400px;""></img>",4,html-button-response,426,1670466,0.0-18.0-22.0,14739,List1B,white,woman,,TRUE,2,,,,,
2248,"<img src=""portrait/BW2.jpg""style=""height:400px;""></img>",2,html-button-response,427,1673721,0.0-18.0-24.0-0.0,14739,List1B,white,woman,,FALSE,2,,,,,
null,CORRECT,,html-keyboard-response,428,1675231,0.0-18.0-24.0-1.0-0.0,14739,List1B,white,woman,,,,null,,,,
1548,<p>You got 7 out of 8 right first time. Press Continue.</p>,0,html-button-response,429,1676786,0.0-18.0-25.0,14739,List1B,white,woman,,,,,,,,
1396,"As you did not score 100%, the memory game will repeat. Press Continue.",0,html-button-response,430,1679188,0.0-18.0-26.0-0.0,14739,List1B,white,woman,,,,,,,,
1519,"<img src='img/portrait_matrix_list1.jpg' style='width:900px;height:500px;''></img><p>If you have memorised all the portraits and names and are ready to start, press Continue.</p><p><strong>Please note: Your memory of these faces will be tested 4 times during this experiment.</strong></p>",0,html-button-response,431,1681719,0.0-18.1-0.1,14739,List1B,white,woman,,,,,,,,
2710,"<img src=""portrait/WW1.jpg""style=""height:400px;""></img>",1,html-button-response,432,1685441,0.0-18.1-1.1,14739,List1B,white,woman,,TRUE,1,,,,,
null,CORRECT,,html-keyboard-response,433,1686946,0.0-18.1-2.1-0.1,14739,List1B,white,woman,,,,null,,,,
2877,"<img src=""portrait/BM2.jpg""style=""height:400px;""></img>",5,html-button-response,434,1689831,0.0-18.1-4.1,14739,List1B,white,woman,,TRUE,5,,,,,
null,CORRECT,,html-keyboard-response,435,1691335,0.0-18.1-5.1-0.1,14739,List1B,white,woman,,,,null,,,,
2434,"<img src=""portrait/WM1.jpg""style=""height:400px;""></img>",6,html-button-response,436,1693781,0.0-18.1-7.1,14739,List1B,white,woman,,TRUE,6,,,,,
null,CORRECT,,html-keyboard-response,437,1695289,0.0-18.1-8.1-0.1,14739,List1B,white,woman,,,,null,,,,
1767,"<img src=""portrait/WW2.jpg""style=""height:400px;""></img>",3,html-button-response,438,1697067,0.0-18.1-10.1,14739,List1B,white,woman,,TRUE,3,,,,,
null,CORRECT,,html-keyboard-response,439,1698573,0.0-18.1-11.1-0.1,14739,List1B,white,woman,,,,null,,,,
4193,"<img src=""portrait/WM2.jpg""style=""height:400px;""></img>",7,html-button-response,440,1702777,0.0-18.1-13.1,14739,List1B,white,woman,,TRUE,7,,,,,
null,CORRECT,,html-keyboard-response,441,1704281,0.0-18.1-14.1-0.1,14739,List1B,white,woman,,,,null,,,,
4185,"<img src=""portrait/BW1.jpg""style=""height:400px;""></img>",0,html-button-response,442,1708471,0.0-18.1-16.1,14739,List1B,white,woman,,TRUE,0,,,,,
null,CORRECT,,html-keyboard-response,443,1709974,0.0-18.1-17.1-0.1,14739,List1B,white,woman,,,,null,,,,
2760,"<img src=""portrait/BM1.jpg""style=""height:400px;""></img>",4,html-button-response,444,1712743,0.0-18.1-19.1,14739,List1B,white,woman,,TRUE,4,,,,,
null,CORRECT,,html-keyboard-response,445,1714246,0.0-18.1-20.1-0.1,14739,List1B,white,woman,,,,null,,,,
2235,"<img src=""portrait/BW2.jpg""style=""height:400px;""></img>",2,html-button-response,446,1716487,0.0-18.1-22.1,14739,List1B,white,woman,,TRUE,2,,,,,
null,CORRECT,,html-keyboard-response,447,1717992,0.0-18.1-23.1-0.1,14739,List1B,white,woman,,,,null,,,,
2179,<p>You got 8 out of 8 right first time. Press Continue.</p>,0,html-button-response,448,1720179,0.0-18.1-25.1,14739,List1B,white,woman,,,,,,,,
null,"<div style=""font-size:60px;"">+</div>",,html-keyboard-response,449,1721689,0.0-19.0-0.0,14739,List1B,white,woman,,,,null,,,,
null,"<img src=""stim_listB/play3.gif""style=""height:400px;""></stim_listB>",,html-keyboard-response,450,1723694,0.0-19.0-1.0,14739,List1B,white,woman,,,,null,,,,
null,is playing with,,html-keyboard-response,451,1725697,0.0-19.0-2.0,14739,List1B,white,woman,,,,null,,,,
16676,,,survey-text,452,1742376,0.0-19.0-3.0,14739,List1B,white,woman,,,,,"{""Q0"":""dave is playing with jane""}","<img src=""stim_listB/play3.gif""style=""height:400px;""></stim_listB>",is playing with,
null,"<div style=""font-size:60px;"">+</div>",,html-keyboard-response,453,1742878,0.0-19.0-0.1,14739,List1B,white,woman,,,,null,,,,
null,"<img src=""stim_listB/flirt4.gif""style=""height:400px;""></stim_listB>",,html-keyboard-response,454,1744882,0.0-19.0-1.1,14739,List1B,white,woman,,,,null,,,,
null,are flirting with each other,,html-keyboard-response,455,1746885,0.0-19.0-2.1,14739,List1B,white,woman,,,,null,,,,
10357,,,survey-text,456,1757246,0.0-19.0-3.1,14739,List1B,white,woman,,,,,"{""Q0"":""ruth and dave are flirting woth each other""}","<img src=""stim_listB/flirt4.gif""style=""height:400px;""></stim_listB>",are flirting with each other,
null,"<div style=""font-size:60px;"">+</div>",,html-keyboard-response,457,1757750,0.0-19.0-0.2,14739,List1B,white,woman,,,,null,,,,
null,"<img src=""stim_listB/touch4.gif""style=""height:400px;""></stim_listB>",,html-keyboard-response,458,1759759,0.0-19.0-1.2,14739,List1B,white,woman,,,,null,,,,
null,are touching each other,,html-keyboard-response,459,1761761,0.0-19.0-2.2,14739,List1B,white,woman,,,,null,,,,
9871,,,survey-text,460,1771636,0.0-19.0-3.2,14739,List1B,white,woman,,,,,"{""Q0"":""luke and ruth are touching each other""}","<img src=""stim_listB/touch4.gif""style=""height:400px;""></stim_listB>",are touching each other,
null,"<div style=""font-size:60px;"">+</div>",,html-keyboard-response,461,1772140,0.0-19.0-0.3,14739,List1B,white,woman,,,,null,,,,
null,"<img src=""stim_listB/argue8.gif""style=""height:400px;""></stim_listB>",,html-keyboard-response,462,1774145,0.0-19.0-1.3,14739,List1B,white,woman,,,,null,,,,
null,are arguing with each other,,html-keyboard-response,463,1776147,0.0-19.0-2.3,14739,List1B,white,woman,,,,null,,,,
11048,,,survey-text,464,1787199,0.0-19.0-3.3,14739,List1B,white,woman,,,,,"{""Q0"":""beth and jane are arguing with each other""}","<img src=""stim_listB/argue8.gif""style=""height:400px;""></stim_listB>",are arguing with each other,
null,"<div style=""font-size:60px;"">+</div>",,html-keyboard-response,465,1787704,0.0-19.0-0.4,14739,List1B,white,woman,,,,null,,,,
null,"<img src=""stim_listB/touch7.gif""style=""height:400px;""></stim_listB>",,html-keyboard-response,466,1789709,0.0-19.0-1.4,14739,List1B,white,woman,,,,null,,,,
null,is touching,,html-keyboard-response,467,1791711,0.0-19.0-2.4,14739,List1B,white,woman,,,,null,,,,
6242,,,survey-text,468,1797957,0.0-19.0-3.4,14739,List1B,white,woman,,,,,"{""Q0"":""kate is touching jane""}","<img src=""stim_listB/touch7.gif""style=""height:400px;""></stim_listB>",is touching,
null,"<div style=""font-size:60px;"">+</div>",,html-keyboard-response,469,1798462,0.0-19.0-0.5,14739,List1B,white,woman,,,,null,,,,
null,"<img src=""stim_listB/talk1.gif""style=""height:400px;""></stim_listB>",,html-keyboard-response,470,1800466,0.0-19.0-1.5,14739,List1B,white,woman,,,,null,,,,
null,is talking to,,html-keyboard-response,471,1802470,0.0-19.0-2.5,14739,List1B,white,woman,,,,null,,,,
7008,,,survey-text,472,1809480,0.0-19.0-3.5,14739,List1B,white,woman,,,,,"{""Q0"":""kate is taking to fred""}","<img src=""stim_listB/talk1.gif""style=""height:400px;""></stim_listB>",is talking to,
null,"<div style=""font-size:60px;"">+</div>",,html-keyboard-response,473,1809983,0.0-19.0-0.6,14739,List1B,white,woman,,,,null,,,,
null,"<img src=""stim_listB/fight6.gif""style=""height:400px;""></stim_listB>",,html-keyboard-response,474,1811991,0.0-19.0-1.6,14739,List1B,white,woman,,,,null,,,,
null,are fighting each other,,html-keyboard-response,475,1813994,0.0-19.0-2.6,14739,List1B,white,woman,,,,null,,,,
9823,,,survey-text,476,1823820,0.0-19.0-3.6,14739,List1B,white,woman,,,,,"{""Q0"":""fred and luke are fighting each other""}","<img src=""stim_listB/fight6.gif""style=""height:400px;""></stim_listB>",are fighting each other,
null,"<div style=""font-size:60px;"">+</div>",,html-keyboard-response,477,1824324,0.0-19.0-0.7,14739,List1B,white,woman,,,,null,,,,
null,"<img src=""stim_listB/marry8.gif""style=""height:400px;""></stim_listB>",,html-keyboard-response,478,1826328,0.0-19.0-1.7,14739,List1B,white,woman,,,,null,,,,
null,are marrying each other,,html-keyboard-response,479,1828331,0.0-19.0-2.7,14739,List1B,white,woman,,,,null,,,,
9581,,,survey-text,480,1837915,0.0-19.0-3.7,14739,List1B,white,woman,,,,,"{""Q0"":""beth and jame are marrying each other""}","<img src=""stim_listB/marry8.gif""style=""height:400px;""></stim_listB>",are marrying each other,
null,"<div style=""font-size:60px;"">+</div>",,html-keyboard-response,481,1838419,0.0-19.0-0.8,14739,List1B,white,woman,,,,null,,,,
null,"<img src=""stim_listB/shout6.gif""style=""height:400px;""></stim_listB>",,html-keyboard-response,482,1840423,0.0-19.0-1.8,14739,List1B,white,woman,,,,null,,,,
null,are shouting at each other,,html-keyboard-response,483,1842426,0.0-19.0-2.8,14739,List1B,white,woman,,,,null,,,,
12805,,,survey-text,484,1855233,0.0-19.0-3.8,14739,List1B,white,woman,,,,,"{""Q0"":""mike and dave are shouting at each other""}","<img src=""stim_listB/shout6.gif""style=""height:400px;""></stim_listB>",are shouting at each other,
null,"<div style=""font-size:60px;"">+</div>",,html-keyboard-response,485,1855738,0.0-19.0-0.9,14739,List1B,white,woman,,,,null,,,,
null,"<img src=""stim_listB/touch1.gif""style=""height:400px;""></stim_listB>",,html-keyboard-response,486,1857743,0.0-19.0-1.9,14739,List1B,white,woman,,,,null,,,,
null,is touching,,html-keyboard-response,487,1859747,0.0-19.0-2.9,14739,List1B,white,woman,,,,null,,,,
7574,,,survey-text,488,1867324,0.0-19.0-3.9,14739,List1B,white,woman,,,,,"{""Q0"":""mike is touching kate""}","<img src=""stim_listB/touch1.gif""style=""height:400px;""></stim_listB>",is touching,
null,"<div style=""font-size:60px;"">+</div>",,html-keyboard-response,489,1867827,0.0-19.0-0.10,14739,List1B,white,woman,,,,null,,,,
null,"<img src=""stim_listB/fight3.gif""style=""height:400px;""></stim_listB>",,html-keyboard-response,490,1869832,0.0-19.0-1.10,14739,List1B,white,woman,,,,null,,,,
null,is fighting,,html-keyboard-response,491,1871835,0.0-19.0-2.10,14739,List1B,white,woman,,,,null,,,,
10286,,,survey-text,492,1882125,0.0-19.0-3.10,14739,List1B,white,woman,,,,,"{""Q0"":""jane is fighting mike""}","<img src=""stim_listB/fight3.gif""style=""height:400px;""></stim_listB>",is fighting,
null,"<div style=""font-size:60px;"">+</div>",,html-keyboard-response,493,1882628,0.0-19.0-0.11,14739,List1B,white,woman,,,,null,,,,
null,"<img src=""stim_listB/flirt2.gif""style=""height:400px;""></stim_listB>",,html-keyboard-response,494,1884633,0.0-19.0-1.11,14739,List1B,white,woman,,,,null,,,,
null,are flirting with each other,,html-keyboard-response,495,1886635,0.0-19.0-2.11,14739,List1B,white,woman,,,,null,,,,
16698,,,survey-text,496,1903337,0.0-19.0-3.11,14739,List1B,white,woman,,,,,"{""Q0"":""beth and mike are flirting with each other""}","<img src=""stim_listB/flirt2.gif""style=""height:400px;""></stim_listB>",are flirting with each other,
null,"<div style=""font-size:60px;"">+</div>",,html-keyboard-response,497,1903841,0.0-19.0-0.12,14739,List1B,white,woman,,,,null,,,,
null,"<img src=""stim_listB/shout8.gif""style=""height:400px;""></stim_listB>",,html-keyboard-response,498,1905846,0.0-19.0-1.12,14739,List1B,white,woman,,,,null,,,,
null,are shouting at each other,,html-keyboard-response,499,1907848,0.0-19.0-2.12,14739,List1B,white,woman,,,,null,,,,
10483,,,survey-text,500,1918333,0.0-19.0-3.12,14739,List1B,white,woman,,,,,"{""Q0"":""kate and jane are shouting at each other""}","<img src=""stim_listB/shout8.gif""style=""height:400px;""></stim_listB>",are shouting at each other,
null,"<div style=""font-size:60px;"">+</div>",,html-keyboard-response,501,1918836,0.0-19.0-0.13,14739,List1B,white,woman,,,,null,,,,
null,"<img src=""stim_listB/flirt1.gif""style=""height:400px;""></stim_listB>",,html-keyboard-response,502,1920839,0.0-19.0-1.13,14739,List1B,white,woman,,,,null,,,,
null,is flirting with,,html-keyboard-response,503,1922841,0.0-19.0-2.13,14739,List1B,white,woman,,,,null,,,,
9900,,,survey-text,504,1932743,0.0-19.0-3.13,14739,List1B,white,woman,,,,,"{""Q0"":""kate is flirting with fred""}","<img src=""stim_listB/flirt1.gif""style=""height:400px;""></stim_listB>",is flirting with,
null,"<div style=""font-size:60px;"">+</div>",,html-keyboard-response,505,1933246,0.0-19.0-0.14,14739,List1B,white,woman,,,,null,,,,
null,"<img src=""stim_listB/shout5.gif""style=""height:400px;""></stim_listB>",,html-keyboard-response,506,1935251,0.0-19.0-1.14,14739,List1B,white,woman,,,,null,,,,
null,is shouting at,,html-keyboard-response,507,1937254,0.0-19.0-2.14,14739,List1B,white,woman,,,,null,,,,
7044,,,survey-text,508,1944300,0.0-19.0-3.14,14739,List1B,white,woman,,,,,"{""Q0"":""luke is shouting at fred""}","<img src=""stim_listB/shout5.gif""style=""height:400px;""></stim_listB>",is shouting at,
null,"<div style=""font-size:60px;"">+</div>",,html-keyboard-response,509,1944804,0.0-19.0-0.15,14739,List1B,white,woman,,,,null,,,,
null,"<img src=""stim_listB/dance4.gif""style=""height:400px;""></stim_listB>",,html-keyboard-response,510,1946814,0.0-19.0-1.15,14739,List1B,white,woman,,,,null,,,,
null,are dancing with each other,,html-keyboard-response,511,1948817,0.0-19.0-2.15,14739,List1B,white,woman,,,,null,,,,
14899,,,survey-text,512,1963720,0.0-19.0-3.15,14739,List1B,white,woman,,,,,"{""Q0"":""dave and ruth are dancing with each other""}","<img src=""stim_listB/dance4.gif""style=""height:400px;""></stim_listB>",are dancing with each other,
null,"<div style=""font-size:60px;"">+</div>",,html-keyboard-response,513,1964222,0.0-19.0-0.16,14739,List1B,white,woman,,,,null,,,,
null,"<img src=""stim_listB/flirt5.gif""style=""height:400px;""></stim_listB>",,html-keyboard-response,514,1966228,0.0-19.0-1.16,14739,List1B,white,woman,,,,null,,,,
null,is flirting with,,html-keyboard-response,515,1968238,0.0-19.0-2.16,14739,List1B,white,woman,,,,null,,,,
12789,,,survey-text,516,1981029,0.0-19.0-3.16,14739,List1B,white,woman,,,,,"{""Q0"":""fred is flrting with dave""}","<img src=""stim_listB/flirt5.gif""style=""height:400px;""></stim_listB>",is flirting with,
null,"<div style=""font-size:60px;"">+</div>",,html-keyboard-response,517,1981533,0.0-19.0-0.17,14739,List1B,white,woman,,,,null,,,,
null,"<img src=""stim_listB/dance7.gif""style=""height:400px;""></stim_listB>",,html-keyboard-response,518,1983544,0.0-19.0-1.17,14739,List1B,white,woman,,,,null,,,,
null,is dancing with,,html-keyboard-response,519,1985548,0.0-19.0-2.17,14739,List1B,white,woman,,,,null,,,,
5725,,,survey-text,520,1991276,0.0-19.0-3.17,14739,List1B,white,woman,,,,,"{""Q0"":""beth is dancing with jane""}","<img src=""stim_listB/dance7.gif""style=""height:400px;""></stim_listB>",is dancing with,
null,"<div style=""font-size:60px;"">+</div>",,html-keyboard-response,521,1991780,0.0-19.0-0.18,14739,List1B,white,woman,,,,null,,,,
null,"<img src=""stim_listB/talk6.gif""style=""height:400px;""></stim_listB>",,html-keyboard-response,522,1993788,0.0-19.0-1.18,14739,List1B,white,woman,,,,null,,,,
null,are talking to each other,,html-keyboard-response,523,1995793,0.0-19.0-2.18,14739,List1B,white,woman,,,,null,,,,
12831,,,survey-text,524,2008626,0.0-19.0-3.18,14739,List1B,white,woman,,,,,"{""Q0"":""mike and luke are talkig to each other""}","<img src=""stim_listB/talk6.gif""style=""height:400px;""></stim_listB>",are talking to each other,
null,"<div style=""font-size:60px;"">+</div>",,html-keyboard-response,525,2009129,0.0-19.0-0.19,14739,List1B,white,woman,,,,null,,,,
null,"<img src=""stim_listB/marry7.gif""style=""height:400px;""></stim_listB>",,html-keyboard-response,526,2011134,0.0-19.0-1.19,14739,List1B,white,woman,,,,null,,,,
null,is marrying,,html-keyboard-response,527,2013136,0.0-19.0-2.19,14739,List1B,white,woman,,,,null,,,,
6884,,,survey-text,528,2020023,0.0-19.0-3.19,14739,List1B,white,woman,,,,,"{""Q0"":""ruth is marrying kate""}","<img src=""stim_listB/marry7.gif""style=""height:400px;""></stim_listB>",is marrying,
1982,<p>Thank you for completing that task.</p><p>The final part of this session is a short questionnaire.</p><p>Press Continue.</p>,0,html-button-response,529,2022010,0.0-20.0,14739,List1B,white,woman,,,,,,,,
26493,,,survey-text,530,2049512,0.0-21.0,14739,List1B,white,woman,,,,,"{""Q0"":""43"",""Q1"":""english"",""Q2"":""english"",""Q3"":""england"",""Q4"":""british"",""Q5"":""female""}",,,demographics
5887,,,survey-likert,531,2055415,0.0-22.0,14739,List1B,white,woman,,,,,"{""Q0"":4}",,,likert_ESS
4473,,,survey-likert,532,2059893,0.0-23.0,14739,List1B,white,woman,,,,,"{""Q0"":4}",,,likert_NSSAL_Q1
2813,,,survey-likert,533,2062712,0.0-24.0,14739,List1B,white,woman,,,,,"{""Q0"":4}",,,likert_NSSAL_Q2
3370,,,survey-likert,534,2066086,0.0-25.0,14739,List1B,white,woman,,,,,"{""Q0"":4}",,,likert_CGRS_Q1
2754,,,survey-likert,535,2068846,0.0-26.0,14739,List1B,white,woman,,,,,"{""Q0"":4}",,,likert_CGRS_Q2
3934,,,survey-likert,536,2072787,0.0-27.0,14739,List1B,white,woman,,,,,"{""Q0"":4}",,,likert_CGRS_Q3
5435,,,survey-text,537,2078226,0.0-28.0,14739,List1B,white,woman,,,,,"{""Q0"":""ccc""}",,,worker_id
2441,,,external-html,538,2080755,0.0-29.0,14739,List1B,white,woman,debrief.html,,,,,,,
