rt,stimulus,button_pressed,trial_type,trial_index,time_elapsed,internal_node_id,subject,list,ppt_race,ppt_gender,url,first_guess,correct,key_press,responses,image_type,phrase_type,test_part
1770,Welcome to the experiment. Press Continue to begin.,0,html-button-response,0,1772,0.0-0.0,14790,List1B,black,man,,,,,,,,
49812,,,external-html,1,52958,0.0-1.0,14790,List1B,black,man,consent.html,,,,,,,
5482,"<p>On the next page, you will see portraits of 8 people and their names.</p><p>Your first task is to take a few minutes to memorise the names of these people.</p><p>You will have to recall their names during the rest of the experiment, so it is</p><p>essential that you try to memorise these people and their names as best as you can.</p><br><p><strong>You will then be tested on your memory of these names and portraits.</strong></p><br><p>The experiment will start after you have completed this memory test.</p><br><p>Ready?</p>",0,html-button-response,2,58442,0.0-2.0,14790,List1B,black,man,,,,,,,,
142921,"<img src='img/portrait_matrix_list1.jpg' style='width:900px;height:500px;''></img><p>If you have memorised all the portraits and names and are ready to start, press Continue.</p><p><strong>Please note: Your memory of these faces will be tested 4 times during this experiment.</strong></p>",0,html-button-response,3,202367,0.0-3.0-0.0,14790,List1B,black,man,,,,,,,,
4375,"<img src=""portrait/WW2.jpg""style=""height:400px;""></img>",3,html-button-response,4,207744,0.0-3.0-1.0,14790,List1B,black,man,,TRUE,3,,,,,
null,CORRECT,,html-keyboard-response,5,209247,0.0-3.0-2.0-0.0,14790,List1B,black,man,,,,null,,,,
13073,"<img src=""portrait/WW1.jpg""style=""height:400px;""></img>",0,html-button-response,6,222322,0.0-3.0-4.0,14790,List1B,black,man,,TRUE,1,,,,,
2931,"<img src=""portrait/WW1.jpg""style=""height:400px;""></img>",1,html-button-response,7,226256,0.0-3.0-6.0-0.0,14790,List1B,black,man,,FALSE,1,,,,,
null,CORRECT,,html-keyboard-response,8,227759,0.0-3.0-6.0-1.0-0.0,14790,List1B,black,man,,,,null,,,,
10075,"<img src=""portrait/BW2.jpg""style=""height:400px;""></img>",2,html-button-response,9,237836,0.0-3.0-7.0,14790,List1B,black,man,,TRUE,2,,,,,
null,CORRECT,,html-keyboard-response,10,239337,0.0-3.0-8.0-0.0,14790,List1B,black,man,,,,null,,,,
3073,"<img src=""portrait/WM1.jpg""style=""height:400px;""></img>",6,html-button-response,11,242412,0.0-3.0-10.0,14790,List1B,black,man,,TRUE,6,,,,,
null,CORRECT,,html-keyboard-response,12,243913,0.0-3.0-11.0-0.0,14790,List1B,black,man,,,,null,,,,
2921,"<img src=""portrait/BM2.jpg""style=""height:400px;""></img>",5,html-button-response,13,246836,0.0-3.0-13.0,14790,List1B,black,man,,TRUE,5,,,,,
null,CORRECT,,html-keyboard-response,14,248339,0.0-3.0-14.0-0.0,14790,List1B,black,man,,,,null,,,,
2108,"<img src=""portrait/WM2.jpg""style=""height:400px;""></img>",7,html-button-response,15,250448,0.0-3.0-16.0,14790,List1B,black,man,,TRUE,7,,,,,
null,CORRECT,,html-keyboard-response,16,251951,0.0-3.0-17.0-0.0,14790,List1B,black,man,,,,null,,,,
2339,"<img src=""portrait/BM1.jpg""style=""height:400px;""></img>",4,html-button-response,17,254292,0.0-3.0-19.0,14790,List1B,black,man,,TRUE,4,,,,,
null,CORRECT,,html-keyboard-response,18,255794,0.0-3.0-20.0-0.0,14790,List1B,black,man,,,,null,,,,
3401,"<img src=""portrait/BW1.jpg""style=""height:400px;""></img>",0,html-button-response,19,259196,0.0-3.0-22.0,14790,List1B,black,man,,TRUE,0,,,,,
null,CORRECT,,html-keyboard-response,20,260699,0.0-3.0-23.0-0.0,14790,List1B,black,man,,,,null,,,,
1829,<p>You got 7 out of 8 right first time. Press Continue.</p>,0,html-button-response,21,262529,0.0-3.0-25.0,14790,List1B,black,man,,,,,,,,
3045,"As you did not score 100%, the memory game will repeat. Press Continue.",0,html-button-response,22,266575,0.0-3.0-26.0-0.0,14790,List1B,black,man,,,,,,,,
6090,"<img src='img/portrait_matrix_list1.jpg' style='width:900px;height:500px;''></img><p>If you have memorised all the portraits and names and are ready to start, press Continue.</p><p><strong>Please note: Your memory of these faces will be tested 4 times during this experiment.</strong></p>",0,html-button-response,23,273668,0.0-3.1-0.1,14790,List1B,black,man,,,,,,,,
2292,"<img src=""portrait/WW2.jpg""style=""height:400px;""></img>",3,html-button-response,24,276962,0.0-3.1-1.1,14790,List1B,black,man,,TRUE,3,,,,,
null,CORRECT,,html-keyboard-response,25,278465,0.0-3.1-2.1-0.1,14790,List1B,black,man,,,,null,,,,
7024,"<img src=""portrait/WW1.jpg""style=""height:400px;""></img>",1,html-button-response,26,285490,0.0-3.1-4.1,14790,List1B,black,man,,TRUE,1,,,,,
null,CORRECT,,html-keyboard-response,27,286994,0.0-3.1-5.1-0.1,14790,List1B,black,man,,,,null,,,,
4235,"<img src=""portrait/BW2.jpg""style=""height:400px;""></img>",2,html-button-response,28,291229,0.0-3.1-7.1,14790,List1B,black,man,,TRUE,2,,,,,
null,CORRECT,,html-keyboard-response,29,292732,0.0-3.1-8.1-0.1,14790,List1B,black,man,,,,null,,,,
1714,"<img src=""portrait/WM1.jpg""style=""height:400px;""></img>",6,html-button-response,30,294448,0.0-3.1-10.1,14790,List1B,black,man,,TRUE,6,,,,,
null,CORRECT,,html-keyboard-response,31,295950,0.0-3.1-11.1-0.1,14790,List1B,black,man,,,,null,,,,
1054,"<img src=""portrait/BM2.jpg""style=""height:400px;""></img>",5,html-button-response,32,297006,0.0-3.1-13.1,14790,List1B,black,man,,TRUE,5,,,,,
null,CORRECT,,html-keyboard-response,33,298509,0.0-3.1-14.1-0.1,14790,List1B,black,man,,,,null,,,,
1119,"<img src=""portrait/WM2.jpg""style=""height:400px;""></img>",7,html-button-response,34,299630,0.0-3.1-16.1,14790,List1B,black,man,,TRUE,7,,,,,
null,CORRECT,,html-keyboard-response,35,301132,0.0-3.1-17.1-0.1,14790,List1B,black,man,,,,null,,,,
2554,"<img src=""portrait/BM1.jpg""style=""height:400px;""></img>",4,html-button-response,36,303688,0.0-3.1-19.1,14790,List1B,black,man,,TRUE,4,,,,,
null,CORRECT,,html-keyboard-response,37,305190,0.0-3.1-20.1-0.1,14790,List1B,black,man,,,,null,,,,
1294,"<img src=""portrait/BW1.jpg""style=""height:400px;""></img>",0,html-button-response,38,306486,0.0-3.1-22.1,14790,List1B,black,man,,TRUE,0,,,,,
null,CORRECT,,html-keyboard-response,39,307987,0.0-3.1-23.1-0.1,14790,List1B,black,man,,,,null,,,,
1109,<p>You got 8 out of 8 right first time. Press Continue.</p>,0,html-button-response,40,309097,0.0-3.1-25.1,14790,List1B,black,man,,,,,,,,
74965,"<p>In this experiment, you will view photographs of the people from the memory game interacting.</p><p>By using the <strong>exact</strong> phrase given <i>after</i> the photograph appears and recalling the correct names of the people in the photographs, form a sentence describing the interaction. You do not need to capitalise names.</p><p>Type your answer in the space provided. Please complete every sentence before moving onto the next trial.</p><p>You will only have a few seconds to memorise each given photograph and phrase before you can respond, so try your best to focus.</p><p>An example is given below. Press 'Continue' when you are ready.</p><img src='img/speaking_example.jpg' style='width:800px;height:460px;''></img>",0,html-button-response,41,385063,0.0-4.0,14790,List1B,black,man,,,,,,,,
1998,"<p>Before the experiment starts, you will watch two example trials. Press 'Continue'.</p>",0,html-button-response,42,388063,0.0-5.0,14790,List1B,black,man,,,,,,,,
null,<img src='img/meet_eg.gif' style='height:400px;''></img>,,html-keyboard-response,43,391067,0.0-6.0,14790,List1B,black,man,,,,null,,,,
null,<p>is meeting</p>,,html-keyboard-response,44,393068,0.0-7.0,14790,List1B,black,man,,,,null,,,,
4852,<p><b>Answer:</b> kate is meeting beth</p>,0,html-button-response,45,397921,0.0-8.0,14790,List1B,black,man,,,,,,,,
null,<img src='img/look_eg.gif' style='height:400px;''></img>,,html-keyboard-response,46,400926,0.0-9.0,14790,List1B,black,man,,,,null,,,,
null,<p>are looking at each other</p>,,html-keyboard-response,47,402928,0.0-10.0,14790,List1B,black,man,,,,null,,,,
2529,<p><b>Answer:</b> luke and dave are looking at each other</p>,0,html-button-response,48,405457,0.0-11.0,14790,List1B,black,man,,,,,,,,
10048,"<p>Ready to start the experiment?</p><br><p><strong>Remember to describe the picture using a full sentence,</strong></p><p><strong>that combines the names of the people with the <i>exact</i> phrase given.</strong></p><p><strong>To receive full payment you must do this correctly.</strong></p><p><strong> You do not need to capitalise names or use punctuation.</strong></p><br><p>Press 'Continue' to begin.</p>",0,html-button-response,49,416507,0.0-12.0,14790,List1B,black,man,,,,,,,,
null,"<div style=""font-size:60px;"">+</div>",,html-keyboard-response,50,418010,0.0-13.0-0.0,14790,List1B,black,man,,,,null,,,,
null,"<img src=""stim_listB/shout2.gif""style=""height:400px;""></stim_listB>",,html-keyboard-response,51,420013,0.0-13.0-1.0,14790,List1B,black,man,,,,null,,,,
null,are shouting at each other,,html-keyboard-response,52,422014,0.0-13.0-2.0,14790,List1B,black,man,,,,null,,,,
10250,,,survey-text,53,432265,0.0-13.0-3.0,14790,List1B,black,man,,,,,"{""Q0"":""mike and kate are shouting at each other""}","<img src=""stim_listB/shout2.gif""style=""height:400px;""></stim_listB>",are shouting at each other,
null,"<div style=""font-size:60px;"">+</div>",,html-keyboard-response,54,432767,0.0-13.0-0.1,14790,List1B,black,man,,,,null,,,,
null,"<img src=""stim_listB/marry2.gif""style=""height:400px;""></stim_listB>",,html-keyboard-response,55,434768,0.0-13.0-1.1,14790,List1B,black,man,,,,null,,,,
null,are marrying each other,,html-keyboard-response,56,436771,0.0-13.0-2.1,14790,List1B,black,man,,,,null,,,,
9654,,,survey-text,57,446425,0.0-13.0-3.1,14790,List1B,black,man,,,,,"{""Q0"":""fred and kate are marrying each other""}","<img src=""stim_listB/marry2.gif""style=""height:400px;""></stim_listB>",are marrying each other,
null,"<div style=""font-size:60px;"">+</div>",,html-keyboard-response,58,446927,0.0-13.0-0.2,14790,List1B,black,man,,,,null,,,,
null,"<img src=""stim_listB/flirt7.gif""style=""height:400px;""></stim_listB>",,html-keyboard-response,59,448931,0.0-13.0-1.2,14790,List1B,black,man,,,,null,,,,
null,is flirting with,,html-keyboard-response,60,450932,0.0-13.0-2.2,14790,List1B,black,man,,,,null,,,,
21361,,,survey-text,61,472293,0.0-13.0-3.2,14790,List1B,black,man,,,,,"{""Q0"":""jane is flirting with beth""}","<img src=""stim_listB/flirt7.gif""style=""height:400px;""></stim_listB>",is flirting with,
null,"<div style=""font-size:60px;"">+</div>",,html-keyboard-response,62,472795,0.0-13.0-0.3,14790,List1B,black,man,,,,null,,,,
null,"<img src=""stim_listB/talk2.gif""style=""height:400px;""></stim_listB>",,html-keyboard-response,63,474797,0.0-13.0-1.3,14790,List1B,black,man,,,,null,,,,
null,are talking to each other,,html-keyboard-response,64,476799,0.0-13.0-2.3,14790,List1B,black,man,,,,null,,,,
19109,,,survey-text,65,495909,0.0-13.0-3.3,14790,List1B,black,man,,,,,"{""Q0"":""mike and beth are talking to each other""}","<img src=""stim_listB/talk2.gif""style=""height:400px;""></stim_listB>",are talking to each other,
null,"<div style=""font-size:60px;"">+</div>",,html-keyboard-response,66,496410,0.0-13.0-0.4,14790,List1B,black,man,,,,null,,,,
null,"<img src=""stim_listB/shout5.gif""style=""height:400px;""></stim_listB>",,html-keyboard-response,67,498412,0.0-13.0-1.4,14790,List1B,black,man,,,,null,,,,
null,is shouting at,,html-keyboard-response,68,500413,0.0-13.0-2.4,14790,List1B,black,man,,,,null,,,,
9298,,,survey-text,69,509711,0.0-13.0-3.4,14790,List1B,black,man,,,,,"{""Q0"":""fred is shouting at luke""}","<img src=""stim_listB/shout5.gif""style=""height:400px;""></stim_listB>",is shouting at,
null,"<div style=""font-size:60px;"">+</div>",,html-keyboard-response,70,510213,0.0-13.0-0.5,14790,List1B,black,man,,,,null,,,,
null,"<img src=""stim_listB/flirt3.gif""style=""height:400px;""></stim_listB>",,html-keyboard-response,71,512214,0.0-13.0-1.5,14790,List1B,black,man,,,,null,,,,
null,is flirting with,,html-keyboard-response,72,514217,0.0-13.0-2.5,14790,List1B,black,man,,,,null,,,,
14354,,,survey-text,73,528571,0.0-13.0-3.5,14790,List1B,black,man,,,,,"{""Q0"":""luke is flirting with jane""}","<img src=""stim_listB/flirt3.gif""style=""height:400px;""></stim_listB>",is flirting with,
null,"<div style=""font-size:60px;"">+</div>",,html-keyboard-response,74,529072,0.0-13.0-0.6,14790,List1B,black,man,,,,null,,,,
null,"<img src=""stim_listB/kiss4.gif""style=""height:400px;""></stim_listB>",,html-keyboard-response,75,531074,0.0-13.0-1.6,14790,List1B,black,man,,,,null,,,,
null,are kissing each other,,html-keyboard-response,76,533074,0.0-13.0-2.6,14790,List1B,black,man,,,,null,,,,
10004,,,survey-text,77,543079,0.0-13.0-3.6,14790,List1B,black,man,,,,,"{""Q0"":""dave and jane are kissing each other""}","<img src=""stim_listB/kiss4.gif""style=""height:400px;""></stim_listB>",are kissing each other,
null,"<div style=""font-size:60px;"">+</div>",,html-keyboard-response,78,543581,0.0-13.0-0.7,14790,List1B,black,man,,,,null,,,,
null,"<img src=""stim_listB/play5.gif""style=""height:400px;""></stim_listB>",,html-keyboard-response,79,545582,0.0-13.0-1.7,14790,List1B,black,man,,,,null,,,,
null,is playing with,,html-keyboard-response,80,547585,0.0-13.0-2.7,14790,List1B,black,man,,,,null,,,,
10448,,,survey-text,81,558033,0.0-13.0-3.7,14790,List1B,black,man,,,,,"{""Q0"":""mike is playing with dave""}","<img src=""stim_listB/play5.gif""style=""height:400px;""></stim_listB>",is playing with,
null,"<div style=""font-size:60px;"">+</div>",,html-keyboard-response,82,558534,0.0-13.0-0.8,14790,List1B,black,man,,,,null,,,,
null,"<img src=""stim_listB/touch3.gif""style=""height:400px;""></stim_listB>",,html-keyboard-response,83,560536,0.0-13.0-1.8,14790,List1B,black,man,,,,null,,,,
null,is touching,,html-keyboard-response,84,562537,0.0-13.0-2.8,14790,List1B,black,man,,,,null,,,,
9998,,,survey-text,85,572535,0.0-13.0-3.8,14790,List1B,black,man,,,,,"{""Q0"":""dave is touching jane""}","<img src=""stim_listB/touch3.gif""style=""height:400px;""></stim_listB>",is touching,
null,"<div style=""font-size:60px;"">+</div>",,html-keyboard-response,86,573037,0.0-13.0-0.9,14790,List1B,black,man,,,,null,,,,
null,"<img src=""stim_listB/marry6.gif""style=""height:400px;""></stim_listB>",,html-keyboard-response,87,575038,0.0-13.0-1.9,14790,List1B,black,man,,,,null,,,,
null,are marrying each other,,html-keyboard-response,88,577039,0.0-13.0-2.9,14790,List1B,black,man,,,,null,,,,
8964,,,survey-text,89,586003,0.0-13.0-3.9,14790,List1B,black,man,,,,,"{""Q0"":""fred and dave are marrying each other""}","<img src=""stim_listB/marry6.gif""style=""height:400px;""></stim_listB>",are marrying each other,
null,"<div style=""font-size:60px;"">+</div>",,html-keyboard-response,90,586505,0.0-13.0-0.10,14790,List1B,black,man,,,,null,,,,
null,"<img src=""stim_listB/kiss5.gif""style=""height:400px;""></stim_listB>",,html-keyboard-response,91,588506,0.0-13.0-1.10,14790,List1B,black,man,,,,null,,,,
null,is kissing,,html-keyboard-response,92,590507,0.0-13.0-2.10,14790,List1B,black,man,,,,null,,,,
9724,,,survey-text,93,600231,0.0-13.0-3.10,14790,List1B,black,man,,,,,"{""Q0"":""luke is kissing fred""}","<img src=""stim_listB/kiss5.gif""style=""height:400px;""></stim_listB>",is kissing,
null,"<div style=""font-size:60px;"">+</div>",,html-keyboard-response,94,600732,0.0-13.0-0.11,14790,List1B,black,man,,,,null,,,,
null,"<img src=""stim_listB/kiss3.gif""style=""height:400px;""></stim_listB>",,html-keyboard-response,95,602735,0.0-13.0-1.11,14790,List1B,black,man,,,,null,,,,
null,is kissing,,html-keyboard-response,96,604736,0.0-13.0-2.11,14790,List1B,black,man,,,,null,,,,
6692,,,survey-text,97,611429,0.0-13.0-3.11,14790,List1B,black,man,,,,,"{""Q0"":""luke is kissing ruth""}","<img src=""stim_listB/kiss3.gif""style=""height:400px;""></stim_listB>",is kissing,
null,"<div style=""font-size:60px;"">+</div>",,html-keyboard-response,98,611931,0.0-13.0-0.12,14790,List1B,black,man,,,,null,,,,
null,"<img src=""stim_listB/argue5.gif""style=""height:400px;""></stim_listB>",,html-keyboard-response,99,613933,0.0-13.0-1.12,14790,List1B,black,man,,,,null,,,,
null,is arguing with,,html-keyboard-response,100,615934,0.0-13.0-2.12,14790,List1B,black,man,,,,null,,,,
10069,,,survey-text,101,626003,0.0-13.0-3.12,14790,List1B,black,man,,,,,"{""Q0"":""mike is arguing with luke""}","<img src=""stim_listB/argue5.gif""style=""height:400px;""></stim_listB>",is arguing with,
null,"<div style=""font-size:60px;"">+</div>",,html-keyboard-response,102,626505,0.0-13.0-0.13,14790,List1B,black,man,,,,null,,,,
null,"<img src=""stim_listB/dance1.gif""style=""height:400px;""></stim_listB>",,html-keyboard-response,103,628507,0.0-13.0-1.13,14790,List1B,black,man,,,,null,,,,
null,is dancing with,,html-keyboard-response,104,630508,0.0-13.0-2.13,14790,List1B,black,man,,,,null,,,,
10589,,,survey-text,105,641099,0.0-13.0-3.13,14790,List1B,black,man,,,,,"{""Q0"":""fred is dancing with kate""}","<img src=""stim_listB/dance1.gif""style=""height:400px;""></stim_listB>",is dancing with,
null,"<div style=""font-size:60px;"">+</div>",,html-keyboard-response,106,641600,0.0-13.0-0.14,14790,List1B,black,man,,,,null,,,,
null,"<img src=""stim_listB/kiss1.gif""style=""height:400px;""></stim_listB>",,html-keyboard-response,107,643602,0.0-13.0-1.14,14790,List1B,black,man,,,,null,,,,
null,is kissing,,html-keyboard-response,108,645603,0.0-13.0-2.14,14790,List1B,black,man,,,,null,,,,
18956,,,survey-text,109,664559,0.0-13.0-3.14,14790,List1B,black,man,,,,,"{""Q0"":""fred is kissing beth""}","<img src=""stim_listB/kiss1.gif""style=""height:400px;""></stim_listB>",is kissing,
null,"<div style=""font-size:60px;"">+</div>",,html-keyboard-response,110,665060,0.0-13.0-0.15,14790,List1B,black,man,,,,null,,,,
null,"<img src=""stim_listB/talk4.gif""style=""height:400px;""></stim_listB>",,html-keyboard-response,111,667062,0.0-13.0-1.15,14790,List1B,black,man,,,,null,,,,
null,are talking to each other,,html-keyboard-response,112,669062,0.0-13.0-2.15,14790,List1B,black,man,,,,null,,,,
11025,,,survey-text,113,680089,0.0-13.0-3.15,14790,List1B,black,man,,,,,"{""Q0"":""dave and ruth are talking to each other""}","<img src=""stim_listB/talk4.gif""style=""height:400px;""></stim_listB>",are talking to each other,
null,"<div style=""font-size:60px;"">+</div>",,html-keyboard-response,114,680591,0.0-13.0-0.16,14790,List1B,black,man,,,,null,,,,
null,"<img src=""stim_listB/talk3.gif""style=""height:400px;""></stim_listB>",,html-keyboard-response,115,682592,0.0-13.0-1.16,14790,List1B,black,man,,,,null,,,,
null,is talking to,,html-keyboard-response,116,684593,0.0-13.0-2.16,14790,List1B,black,man,,,,null,,,,
7795,,,survey-text,117,692389,0.0-13.0-3.16,14790,List1B,black,man,,,,,"{""Q0"":""jane is talking to luke""}","<img src=""stim_listB/talk3.gif""style=""height:400px;""></stim_listB>",is talking to,
null,"<div style=""font-size:60px;"">+</div>",,html-keyboard-response,118,692890,0.0-13.0-0.17,14790,List1B,black,man,,,,null,,,,
null,"<img src=""stim_listB/argue6.gif""style=""height:400px;""></stim_listB>",,html-keyboard-response,119,694891,0.0-13.0-1.17,14790,List1B,black,man,,,,null,,,,
null,are arguing with each other,,html-keyboard-response,120,696893,0.0-13.0-2.17,14790,List1B,black,man,,,,null,,,,
14207,,,survey-text,121,711101,0.0-13.0-3.17,14790,List1B,black,man,,,,,"{""Q0"":""fred and dave are talking to each other""}","<img src=""stim_listB/argue6.gif""style=""height:400px;""></stim_listB>",are arguing with each other,
null,"<div style=""font-size:60px;"">+</div>",,html-keyboard-response,122,711602,0.0-13.0-0.18,14790,List1B,black,man,,,,null,,,,
null,"<img src=""stim_listB/play8.gif""style=""height:400px;""></stim_listB>",,html-keyboard-response,123,713604,0.0-13.0-1.18,14790,List1B,black,man,,,,null,,,,
null,are playing with each other,,html-keyboard-response,124,715605,0.0-13.0-2.18,14790,List1B,black,man,,,,null,,,,
12492,,,survey-text,125,728098,0.0-13.0-3.18,14790,List1B,black,man,,,,,"{""Q0"":""ruth and beth are playing with each other""}","<img src=""stim_listB/play8.gif""style=""height:400px;""></stim_listB>",are playing with each other,
null,"<div style=""font-size:60px;"">+</div>",,html-keyboard-response,126,728600,0.0-13.0-0.19,14790,List1B,black,man,,,,null,,,,
null,"<img src=""stim_listB/talk1.gif""style=""height:400px;""></stim_listB>",,html-keyboard-response,127,730603,0.0-13.0-1.19,14790,List1B,black,man,,,,null,,,,
null,is talking to,,html-keyboard-response,128,732604,0.0-13.0-2.19,14790,List1B,black,man,,,,null,,,,
5970,,,survey-text,129,738574,0.0-13.0-3.19,14790,List1B,black,man,,,,,"{""Q0"":""fred is talking to kate""}","<img src=""stim_listB/talk1.gif""style=""height:400px;""></stim_listB>",is talking to,
19485,"<img src='img/portrait_matrix_list1.jpg' style='width:900px;height:500px;''></img><p>If you have memorised all the portraits and names and are ready to start, press Continue.</p><p><strong>Please note: Your memory of these faces will be tested 4 times during this experiment.</strong></p>",0,html-button-response,130,758060,0.0-14.0-0.0,14790,List1B,black,man,,,,,,,,
4740,"<img src=""portrait/BW2.jpg""style=""height:400px;""></img>",2,html-button-response,131,763803,0.0-14.0-1.0,14790,List1B,black,man,,TRUE,2,,,,,
null,CORRECT,,html-keyboard-response,132,765306,0.0-14.0-2.0-0.0,14790,List1B,black,man,,,,null,,,,
4909,"<img src=""portrait/BM1.jpg""style=""height:400px;""></img>",4,html-button-response,133,770217,0.0-14.0-4.0,14790,List1B,black,man,,TRUE,4,,,,,
null,CORRECT,,html-keyboard-response,134,771719,0.0-14.0-5.0-0.0,14790,List1B,black,man,,,,null,,,,
10084,"<img src=""portrait/WW1.jpg""style=""height:400px;""></img>",1,html-button-response,135,781805,0.0-14.0-7.0,14790,List1B,black,man,,TRUE,1,,,,,
null,CORRECT,,html-keyboard-response,136,783308,0.0-14.0-8.0-0.0,14790,List1B,black,man,,,,null,,,,
4977,"<img src=""portrait/BM2.jpg""style=""height:400px;""></img>",5,html-button-response,137,788287,0.0-14.0-10.0,14790,List1B,black,man,,TRUE,5,,,,,
null,CORRECT,,html-keyboard-response,138,789790,0.0-14.0-11.0-0.0,14790,List1B,black,man,,,,null,,,,
1460,"<img src=""portrait/WW2.jpg""style=""height:400px;""></img>",3,html-button-response,139,791250,0.0-14.0-13.0,14790,List1B,black,man,,TRUE,3,,,,,
null,CORRECT,,html-keyboard-response,140,792755,0.0-14.0-14.0-0.0,14790,List1B,black,man,,,,null,,,,
1985,"<img src=""portrait/BW1.jpg""style=""height:400px;""></img>",0,html-button-response,141,794741,0.0-14.0-16.0,14790,List1B,black,man,,TRUE,0,,,,,
null,CORRECT,,html-keyboard-response,142,796243,0.0-14.0-17.0-0.0,14790,List1B,black,man,,,,null,,,,
2635,"<img src=""portrait/WM1.jpg""style=""height:400px;""></img>",6,html-button-response,143,798879,0.0-14.0-19.0,14790,List1B,black,man,,TRUE,6,,,,,
null,CORRECT,,html-keyboard-response,144,800381,0.0-14.0-20.0-0.0,14790,List1B,black,man,,,,null,,,,
969,"<img src=""portrait/WM2.jpg""style=""height:400px;""></img>",7,html-button-response,145,801351,0.0-14.0-22.0,14790,List1B,black,man,,TRUE,7,,,,,
null,CORRECT,,html-keyboard-response,146,802853,0.0-14.0-23.0-0.0,14790,List1B,black,man,,,,null,,,,
2427,<p>You got 8 out of 8 right first time. Press Continue.</p>,0,html-button-response,147,805280,0.0-14.0-25.0,14790,List1B,black,man,,,,,,,,
null,"<div style=""font-size:60px;"">+</div>",,html-keyboard-response,148,806783,0.0-15.0-0.0,14790,List1B,black,man,,,,null,,,,
null,"<img src=""stim_listB/argue8.gif""style=""height:400px;""></stim_listB>",,html-keyboard-response,149,808786,0.0-15.0-1.0,14790,List1B,black,man,,,,null,,,,
null,are arguing with each other,,html-keyboard-response,150,810787,0.0-15.0-2.0,14790,List1B,black,man,,,,null,,,,
12549,,,survey-text,151,823336,0.0-15.0-3.0,14790,List1B,black,man,,,,,"{""Q0"":""beth and jane are talking to each other""}","<img src=""stim_listB/argue8.gif""style=""height:400px;""></stim_listB>",are arguing with each other,
null,"<div style=""font-size:60px;"">+</div>",,html-keyboard-response,152,823838,0.0-15.0-0.1,14790,List1B,black,man,,,,null,,,,
null,"<img src=""stim_listB/flirt2.gif""style=""height:400px;""></stim_listB>",,html-keyboard-response,153,825839,0.0-15.0-1.1,14790,List1B,black,man,,,,null,,,,
null,are flirting with each other,,html-keyboard-response,154,827840,0.0-15.0-2.1,14790,List1B,black,man,,,,null,,,,
9979,,,survey-text,155,837820,0.0-15.0-3.1,14790,List1B,black,man,,,,,"{""Q0"":""beth and mike are flirting with each other""}","<img src=""stim_listB/flirt2.gif""style=""height:400px;""></stim_listB>",are flirting with each other,
null,"<div style=""font-size:60px;"">+</div>",,html-keyboard-response,156,838323,0.0-15.0-0.2,14790,List1B,black,man,,,,null,,,,
null,"<img src=""stim_listB/play2.gif""style=""height:400px;""></stim_listB>",,html-keyboard-response,157,840325,0.0-15.0-1.2,14790,List1B,black,man,,,,null,,,,
null,are playing with each other,,html-keyboard-response,158,842327,0.0-15.0-2.2,14790,List1B,black,man,,,,null,,,,
13335,,,survey-text,159,855662,0.0-15.0-3.2,14790,List1B,black,man,,,,,"{""Q0"":""fred and beth are playing with each other""}","<img src=""stim_listB/play2.gif""style=""height:400px;""></stim_listB>",are playing with each other,
null,"<div style=""font-size:60px;"">+</div>",,html-keyboard-response,160,856164,0.0-15.0-0.3,14790,List1B,black,man,,,,null,,,,
null,"<img src=""stim_listB/play3.gif""style=""height:400px;""></stim_listB>",,html-keyboard-response,161,858165,0.0-15.0-1.3,14790,List1B,black,man,,,,null,,,,
null,is playing with,,html-keyboard-response,162,860166,0.0-15.0-2.3,14790,List1B,black,man,,,,null,,,,
7313,,,survey-text,163,867480,0.0-15.0-3.3,14790,List1B,black,man,,,,,"{""Q0"":""dave is playing with jane""}","<img src=""stim_listB/play3.gif""style=""height:400px;""></stim_listB>",is playing with,
null,"<div style=""font-size:60px;"">+</div>",,html-keyboard-response,164,867982,0.0-15.0-0.4,14790,List1B,black,man,,,,null,,,,
null,"<img src=""stim_listB/touch1.gif""style=""height:400px;""></stim_listB>",,html-keyboard-response,165,869985,0.0-15.0-1.4,14790,List1B,black,man,,,,null,,,,
null,is touching,,html-keyboard-response,166,871987,0.0-15.0-2.4,14790,List1B,black,man,,,,null,,,,
5210,,,survey-text,167,877198,0.0-15.0-3.4,14790,List1B,black,man,,,,,"{""Q0"":""kate is touching mike""}","<img src=""stim_listB/touch1.gif""style=""height:400px;""></stim_listB>",is touching,
null,"<div style=""font-size:60px;"">+</div>",,html-keyboard-response,168,877701,0.0-15.0-0.5,14790,List1B,black,man,,,,null,,,,
null,"<img src=""stim_listB/argue4.gif""style=""height:400px;""></stim_listB>",,html-keyboard-response,169,879703,0.0-15.0-1.5,14790,List1B,black,man,,,,null,,,,
null,are arguing with each other,,html-keyboard-response,170,881704,0.0-15.0-2.5,14790,List1B,black,man,,,,null,,,,
14996,,,survey-text,171,896700,0.0-15.0-3.5,14790,List1B,black,man,,,,,"{""Q0"":""luke and jane are arguing with each other""}","<img src=""stim_listB/argue4.gif""style=""height:400px;""></stim_listB>",are arguing with each other,
null,"<div style=""font-size:60px;"">+</div>",,html-keyboard-response,172,897203,0.0-15.0-0.6,14790,List1B,black,man,,,,null,,,,
null,"<img src=""stim_listB/dance8.gif""style=""height:400px;""></stim_listB>",,html-keyboard-response,173,899204,0.0-15.0-1.6,14790,List1B,black,man,,,,null,,,,
null,are dancing with each other,,html-keyboard-response,174,901205,0.0-15.0-2.6,14790,List1B,black,man,,,,null,,,,
12657,,,survey-text,175,913863,0.0-15.0-3.6,14790,List1B,black,man,,,,,"{""Q0"":""ruth and kate are dancing with each other""}","<img src=""stim_listB/dance8.gif""style=""height:400px;""></stim_listB>",are dancing with each other,
null,"<div style=""font-size:60px;"">+</div>",,html-keyboard-response,176,914365,0.0-15.0-0.7,14790,List1B,black,man,,,,null,,,,
null,"<img src=""stim_listB/shout8.gif""style=""height:400px;""></stim_listB>",,html-keyboard-response,177,916366,0.0-15.0-1.7,14790,List1B,black,man,,,,null,,,,
null,are shouting at each other,,html-keyboard-response,178,918367,0.0-15.0-2.7,14790,List1B,black,man,,,,null,,,,
9652,,,survey-text,179,928020,0.0-15.0-3.7,14790,List1B,black,man,,,,,"{""Q0"":""kate and jane are shouting at each other""}","<img src=""stim_listB/shout8.gif""style=""height:400px;""></stim_listB>",are shouting at each other,
null,"<div style=""font-size:60px;"">+</div>",,html-keyboard-response,180,928522,0.0-15.0-0.8,14790,List1B,black,man,,,,null,,,,
null,"<img src=""stim_listB/play4.gif""style=""height:400px;""></stim_listB>",,html-keyboard-response,181,930524,0.0-15.0-1.8,14790,List1B,black,man,,,,null,,,,
null,are playing with each other,,html-keyboard-response,182,932525,0.0-15.0-2.8,14790,List1B,black,man,,,,null,,,,
18005,,,survey-text,183,950530,0.0-15.0-3.8,14790,List1B,black,man,,,,,"{""Q0"":""ruth and luke are playing with each other""}","<img src=""stim_listB/play4.gif""style=""height:400px;""></stim_listB>",are playing with each other,
null,"<div style=""font-size:60px;"">+</div>",,html-keyboard-response,184,951032,0.0-15.0-0.9,14790,List1B,black,man,,,,null,,,,
null,"<img src=""stim_listB/argue7.gif""style=""height:400px;""></stim_listB>",,html-keyboard-response,185,953034,0.0-15.0-1.9,14790,List1B,black,man,,,,null,,,,
null,is arguing with,,html-keyboard-response,186,955035,0.0-15.0-2.9,14790,List1B,black,man,,,,null,,,,
8169,,,survey-text,187,963204,0.0-15.0-3.9,14790,List1B,black,man,,,,,"{""Q0"":""ruth is arguing with kate""}","<img src=""stim_listB/argue7.gif""style=""height:400px;""></stim_listB>",is arguing with,
null,"<div style=""font-size:60px;"">+</div>",,html-keyboard-response,188,963705,0.0-15.0-0.10,14790,List1B,black,man,,,,null,,,,
null,"<img src=""stim_listB/fight6.gif""style=""height:400px;""></stim_listB>",,html-keyboard-response,189,965707,0.0-15.0-1.10,14790,List1B,black,man,,,,null,,,,
null,are fighting each other,,html-keyboard-response,190,967709,0.0-15.0-2.10,14790,List1B,black,man,,,,null,,,,
13063,,,survey-text,191,980772,0.0-15.0-3.10,14790,List1B,black,man,,,,,"{""Q0"":""fred and dave are fighting each other""}","<img src=""stim_listB/fight6.gif""style=""height:400px;""></stim_listB>",are fighting each other,
null,"<div style=""font-size:60px;"">+</div>",,html-keyboard-response,192,981274,0.0-15.0-0.11,14790,List1B,black,man,,,,null,,,,
null,"<img src=""stim_listB/talk7.gif""style=""height:400px;""></stim_listB>",,html-keyboard-response,193,983275,0.0-15.0-1.11,14790,List1B,black,man,,,,null,,,,
null,is talking to,,html-keyboard-response,194,985276,0.0-15.0-2.11,14790,List1B,black,man,,,,null,,,,
12707,,,survey-text,195,997984,0.0-15.0-3.11,14790,List1B,black,man,,,,,"{""Q0"":""beth is talking to jane""}","<img src=""stim_listB/talk7.gif""style=""height:400px;""></stim_listB>",is talking to,
null,"<div style=""font-size:60px;"">+</div>",,html-keyboard-response,196,998487,0.0-15.0-0.12,14790,List1B,black,man,,,,null,,,,
null,"<img src=""stim_listB/marry8.gif""style=""height:400px;""></stim_listB>",,html-keyboard-response,197,1000489,0.0-15.0-1.12,14790,List1B,black,man,,,,null,,,,
null,are marrying each other,,html-keyboard-response,198,1002489,0.0-15.0-2.12,14790,List1B,black,man,,,,null,,,,
11600,,,survey-text,199,1014090,0.0-15.0-3.12,14790,List1B,black,man,,,,,"{""Q0"":""beth and jane are marrying each other""}","<img src=""stim_listB/marry8.gif""style=""height:400px;""></stim_listB>",are marrying each other,
null,"<div style=""font-size:60px;"">+</div>",,html-keyboard-response,200,1014592,0.0-15.0-0.13,14790,List1B,black,man,,,,null,,,,
null,"<img src=""stim_listB/play6.gif""style=""height:400px;""></stim_listB>",,html-keyboard-response,201,1016593,0.0-15.0-1.13,14790,List1B,black,man,,,,null,,,,
null,are playing with each other,,html-keyboard-response,202,1018594,0.0-15.0-2.13,14790,List1B,black,man,,,,null,,,,
11413,,,survey-text,203,1030008,0.0-15.0-3.13,14790,List1B,black,man,,,,,"{""Q0"":""luke and fred are playing with each other""}","<img src=""stim_listB/play6.gif""style=""height:400px;""></stim_listB>",are playing with each other,
null,"<div style=""font-size:60px;"">+</div>",,html-keyboard-response,204,1030510,0.0-15.0-0.14,14790,List1B,black,man,,,,null,,,,
null,"<img src=""stim_listB/flirt4.gif""style=""height:400px;""></stim_listB>",,html-keyboard-response,205,1032512,0.0-15.0-1.14,14790,List1B,black,man,,,,null,,,,
null,are flirting with each other,,html-keyboard-response,206,1034513,0.0-15.0-2.14,14790,List1B,black,man,,,,null,,,,
17726,,,survey-text,207,1052240,0.0-15.0-3.14,14790,List1B,black,man,,,,,"{""Q0"":""dave and jane are flirting with each other""}","<img src=""stim_listB/flirt4.gif""style=""height:400px;""></stim_listB>",are flirting with each other,
null,"<div style=""font-size:60px;"">+</div>",,html-keyboard-response,208,1052743,0.0-15.0-0.15,14790,List1B,black,man,,,,null,,,,
null,"<img src=""stim_listB/talk5.gif""style=""height:400px;""></stim_listB>",,html-keyboard-response,209,1054745,0.0-15.0-1.15,14790,List1B,black,man,,,,null,,,,
null,is talking to,,html-keyboard-response,210,1056747,0.0-15.0-2.15,14790,List1B,black,man,,,,null,,,,
5774,,,survey-text,211,1062522,0.0-15.0-3.15,14790,List1B,black,man,,,,,"{""Q0"":""fred is talking to dave""}","<img src=""stim_listB/talk5.gif""style=""height:400px;""></stim_listB>",is talking to,
null,"<div style=""font-size:60px;"">+</div>",,html-keyboard-response,212,1063024,0.0-15.0-0.16,14790,List1B,black,man,,,,null,,,,
null,"<img src=""stim_listB/kiss6.gif""style=""height:400px;""></stim_listB>",,html-keyboard-response,213,1065025,0.0-15.0-1.16,14790,List1B,black,man,,,,null,,,,
null,are kissing each other,,html-keyboard-response,214,1067026,0.0-15.0-2.16,14790,List1B,black,man,,,,null,,,,
16607,,,survey-text,215,1083634,0.0-15.0-3.16,14790,List1B,black,man,,,,,"{""Q0"":""mike and dave are kissing each other""}","<img src=""stim_listB/kiss6.gif""style=""height:400px;""></stim_listB>",are kissing each other,
null,"<div style=""font-size:60px;"">+</div>",,html-keyboard-response,216,1084136,0.0-15.0-0.17,14790,List1B,black,man,,,,null,,,,
null,"<img src=""stim_listB/marry1.gif""style=""height:400px;""></stim_listB>",,html-keyboard-response,217,1086139,0.0-15.0-1.17,14790,List1B,black,man,,,,null,,,,
null,is marrying,,html-keyboard-response,218,1088141,0.0-15.0-2.17,14790,List1B,black,man,,,,null,,,,
8422,,,survey-text,219,1096564,0.0-15.0-3.17,14790,List1B,black,man,,,,,"{""Q0"":""beth is marrying mike""}","<img src=""stim_listB/marry1.gif""style=""height:400px;""></stim_listB>",is marrying,
null,"<div style=""font-size:60px;"">+</div>",,html-keyboard-response,220,1097066,0.0-15.0-0.18,14790,List1B,black,man,,,,null,,,,
null,"<img src=""stim_listB/fight4.gif""style=""height:400px;""></stim_listB>",,html-keyboard-response,221,1099068,0.0-15.0-1.18,14790,List1B,black,man,,,,null,,,,
null,are fighting each other,,html-keyboard-response,222,1101069,0.0-15.0-2.18,14790,List1B,black,man,,,,null,,,,
16645,,,survey-text,223,1117714,0.0-15.0-3.18,14790,List1B,black,man,,,,,"{""Q0"":""luke and ruth are fighting each other""}","<img src=""stim_listB/fight4.gif""style=""height:400px;""></stim_listB>",are fighting each other,
null,"<div style=""font-size:60px;"">+</div>",,html-keyboard-response,224,1118216,0.0-15.0-0.19,14790,List1B,black,man,,,,null,,,,
null,"<img src=""stim_listB/touch6.gif""style=""height:400px;""></stim_listB>",,html-keyboard-response,225,1120218,0.0-15.0-1.19,14790,List1B,black,man,,,,null,,,,
null,are touching each other,,html-keyboard-response,226,1122220,0.0-15.0-2.19,14790,List1B,black,man,,,,null,,,,
13178,,,survey-text,227,1135398,0.0-15.0-3.19,14790,List1B,black,man,,,,,"{""Q0"":""luke and fred are touching each other""}","<img src=""stim_listB/touch6.gif""style=""height:400px;""></stim_listB>",are touching each other,
20760,"<img src='img/portrait_matrix_list1.jpg' style='width:900px;height:500px;''></img><p>If you have memorised all the portraits and names and are ready to start, press Continue.</p><p><strong>Please note: Your memory of these faces will be tested 4 times during this experiment.</strong></p>",0,html-button-response,228,1156160,0.0-16.0-0.0,14790,List1B,black,man,,,,,,,,
5013,"<img src=""portrait/BW1.jpg""style=""height:400px;""></img>",0,html-button-response,229,1162174,0.0-16.0-1.0,14790,List1B,black,man,,TRUE,0,,,,,
null,CORRECT,,html-keyboard-response,230,1163676,0.0-16.0-2.0-0.0,14790,List1B,black,man,,,,null,,,,
1709,"<img src=""portrait/WW2.jpg""style=""height:400px;""></img>",3,html-button-response,231,1165386,0.0-16.0-4.0,14790,List1B,black,man,,TRUE,3,,,,,
null,CORRECT,,html-keyboard-response,232,1166889,0.0-16.0-5.0-0.0,14790,List1B,black,man,,,,null,,,,
2011,"<img src=""portrait/BM2.jpg""style=""height:400px;""></img>",5,html-button-response,233,1168902,0.0-16.0-7.0,14790,List1B,black,man,,TRUE,5,,,,,
null,CORRECT,,html-keyboard-response,234,1170406,0.0-16.0-8.0-0.0,14790,List1B,black,man,,,,null,,,,
1638,"<img src=""portrait/WW1.jpg""style=""height:400px;""></img>",1,html-button-response,235,1172046,0.0-16.0-10.0,14790,List1B,black,man,,TRUE,1,,,,,
null,CORRECT,,html-keyboard-response,236,1173550,0.0-16.0-11.0-0.0,14790,List1B,black,man,,,,null,,,,
2061,"<img src=""portrait/BW2.jpg""style=""height:400px;""></img>",2,html-button-response,237,1175612,0.0-16.0-13.0,14790,List1B,black,man,,TRUE,2,,,,,
null,CORRECT,,html-keyboard-response,238,1177116,0.0-16.0-14.0-0.0,14790,List1B,black,man,,,,null,,,,
1379,"<img src=""portrait/WM2.jpg""style=""height:400px;""></img>",7,html-button-response,239,1178496,0.0-16.0-16.0,14790,List1B,black,man,,TRUE,7,,,,,
null,CORRECT,,html-keyboard-response,240,1180000,0.0-16.0-17.0-0.0,14790,List1B,black,man,,,,null,,,,
2065,"<img src=""portrait/WM1.jpg""style=""height:400px;""></img>",5,html-button-response,241,1182066,0.0-16.0-19.0,14790,List1B,black,man,,TRUE,6,,,,,
3026,"<img src=""portrait/WM1.jpg""style=""height:400px;""></img>",6,html-button-response,242,1186094,0.0-16.0-21.0-0.0,14790,List1B,black,man,,FALSE,6,,,,,
null,CORRECT,,html-keyboard-response,243,1187597,0.0-16.0-21.0-1.0-0.0,14790,List1B,black,man,,,,null,,,,
2443,"<img src=""portrait/BM1.jpg""style=""height:400px;""></img>",4,html-button-response,244,1190042,0.0-16.0-22.0,14790,List1B,black,man,,TRUE,4,,,,,
null,CORRECT,,html-keyboard-response,245,1191545,0.0-16.0-23.0-0.0,14790,List1B,black,man,,,,null,,,,
904,<p>You got 7 out of 8 right first time. Press Continue.</p>,0,html-button-response,246,1192450,0.0-16.0-25.0,14790,List1B,black,man,,,,,,,,
1063,"As you did not score 100%, the memory game will repeat. Press Continue.",0,html-button-response,247,1194514,0.0-16.0-26.0-0.0,14790,List1B,black,man,,,,,,,,
923,"<img src='img/portrait_matrix_list1.jpg' style='width:900px;height:500px;''></img><p>If you have memorised all the portraits and names and are ready to start, press Continue.</p><p><strong>Please note: Your memory of these faces will be tested 4 times during this experiment.</strong></p>",0,html-button-response,248,1196440,0.0-16.1-0.1,14790,List1B,black,man,,,,,,,,
1739,"<img src=""portrait/BW1.jpg""style=""height:400px;""></img>",0,html-button-response,249,1199180,0.0-16.1-1.1,14790,List1B,black,man,,TRUE,0,,,,,
null,CORRECT,,html-keyboard-response,250,1200683,0.0-16.1-2.1-0.1,14790,List1B,black,man,,,,null,,,,
1719,"<img src=""portrait/WW2.jpg""style=""height:400px;""></img>",3,html-button-response,251,1202402,0.0-16.1-4.1,14790,List1B,black,man,,TRUE,3,,,,,
null,CORRECT,,html-keyboard-response,252,1203905,0.0-16.1-5.1-0.1,14790,List1B,black,man,,,,null,,,,
2722,"<img src=""portrait/BM2.jpg""style=""height:400px;""></img>",5,html-button-response,253,1206628,0.0-16.1-7.1,14790,List1B,black,man,,TRUE,5,,,,,
null,CORRECT,,html-keyboard-response,254,1208130,0.0-16.1-8.1-0.1,14790,List1B,black,man,,,,null,,,,
1455,"<img src=""portrait/WW1.jpg""style=""height:400px;""></img>",1,html-button-response,255,1209586,0.0-16.1-10.1,14790,List1B,black,man,,TRUE,1,,,,,
null,CORRECT,,html-keyboard-response,256,1211088,0.0-16.1-11.1-0.1,14790,List1B,black,man,,,,null,,,,
1149,"<img src=""portrait/BW2.jpg""style=""height:400px;""></img>",2,html-button-response,257,1212238,0.0-16.1-13.1,14790,List1B,black,man,,TRUE,2,,,,,
null,CORRECT,,html-keyboard-response,258,1213741,0.0-16.1-14.1-0.1,14790,List1B,black,man,,,,null,,,,
1186,"<img src=""portrait/WM2.jpg""style=""height:400px;""></img>",7,html-button-response,259,1214928,0.0-16.1-16.1,14790,List1B,black,man,,TRUE,7,,,,,
null,CORRECT,,html-keyboard-response,260,1216431,0.0-16.1-17.1-0.1,14790,List1B,black,man,,,,null,,,,
1253,"<img src=""portrait/WM1.jpg""style=""height:400px;""></img>",6,html-button-response,261,1217686,0.0-16.1-19.1,14790,List1B,black,man,,TRUE,6,,,,,
null,CORRECT,,html-keyboard-response,262,1219189,0.0-16.1-20.1-0.1,14790,List1B,black,man,,,,null,,,,
2270,"<img src=""portrait/BM1.jpg""style=""height:400px;""></img>",4,html-button-response,263,1221460,0.0-16.1-22.1,14790,List1B,black,man,,TRUE,4,,,,,
null,CORRECT,,html-keyboard-response,264,1222963,0.0-16.1-23.1-0.1,14790,List1B,black,man,,,,null,,,,
953,<p>You got 8 out of 8 right first time. Press Continue.</p>,0,html-button-response,265,1223916,0.0-16.1-25.1,14790,List1B,black,man,,,,,,,,
null,"<div style=""font-size:60px;"">+</div>",,html-keyboard-response,266,1225419,0.0-17.0-0.0,14790,List1B,black,man,,,,null,,,,
null,"<img src=""stim_listB/argue1.gif""style=""height:400px;""></stim_listB>",,html-keyboard-response,267,1227421,0.0-17.0-1.0,14790,List1B,black,man,,,,null,,,,
null,is arguing with,,html-keyboard-response,268,1229422,0.0-17.0-2.0,14790,List1B,black,man,,,,null,,,,
11185,,,survey-text,269,1240608,0.0-17.0-3.0,14790,List1B,black,man,,,,,"{""Q0"":""beth is arguing with mike""}","<img src=""stim_listB/argue1.gif""style=""height:400px;""></stim_listB>",is arguing with,
null,"<div style=""font-size:60px;"">+</div>",,html-keyboard-response,270,1241111,0.0-17.0-0.1,14790,List1B,black,man,,,,null,,,,
null,"<img src=""stim_listB/dance2.gif""style=""height:400px;""></stim_listB>",,html-keyboard-response,271,1243113,0.0-17.0-1.1,14790,List1B,black,man,,,,null,,,,
null,are dancing with each other,,html-keyboard-response,272,1245113,0.0-17.0-2.1,14790,List1B,black,man,,,,null,,,,
34796,,,survey-text,273,1279910,0.0-17.0-3.1,14790,List1B,black,man,,,,,"{""Q0"":""mike and beth are dancing with each other""}","<img src=""stim_listB/dance2.gif""style=""height:400px;""></stim_listB>",are dancing with each other,
null,"<div style=""font-size:60px;"">+</div>",,html-keyboard-response,274,1280411,0.0-17.0-0.2,14790,List1B,black,man,,,,null,,,,
null,"<img src=""stim_listB/argue3.gif""style=""height:400px;""></stim_listB>",,html-keyboard-response,275,1282413,0.0-17.0-1.2,14790,List1B,black,man,,,,null,,,,
null,is arguing with,,html-keyboard-response,276,1284416,0.0-17.0-2.2,14790,List1B,black,man,,,,null,,,,
9588,,,survey-text,277,1294006,0.0-17.0-3.2,14790,List1B,black,man,,,,,"{""Q0"":""dave is arguing with ruth""}","<img src=""stim_listB/argue3.gif""style=""height:400px;""></stim_listB>",is arguing with,
null,"<div style=""font-size:60px;"">+</div>",,html-keyboard-response,278,1294508,0.0-17.0-0.3,14790,List1B,black,man,,,,null,,,,
null,"<img src=""stim_listB/fight3.gif""style=""height:400px;""></stim_listB>",,html-keyboard-response,279,1296510,0.0-17.0-1.3,14790,List1B,black,man,,,,null,,,,
null,is fighting,,html-keyboard-response,280,1298510,0.0-17.0-2.3,14790,List1B,black,man,,,,null,,,,
6409,,,survey-text,281,1304920,0.0-17.0-3.3,14790,List1B,black,man,,,,,"{""Q0"":""jane is fighting dave""}","<img src=""stim_listB/fight3.gif""style=""height:400px;""></stim_listB>",is fighting,
null,"<div style=""font-size:60px;"">+</div>",,html-keyboard-response,282,1305422,0.0-17.0-0.4,14790,List1B,black,man,,,,null,,,,
null,"<img src=""stim_listB/kiss8.gif""style=""height:400px;""></stim_listB>",,html-keyboard-response,283,1307424,0.0-17.0-1.4,14790,List1B,black,man,,,,null,,,,
null,are kissing each other,,html-keyboard-response,284,1309425,0.0-17.0-2.4,14790,List1B,black,man,,,,null,,,,
53255,,,survey-text,285,1362680,0.0-17.0-3.4,14790,List1B,black,man,,,,,"{""Q0"":""kate and jane are kissing each other""}","<img src=""stim_listB/kiss8.gif""style=""height:400px;""></stim_listB>",are kissing each other,
null,"<div style=""font-size:60px;"">+</div>",,html-keyboard-response,286,1363183,0.0-17.0-0.5,14790,List1B,black,man,,,,null,,,,
null,"<img src=""stim_listB/marry3.gif""style=""height:400px;""></stim_listB>",,html-keyboard-response,287,1365184,0.0-17.0-1.5,14790,List1B,black,man,,,,null,,,,
null,is marrying,,html-keyboard-response,288,1367185,0.0-17.0-2.5,14790,List1B,black,man,,,,null,,,,
7658,,,survey-text,289,1374844,0.0-17.0-3.5,14790,List1B,black,man,,,,,"{""Q0"":""dave is marrying ruth""}","<img src=""stim_listB/marry3.gif""style=""height:400px;""></stim_listB>",is marrying,
null,"<div style=""font-size:60px;"">+</div>",,html-keyboard-response,290,1375346,0.0-17.0-0.6,14790,List1B,black,man,,,,null,,,,
null,"<img src=""stim_listB/shout7.gif""style=""height:400px;""></stim_listB>",,html-keyboard-response,291,1377348,0.0-17.0-1.6,14790,List1B,black,man,,,,null,,,,
null,is shouting at,,html-keyboard-response,292,1379350,0.0-17.0-2.6,14790,List1B,black,man,,,,null,,,,
7027,,,survey-text,293,1386378,0.0-17.0-3.6,14790,List1B,black,man,,,,,"{""Q0"":""ruth is shouting at beth""}","<img src=""stim_listB/shout7.gif""style=""height:400px;""></stim_listB>",is shouting at,
null,"<div style=""font-size:60px;"">+</div>",,html-keyboard-response,294,1386880,0.0-17.0-0.7,14790,List1B,black,man,,,,null,,,,
null,"<img src=""stim_listB/flirt6.gif""style=""height:400px;""></stim_listB>",,html-keyboard-response,295,1388883,0.0-17.0-1.7,14790,List1B,black,man,,,,null,,,,
null,are flirting with each other,,html-keyboard-response,296,1390885,0.0-17.0-2.7,14790,List1B,black,man,,,,null,,,,
11160,,,survey-text,297,1402046,0.0-17.0-3.7,14790,List1B,black,man,,,,,"{""Q0"":""mike and luke are flirting with each other""}","<img src=""stim_listB/flirt6.gif""style=""height:400px;""></stim_listB>",are flirting with each other,
null,"<div style=""font-size:60px;"">+</div>",,html-keyboard-response,298,1402547,0.0-17.0-0.8,14790,List1B,black,man,,,,null,,,,
null,"<img src=""stim_listB/play1.gif""style=""height:400px;""></stim_listB>",,html-keyboard-response,299,1404549,0.0-17.0-1.8,14790,List1B,black,man,,,,null,,,,
null,is playing with,,html-keyboard-response,300,1406550,0.0-17.0-2.8,14790,List1B,black,man,,,,null,,,,
7779,,,survey-text,301,1414329,0.0-17.0-3.8,14790,List1B,black,man,,,,,"{""Q0"":""mike is playing with kate""}","<img src=""stim_listB/play1.gif""style=""height:400px;""></stim_listB>",is playing with,
null,"<div style=""font-size:60px;"">+</div>",,html-keyboard-response,302,1414832,0.0-17.0-0.9,14790,List1B,black,man,,,,null,,,,
null,"<img src=""stim_listB/fight5.gif""style=""height:400px;""></stim_listB>",,html-keyboard-response,303,1416834,0.0-17.0-1.9,14790,List1B,black,man,,,,null,,,,
null,is fighting,,html-keyboard-response,304,1418836,0.0-17.0-2.9,14790,List1B,black,man,,,,null,,,,
7702,,,survey-text,305,1426540,0.0-17.0-3.9,14790,List1B,black,man,,,,,"{""Q0"":""mike is fighting dave""}","<img src=""stim_listB/fight5.gif""style=""height:400px;""></stim_listB>",is fighting,
null,"<div style=""font-size:60px;"">+</div>",,html-keyboard-response,306,1427042,0.0-17.0-0.10,14790,List1B,black,man,,,,null,,,,
null,"<img src=""stim_listB/touch7.gif""style=""height:400px;""></stim_listB>",,html-keyboard-response,307,1429044,0.0-17.0-1.10,14790,List1B,black,man,,,,null,,,,
null,is touching,,html-keyboard-response,308,1431044,0.0-17.0-2.10,14790,List1B,black,man,,,,null,,,,
5708,,,survey-text,309,1436754,0.0-17.0-3.10,14790,List1B,black,man,,,,,"{""Q0"":""jane is touching kate""}","<img src=""stim_listB/touch7.gif""style=""height:400px;""></stim_listB>",is touching,
null,"<div style=""font-size:60px;"">+</div>",,html-keyboard-response,310,1437256,0.0-17.0-0.11,14790,List1B,black,man,,,,null,,,,
null,"<img src=""stim_listB/touch4.gif""style=""height:400px;""></stim_listB>",,html-keyboard-response,311,1439258,0.0-17.0-1.11,14790,List1B,black,man,,,,null,,,,
null,are touching each other,,html-keyboard-response,312,1441259,0.0-17.0-2.11,14790,List1B,black,man,,,,null,,,,
9646,,,survey-text,313,1450905,0.0-17.0-3.11,14790,List1B,black,man,,,,,"{""Q0"":""ruth and luke are touching each other""}","<img src=""stim_listB/touch4.gif""style=""height:400px;""></stim_listB>",are touching each other,
null,"<div style=""font-size:60px;"">+</div>",,html-keyboard-response,314,1451408,0.0-17.0-0.12,14790,List1B,black,man,,,,null,,,,
null,"<img src=""stim_listB/touch8.gif""style=""height:400px;""></stim_listB>",,html-keyboard-response,315,1453409,0.0-17.0-1.12,14790,List1B,black,man,,,,null,,,,
null,are touching each other,,html-keyboard-response,316,1455410,0.0-17.0-2.12,14790,List1B,black,man,,,,null,,,,
11978,,,survey-text,317,1467389,0.0-17.0-3.12,14790,List1B,black,man,,,,,"{""Q0"":""beth and ruth are touching each other""}","<img src=""stim_listB/touch8.gif""style=""height:400px;""></stim_listB>",are touching each other,
null,"<div style=""font-size:60px;"">+</div>",,html-keyboard-response,318,1467892,0.0-17.0-0.13,14790,List1B,black,man,,,,null,,,,
null,"<img src=""stim_listB/dance6.gif""style=""height:400px;""></stim_listB>",,html-keyboard-response,319,1469893,0.0-17.0-1.13,14790,List1B,black,man,,,,null,,,,
null,are dancing with each other,,html-keyboard-response,320,1471896,0.0-17.0-2.13,14790,List1B,black,man,,,,null,,,,
10928,,,survey-text,321,1482825,0.0-17.0-3.13,14790,List1B,black,man,,,,,"{""Q0"":""mike and luke are dancing with each other""}","<img src=""stim_listB/dance6.gif""style=""height:400px;""></stim_listB>",are dancing with each other,
null,"<div style=""font-size:60px;"">+</div>",,html-keyboard-response,322,1483328,0.0-17.0-0.14,14790,List1B,black,man,,,,null,,,,
null,"<img src=""stim_listB/dance5.gif""style=""height:400px;""></stim_listB>",,html-keyboard-response,323,1485329,0.0-17.0-1.14,14790,List1B,black,man,,,,null,,,,
null,is dancing with,,html-keyboard-response,324,1487331,0.0-17.0-2.14,14790,List1B,black,man,,,,null,,,,
22958,,,survey-text,325,1510291,0.0-17.0-3.14,14790,List1B,black,man,,,,,"{""Q0"":""dave is dancing with fred""}","<img src=""stim_listB/dance5.gif""style=""height:400px;""></stim_listB>",is dancing with,
null,"<div style=""font-size:60px;"">+</div>",,html-keyboard-response,326,1510793,0.0-17.0-0.15,14790,List1B,black,man,,,,null,,,,
null,"<img src=""stim_listB/touch2.gif""style=""height:400px;""></stim_listB>",,html-keyboard-response,327,1512795,0.0-17.0-1.15,14790,List1B,black,man,,,,null,,,,
null,are touching each other,,html-keyboard-response,328,1514796,0.0-17.0-2.15,14790,List1B,black,man,,,,null,,,,
14899,,,survey-text,329,1529697,0.0-17.0-3.15,14790,List1B,black,man,,,,,"{""Q0"":""fred and beth are touching each other""}","<img src=""stim_listB/touch2.gif""style=""height:400px;""></stim_listB>",are touching each other,
null,"<div style=""font-size:60px;"">+</div>",,html-keyboard-response,330,1530199,0.0-17.0-0.16,14790,List1B,black,man,,,,null,,,,
null,"<img src=""stim_listB/fight8.gif""style=""height:400px;""></stim_listB>",,html-keyboard-response,331,1532202,0.0-17.0-1.16,14790,List1B,black,man,,,,null,,,,
null,are fighting each other,,html-keyboard-response,332,1534203,0.0-17.0-2.16,14790,List1B,black,man,,,,null,,,,
11747,,,survey-text,333,1545951,0.0-17.0-3.16,14790,List1B,black,man,,,,,"{""Q0"":""beth and ruth are fighting each other""}","<img src=""stim_listB/fight8.gif""style=""height:400px;""></stim_listB>",are fighting each other,
null,"<div style=""font-size:60px;"">+</div>",,html-keyboard-response,334,1546453,0.0-17.0-0.17,14790,List1B,black,man,,,,null,,,,
null,"<img src=""stim_listB/argue2.gif""style=""height:400px;""></stim_listB>",,html-keyboard-response,335,1548455,0.0-17.0-1.17,14790,List1B,black,man,,,,null,,,,
null,are arguing with each other,,html-keyboard-response,336,1550455,0.0-17.0-2.17,14790,List1B,black,man,,,,null,,,,
34881,,,survey-text,337,1585337,0.0-17.0-3.17,14790,List1B,black,man,,,,,"{""Q0"":""fred and kate are arguing with each other""}","<img src=""stim_listB/argue2.gif""style=""height:400px;""></stim_listB>",are arguing with each other,
null,"<div style=""font-size:60px;"">+</div>",,html-keyboard-response,338,1585838,0.0-17.0-0.18,14790,List1B,black,man,,,,null,,,,
null,"<img src=""stim_listB/talk8.gif""style=""height:400px;""></stim_listB>",,html-keyboard-response,339,1587840,0.0-17.0-1.18,14790,List1B,black,man,,,,null,,,,
null,are talking to each other,,html-keyboard-response,340,1589841,0.0-17.0-2.18,14790,List1B,black,man,,,,null,,,,
14728,,,survey-text,341,1604569,0.0-17.0-3.18,14790,List1B,black,man,,,,,"{""Q0"":""kate and beth are talking to each other""}","<img src=""stim_listB/talk8.gif""style=""height:400px;""></stim_listB>",are talking to each other,
null,"<div style=""font-size:60px;"">+</div>",,html-keyboard-response,342,1605071,0.0-17.0-0.19,14790,List1B,black,man,,,,null,,,,
null,"<img src=""stim_listB/touch5.gif""style=""height:400px;""></stim_listB>",,html-keyboard-response,343,1607072,0.0-17.0-1.19,14790,List1B,black,man,,,,null,,,,
null,is touching,,html-keyboard-response,344,1609075,0.0-17.0-2.19,14790,List1B,black,man,,,,null,,,,
7178,,,survey-text,345,1616253,0.0-17.0-3.19,14790,List1B,black,man,,,,,"{""Q0"":""mike is touching dave""}","<img src=""stim_listB/touch5.gif""style=""height:400px;""></stim_listB>",is touching,
40289,"<img src='img/portrait_matrix_list1.jpg' style='width:900px;height:500px;''></img><p>If you have memorised all the portraits and names and are ready to start, press Continue.</p><p><strong>Please note: Your memory of these faces will be tested 4 times during this experiment.</strong></p>",0,html-button-response,346,1656543,0.0-18.0-0.0,14790,List1B,black,man,,,,,,,,
1906,"<img src=""portrait/BW1.jpg""style=""height:400px;""></img>",0,html-button-response,347,1659451,0.0-18.0-1.0,14790,List1B,black,man,,TRUE,0,,,,,
null,CORRECT,,html-keyboard-response,348,1660954,0.0-18.0-2.0-0.0,14790,List1B,black,man,,,,null,,,,
4250,"<img src=""portrait/WM1.jpg""style=""height:400px;""></img>",6,html-button-response,349,1665205,0.0-18.0-4.0,14790,List1B,black,man,,TRUE,6,,,,,
null,CORRECT,,html-keyboard-response,350,1666708,0.0-18.0-5.0-0.0,14790,List1B,black,man,,,,null,,,,
1359,"<img src=""portrait/WM2.jpg""style=""height:400px;""></img>",7,html-button-response,351,1668067,0.0-18.0-7.0,14790,List1B,black,man,,TRUE,7,,,,,
null,CORRECT,,html-keyboard-response,352,1669570,0.0-18.0-8.0-0.0,14790,List1B,black,man,,,,null,,,,
1519,"<img src=""portrait/WW1.jpg""style=""height:400px;""></img>",1,html-button-response,353,1671091,0.0-18.0-10.0,14790,List1B,black,man,,TRUE,1,,,,,
null,CORRECT,,html-keyboard-response,354,1672594,0.0-18.0-11.0-0.0,14790,List1B,black,man,,,,null,,,,
1398,"<img src=""portrait/BM1.jpg""style=""height:400px;""></img>",4,html-button-response,355,1673993,0.0-18.0-13.0,14790,List1B,black,man,,TRUE,4,,,,,
null,CORRECT,,html-keyboard-response,356,1675496,0.0-18.0-14.0-0.0,14790,List1B,black,man,,,,null,,,,
1132,"<img src=""portrait/WW2.jpg""style=""height:400px;""></img>",3,html-button-response,357,1676629,0.0-18.0-16.0,14790,List1B,black,man,,TRUE,3,,,,,
null,CORRECT,,html-keyboard-response,358,1678132,0.0-18.0-17.0-0.0,14790,List1B,black,man,,,,null,,,,
1722,"<img src=""portrait/BM2.jpg""style=""height:400px;""></img>",5,html-button-response,359,1679855,0.0-18.0-19.0,14790,List1B,black,man,,TRUE,5,,,,,
null,CORRECT,,html-keyboard-response,360,1681358,0.0-18.0-20.0-0.0,14790,List1B,black,man,,,,null,,,,
1571,"<img src=""portrait/BW2.jpg""style=""height:400px;""></img>",2,html-button-response,361,1682929,0.0-18.0-22.0,14790,List1B,black,man,,TRUE,2,,,,,
null,CORRECT,,html-keyboard-response,362,1684433,0.0-18.0-23.0-0.0,14790,List1B,black,man,,,,null,,,,
1042,<p>You got 8 out of 8 right first time. Press Continue.</p>,0,html-button-response,363,1685475,0.0-18.0-25.0,14790,List1B,black,man,,,,,,,,
null,"<div style=""font-size:60px;"">+</div>",,html-keyboard-response,364,1686980,0.0-19.0-0.0,14790,List1B,black,man,,,,null,,,,
null,"<img src=""stim_listB/flirt5.gif""style=""height:400px;""></stim_listB>",,html-keyboard-response,365,1688981,0.0-19.0-1.0,14790,List1B,black,man,,,,null,,,,
null,is flirting with,,html-keyboard-response,366,1690983,0.0-19.0-2.0,14790,List1B,black,man,,,,null,,,,
14834,,,survey-text,367,1705817,0.0-19.0-3.0,14790,List1B,black,man,,,,,"{""Q0"":""fred is flirting with dave""}","<img src=""stim_listB/flirt5.gif""style=""height:400px;""></stim_listB>",is flirting with,
null,"<div style=""font-size:60px;"">+</div>",,html-keyboard-response,368,1706318,0.0-19.0-0.1,14790,List1B,black,man,,,,null,,,,
null,"<img src=""stim_listB/fight2.gif""style=""height:400px;""></stim_listB>",,html-keyboard-response,369,1708320,0.0-19.0-1.1,14790,List1B,black,man,,,,null,,,,
null,are fighting each other,,html-keyboard-response,370,1710321,0.0-19.0-2.1,14790,List1B,black,man,,,,null,,,,
9304,,,survey-text,371,1719625,0.0-19.0-3.1,14790,List1B,black,man,,,,,"{""Q0"":""fred and beth are fighting each other""}","<img src=""stim_listB/fight2.gif""style=""height:400px;""></stim_listB>",are fighting each other,
null,"<div style=""font-size:60px;"">+</div>",,html-keyboard-response,372,1720128,0.0-19.0-0.2,14790,List1B,black,man,,,,null,,,,
null,"<img src=""stim_listB/shout3.gif""style=""height:400px;""></stim_listB>",,html-keyboard-response,373,1722129,0.0-19.0-1.2,14790,List1B,black,man,,,,null,,,,
null,is shouting at,,html-keyboard-response,374,1724130,0.0-19.0-2.2,14790,List1B,black,man,,,,null,,,,
11296,,,survey-text,375,1735427,0.0-19.0-3.2,14790,List1B,black,man,,,,,"{""Q0"":""luke is shouting at ruth""}","<img src=""stim_listB/shout3.gif""style=""height:400px;""></stim_listB>",is shouting at,
null,"<div style=""font-size:60px;"">+</div>",,html-keyboard-response,376,1735930,0.0-19.0-0.3,14790,List1B,black,man,,,,null,,,,
null,"<img src=""stim_listB/fight1.gif""style=""height:400px;""></stim_listB>",,html-keyboard-response,377,1737931,0.0-19.0-1.3,14790,List1B,black,man,,,,null,,,,
null,is fighting,,html-keyboard-response,378,1739932,0.0-19.0-2.3,14790,List1B,black,man,,,,null,,,,
6748,,,survey-text,379,1746681,0.0-19.0-3.3,14790,List1B,black,man,,,,,"{""Q0"":""kate is fighting mike""}","<img src=""stim_listB/fight1.gif""style=""height:400px;""></stim_listB>",is fighting,
null,"<div style=""font-size:60px;"">+</div>",,html-keyboard-response,380,1747182,0.0-19.0-0.4,14790,List1B,black,man,,,,null,,,,
null,"<img src=""stim_listB/dance3.gif""style=""height:400px;""></stim_listB>",,html-keyboard-response,381,1749184,0.0-19.0-1.4,14790,List1B,black,man,,,,null,,,,
null,is dancing with,,html-keyboard-response,382,1751185,0.0-19.0-2.4,14790,List1B,black,man,,,,null,,,,
8202,,,survey-text,383,1759387,0.0-19.0-3.4,14790,List1B,black,man,,,,,"{""Q0"":""luke is dancing with jane""}","<img src=""stim_listB/dance3.gif""style=""height:400px;""></stim_listB>",is dancing with,
null,"<div style=""font-size:60px;"">+</div>",,html-keyboard-response,384,1759889,0.0-19.0-0.5,14790,List1B,black,man,,,,null,,,,
null,"<img src=""stim_listB/dance7.gif""style=""height:400px;""></stim_listB>",,html-keyboard-response,385,1761891,0.0-19.0-1.5,14790,List1B,black,man,,,,null,,,,
null,is dancing with,,html-keyboard-response,386,1763892,0.0-19.0-2.5,14790,List1B,black,man,,,,null,,,,
7665,,,survey-text,387,1771559,0.0-19.0-3.5,14790,List1B,black,man,,,,,"{""Q0"":""jane is dancing with beth""}","<img src=""stim_listB/dance7.gif""style=""height:400px;""></stim_listB>",is dancing with,
null,"<div style=""font-size:60px;"">+</div>",,html-keyboard-response,388,1772060,0.0-19.0-0.6,14790,List1B,black,man,,,,null,,,,
null,"<img src=""stim_listB/shout6.gif""style=""height:400px;""></stim_listB>",,html-keyboard-response,389,1774062,0.0-19.0-1.6,14790,List1B,black,man,,,,null,,,,
null,are shouting at each other,,html-keyboard-response,390,1776063,0.0-19.0-2.6,14790,List1B,black,man,,,,null,,,,
12156,,,survey-text,391,1788219,0.0-19.0-3.6,14790,List1B,black,man,,,,,"{""Q0"":""mike and dave are shouting at each other""}","<img src=""stim_listB/shout6.gif""style=""height:400px;""></stim_listB>",are shouting at each other,
null,"<div style=""font-size:60px;"">+</div>",,html-keyboard-response,392,1788721,0.0-19.0-0.7,14790,List1B,black,man,,,,null,,,,
null,"<img src=""stim_listB/play7.gif""style=""height:400px;""></stim_listB>",,html-keyboard-response,393,1790723,0.0-19.0-1.7,14790,List1B,black,man,,,,null,,,,
null,is playing with,,html-keyboard-response,394,1792724,0.0-19.0-2.7,14790,List1B,black,man,,,,null,,,,
21521,,,survey-text,395,1814245,0.0-19.0-3.7,14790,List1B,black,man,,,,,"{""Q0"":""jane is playing with kate""}","<img src=""stim_listB/play7.gif""style=""height:400px;""></stim_listB>",is playing with,
null,"<div style=""font-size:60px;"">+</div>",,html-keyboard-response,396,1814747,0.0-19.0-0.8,14790,List1B,black,man,,,,null,,,,
null,"<img src=""stim_listB/flirt1.gif""style=""height:400px;""></stim_listB>",,html-keyboard-response,397,1816750,0.0-19.0-1.8,14790,List1B,black,man,,,,null,,,,
null,is flirting with,,html-keyboard-response,398,1818752,0.0-19.0-2.8,14790,List1B,black,man,,,,null,,,,
6724,,,survey-text,399,1825477,0.0-19.0-3.8,14790,List1B,black,man,,,,,"{""Q0"":""kate is flirting with dave""}","<img src=""stim_listB/flirt1.gif""style=""height:400px;""></stim_listB>",is flirting with,
null,"<div style=""font-size:60px;"">+</div>",,html-keyboard-response,400,1825979,0.0-19.0-0.9,14790,List1B,black,man,,,,null,,,,
null,"<img src=""stim_listB/marry7.gif""style=""height:400px;""></stim_listB>",,html-keyboard-response,401,1827981,0.0-19.0-1.9,14790,List1B,black,man,,,,null,,,,
null,is marrying,,html-keyboard-response,402,1829982,0.0-19.0-2.9,14790,List1B,black,man,,,,null,,,,
5541,,,survey-text,403,1835523,0.0-19.0-3.9,14790,List1B,black,man,,,,,"{""Q0"":""kate is marrying ruth""}","<img src=""stim_listB/marry7.gif""style=""height:400px;""></stim_listB>",is marrying,
null,"<div style=""font-size:60px;"">+</div>",,html-keyboard-response,404,1836025,0.0-19.0-0.10,14790,List1B,black,man,,,,null,,,,
null,"<img src=""stim_listB/fight7.gif""style=""height:400px;""></stim_listB>",,html-keyboard-response,405,1838027,0.0-19.0-1.10,14790,List1B,black,man,,,,null,,,,
null,is fighting,,html-keyboard-response,406,1840028,0.0-19.0-2.10,14790,List1B,black,man,,,,null,,,,
8937,,,survey-text,407,1848965,0.0-19.0-3.10,14790,List1B,black,man,,,,,"{""Q0"":""jane is fighting kate""}","<img src=""stim_listB/fight7.gif""style=""height:400px;""></stim_listB>",is fighting,
null,"<div style=""font-size:60px;"">+</div>",,html-keyboard-response,408,1849467,0.0-19.0-0.11,14790,List1B,black,man,,,,null,,,,
null,"<img src=""stim_listB/talk6.gif""style=""height:400px;""></stim_listB>",,html-keyboard-response,409,1851469,0.0-19.0-1.11,14790,List1B,black,man,,,,null,,,,
null,are talking to each other,,html-keyboard-response,410,1853470,0.0-19.0-2.11,14790,List1B,black,man,,,,null,,,,
9835,,,survey-text,411,1863305,0.0-19.0-3.11,14790,List1B,black,man,,,,,"{""Q0"":""mike and luke are talking to each other""}","<img src=""stim_listB/talk6.gif""style=""height:400px;""></stim_listB>",are talking to each other,
null,"<div style=""font-size:60px;"">+</div>",,html-keyboard-response,412,1863807,0.0-19.0-0.12,14790,List1B,black,man,,,,null,,,,
null,"<img src=""stim_listB/flirt8.gif""style=""height:400px;""></stim_listB>",,html-keyboard-response,413,1865808,0.0-19.0-1.12,14790,List1B,black,man,,,,null,,,,
null,are flirting with each other,,html-keyboard-response,414,1867809,0.0-19.0-2.12,14790,List1B,black,man,,,,null,,,,
11467,,,survey-text,415,1879277,0.0-19.0-3.12,14790,List1B,black,man,,,,,"{""Q0"":""kate and ruth are flirting with each other""}","<img src=""stim_listB/flirt8.gif""style=""height:400px;""></stim_listB>",are flirting with each other,
null,"<div style=""font-size:60px;"">+</div>",,html-keyboard-response,416,1879779,0.0-19.0-0.13,14790,List1B,black,man,,,,null,,,,
null,"<img src=""stim_listB/kiss2.gif""style=""height:400px;""></stim_listB>",,html-keyboard-response,417,1881781,0.0-19.0-1.13,14790,List1B,black,man,,,,null,,,,
null,are kissing each other,,html-keyboard-response,418,1883782,0.0-19.0-2.13,14790,List1B,black,man,,,,null,,,,
10539,,,survey-text,419,1894321,0.0-19.0-3.13,14790,List1B,black,man,,,,,"{""Q0"":""kate and mike are kissing each other""}","<img src=""stim_listB/kiss2.gif""style=""height:400px;""></stim_listB>",are kissing each other,
null,"<div style=""font-size:60px;"">+</div>",,html-keyboard-response,420,1894823,0.0-19.0-0.14,14790,List1B,black,man,,,,null,,,,
null,"<img src=""stim_listB/shout4.gif""style=""height:400px;""></stim_listB>",,html-keyboard-response,421,1896825,0.0-19.0-1.14,14790,List1B,black,man,,,,null,,,,
null,are shouting at each other,,html-keyboard-response,422,1898828,0.0-19.0-2.14,14790,List1B,black,man,,,,null,,,,
9737,,,survey-text,423,1908565,0.0-19.0-3.14,14790,List1B,black,man,,,,,"{""Q0"":""jane and dave are shouting at each other""}","<img src=""stim_listB/shout4.gif""style=""height:400px;""></stim_listB>",are shouting at each other,
null,"<div style=""font-size:60px;"">+</div>",,html-keyboard-response,424,1909067,0.0-19.0-0.15,14790,List1B,black,man,,,,null,,,,
null,"<img src=""stim_listB/marry5.gif""style=""height:400px;""></stim_listB>",,html-keyboard-response,425,1911069,0.0-19.0-1.15,14790,List1B,black,man,,,,null,,,,
null,is marrying,,html-keyboard-response,426,1913071,0.0-19.0-2.15,14790,List1B,black,man,,,,null,,,,
5710,,,survey-text,427,1918781,0.0-19.0-3.15,14790,List1B,black,man,,,,,"{""Q0"":""mike is marrying luke""}","<img src=""stim_listB/marry5.gif""style=""height:400px;""></stim_listB>",is marrying,
null,"<div style=""font-size:60px;"">+</div>",,html-keyboard-response,428,1919282,0.0-19.0-0.16,14790,List1B,black,man,,,,null,,,,
null,"<img src=""stim_listB/shout1.gif""style=""height:400px;""></stim_listB>",,html-keyboard-response,429,1921284,0.0-19.0-1.16,14790,List1B,black,man,,,,null,,,,
null,is shouting at,,html-keyboard-response,430,1923284,0.0-19.0-2.16,14790,List1B,black,man,,,,null,,,,
7525,,,survey-text,431,1930810,0.0-19.0-3.16,14790,List1B,black,man,,,,,"{""Q0"":""beth is shouting at dave""}","<img src=""stim_listB/shout1.gif""style=""height:400px;""></stim_listB>",is shouting at,
null,"<div style=""font-size:60px;"">+</div>",,html-keyboard-response,432,1931312,0.0-19.0-0.17,14790,List1B,black,man,,,,null,,,,
null,"<img src=""stim_listB/kiss7.gif""style=""height:400px;""></stim_listB>",,html-keyboard-response,433,1933313,0.0-19.0-1.17,14790,List1B,black,man,,,,null,,,,
null,is kissing,,html-keyboard-response,434,1935316,0.0-19.0-2.17,14790,List1B,black,man,,,,null,,,,
5562,,,survey-text,435,1940878,0.0-19.0-3.17,14790,List1B,black,man,,,,,"{""Q0"":""beth is kissing ruth""}","<img src=""stim_listB/kiss7.gif""style=""height:400px;""></stim_listB>",is kissing,
null,"<div style=""font-size:60px;"">+</div>",,html-keyboard-response,436,1941380,0.0-19.0-0.18,14790,List1B,black,man,,,,null,,,,
null,"<img src=""stim_listB/dance4.gif""style=""height:400px;""></stim_listB>",,html-keyboard-response,437,1943382,0.0-19.0-1.18,14790,List1B,black,man,,,,null,,,,
null,are dancing with each other,,html-keyboard-response,438,1945382,0.0-19.0-2.18,14790,List1B,black,man,,,,null,,,,
8771,,,survey-text,439,1954154,0.0-19.0-3.18,14790,List1B,black,man,,,,,"{""Q0"":""dave and ruth are dancing with each other""}","<img src=""stim_listB/dance4.gif""style=""height:400px;""></stim_listB>",are dancing with each other,
null,"<div style=""font-size:60px;"">+</div>",,html-keyboard-response,440,1954656,0.0-19.0-0.19,14790,List1B,black,man,,,,null,,,,
null,"<img src=""stim_listB/marry4.gif""style=""height:400px;""></stim_listB>",,html-keyboard-response,441,1956659,0.0-19.0-1.19,14790,List1B,black,man,,,,null,,,,
null,are marrying each other,,html-keyboard-response,442,1958659,0.0-19.0-2.19,14790,List1B,black,man,,,,null,,,,
17272,,,survey-text,443,1975932,0.0-19.0-3.19,14790,List1B,black,man,,,,,"{""Q0"":""luke and ruth are marrying each other""}","<img src=""stim_listB/marry4.gif""style=""height:400px;""></stim_listB>",are marrying each other,
2099,<p>Thank you for completing that task.</p><p>The final part of this session is a short questionnaire.</p><p>Press Continue.</p>,0,html-button-response,444,1978032,0.0-20.0,14790,List1B,black,man,,,,,,,,
38747,,,survey-text,445,2017781,0.0-21.0,14790,List1B,black,man,,,,,"{""Q0"":""28"",""Q1"":""yoruba"",""Q2"":""english"",""Q3"":""Canada"",""Q4"":""Black"",""Q5"":""male""}",,,demographics
8195,,,survey-likert,446,2025977,0.0-22.0,14790,List1B,black,man,,,,,"{""Q0"":4}",,,likert_ESS
8456,,,survey-likert,447,2034445,0.0-23.0,14790,List1B,black,man,,,,,"{""Q0"":4}",,,likert_NSSAL_Q1
3553,,,survey-likert,448,2038009,0.0-24.0,14790,List1B,black,man,,,,,"{""Q0"":4}",,,likert_NSSAL_Q2
4254,,,survey-likert,449,2042275,0.0-25.0,14790,List1B,black,man,,,,,"{""Q0"":4}",,,likert_CGRS_Q1
6761,,,survey-likert,450,2049047,0.0-26.0,14790,List1B,black,man,,,,,"{""Q0"":4}",,,likert_CGRS_Q2
2593,,,survey-likert,451,2051652,0.0-27.0,14790,List1B,black,man,,,,,"{""Q0"":4}",,,likert_CGRS_Q3
3280,,,survey-text,452,2054944,0.0-28.0,14790,List1B,black,man,,,,,"{""Q0"":""ccc""}",,,worker_id
28031,,,external-html,453,2083212,0.0-29.0,14790,List1B,black,man,debrief.html,,,,,,,
