rt,stimulus,button_pressed,trial_type,trial_index,time_elapsed,internal_node_id,subject,list,ppt_race,ppt_gender,url,first_guess,correct,key_press,responses,image_type,phrase_type,test_part
1355,Welcome to the experiment. Press Continue to begin.,0,html-button-response,0,1358,0.0-0.0,15008,List2B,white,man,,,,,,,,
6852,,,external-html,1,9249,0.0-1.0,15008,List2B,white,man,consent.html,,,,,,,
9966,"<p>On the next page, you will see portraits of 8 people and their names.</p><p>Your first task is to take a few minutes to memorise the names of these people.</p><p>You will have to recall their names during the rest of the experiment, so it is</p><p>essential that you try to memorise these people and their names as best as you can.</p><br><p><strong>You will then be tested on your memory of these names and portraits.</strong></p><br><p>The experiment will start after you have completed this memory test.</p><br><p>Ready?</p>",0,html-button-response,2,19216,0.0-2.0,15008,List2B,white,man,,,,,,,,
35643,"<img src='img/portrait_matrix_list2.jpg' style='width:900px;height:500px;''></img><p>If you have memorised all the portraits and names and are ready to start, press Continue.</p><p><strong>Please note: Your memory of these faces will be tested 4 times during this experiment.</strong></p>",0,html-button-response,3,55862,0.0-3.0-0.0,15008,List2B,white,man,,,,,,,,
8710,"<img src=""portrait/BW1.jpg""style=""height:400px;""></img>",2,html-button-response,4,65574,0.0-3.0-1.0,15008,List2B,white,man,,TRUE,0,,,,,
4047,"<img src=""portrait/BW1.jpg""style=""height:400px;""></img>",0,html-button-response,5,70623,0.0-3.0-3.0-0.0,15008,List2B,white,man,,FALSE,0,,,,,
null,CORRECT,,html-keyboard-response,6,72128,0.0-3.0-3.0-1.0-0.0,15008,List2B,white,man,,,,null,,,,
14404,"<img src=""portrait/WW1.jpg""style=""height:400px;""></img>",1,html-button-response,7,86534,0.0-3.0-4.0,15008,List2B,white,man,,TRUE,1,,,,,
null,CORRECT,,html-keyboard-response,8,88037,0.0-3.0-5.0-0.0,15008,List2B,white,man,,,,null,,,,
1617,"<img src=""portrait/WW2.jpg""style=""height:400px;""></img>",2,html-button-response,9,89655,0.0-3.0-7.0,15008,List2B,white,man,,TRUE,3,,,,,
1522,"<img src=""portrait/WW2.jpg""style=""height:400px;""></img>",3,html-button-response,10,92179,0.0-3.0-9.0-0.0,15008,List2B,white,man,,FALSE,3,,,,,
null,CORRECT,,html-keyboard-response,11,93683,0.0-3.0-9.0-1.0-0.0,15008,List2B,white,man,,,,null,,,,
2814,"<img src=""portrait/BW2.jpg""style=""height:400px;""></img>",2,html-button-response,12,96497,0.0-3.0-10.0,15008,List2B,white,man,,TRUE,2,,,,,
null,CORRECT,,html-keyboard-response,13,98000,0.0-3.0-11.0-0.0,15008,List2B,white,man,,,,null,,,,
2519,"<img src=""portrait/WM2.jpg""style=""height:400px;""></img>",7,html-button-response,14,100521,0.0-3.0-13.0,15008,List2B,white,man,,TRUE,7,,,,,
null,CORRECT,,html-keyboard-response,15,102024,0.0-3.0-14.0-0.0,15008,List2B,white,man,,,,null,,,,
3632,"<img src=""portrait/BM2.jpg""style=""height:400px;""></img>",5,html-button-response,16,105657,0.0-3.0-16.0,15008,List2B,white,man,,TRUE,5,,,,,
null,CORRECT,,html-keyboard-response,17,107161,0.0-3.0-17.0-0.0,15008,List2B,white,man,,,,null,,,,
4902,"<img src=""portrait/BM1.jpg""style=""height:400px;""></img>",4,html-button-response,18,112065,0.0-3.0-19.0,15008,List2B,white,man,,TRUE,4,,,,,
null,CORRECT,,html-keyboard-response,19,113568,0.0-3.0-20.0-0.0,15008,List2B,white,man,,,,null,,,,
1064,"<img src=""portrait/WM1.jpg""style=""height:400px;""></img>",6,html-button-response,20,114633,0.0-3.0-22.0,15008,List2B,white,man,,TRUE,6,,,,,
null,CORRECT,,html-keyboard-response,21,116137,0.0-3.0-23.0-0.0,15008,List2B,white,man,,,,null,,,,
1971,<p>You got 6 out of 8 right first time. Press Continue.</p>,0,html-button-response,22,118109,0.0-3.0-25.0,15008,List2B,white,man,,,,,,,,
3932,"As you did not score 100%, the memory game will repeat. Press Continue.",0,html-button-response,23,123043,0.0-3.0-26.0-0.0,15008,List2B,white,man,,,,,,,,
9656,"<img src='img/portrait_matrix_list2.jpg' style='width:900px;height:500px;''></img><p>If you have memorised all the portraits and names and are ready to start, press Continue.</p><p><strong>Please note: Your memory of these faces will be tested 4 times during this experiment.</strong></p>",0,html-button-response,24,133701,0.0-3.1-0.1,15008,List2B,white,man,,,,,,,,
2836,"<img src=""portrait/BW1.jpg""style=""height:400px;""></img>",0,html-button-response,25,137539,0.0-3.1-1.1,15008,List2B,white,man,,TRUE,0,,,,,
null,CORRECT,,html-keyboard-response,26,139041,0.0-3.1-2.1-0.1,15008,List2B,white,man,,,,null,,,,
2865,"<img src=""portrait/WW1.jpg""style=""height:400px;""></img>",3,html-button-response,27,141907,0.0-3.1-4.1,15008,List2B,white,man,,TRUE,1,,,,,
1457,"<img src=""portrait/WW1.jpg""style=""height:400px;""></img>",1,html-button-response,28,144367,0.0-3.1-6.1-0.1,15008,List2B,white,man,,FALSE,1,,,,,
null,CORRECT,,html-keyboard-response,29,145870,0.0-3.1-6.1-1.1-0.1,15008,List2B,white,man,,,,null,,,,
3331,"<img src=""portrait/WW2.jpg""style=""height:400px;""></img>",3,html-button-response,30,149203,0.0-3.1-7.1,15008,List2B,white,man,,TRUE,3,,,,,
null,CORRECT,,html-keyboard-response,31,150706,0.0-3.1-8.1-0.1,15008,List2B,white,man,,,,null,,,,
942,"<img src=""portrait/BW2.jpg""style=""height:400px;""></img>",2,html-button-response,32,151649,0.0-3.1-10.1,15008,List2B,white,man,,TRUE,2,,,,,
null,CORRECT,,html-keyboard-response,33,153152,0.0-3.1-11.1-0.1,15008,List2B,white,man,,,,null,,,,
1498,"<img src=""portrait/WM2.jpg""style=""height:400px;""></img>",7,html-button-response,34,154652,0.0-3.1-13.1,15008,List2B,white,man,,TRUE,7,,,,,
null,CORRECT,,html-keyboard-response,35,156155,0.0-3.1-14.1-0.1,15008,List2B,white,man,,,,null,,,,
2668,"<img src=""portrait/BM2.jpg""style=""height:400px;""></img>",5,html-button-response,36,158825,0.0-3.1-16.1,15008,List2B,white,man,,TRUE,5,,,,,
null,CORRECT,,html-keyboard-response,37,160328,0.0-3.1-17.1-0.1,15008,List2B,white,man,,,,null,,,,
897,"<img src=""portrait/BM1.jpg""style=""height:400px;""></img>",4,html-button-response,38,161227,0.0-3.1-19.1,15008,List2B,white,man,,TRUE,4,,,,,
null,CORRECT,,html-keyboard-response,39,162730,0.0-3.1-20.1-0.1,15008,List2B,white,man,,,,null,,,,
683,"<img src=""portrait/WM1.jpg""style=""height:400px;""></img>",6,html-button-response,40,163415,0.0-3.1-22.1,15008,List2B,white,man,,TRUE,6,,,,,
null,CORRECT,,html-keyboard-response,41,164918,0.0-3.1-23.1-0.1,15008,List2B,white,man,,,,null,,,,
1021,<p>You got 7 out of 8 right first time. Press Continue.</p>,0,html-button-response,42,165941,0.0-3.1-25.1,15008,List2B,white,man,,,,,,,,
760,"As you did not score 100%, the memory game will repeat. Press Continue.",0,html-button-response,43,167703,0.0-3.1-26.1-0.1,15008,List2B,white,man,,,,,,,,
6364,"<img src='img/portrait_matrix_list2.jpg' style='width:900px;height:500px;''></img><p>If you have memorised all the portraits and names and are ready to start, press Continue.</p><p><strong>Please note: Your memory of these faces will be tested 4 times during this experiment.</strong></p>",0,html-button-response,44,175071,0.0-3.2-0.2,15008,List2B,white,man,,,,,,,,
2407,"<img src=""portrait/BW1.jpg""style=""height:400px;""></img>",0,html-button-response,45,178481,0.0-3.2-1.2,15008,List2B,white,man,,TRUE,0,,,,,
null,CORRECT,,html-keyboard-response,46,179984,0.0-3.2-2.2-0.2,15008,List2B,white,man,,,,null,,,,
671,"<img src=""portrait/WW1.jpg""style=""height:400px;""></img>",1,html-button-response,47,180657,0.0-3.2-4.2,15008,List2B,white,man,,TRUE,1,,,,,
null,CORRECT,,html-keyboard-response,48,182158,0.0-3.2-5.2-0.2,15008,List2B,white,man,,,,null,,,,
561,"<img src=""portrait/WW2.jpg""style=""height:400px;""></img>",3,html-button-response,49,182721,0.0-3.2-7.2,15008,List2B,white,man,,TRUE,3,,,,,
null,CORRECT,,html-keyboard-response,50,184223,0.0-3.2-8.2-0.2,15008,List2B,white,man,,,,null,,,,
438,"<img src=""portrait/BW2.jpg""style=""height:400px;""></img>",2,html-button-response,51,184662,0.0-3.2-10.2,15008,List2B,white,man,,TRUE,2,,,,,
null,CORRECT,,html-keyboard-response,52,186164,0.0-3.2-11.2-0.2,15008,List2B,white,man,,,,null,,,,
1411,"<img src=""portrait/WM2.jpg""style=""height:400px;""></img>",7,html-button-response,53,187577,0.0-3.2-13.2,15008,List2B,white,man,,TRUE,7,,,,,
null,CORRECT,,html-keyboard-response,54,189080,0.0-3.2-14.2-0.2,15008,List2B,white,man,,,,null,,,,
2281,"<img src=""portrait/BM2.jpg""style=""height:400px;""></img>",5,html-button-response,55,191365,0.0-3.2-16.2,15008,List2B,white,man,,TRUE,5,,,,,
null,CORRECT,,html-keyboard-response,56,192867,0.0-3.2-17.2-0.2,15008,List2B,white,man,,,,null,,,,
524,"<img src=""portrait/BM1.jpg""style=""height:400px;""></img>",4,html-button-response,57,193392,0.0-3.2-19.2,15008,List2B,white,man,,TRUE,4,,,,,
null,CORRECT,,html-keyboard-response,58,194895,0.0-3.2-20.2-0.2,15008,List2B,white,man,,,,null,,,,
474,"<img src=""portrait/WM1.jpg""style=""height:400px;""></img>",6,html-button-response,59,195370,0.0-3.2-22.2,15008,List2B,white,man,,TRUE,6,,,,,
null,CORRECT,,html-keyboard-response,60,196874,0.0-3.2-23.2-0.2,15008,List2B,white,man,,,,null,,,,
1029,<p>You got 8 out of 8 right first time. Press Continue.</p>,0,html-button-response,61,197904,0.0-3.2-25.2,15008,List2B,white,man,,,,,,,,
10905,"<p>In this experiment, you will view photographs of the people from the memory game interacting.</p><p>By using the <strong>exact</strong> phrase given <i>after</i> the photograph appears and recalling the correct names of the people in the photographs, form a sentence describing the interaction. You do not need to capitalise names.</p><p>Type your answer in the space provided. Please complete every sentence before moving onto the next trial.</p><p>You will only have a few seconds to memorise each given photograph and phrase before you can respond, so try your best to focus.</p><p>An example is given below. Press 'Continue' when you are ready.</p><img src='img/speaking_example.jpg' style='width:800px;height:460px;''></img>",0,html-button-response,62,209812,0.0-4.0,15008,List2B,white,man,,,,,,,,
1526,"<p>Before the experiment starts, you will watch two example trials. Press 'Continue'.</p>",0,html-button-response,63,212340,0.0-5.0,15008,List2B,white,man,,,,,,,,
null,<img src='img/meet_eg.gif' style='height:400px;''></img>,,html-keyboard-response,64,215344,0.0-6.0,15008,List2B,white,man,,,,null,,,,
null,<p>is meeting</p>,,html-keyboard-response,65,217346,0.0-7.0,15008,List2B,white,man,,,,null,,,,
3124,<p><b>Answer:</b> jane is meeting ruth</p>,0,html-button-response,66,220470,0.0-8.0,15008,List2B,white,man,,,,,,,,
null,<img src='img/look_eg.gif' style='height:400px;''></img>,,html-keyboard-response,67,223472,0.0-9.0,15008,List2B,white,man,,,,null,,,,
null,<p>are looking at each other</p>,,html-keyboard-response,68,225474,0.0-10.0,15008,List2B,white,man,,,,null,,,,
1504,<p><b>Answer:</b> fred and mike are looking at each other</p>,0,html-button-response,69,226978,0.0-11.0,15008,List2B,white,man,,,,,,,,
2821,"<p>Ready to start the experiment?</p><br><p><strong>Remember to describe the picture using a full sentence,</strong></p><p><strong>that combines the names of the people with the <i>exact</i> phrase given.</strong></p><p><strong>To receive full payment you must do this correctly.</strong></p><p><strong> You do not need to capitalise names or use punctuation.</strong></p><br><p>Press 'Continue' to begin.</p>",0,html-button-response,70,230802,0.0-12.0,15008,List2B,white,man,,,,,,,,
null,"<div style=""font-size:60px;"">+</div>",,html-keyboard-response,71,232305,0.0-13.0-0.0,15008,List2B,white,man,,,,null,,,,
null,"<img src=""stim_listB/fight4.gif""style=""height:400px;""></stim_listB>",,html-keyboard-response,72,234307,0.0-13.0-1.0,15008,List2B,white,man,,,,null,,,,
null,are fighting each other,,html-keyboard-response,73,236309,0.0-13.0-2.0,15008,List2B,white,man,,,,null,,,,
9004,,,survey-text,74,245314,0.0-13.0-3.0,15008,List2B,white,man,,,,,"{""Q0"":""beth is fighting fred""}","<img src=""stim_listB/fight4.gif""style=""height:400px;""></stim_listB>",are fighting each other,
null,"<div style=""font-size:60px;"">+</div>",,html-keyboard-response,75,245817,0.0-13.0-0.1,15008,List2B,white,man,,,,null,,,,
null,"<img src=""stim_listB/kiss7.gif""style=""height:400px;""></stim_listB>",,html-keyboard-response,76,247819,0.0-13.0-1.1,15008,List2B,white,man,,,,null,,,,
null,is kissing,,html-keyboard-response,77,249819,0.0-13.0-2.1,15008,List2B,white,man,,,,null,,,,
6505,,,survey-text,78,256326,0.0-13.0-3.1,15008,List2B,white,man,,,,,"{""Q0"":""beth is kissing jane""}","<img src=""stim_listB/kiss7.gif""style=""height:400px;""></stim_listB>",is kissing,
null,"<div style=""font-size:60px;"">+</div>",,html-keyboard-response,79,256828,0.0-13.0-0.2,15008,List2B,white,man,,,,null,,,,
null,"<img src=""stim_listB/marry8.gif""style=""height:400px;""></stim_listB>",,html-keyboard-response,80,258829,0.0-13.0-1.2,15008,List2B,white,man,,,,null,,,,
null,are marrying each other,,html-keyboard-response,81,260831,0.0-13.0-2.2,15008,List2B,white,man,,,,null,,,,
5338,,,survey-text,82,266170,0.0-13.0-3.2,15008,List2B,white,man,,,,,"{""Q0"":""jane is marrying ruth""}","<img src=""stim_listB/marry8.gif""style=""height:400px;""></stim_listB>",are marrying each other,
null,"<div style=""font-size:60px;"">+</div>",,html-keyboard-response,83,266672,0.0-13.0-0.3,15008,List2B,white,man,,,,null,,,,
null,"<img src=""stim_listB/kiss2.gif""style=""height:400px;""></stim_listB>",,html-keyboard-response,84,268674,0.0-13.0-1.3,15008,List2B,white,man,,,,null,,,,
null,are kissing each other,,html-keyboard-response,85,270675,0.0-13.0-2.3,15008,List2B,white,man,,,,null,,,,
6589,,,survey-text,86,277266,0.0-13.0-3.3,15008,List2B,white,man,,,,,"{""Q0"":""dave is kissing jane""}","<img src=""stim_listB/kiss2.gif""style=""height:400px;""></stim_listB>",are kissing each other,
null,"<div style=""font-size:60px;"">+</div>",,html-keyboard-response,87,277767,0.0-13.0-0.4,15008,List2B,white,man,,,,null,,,,
null,"<img src=""stim_listB/shout7.gif""style=""height:400px;""></stim_listB>",,html-keyboard-response,88,279769,0.0-13.0-1.4,15008,List2B,white,man,,,,null,,,,
null,is shouting at,,html-keyboard-response,89,281771,0.0-13.0-2.4,15008,List2B,white,man,,,,null,,,,
4490,,,survey-text,90,286262,0.0-13.0-3.4,15008,List2B,white,man,,,,,"{""Q0"":""no idea""}","<img src=""stim_listB/shout7.gif""style=""height:400px;""></stim_listB>",is shouting at,
null,"<div style=""font-size:60px;"">+</div>",,html-keyboard-response,91,286763,0.0-13.0-0.5,15008,List2B,white,man,,,,null,,,,
null,"<img src=""stim_listB/fight6.gif""style=""height:400px;""></stim_listB>",,html-keyboard-response,92,288766,0.0-13.0-1.5,15008,List2B,white,man,,,,null,,,,
null,are fighting each other,,html-keyboard-response,93,290768,0.0-13.0-2.5,15008,List2B,white,man,,,,null,,,,
7561,,,survey-text,94,298330,0.0-13.0-3.5,15008,List2B,white,man,,,,,"{""Q0"":""fred and luke are fighting each other""}","<img src=""stim_listB/fight6.gif""style=""height:400px;""></stim_listB>",are fighting each other,
null,"<div style=""font-size:60px;"">+</div>",,html-keyboard-response,95,298831,0.0-13.0-0.6,15008,List2B,white,man,,,,null,,,,
null,"<img src=""stim_listB/kiss8.gif""style=""height:400px;""></stim_listB>",,html-keyboard-response,96,300834,0.0-13.0-1.6,15008,List2B,white,man,,,,null,,,,
null,are kissing each other,,html-keyboard-response,97,302836,0.0-13.0-2.6,15008,List2B,white,man,,,,null,,,,
7696,,,survey-text,98,310532,0.0-13.0-3.6,15008,List2B,white,man,,,,,"{""Q0"":""kate and jane are kissing each other""}","<img src=""stim_listB/kiss8.gif""style=""height:400px;""></stim_listB>",are kissing each other,
null,"<div style=""font-size:60px;"">+</div>",,html-keyboard-response,99,311035,0.0-13.0-0.7,15008,List2B,white,man,,,,null,,,,
null,"<img src=""stim_listB/touch6.gif""style=""height:400px;""></stim_listB>",,html-keyboard-response,100,313037,0.0-13.0-1.7,15008,List2B,white,man,,,,null,,,,
null,are touching each other,,html-keyboard-response,101,315039,0.0-13.0-2.7,15008,List2B,white,man,,,,null,,,,
5689,,,survey-text,102,320728,0.0-13.0-3.7,15008,List2B,white,man,,,,,"{""Q0"":""fred and luke are touching each other""}","<img src=""stim_listB/touch6.gif""style=""height:400px;""></stim_listB>",are touching each other,
null,"<div style=""font-size:60px;"">+</div>",,html-keyboard-response,103,321230,0.0-13.0-0.8,15008,List2B,white,man,,,,null,,,,
null,"<img src=""stim_listB/shout3.gif""style=""height:400px;""></stim_listB>",,html-keyboard-response,104,323232,0.0-13.0-1.8,15008,List2B,white,man,,,,null,,,,
null,is shouting at,,html-keyboard-response,105,325235,0.0-13.0-2.8,15008,List2B,white,man,,,,null,,,,
8184,,,survey-text,106,333420,0.0-13.0-3.8,15008,List2B,white,man,,,,,"{""Q0"":""beth and fred are shouting at each other""}","<img src=""stim_listB/shout3.gif""style=""height:400px;""></stim_listB>",is shouting at,
null,"<div style=""font-size:60px;"">+</div>",,html-keyboard-response,107,333922,0.0-13.0-0.9,15008,List2B,white,man,,,,null,,,,
null,"<img src=""stim_listB/touch3.gif""style=""height:400px;""></stim_listB>",,html-keyboard-response,108,335925,0.0-13.0-1.9,15008,List2B,white,man,,,,null,,,,
null,is touching,,html-keyboard-response,109,337925,0.0-13.0-2.9,15008,List2B,white,man,,,,null,,,,
4107,,,survey-text,110,342034,0.0-13.0-3.9,15008,List2B,white,man,,,,,"{""Q0"":""mike is touching kate""}","<img src=""stim_listB/touch3.gif""style=""height:400px;""></stim_listB>",is touching,
null,"<div style=""font-size:60px;"">+</div>",,html-keyboard-response,111,342536,0.0-13.0-0.10,15008,List2B,white,man,,,,null,,,,
null,"<img src=""stim_listB/fight5.gif""style=""height:400px;""></stim_listB>",,html-keyboard-response,112,344537,0.0-13.0-1.10,15008,List2B,white,man,,,,null,,,,
null,is fighting,,html-keyboard-response,113,346538,0.0-13.0-2.10,15008,List2B,white,man,,,,null,,,,
5520,,,survey-text,114,352060,0.0-13.0-3.10,15008,List2B,white,man,,,,,"{""Q0"":""mike is fighting dave""}","<img src=""stim_listB/fight5.gif""style=""height:400px;""></stim_listB>",is fighting,
null,"<div style=""font-size:60px;"">+</div>",,html-keyboard-response,115,352561,0.0-13.0-0.11,15008,List2B,white,man,,,,null,,,,
null,"<img src=""stim_listB/marry4.gif""style=""height:400px;""></stim_listB>",,html-keyboard-response,116,354563,0.0-13.0-1.11,15008,List2B,white,man,,,,null,,,,
null,are marrying each other,,html-keyboard-response,117,356564,0.0-13.0-2.11,15008,List2B,white,man,,,,null,,,,
6422,,,survey-text,118,362987,0.0-13.0-3.11,15008,List2B,white,man,,,,,"{""Q0"":""luke and kate are marring each other""}","<img src=""stim_listB/marry4.gif""style=""height:400px;""></stim_listB>",are marrying each other,
null,"<div style=""font-size:60px;"">+</div>",,html-keyboard-response,119,363489,0.0-13.0-0.12,15008,List2B,white,man,,,,null,,,,
null,"<img src=""stim_listB/shout6.gif""style=""height:400px;""></stim_listB>",,html-keyboard-response,120,365491,0.0-13.0-1.12,15008,List2B,white,man,,,,null,,,,
null,are shouting at each other,,html-keyboard-response,121,367492,0.0-13.0-2.12,15008,List2B,white,man,,,,null,,,,
9143,,,survey-text,122,376635,0.0-13.0-3.12,15008,List2B,white,man,,,,,"{""Q0"":""mike and dave are shouting at each other""}","<img src=""stim_listB/shout6.gif""style=""height:400px;""></stim_listB>",are shouting at each other,
null,"<div style=""font-size:60px;"">+</div>",,html-keyboard-response,123,377137,0.0-13.0-0.13,15008,List2B,white,man,,,,null,,,,
null,"<img src=""stim_listB/argue1.gif""style=""height:400px;""></stim_listB>",,html-keyboard-response,124,379140,0.0-13.0-1.13,15008,List2B,white,man,,,,null,,,,
null,is arguing with,,html-keyboard-response,125,381141,0.0-13.0-2.13,15008,List2B,white,man,,,,null,,,,
5116,,,survey-text,126,386257,0.0-13.0-3.13,15008,List2B,white,man,,,,,"{""Q0"":""jane is arguing with dave""}","<img src=""stim_listB/argue1.gif""style=""height:400px;""></stim_listB>",is arguing with,
null,"<div style=""font-size:60px;"">+</div>",,html-keyboard-response,127,386759,0.0-13.0-0.14,15008,List2B,white,man,,,,null,,,,
null,"<img src=""stim_listB/shout5.gif""style=""height:400px;""></stim_listB>",,html-keyboard-response,128,388762,0.0-13.0-1.14,15008,List2B,white,man,,,,null,,,,
null,is shouting at,,html-keyboard-response,129,390764,0.0-13.0-2.14,15008,List2B,white,man,,,,null,,,,
4681,,,survey-text,130,395445,0.0-13.0-3.14,15008,List2B,white,man,,,,,"{""Q0"":""luke is shouting at fred""}","<img src=""stim_listB/shout5.gif""style=""height:400px;""></stim_listB>",is shouting at,
null,"<div style=""font-size:60px;"">+</div>",,html-keyboard-response,131,395947,0.0-13.0-0.15,15008,List2B,white,man,,,,null,,,,
null,"<img src=""stim_listB/play6.gif""style=""height:400px;""></stim_listB>",,html-keyboard-response,132,397948,0.0-13.0-1.15,15008,List2B,white,man,,,,null,,,,
null,are playing with each other,,html-keyboard-response,133,399950,0.0-13.0-2.15,15008,List2B,white,man,,,,null,,,,
10682,,,survey-text,134,410633,0.0-13.0-3.15,15008,List2B,white,man,,,,,"{""Q0"":""luke and fred are playing with each other""}","<img src=""stim_listB/play6.gif""style=""height:400px;""></stim_listB>",are playing with each other,
null,"<div style=""font-size:60px;"">+</div>",,html-keyboard-response,135,411134,0.0-13.0-0.16,15008,List2B,white,man,,,,null,,,,
null,"<img src=""stim_listB/dance6.gif""style=""height:400px;""></stim_listB>",,html-keyboard-response,136,413136,0.0-13.0-1.16,15008,List2B,white,man,,,,null,,,,
null,are dancing with each other,,html-keyboard-response,137,415137,0.0-13.0-2.16,15008,List2B,white,man,,,,null,,,,
10769,,,survey-text,138,425906,0.0-13.0-3.16,15008,List2B,white,man,,,,,"{""Q0"":""mike and fred are dancing with each other""}","<img src=""stim_listB/dance6.gif""style=""height:400px;""></stim_listB>",are dancing with each other,
null,"<div style=""font-size:60px;"">+</div>",,html-keyboard-response,139,426408,0.0-13.0-0.17,15008,List2B,white,man,,,,null,,,,
null,"<img src=""stim_listB/fight7.gif""style=""height:400px;""></stim_listB>",,html-keyboard-response,140,428411,0.0-13.0-1.17,15008,List2B,white,man,,,,null,,,,
null,is fighting,,html-keyboard-response,141,430413,0.0-13.0-2.17,15008,List2B,white,man,,,,null,,,,
7272,,,survey-text,142,437686,0.0-13.0-3.17,15008,List2B,white,man,,,,,"{""Q0"":""jane is fighting kate""}","<img src=""stim_listB/fight7.gif""style=""height:400px;""></stim_listB>",is fighting,
null,"<div style=""font-size:60px;"">+</div>",,html-keyboard-response,143,438188,0.0-13.0-0.18,15008,List2B,white,man,,,,null,,,,
null,"<img src=""stim_listB/argue3.gif""style=""height:400px;""></stim_listB>",,html-keyboard-response,144,440190,0.0-13.0-1.18,15008,List2B,white,man,,,,null,,,,
null,is arguing with,,html-keyboard-response,145,442191,0.0-13.0-2.18,15008,List2B,white,man,,,,null,,,,
4427,,,survey-text,146,446618,0.0-13.0-3.18,15008,List2B,white,man,,,,,"{""Q0"":""beth is arguing with mike""}","<img src=""stim_listB/argue3.gif""style=""height:400px;""></stim_listB>",is arguing with,
null,"<div style=""font-size:60px;"">+</div>",,html-keyboard-response,147,447121,0.0-13.0-0.19,15008,List2B,white,man,,,,null,,,,
null,"<img src=""stim_listB/touch7.gif""style=""height:400px;""></stim_listB>",,html-keyboard-response,148,449123,0.0-13.0-1.19,15008,List2B,white,man,,,,null,,,,
null,is touching,,html-keyboard-response,149,451126,0.0-13.0-2.19,15008,List2B,white,man,,,,null,,,,
5385,,,survey-text,150,456512,0.0-13.0-3.19,15008,List2B,white,man,,,,,"{""Q0"":""jane is touching kate""}","<img src=""stim_listB/touch7.gif""style=""height:400px;""></stim_listB>",is touching,
12016,"<img src='img/portrait_matrix_list2.jpg' style='width:900px;height:500px;''></img><p>If you have memorised all the portraits and names and are ready to start, press Continue.</p><p><strong>Please note: Your memory of these faces will be tested 4 times during this experiment.</strong></p>",0,html-button-response,151,468530,0.0-14.0-0.0,15008,List2B,white,man,,,,,,,,
1714,"<img src=""portrait/BM1.jpg""style=""height:400px;""></img>",4,html-button-response,152,471246,0.0-14.0-1.0,15008,List2B,white,man,,TRUE,4,,,,,
null,CORRECT,,html-keyboard-response,153,472749,0.0-14.0-2.0-0.0,15008,List2B,white,man,,,,null,,,,
3589,"<img src=""portrait/WW2.jpg""style=""height:400px;""></img>",3,html-button-response,154,476340,0.0-14.0-4.0,15008,List2B,white,man,,TRUE,3,,,,,
null,CORRECT,,html-keyboard-response,155,477843,0.0-14.0-5.0-0.0,15008,List2B,white,man,,,,null,,,,
1749,"<img src=""portrait/BW1.jpg""style=""height:400px;""></img>",0,html-button-response,156,479594,0.0-14.0-7.0,15008,List2B,white,man,,TRUE,0,,,,,
null,CORRECT,,html-keyboard-response,157,481097,0.0-14.0-8.0-0.0,15008,List2B,white,man,,,,null,,,,
1558,"<img src=""portrait/WM2.jpg""style=""height:400px;""></img>",7,html-button-response,158,482656,0.0-14.0-10.0,15008,List2B,white,man,,TRUE,7,,,,,
null,CORRECT,,html-keyboard-response,159,484159,0.0-14.0-11.0-0.0,15008,List2B,white,man,,,,null,,,,
1377,"<img src=""portrait/BW2.jpg""style=""height:400px;""></img>",2,html-button-response,160,485536,0.0-14.0-13.0,15008,List2B,white,man,,TRUE,2,,,,,
null,CORRECT,,html-keyboard-response,161,487039,0.0-14.0-14.0-0.0,15008,List2B,white,man,,,,null,,,,
2149,"<img src=""portrait/WM1.jpg""style=""height:400px;""></img>",6,html-button-response,162,489188,0.0-14.0-16.0,15008,List2B,white,man,,TRUE,6,,,,,
null,CORRECT,,html-keyboard-response,163,490691,0.0-14.0-17.0-0.0,15008,List2B,white,man,,,,null,,,,
1168,"<img src=""portrait/WW1.jpg""style=""height:400px;""></img>",1,html-button-response,164,491860,0.0-14.0-19.0,15008,List2B,white,man,,TRUE,1,,,,,
null,CORRECT,,html-keyboard-response,165,493363,0.0-14.0-20.0-0.0,15008,List2B,white,man,,,,null,,,,
677,"<img src=""portrait/BM2.jpg""style=""height:400px;""></img>",5,html-button-response,166,494040,0.0-14.0-22.0,15008,List2B,white,man,,TRUE,5,,,,,
null,CORRECT,,html-keyboard-response,167,495542,0.0-14.0-23.0-0.0,15008,List2B,white,man,,,,null,,,,
1078,<p>You got 8 out of 8 right first time. Press Continue.</p>,0,html-button-response,168,496620,0.0-14.0-25.0,15008,List2B,white,man,,,,,,,,
null,"<div style=""font-size:60px;"">+</div>",,html-keyboard-response,169,498123,0.0-15.0-0.0,15008,List2B,white,man,,,,null,,,,
null,"<img src=""stim_listB/dance1.gif""style=""height:400px;""></stim_listB>",,html-keyboard-response,170,500126,0.0-15.0-1.0,15008,List2B,white,man,,,,null,,,,
null,is dancing with,,html-keyboard-response,171,502127,0.0-15.0-2.0,15008,List2B,white,man,,,,null,,,,
10820,,,survey-text,172,512948,0.0-15.0-3.0,15008,List2B,white,man,,,,,"{""Q0"":""jane is dancing with luke""}","<img src=""stim_listB/dance1.gif""style=""height:400px;""></stim_listB>",is dancing with,
null,"<div style=""font-size:60px;"">+</div>",,html-keyboard-response,173,513450,0.0-15.0-0.1,15008,List2B,white,man,,,,null,,,,
null,"<img src=""stim_listB/flirt6.gif""style=""height:400px;""></stim_listB>",,html-keyboard-response,174,515452,0.0-15.0-1.1,15008,List2B,white,man,,,,null,,,,
null,are flirting with each other,,html-keyboard-response,175,517453,0.0-15.0-2.1,15008,List2B,white,man,,,,null,,,,
8527,,,survey-text,176,525982,0.0-15.0-3.1,15008,List2B,white,man,,,,,"{""Q0"":""fred and dave are flirting with each other""}","<img src=""stim_listB/flirt6.gif""style=""height:400px;""></stim_listB>",are flirting with each other,
null,"<div style=""font-size:60px;"">+</div>",,html-keyboard-response,177,526484,0.0-15.0-0.2,15008,List2B,white,man,,,,null,,,,
null,"<img src=""stim_listB/kiss6.gif""style=""height:400px;""></stim_listB>",,html-keyboard-response,178,528486,0.0-15.0-1.2,15008,List2B,white,man,,,,null,,,,
null,are kissing each other,,html-keyboard-response,179,530487,0.0-15.0-2.2,15008,List2B,white,man,,,,null,,,,
7731,,,survey-text,180,538220,0.0-15.0-3.2,15008,List2B,white,man,,,,,"{""Q0"":""mike and dave are kissing each other""}","<img src=""stim_listB/kiss6.gif""style=""height:400px;""></stim_listB>",are kissing each other,
null,"<div style=""font-size:60px;"">+</div>",,html-keyboard-response,181,538722,0.0-15.0-0.3,15008,List2B,white,man,,,,null,,,,
null,"<img src=""stim_listB/flirt5.gif""style=""height:400px;""></stim_listB>",,html-keyboard-response,182,540724,0.0-15.0-1.3,15008,List2B,white,man,,,,null,,,,
null,is flirting with,,html-keyboard-response,183,542727,0.0-15.0-2.3,15008,List2B,white,man,,,,null,,,,
6571,,,survey-text,184,549298,0.0-15.0-3.3,15008,List2B,white,man,,,,,"{""Q0"":""mike is flirting with luke""}","<img src=""stim_listB/flirt5.gif""style=""height:400px;""></stim_listB>",is flirting with,
null,"<div style=""font-size:60px;"">+</div>",,html-keyboard-response,185,549799,0.0-15.0-0.4,15008,List2B,white,man,,,,null,,,,
null,"<img src=""stim_listB/play1.gif""style=""height:400px;""></stim_listB>",,html-keyboard-response,186,551801,0.0-15.0-1.4,15008,List2B,white,man,,,,null,,,,
null,is playing with,,html-keyboard-response,187,553804,0.0-15.0-2.4,15008,List2B,white,man,,,,null,,,,
4404,,,survey-text,188,558208,0.0-15.0-3.4,15008,List2B,white,man,,,,,"{""Q0"":""dave is playing with jane""}","<img src=""stim_listB/play1.gif""style=""height:400px;""></stim_listB>",is playing with,
null,"<div style=""font-size:60px;"">+</div>",,html-keyboard-response,189,558710,0.0-15.0-0.5,15008,List2B,white,man,,,,null,,,,
null,"<img src=""stim_listB/fight2.gif""style=""height:400px;""></stim_listB>",,html-keyboard-response,190,560712,0.0-15.0-1.5,15008,List2B,white,man,,,,null,,,,
null,are fighting each other,,html-keyboard-response,191,562713,0.0-15.0-2.5,15008,List2B,white,man,,,,null,,,,
6042,,,survey-text,192,568756,0.0-15.0-3.5,15008,List2B,white,man,,,,,"{""Q0"":""luke and ruth are fighting each other""}","<img src=""stim_listB/fight2.gif""style=""height:400px;""></stim_listB>",are fighting each other,
null,"<div style=""font-size:60px;"">+</div>",,html-keyboard-response,193,569258,0.0-15.0-0.6,15008,List2B,white,man,,,,null,,,,
null,"<img src=""stim_listB/marry1.gif""style=""height:400px;""></stim_listB>",,html-keyboard-response,194,571259,0.0-15.0-1.6,15008,List2B,white,man,,,,null,,,,
null,is marrying,,html-keyboard-response,195,573260,0.0-15.0-2.6,15008,List2B,white,man,,,,null,,,,
4119,,,survey-text,196,577380,0.0-15.0-3.6,15008,List2B,white,man,,,,,"{""Q0"":""ruth is marrying dave""}","<img src=""stim_listB/marry1.gif""style=""height:400px;""></stim_listB>",is marrying,
null,"<div style=""font-size:60px;"">+</div>",,html-keyboard-response,197,577881,0.0-15.0-0.7,15008,List2B,white,man,,,,null,,,,
null,"<img src=""stim_listB/argue8.gif""style=""height:400px;""></stim_listB>",,html-keyboard-response,198,579883,0.0-15.0-1.7,15008,List2B,white,man,,,,null,,,,
null,are arguing with each other,,html-keyboard-response,199,581885,0.0-15.0-2.7,15008,List2B,white,man,,,,null,,,,
6184,,,survey-text,200,588070,0.0-15.0-3.7,15008,List2B,white,man,,,,,"{""Q0"":""ruth and kate are arguing with each other""}","<img src=""stim_listB/argue8.gif""style=""height:400px;""></stim_listB>",are arguing with each other,
null,"<div style=""font-size:60px;"">+</div>",,html-keyboard-response,201,588571,0.0-15.0-0.8,15008,List2B,white,man,,,,null,,,,
null,"<img src=""stim_listB/fight3.gif""style=""height:400px;""></stim_listB>",,html-keyboard-response,202,590573,0.0-15.0-1.8,15008,List2B,white,man,,,,null,,,,
null,is fighting,,html-keyboard-response,203,592575,0.0-15.0-2.8,15008,List2B,white,man,,,,null,,,,
5029,,,survey-text,204,597606,0.0-15.0-3.8,15008,List2B,white,man,,,,,"{""Q0"":""kate is fighting mike""}","<img src=""stim_listB/fight3.gif""style=""height:400px;""></stim_listB>",is fighting,
null,"<div style=""font-size:60px;"">+</div>",,html-keyboard-response,205,598108,0.0-15.0-0.9,15008,List2B,white,man,,,,null,,,,
null,"<img src=""stim_listB/talk3.gif""style=""height:400px;""></stim_listB>",,html-keyboard-response,206,600110,0.0-15.0-1.9,15008,List2B,white,man,,,,null,,,,
null,is talking to,,html-keyboard-response,207,602113,0.0-15.0-2.9,15008,List2B,white,man,,,,null,,,,
4492,,,survey-text,208,606606,0.0-15.0-3.9,15008,List2B,white,man,,,,,"{""Q0"":""kate is talking to fred""}","<img src=""stim_listB/talk3.gif""style=""height:400px;""></stim_listB>",is talking to,
null,"<div style=""font-size:60px;"">+</div>",,html-keyboard-response,209,607109,0.0-15.0-0.10,15008,List2B,white,man,,,,null,,,,
null,"<img src=""stim_listB/argue4.gif""style=""height:400px;""></stim_listB>",,html-keyboard-response,210,609111,0.0-15.0-1.10,15008,List2B,white,man,,,,null,,,,
null,are arguing with each other,,html-keyboard-response,211,611112,0.0-15.0-2.10,15008,List2B,white,man,,,,null,,,,
8178,,,survey-text,212,619292,0.0-15.0-3.10,15008,List2B,white,man,,,,,"{""Q0"":""fred and kate are arguing with each other""}","<img src=""stim_listB/argue4.gif""style=""height:400px;""></stim_listB>",are arguing with each other,
null,"<div style=""font-size:60px;"">+</div>",,html-keyboard-response,213,619793,0.0-15.0-0.11,15008,List2B,white,man,,,,null,,,,
null,"<img src=""stim_listB/shout8.gif""style=""height:400px;""></stim_listB>",,html-keyboard-response,214,621794,0.0-15.0-1.11,15008,List2B,white,man,,,,null,,,,
null,are shouting at each other,,html-keyboard-response,215,623795,0.0-15.0-2.11,15008,List2B,white,man,,,,null,,,,
7209,,,survey-text,216,631005,0.0-15.0-3.11,15008,List2B,white,man,,,,,"{""Q0"":""kate and jane are shouting at each other""}","<img src=""stim_listB/shout8.gif""style=""height:400px;""></stim_listB>",are shouting at each other,
null,"<div style=""font-size:60px;"">+</div>",,html-keyboard-response,217,631507,0.0-15.0-0.12,15008,List2B,white,man,,,,null,,,,
null,"<img src=""stim_listB/shout4.gif""style=""height:400px;""></stim_listB>",,html-keyboard-response,218,633510,0.0-15.0-1.12,15008,List2B,white,man,,,,null,,,,
null,are shouting at each other,,html-keyboard-response,219,635512,0.0-15.0-2.12,15008,List2B,white,man,,,,null,,,,
5950,,,survey-text,220,641463,0.0-15.0-3.12,15008,List2B,white,man,,,,,"{""Q0"":""mike and kate are shouting at each other""}","<img src=""stim_listB/shout4.gif""style=""height:400px;""></stim_listB>",are shouting at each other,
null,"<div style=""font-size:60px;"">+</div>",,html-keyboard-response,221,641965,0.0-15.0-0.13,15008,List2B,white,man,,,,null,,,,
null,"<img src=""stim_listB/argue5.gif""style=""height:400px;""></stim_listB>",,html-keyboard-response,222,643967,0.0-15.0-1.13,15008,List2B,white,man,,,,null,,,,
null,is arguing with,,html-keyboard-response,223,645968,0.0-15.0-2.13,15008,List2B,white,man,,,,null,,,,
4594,,,survey-text,224,650563,0.0-15.0-3.13,15008,List2B,white,man,,,,,"{""Q0"":""fred is arguing with dave""}","<img src=""stim_listB/argue5.gif""style=""height:400px;""></stim_listB>",is arguing with,
null,"<div style=""font-size:60px;"">+</div>",,html-keyboard-response,225,651065,0.0-15.0-0.14,15008,List2B,white,man,,,,null,,,,
null,"<img src=""stim_listB/dance4.gif""style=""height:400px;""></stim_listB>",,html-keyboard-response,226,653068,0.0-15.0-1.14,15008,List2B,white,man,,,,null,,,,
null,are dancing with each other,,html-keyboard-response,227,655071,0.0-15.0-2.14,15008,List2B,white,man,,,,null,,,,
9308,,,survey-text,228,664379,0.0-15.0-3.14,15008,List2B,white,man,,,,,"{""Q0"":""ruth and mike are dancing with each other""}","<img src=""stim_listB/dance4.gif""style=""height:400px;""></stim_listB>",are dancing with each other,
null,"<div style=""font-size:60px;"">+</div>",,html-keyboard-response,229,664881,0.0-15.0-0.15,15008,List2B,white,man,,,,null,,,,
null,"<img src=""stim_listB/argue2.gif""style=""height:400px;""></stim_listB>",,html-keyboard-response,230,666883,0.0-15.0-1.15,15008,List2B,white,man,,,,null,,,,
null,are arguing with each other,,html-keyboard-response,231,668884,0.0-15.0-2.15,15008,List2B,white,man,,,,null,,,,
11008,,,survey-text,232,679893,0.0-15.0-3.15,15008,List2B,white,man,,,,,"{""Q0"":""jane and luke are dancing with each other""}","<img src=""stim_listB/argue2.gif""style=""height:400px;""></stim_listB>",are arguing with each other,
null,"<div style=""font-size:60px;"">+</div>",,html-keyboard-response,233,680395,0.0-15.0-0.16,15008,List2B,white,man,,,,null,,,,
null,"<img src=""stim_listB/dance5.gif""style=""height:400px;""></stim_listB>",,html-keyboard-response,234,682398,0.0-15.0-1.16,15008,List2B,white,man,,,,null,,,,
null,is dancing with,,html-keyboard-response,235,684400,0.0-15.0-2.16,15008,List2B,white,man,,,,null,,,,
5045,,,survey-text,236,689447,0.0-15.0-3.16,15008,List2B,white,man,,,,,"{""Q0"":""mike is dancing with luke""}","<img src=""stim_listB/dance5.gif""style=""height:400px;""></stim_listB>",is dancing with,
null,"<div style=""font-size:60px;"">+</div>",,html-keyboard-response,237,689948,0.0-15.0-0.17,15008,List2B,white,man,,,,null,,,,
null,"<img src=""stim_listB/touch5.gif""style=""height:400px;""></stim_listB>",,html-keyboard-response,238,691951,0.0-15.0-1.17,15008,List2B,white,man,,,,null,,,,
null,is touching,,html-keyboard-response,239,693953,0.0-15.0-2.17,15008,List2B,white,man,,,,null,,,,
3549,,,survey-text,240,697503,0.0-15.0-3.17,15008,List2B,white,man,,,,,"{""Q0"":""mike is touching dave""}","<img src=""stim_listB/touch5.gif""style=""height:400px;""></stim_listB>",is touching,
null,"<div style=""font-size:60px;"">+</div>",,html-keyboard-response,241,698004,0.0-15.0-0.18,15008,List2B,white,man,,,,null,,,,
null,"<img src=""stim_listB/touch2.gif""style=""height:400px;""></stim_listB>",,html-keyboard-response,242,700006,0.0-15.0-1.18,15008,List2B,white,man,,,,null,,,,
null,are touching each other,,html-keyboard-response,243,702007,0.0-15.0-2.18,15008,List2B,white,man,,,,null,,,,
7555,,,survey-text,244,709563,0.0-15.0-3.18,15008,List2B,white,man,,,,,"{""Q0"":""luke and ruth are touching each other""}","<img src=""stim_listB/touch2.gif""style=""height:400px;""></stim_listB>",are touching each other,
null,"<div style=""font-size:60px;"">+</div>",,html-keyboard-response,245,710065,0.0-15.0-0.19,15008,List2B,white,man,,,,null,,,,
null,"<img src=""stim_listB/play3.gif""style=""height:400px;""></stim_listB>",,html-keyboard-response,246,712067,0.0-15.0-1.19,15008,List2B,white,man,,,,null,,,,
null,is playing with,,html-keyboard-response,247,714068,0.0-15.0-2.19,15008,List2B,white,man,,,,null,,,,
6701,,,survey-text,248,720771,0.0-15.0-3.19,15008,List2B,white,man,,,,,"{""Q0"":""kate is playing with mike""}","<img src=""stim_listB/play3.gif""style=""height:400px;""></stim_listB>",is playing with,
5048,"<img src='img/portrait_matrix_list2.jpg' style='width:900px;height:500px;''></img><p>If you have memorised all the portraits and names and are ready to start, press Continue.</p><p><strong>Please note: Your memory of these faces will be tested 4 times during this experiment.</strong></p>",0,html-button-response,249,725821,0.0-16.0-0.0,15008,List2B,white,man,,,,,,,,
2885,"<img src=""portrait/WW1.jpg""style=""height:400px;""></img>",1,html-button-response,250,729709,0.0-16.0-1.0,15008,List2B,white,man,,TRUE,1,,,,,
null,CORRECT,,html-keyboard-response,251,731212,0.0-16.0-2.0-0.0,15008,List2B,white,man,,,,null,,,,
1079,"<img src=""portrait/BW2.jpg""style=""height:400px;""></img>",2,html-button-response,252,732293,0.0-16.0-4.0,15008,List2B,white,man,,TRUE,2,,,,,
null,CORRECT,,html-keyboard-response,253,733796,0.0-16.0-5.0-0.0,15008,List2B,white,man,,,,null,,,,
1024,"<img src=""portrait/BM1.jpg""style=""height:400px;""></img>",4,html-button-response,254,734821,0.0-16.0-7.0,15008,List2B,white,man,,TRUE,4,,,,,
null,CORRECT,,html-keyboard-response,255,736323,0.0-16.0-8.0-0.0,15008,List2B,white,man,,,,null,,,,
1074,"<img src=""portrait/WM1.jpg""style=""height:400px;""></img>",6,html-button-response,256,737399,0.0-16.0-10.0,15008,List2B,white,man,,TRUE,6,,,,,
null,CORRECT,,html-keyboard-response,257,738901,0.0-16.0-11.0-0.0,15008,List2B,white,man,,,,null,,,,
797,"<img src=""portrait/BM2.jpg""style=""height:400px;""></img>",5,html-button-response,258,739699,0.0-16.0-13.0,15008,List2B,white,man,,TRUE,5,,,,,
null,CORRECT,,html-keyboard-response,259,741201,0.0-16.0-14.0-0.0,15008,List2B,white,man,,,,null,,,,
938,"<img src=""portrait/WM2.jpg""style=""height:400px;""></img>",7,html-button-response,260,742141,0.0-16.0-16.0,15008,List2B,white,man,,TRUE,7,,,,,
null,CORRECT,,html-keyboard-response,261,743644,0.0-16.0-17.0-0.0,15008,List2B,white,man,,,,null,,,,
1301,"<img src=""portrait/BW1.jpg""style=""height:400px;""></img>",0,html-button-response,262,744946,0.0-16.0-19.0,15008,List2B,white,man,,TRUE,0,,,,,
null,CORRECT,,html-keyboard-response,263,746449,0.0-16.0-20.0-0.0,15008,List2B,white,man,,,,null,,,,
1843,"<img src=""portrait/WW2.jpg""style=""height:400px;""></img>",3,html-button-response,264,748293,0.0-16.0-22.0,15008,List2B,white,man,,TRUE,3,,,,,
null,CORRECT,,html-keyboard-response,265,749797,0.0-16.0-23.0-0.0,15008,List2B,white,man,,,,null,,,,
988,<p>You got 8 out of 8 right first time. Press Continue.</p>,0,html-button-response,266,750786,0.0-16.0-25.0,15008,List2B,white,man,,,,,,,,
null,"<div style=""font-size:60px;"">+</div>",,html-keyboard-response,267,752289,0.0-17.0-0.0,15008,List2B,white,man,,,,null,,,,
null,"<img src=""stim_listB/kiss4.gif""style=""height:400px;""></stim_listB>",,html-keyboard-response,268,754291,0.0-17.0-1.0,15008,List2B,white,man,,,,null,,,,
null,are kissing each other,,html-keyboard-response,269,756293,0.0-17.0-2.0,15008,List2B,white,man,,,,null,,,,
5786,,,survey-text,270,762080,0.0-17.0-3.0,15008,List2B,white,man,,,,,"{""Q0"":""mike and kate are kissing each other""}","<img src=""stim_listB/kiss4.gif""style=""height:400px;""></stim_listB>",are kissing each other,
null,"<div style=""font-size:60px;"">+</div>",,html-keyboard-response,271,762582,0.0-17.0-0.1,15008,List2B,white,man,,,,null,,,,
null,"<img src=""stim_listB/marry2.gif""style=""height:400px;""></stim_listB>",,html-keyboard-response,272,764585,0.0-17.0-1.1,15008,List2B,white,man,,,,null,,,,
null,are marrying each other,,html-keyboard-response,273,766586,0.0-17.0-2.1,15008,List2B,white,man,,,,null,,,,
6862,,,survey-text,274,773448,0.0-17.0-3.1,15008,List2B,white,man,,,,,"{""Q0"":""luke and jane are marrying each other""}","<img src=""stim_listB/marry2.gif""style=""height:400px;""></stim_listB>",are marrying each other,
null,"<div style=""font-size:60px;"">+</div>",,html-keyboard-response,275,773949,0.0-17.0-0.2,15008,List2B,white,man,,,,null,,,,
null,"<img src=""stim_listB/flirt2.gif""style=""height:400px;""></stim_listB>",,html-keyboard-response,276,775951,0.0-17.0-1.2,15008,List2B,white,man,,,,null,,,,
null,are flirting with each other,,html-keyboard-response,277,777953,0.0-17.0-2.2,15008,List2B,white,man,,,,null,,,,
7635,,,survey-text,278,785588,0.0-17.0-3.2,15008,List2B,white,man,,,,,"{""Q0"":""dave and ruth are flirting with each other""}","<img src=""stim_listB/flirt2.gif""style=""height:400px;""></stim_listB>",are flirting with each other,
null,"<div style=""font-size:60px;"">+</div>",,html-keyboard-response,279,786090,0.0-17.0-0.3,15008,List2B,white,man,,,,null,,,,
null,"<img src=""stim_listB/argue7.gif""style=""height:400px;""></stim_listB>",,html-keyboard-response,280,788091,0.0-17.0-1.3,15008,List2B,white,man,,,,null,,,,
null,is arguing with,,html-keyboard-response,281,790092,0.0-17.0-2.3,15008,List2B,white,man,,,,null,,,,
4600,,,survey-text,282,794694,0.0-17.0-3.3,15008,List2B,white,man,,,,,"{""Q0"":""beth is arguing with jane""}","<img src=""stim_listB/argue7.gif""style=""height:400px;""></stim_listB>",is arguing with,
null,"<div style=""font-size:60px;"">+</div>",,html-keyboard-response,283,795195,0.0-17.0-0.4,15008,List2B,white,man,,,,null,,,,
null,"<img src=""stim_listB/marry3.gif""style=""height:400px;""></stim_listB>",,html-keyboard-response,284,797198,0.0-17.0-1.4,15008,List2B,white,man,,,,null,,,,
null,is marrying,,html-keyboard-response,285,799199,0.0-17.0-2.4,15008,List2B,white,man,,,,null,,,,
5908,,,survey-text,286,805108,0.0-17.0-3.4,15008,List2B,white,man,,,,,"{""Q0"":""beth is marrying mike""}","<img src=""stim_listB/marry3.gif""style=""height:400px;""></stim_listB>",is marrying,
null,"<div style=""font-size:60px;"">+</div>",,html-keyboard-response,287,805610,0.0-17.0-0.5,15008,List2B,white,man,,,,null,,,,
null,"<img src=""stim_listB/play5.gif""style=""height:400px;""></stim_listB>",,html-keyboard-response,288,807611,0.0-17.0-1.5,15008,List2B,white,man,,,,null,,,,
null,is playing with,,html-keyboard-response,289,809612,0.0-17.0-2.5,15008,List2B,white,man,,,,null,,,,
5838,,,survey-text,290,815452,0.0-17.0-3.5,15008,List2B,white,man,,,,,"{""Q0"":""dave is playing with mike""}","<img src=""stim_listB/play5.gif""style=""height:400px;""></stim_listB>",is playing with,
null,"<div style=""font-size:60px;"">+</div>",,html-keyboard-response,291,815954,0.0-17.0-0.6,15008,List2B,white,man,,,,null,,,,
null,"<img src=""stim_listB/play4.gif""style=""height:400px;""></stim_listB>",,html-keyboard-response,292,817955,0.0-17.0-1.6,15008,List2B,white,man,,,,null,,,,
null,are playing with each other,,html-keyboard-response,293,819956,0.0-17.0-2.6,15008,List2B,white,man,,,,null,,,,
7648,,,survey-text,294,827606,0.0-17.0-3.6,15008,List2B,white,man,,,,,"{""Q0"":""fred and beth are playing with each other""}","<img src=""stim_listB/play4.gif""style=""height:400px;""></stim_listB>",are playing with each other,
null,"<div style=""font-size:60px;"">+</div>",,html-keyboard-response,295,828107,0.0-17.0-0.7,15008,List2B,white,man,,,,null,,,,
null,"<img src=""stim_listB/talk5.gif""style=""height:400px;""></stim_listB>",,html-keyboard-response,296,830109,0.0-17.0-1.7,15008,List2B,white,man,,,,null,,,,
null,is talking to,,html-keyboard-response,297,832110,0.0-17.0-2.7,15008,List2B,white,man,,,,null,,,,
4296,,,survey-text,298,836408,0.0-17.0-3.7,15008,List2B,white,man,,,,,"{""Q0"":""mike is talking to luke""}","<img src=""stim_listB/talk5.gif""style=""height:400px;""></stim_listB>",is talking to,
null,"<div style=""font-size:60px;"">+</div>",,html-keyboard-response,299,836910,0.0-17.0-0.8,15008,List2B,white,man,,,,null,,,,
null,"<img src=""stim_listB/shout2.gif""style=""height:400px;""></stim_listB>",,html-keyboard-response,300,838911,0.0-17.0-1.8,15008,List2B,white,man,,,,null,,,,
null,are shouting at each other,,html-keyboard-response,301,840914,0.0-17.0-2.8,15008,List2B,white,man,,,,null,,,,
5981,,,survey-text,302,846895,0.0-17.0-3.8,15008,List2B,white,man,,,,,"{""Q0"":""jane and dave are shouting at each other""}","<img src=""stim_listB/shout2.gif""style=""height:400px;""></stim_listB>",are shouting at each other,
null,"<div style=""font-size:60px;"">+</div>",,html-keyboard-response,303,847397,0.0-17.0-0.9,15008,List2B,white,man,,,,null,,,,
null,"<img src=""stim_listB/kiss5.gif""style=""height:400px;""></stim_listB>",,html-keyboard-response,304,849399,0.0-17.0-1.9,15008,List2B,white,man,,,,null,,,,
null,is kissing,,html-keyboard-response,305,851400,0.0-17.0-2.9,15008,List2B,white,man,,,,null,,,,
4028,,,survey-text,306,855429,0.0-17.0-3.9,15008,List2B,white,man,,,,,"{""Q0"":""fred is kissing luke""}","<img src=""stim_listB/kiss5.gif""style=""height:400px;""></stim_listB>",is kissing,
null,"<div style=""font-size:60px;"">+</div>",,html-keyboard-response,307,855930,0.0-17.0-0.10,15008,List2B,white,man,,,,null,,,,
null,"<img src=""stim_listB/touch8.gif""style=""height:400px;""></stim_listB>",,html-keyboard-response,308,857932,0.0-17.0-1.10,15008,List2B,white,man,,,,null,,,,
null,are touching each other,,html-keyboard-response,309,859934,0.0-17.0-2.10,15008,List2B,white,man,,,,null,,,,
7471,,,survey-text,310,867405,0.0-17.0-3.10,15008,List2B,white,man,,,,,"{""Q0"":""jane and beth are touching each other""}","<img src=""stim_listB/touch8.gif""style=""height:400px;""></stim_listB>",are touching each other,
null,"<div style=""font-size:60px;"">+</div>",,html-keyboard-response,311,867906,0.0-17.0-0.11,15008,List2B,white,man,,,,null,,,,
null,"<img src=""stim_listB/flirt8.gif""style=""height:400px;""></stim_listB>",,html-keyboard-response,312,869908,0.0-17.0-1.11,15008,List2B,white,man,,,,null,,,,
null,are flirting with each other,,html-keyboard-response,313,871910,0.0-17.0-2.11,15008,List2B,white,man,,,,null,,,,
7366,,,survey-text,314,879277,0.0-17.0-3.11,15008,List2B,white,man,,,,,"{""Q0"":""jane and beth are playing with each other""}","<img src=""stim_listB/flirt8.gif""style=""height:400px;""></stim_listB>",are flirting with each other,
null,"<div style=""font-size:60px;"">+</div>",,html-keyboard-response,315,879779,0.0-17.0-0.12,15008,List2B,white,man,,,,null,,,,
null,"<img src=""stim_listB/marry6.gif""style=""height:400px;""></stim_listB>",,html-keyboard-response,316,881781,0.0-17.0-1.12,15008,List2B,white,man,,,,null,,,,
null,are marrying each other,,html-keyboard-response,317,883782,0.0-17.0-2.12,15008,List2B,white,man,,,,null,,,,
5937,,,survey-text,318,889721,0.0-17.0-3.12,15008,List2B,white,man,,,,,"{""Q0"":""luke and mike are marrying each other""}","<img src=""stim_listB/marry6.gif""style=""height:400px;""></stim_listB>",are marrying each other,
null,"<div style=""font-size:60px;"">+</div>",,html-keyboard-response,319,890222,0.0-17.0-0.13,15008,List2B,white,man,,,,null,,,,
null,"<img src=""stim_listB/play8.gif""style=""height:400px;""></stim_listB>",,html-keyboard-response,320,892224,0.0-17.0-1.13,15008,List2B,white,man,,,,null,,,,
null,are playing with each other,,html-keyboard-response,321,894227,0.0-17.0-2.13,15008,List2B,white,man,,,,null,,,,
8160,,,survey-text,322,902389,0.0-17.0-3.13,15008,List2B,white,man,,,,,"{""Q0"":""ruth and beth are playing with each other""}","<img src=""stim_listB/play8.gif""style=""height:400px;""></stim_listB>",are playing with each other,
null,"<div style=""font-size:60px;"">+</div>",,html-keyboard-response,323,902891,0.0-17.0-0.14,15008,List2B,white,man,,,,null,,,,
null,"<img src=""stim_listB/talk2.gif""style=""height:400px;""></stim_listB>",,html-keyboard-response,324,904894,0.0-17.0-1.14,15008,List2B,white,man,,,,null,,,,
null,are talking to each other,,html-keyboard-response,325,906896,0.0-17.0-2.14,15008,List2B,white,man,,,,null,,,,
6394,,,survey-text,326,913291,0.0-17.0-3.14,15008,List2B,white,man,,,,,"{""Q0"":""ruth and dave are talking to each other""}","<img src=""stim_listB/talk2.gif""style=""height:400px;""></stim_listB>",are talking to each other,
null,"<div style=""font-size:60px;"">+</div>",,html-keyboard-response,327,913793,0.0-17.0-0.15,15008,List2B,white,man,,,,null,,,,
null,"<img src=""stim_listB/talk8.gif""style=""height:400px;""></stim_listB>",,html-keyboard-response,328,915796,0.0-17.0-1.15,15008,List2B,white,man,,,,null,,,,
null,are talking to each other,,html-keyboard-response,329,917798,0.0-17.0-2.15,15008,List2B,white,man,,,,null,,,,
7354,,,survey-text,330,925153,0.0-17.0-3.15,15008,List2B,white,man,,,,,"{""Q0"":""jane and beth are talking to each other""}","<img src=""stim_listB/talk8.gif""style=""height:400px;""></stim_listB>",are talking to each other,
null,"<div style=""font-size:60px;"">+</div>",,html-keyboard-response,331,925655,0.0-17.0-0.16,15008,List2B,white,man,,,,null,,,,
null,"<img src=""stim_listB/talk7.gif""style=""height:400px;""></stim_listB>",,html-keyboard-response,332,927657,0.0-17.0-1.16,15008,List2B,white,man,,,,null,,,,
null,is talking to,,html-keyboard-response,333,929658,0.0-17.0-2.16,15008,List2B,white,man,,,,null,,,,
4901,,,survey-text,334,934561,0.0-17.0-3.16,15008,List2B,white,man,,,,,"{""Q0"":""ruth is talking to kate""}","<img src=""stim_listB/talk7.gif""style=""height:400px;""></stim_listB>",is talking to,
null,"<div style=""font-size:60px;"">+</div>",,html-keyboard-response,335,935063,0.0-17.0-0.17,15008,List2B,white,man,,,,null,,,,
null,"<img src=""stim_listB/flirt7.gif""style=""height:400px;""></stim_listB>",,html-keyboard-response,336,937065,0.0-17.0-1.17,15008,List2B,white,man,,,,null,,,,
null,is flirting with,,html-keyboard-response,337,939653,0.0-17.0-2.17,15008,List2B,white,man,,,,null,,,,
46807,,,survey-text,338,986464,0.0-17.0-3.17,15008,List2B,white,man,,,,,"{""Q0"":""kate and ruth are talking to each other""}","<img src=""stim_listB/flirt7.gif""style=""height:400px;""></stim_listB>",is flirting with,
null,"<div style=""font-size:60px;"">+</div>",,html-keyboard-response,339,986967,0.0-17.0-0.18,15008,List2B,white,man,,,,null,,,,
null,"<img src=""stim_listB/play2.gif""style=""height:400px;""></stim_listB>",,html-keyboard-response,340,988970,0.0-17.0-1.18,15008,List2B,white,man,,,,null,,,,
null,are playing with each other,,html-keyboard-response,341,990972,0.0-17.0-2.18,15008,List2B,white,man,,,,null,,,,
7935,,,survey-text,342,998908,0.0-17.0-3.18,15008,List2B,white,man,,,,,"{""Q0"":""ruth and luke are playing with each other""}","<img src=""stim_listB/play2.gif""style=""height:400px;""></stim_listB>",are playing with each other,
null,"<div style=""font-size:60px;"">+</div>",,html-keyboard-response,343,999410,0.0-17.0-0.19,15008,List2B,white,man,,,,null,,,,
null,"<img src=""stim_listB/flirt4.gif""style=""height:400px;""></stim_listB>",,html-keyboard-response,344,1001412,0.0-17.0-1.19,15008,List2B,white,man,,,,null,,,,
null,are flirting with each other,,html-keyboard-response,345,1003413,0.0-17.0-2.19,15008,List2B,white,man,,,,null,,,,
6093,,,survey-text,346,1009508,0.0-17.0-3.19,15008,List2B,white,man,,,,,"{""Q0"":""mike and beth are flirting with each other""}","<img src=""stim_listB/flirt4.gif""style=""height:400px;""></stim_listB>",are flirting with each other,
2232,"<img src='img/portrait_matrix_list2.jpg' style='width:900px;height:500px;''></img><p>If you have memorised all the portraits and names and are ready to start, press Continue.</p><p><strong>Please note: Your memory of these faces will be tested 4 times during this experiment.</strong></p>",0,html-button-response,347,1011742,0.0-18.0-0.0,15008,List2B,white,man,,,,,,,,
1351,"<img src=""portrait/WM1.jpg""style=""height:400px;""></img>",6,html-button-response,348,1014096,0.0-18.0-1.0,15008,List2B,white,man,,TRUE,6,,,,,
null,CORRECT,,html-keyboard-response,349,1015599,0.0-18.0-2.0-0.0,15008,List2B,white,man,,,,null,,,,
1632,"<img src=""portrait/BW2.jpg""style=""height:400px;""></img>",2,html-button-response,350,1017232,0.0-18.0-4.0,15008,List2B,white,man,,TRUE,2,,,,,
null,CORRECT,,html-keyboard-response,351,1018735,0.0-18.0-5.0-0.0,15008,List2B,white,man,,,,null,,,,
997,"<img src=""portrait/WW1.jpg""style=""height:400px;""></img>",1,html-button-response,352,1019734,0.0-18.0-7.0,15008,List2B,white,man,,TRUE,1,,,,,
null,CORRECT,,html-keyboard-response,353,1021237,0.0-18.0-8.0-0.0,15008,List2B,white,man,,,,null,,,,
1113,"<img src=""portrait/BM1.jpg""style=""height:400px;""></img>",4,html-button-response,354,1022352,0.0-18.0-10.0,15008,List2B,white,man,,TRUE,4,,,,,
null,CORRECT,,html-keyboard-response,355,1023854,0.0-18.0-11.0-0.0,15008,List2B,white,man,,,,null,,,,
1412,"<img src=""portrait/BW1.jpg""style=""height:400px;""></img>",0,html-button-response,356,1025268,0.0-18.0-13.0,15008,List2B,white,man,,TRUE,0,,,,,
null,CORRECT,,html-keyboard-response,357,1026771,0.0-18.0-14.0-0.0,15008,List2B,white,man,,,,null,,,,
1532,"<img src=""portrait/WW2.jpg""style=""height:400px;""></img>",3,html-button-response,358,1028304,0.0-18.0-16.0,15008,List2B,white,man,,TRUE,3,,,,,
null,CORRECT,,html-keyboard-response,359,1029808,0.0-18.0-17.0-0.0,15008,List2B,white,man,,,,null,,,,
1452,"<img src=""portrait/BM2.jpg""style=""height:400px;""></img>",5,html-button-response,360,1031262,0.0-18.0-19.0,15008,List2B,white,man,,TRUE,5,,,,,
null,CORRECT,,html-keyboard-response,361,1032764,0.0-18.0-20.0-0.0,15008,List2B,white,man,,,,null,,,,
604,"<img src=""portrait/WM2.jpg""style=""height:400px;""></img>",7,html-button-response,362,1033370,0.0-18.0-22.0,15008,List2B,white,man,,TRUE,7,,,,,
null,CORRECT,,html-keyboard-response,363,1034874,0.0-18.0-23.0-0.0,15008,List2B,white,man,,,,null,,,,
839,<p>You got 8 out of 8 right first time. Press Continue.</p>,0,html-button-response,364,1035714,0.0-18.0-25.0,15008,List2B,white,man,,,,,,,,
null,"<div style=""font-size:60px;"">+</div>",,html-keyboard-response,365,1037218,0.0-19.0-0.0,15008,List2B,white,man,,,,null,,,,
null,"<img src=""stim_listB/touch1.gif""style=""height:400px;""></stim_listB>",,html-keyboard-response,366,1039220,0.0-19.0-1.0,15008,List2B,white,man,,,,null,,,,
null,is touching,,html-keyboard-response,367,1041223,0.0-19.0-2.0,15008,List2B,white,man,,,,null,,,,
3776,,,survey-text,368,1045000,0.0-19.0-3.0,15008,List2B,white,man,,,,,"{""Q0"":""jane is touching dave""}","<img src=""stim_listB/touch1.gif""style=""height:400px;""></stim_listB>",is touching,
null,"<div style=""font-size:60px;"">+</div>",,html-keyboard-response,369,1045502,0.0-19.0-0.1,15008,List2B,white,man,,,,null,,,,
null,"<img src=""stim_listB/kiss1.gif""style=""height:400px;""></stim_listB>",,html-keyboard-response,370,1047505,0.0-19.0-1.1,15008,List2B,white,man,,,,null,,,,
null,is kissing,,html-keyboard-response,371,1049508,0.0-19.0-2.1,15008,List2B,white,man,,,,null,,,,
4101,,,survey-text,372,1053610,0.0-19.0-3.1,15008,List2B,white,man,,,,,"{""Q0"":""ruth is kissing luke""}","<img src=""stim_listB/kiss1.gif""style=""height:400px;""></stim_listB>",is kissing,
null,"<div style=""font-size:60px;"">+</div>",,html-keyboard-response,373,1054111,0.0-19.0-0.2,15008,List2B,white,man,,,,null,,,,
null,"<img src=""stim_listB/fight8.gif""style=""height:400px;""></stim_listB>",,html-keyboard-response,374,1056112,0.0-19.0-1.2,15008,List2B,white,man,,,,null,,,,
null,are fighting each other,,html-keyboard-response,375,1058114,0.0-19.0-2.2,15008,List2B,white,man,,,,null,,,,
7598,,,survey-text,376,1065713,0.0-19.0-3.2,15008,List2B,white,man,,,,,"{""Q0"":""ruth and beth are fighing each other""}","<img src=""stim_listB/fight8.gif""style=""height:400px;""></stim_listB>",are fighting each other,
null,"<div style=""font-size:60px;"">+</div>",,html-keyboard-response,377,1066215,0.0-19.0-0.3,15008,List2B,white,man,,,,null,,,,
null,"<img src=""stim_listB/dance3.gif""style=""height:400px;""></stim_listB>",,html-keyboard-response,378,1068217,0.0-19.0-1.3,15008,List2B,white,man,,,,null,,,,
null,is dancing with,,html-keyboard-response,379,1070219,0.0-19.0-2.3,15008,List2B,white,man,,,,null,,,,
4459,,,survey-text,380,1074679,0.0-19.0-3.3,15008,List2B,white,man,,,,,"{""Q0"":""kate is dancing with fred""}","<img src=""stim_listB/dance3.gif""style=""height:400px;""></stim_listB>",is dancing with,
null,"<div style=""font-size:60px;"">+</div>",,html-keyboard-response,381,1075181,0.0-19.0-0.4,15008,List2B,white,man,,,,null,,,,
null,"<img src=""stim_listB/shout1.gif""style=""height:400px;""></stim_listB>",,html-keyboard-response,382,1077183,0.0-19.0-1.4,15008,List2B,white,man,,,,null,,,,
null,is shouting at,,html-keyboard-response,383,1079184,0.0-19.0-2.4,15008,List2B,white,man,,,,null,,,,
6036,,,survey-text,384,1085221,0.0-19.0-3.4,15008,List2B,white,man,,,,,"{""Q0"":""ruth is shouting at luke""}","<img src=""stim_listB/shout1.gif""style=""height:400px;""></stim_listB>",is shouting at,
null,"<div style=""font-size:60px;"">+</div>",,html-keyboard-response,385,1085724,0.0-19.0-0.5,15008,List2B,white,man,,,,null,,,,
null,"<img src=""stim_listB/dance8.gif""style=""height:400px;""></stim_listB>",,html-keyboard-response,386,1087725,0.0-19.0-1.5,15008,List2B,white,man,,,,null,,,,
null,are dancing with each other,,html-keyboard-response,387,1089726,0.0-19.0-2.5,15008,List2B,white,man,,,,null,,,,
6735,,,survey-text,388,1096461,0.0-19.0-3.5,15008,List2B,white,man,,,,,"{""Q0"":""jane and beth are dancing with each other""}","<img src=""stim_listB/dance8.gif""style=""height:400px;""></stim_listB>",are dancing with each other,
null,"<div style=""font-size:60px;"">+</div>",,html-keyboard-response,389,1096964,0.0-19.0-0.6,15008,List2B,white,man,,,,null,,,,
null,"<img src=""stim_listB/flirt3.gif""style=""height:400px;""></stim_listB>",,html-keyboard-response,390,1098965,0.0-19.0-1.6,15008,List2B,white,man,,,,null,,,,
null,is flirting with,,html-keyboard-response,391,1100966,0.0-19.0-2.6,15008,List2B,white,man,,,,null,,,,
5300,,,survey-text,392,1106267,0.0-19.0-3.6,15008,List2B,white,man,,,,,"{""Q0"":""fred is flirting with kate""}","<img src=""stim_listB/flirt3.gif""style=""height:400px;""></stim_listB>",is flirting with,
null,"<div style=""font-size:60px;"">+</div>",,html-keyboard-response,393,1106770,0.0-19.0-0.7,15008,List2B,white,man,,,,null,,,,
null,"<img src=""stim_listB/play7.gif""style=""height:400px;""></stim_listB>",,html-keyboard-response,394,1108773,0.0-19.0-1.7,15008,List2B,white,man,,,,null,,,,
null,is playing with,,html-keyboard-response,395,1110773,0.0-19.0-2.7,15008,List2B,white,man,,,,null,,,,
7281,,,survey-text,396,1118055,0.0-19.0-3.7,15008,List2B,white,man,,,,,"{""Q0"":""kate is playing with jane""}","<img src=""stim_listB/play7.gif""style=""height:400px;""></stim_listB>",is playing with,
null,"<div style=""font-size:60px;"">+</div>",,html-keyboard-response,397,1118557,0.0-19.0-0.8,15008,List2B,white,man,,,,null,,,,
null,"<img src=""stim_listB/kiss3.gif""style=""height:400px;""></stim_listB>",,html-keyboard-response,398,1120558,0.0-19.0-1.8,15008,List2B,white,man,,,,null,,,,
null,is kissing,,html-keyboard-response,399,1122559,0.0-19.0-2.8,15008,List2B,white,man,,,,null,,,,
4025,,,survey-text,400,1126585,0.0-19.0-3.8,15008,List2B,white,man,,,,,"{""Q0"":""beth is kissing fred""}","<img src=""stim_listB/kiss3.gif""style=""height:400px;""></stim_listB>",is kissing,
null,"<div style=""font-size:60px;"">+</div>",,html-keyboard-response,401,1127086,0.0-19.0-0.9,15008,List2B,white,man,,,,null,,,,
null,"<img src=""stim_listB/marry7.gif""style=""height:400px;""></stim_listB>",,html-keyboard-response,402,1129089,0.0-19.0-1.9,15008,List2B,white,man,,,,null,,,,
null,is marrying,,html-keyboard-response,403,1131090,0.0-19.0-2.9,15008,List2B,white,man,,,,null,,,,
4232,,,survey-text,404,1135323,0.0-19.0-3.9,15008,List2B,white,man,,,,,"{""Q0"":""beth is marrying jane""}","<img src=""stim_listB/marry7.gif""style=""height:400px;""></stim_listB>",is marrying,
null,"<div style=""font-size:60px;"">+</div>",,html-keyboard-response,405,1135825,0.0-19.0-0.10,15008,List2B,white,man,,,,null,,,,
null,"<img src=""stim_listB/talk6.gif""style=""height:400px;""></stim_listB>",,html-keyboard-response,406,1137827,0.0-19.0-1.10,15008,List2B,white,man,,,,null,,,,
null,are talking to each other,,html-keyboard-response,407,1139829,0.0-19.0-2.10,15008,List2B,white,man,,,,null,,,,
7778,,,survey-text,408,1147609,0.0-19.0-3.10,15008,List2B,white,man,,,,,"{""Q0"":""fred and dave are talking to each other""}","<img src=""stim_listB/talk6.gif""style=""height:400px;""></stim_listB>",are talking to each other,
null,"<div style=""font-size:60px;"">+</div>",,html-keyboard-response,409,1148110,0.0-19.0-0.11,15008,List2B,white,man,,,,null,,,,
null,"<img src=""stim_listB/touch4.gif""style=""height:400px;""></stim_listB>",,html-keyboard-response,410,1150113,0.0-19.0-1.11,15008,List2B,white,man,,,,null,,,,
null,are touching each other,,html-keyboard-response,411,1152116,0.0-19.0-2.11,15008,List2B,white,man,,,,null,,,,
5308,,,survey-text,412,1157425,0.0-19.0-3.11,15008,List2B,white,man,,,,,"{""Q0"":""beth and fred are touching each other""}","<img src=""stim_listB/touch4.gif""style=""height:400px;""></stim_listB>",are touching each other,
null,"<div style=""font-size:60px;"">+</div>",,html-keyboard-response,413,1157927,0.0-19.0-0.12,15008,List2B,white,man,,,,null,,,,
null,"<img src=""stim_listB/flirt1.gif""style=""height:400px;""></stim_listB>",,html-keyboard-response,414,1159928,0.0-19.0-1.12,15008,List2B,white,man,,,,null,,,,
null,is flirting with,,html-keyboard-response,415,1161930,0.0-19.0-2.12,15008,List2B,white,man,,,,null,,,,
5917,,,survey-text,416,1167849,0.0-19.0-3.12,15008,List2B,white,man,,,,,"{""Q0"":""luke is flirting with jane""}","<img src=""stim_listB/flirt1.gif""style=""height:400px;""></stim_listB>",is flirting with,
null,"<div style=""font-size:60px;"">+</div>",,html-keyboard-response,417,1168351,0.0-19.0-0.13,15008,List2B,white,man,,,,null,,,,
null,"<img src=""stim_listB/fight1.gif""style=""height:400px;""></stim_listB>",,html-keyboard-response,418,1170353,0.0-19.0-1.13,15008,List2B,white,man,,,,null,,,,
null,is fighting,,html-keyboard-response,419,1172355,0.0-19.0-2.13,15008,List2B,white,man,,,,null,,,,
6377,,,survey-text,420,1178733,0.0-19.0-3.13,15008,List2B,white,man,,,,,"{""Q0"":""jane is fighting dave""}","<img src=""stim_listB/fight1.gif""style=""height:400px;""></stim_listB>",is fighting,
null,"<div style=""font-size:60px;"">+</div>",,html-keyboard-response,421,1179234,0.0-19.0-0.14,15008,List2B,white,man,,,,null,,,,
null,"<img src=""stim_listB/argue6.gif""style=""height:400px;""></stim_listB>",,html-keyboard-response,422,1181235,0.0-19.0-1.14,15008,List2B,white,man,,,,null,,,,
null,are arguing with each other,,html-keyboard-response,423,1183237,0.0-19.0-2.14,15008,List2B,white,man,,,,null,,,,
6415,,,survey-text,424,1189653,0.0-19.0-3.14,15008,List2B,white,man,,,,,"{""Q0"":""luke and mike are arguing with each other""}","<img src=""stim_listB/argue6.gif""style=""height:400px;""></stim_listB>",are arguing with each other,
null,"<div style=""font-size:60px;"">+</div>",,html-keyboard-response,425,1190154,0.0-19.0-0.15,15008,List2B,white,man,,,,null,,,,
null,"<img src=""stim_listB/marry5.gif""style=""height:400px;""></stim_listB>",,html-keyboard-response,426,1192157,0.0-19.0-1.15,15008,List2B,white,man,,,,null,,,,
null,is marrying,,html-keyboard-response,427,1194158,0.0-19.0-2.15,15008,List2B,white,man,,,,null,,,,
4023,,,survey-text,428,1198183,0.0-19.0-3.15,15008,List2B,white,man,,,,,"{""Q0"":""fred is marrying dave""}","<img src=""stim_listB/marry5.gif""style=""height:400px;""></stim_listB>",is marrying,
null,"<div style=""font-size:60px;"">+</div>",,html-keyboard-response,429,1198684,0.0-19.0-0.16,15008,List2B,white,man,,,,null,,,,
null,"<img src=""stim_listB/talk1.gif""style=""height:400px;""></stim_listB>",,html-keyboard-response,430,1200685,0.0-19.0-1.16,15008,List2B,white,man,,,,null,,,,
null,is talking to,,html-keyboard-response,431,1202687,0.0-19.0-2.16,15008,List2B,white,man,,,,null,,,,
4203,,,survey-text,432,1206890,0.0-19.0-3.16,15008,List2B,white,man,,,,,"{""Q0"":""jane is talking to luke""}","<img src=""stim_listB/talk1.gif""style=""height:400px;""></stim_listB>",is talking to,
null,"<div style=""font-size:60px;"">+</div>",,html-keyboard-response,433,1207391,0.0-19.0-0.17,15008,List2B,white,man,,,,null,,,,
null,"<img src=""stim_listB/dance2.gif""style=""height:400px;""></stim_listB>",,html-keyboard-response,434,1209394,0.0-19.0-1.17,15008,List2B,white,man,,,,null,,,,
null,are dancing with each other,,html-keyboard-response,435,1211396,0.0-19.0-2.17,15008,List2B,white,man,,,,null,,,,
6276,,,survey-text,436,1217672,0.0-19.0-3.17,15008,List2B,white,man,,,,,"{""Q0"":""dave and ruth are dancing with each other""}","<img src=""stim_listB/dance2.gif""style=""height:400px;""></stim_listB>",are dancing with each other,
null,"<div style=""font-size:60px;"">+</div>",,html-keyboard-response,437,1218174,0.0-19.0-0.18,15008,List2B,white,man,,,,null,,,,
null,"<img src=""stim_listB/dance7.gif""style=""height:400px;""></stim_listB>",,html-keyboard-response,438,1220176,0.0-19.0-1.18,15008,List2B,white,man,,,,null,,,,
null,is dancing with,,html-keyboard-response,439,1222178,0.0-19.0-2.18,15008,List2B,white,man,,,,null,,,,
4353,,,survey-text,440,1226532,0.0-19.0-3.18,15008,List2B,white,man,,,,,"{""Q0"":""kate is dancing with ruth""}","<img src=""stim_listB/dance7.gif""style=""height:400px;""></stim_listB>",is dancing with,
null,"<div style=""font-size:60px;"">+</div>",,html-keyboard-response,441,1227035,0.0-19.0-0.19,15008,List2B,white,man,,,,null,,,,
null,"<img src=""stim_listB/talk4.gif""style=""height:400px;""></stim_listB>",,html-keyboard-response,442,1229037,0.0-19.0-1.19,15008,List2B,white,man,,,,null,,,,
null,are talking to each other,,html-keyboard-response,443,1231038,0.0-19.0-2.19,15008,List2B,white,man,,,,null,,,,
6183,,,survey-text,444,1237222,0.0-19.0-3.19,15008,List2B,white,man,,,,,"{""Q0"":""mike and beth are talking to each other""}","<img src=""stim_listB/talk4.gif""style=""height:400px;""></stim_listB>",are talking to each other,
2041,<p>Thank you for completing that task.</p><p>The final part of this session is a short questionnaire.</p><p>Press Continue.</p>,0,html-button-response,445,1239264,0.0-20.0,15008,List2B,white,man,,,,,,,,
20339,,,survey-text,446,1260606,0.0-21.0,15008,List2B,white,man,,,,,"{""Q0"":""33"",""Q1"":""Englis"",""Q2"":""English"",""Q3"":""UK"",""Q4"":""White"",""Q5"":""Male""}",,,demographics
6661,,,survey-likert,447,1267271,0.0-22.0,15008,List2B,white,man,,,,,"{""Q0"":3}",,,likert_ESS
6917,,,survey-likert,448,1274190,0.0-23.0,15008,List2B,white,man,,,,,"{""Q0"":5}",,,likert_NSSAL_Q1
4318,,,survey-likert,449,1278510,0.0-24.0,15008,List2B,white,man,,,,,"{""Q0"":5}",,,likert_NSSAL_Q2
3176,,,survey-likert,450,1281688,0.0-25.0,15008,List2B,white,man,,,,,"{""Q0"":3}",,,likert_CGRS_Q1
2345,,,survey-likert,451,1284036,0.0-26.0,15008,List2B,white,man,,,,,"{""Q0"":3}",,,likert_CGRS_Q2
1915,,,survey-likert,452,1285954,0.0-27.0,15008,List2B,white,man,,,,,"{""Q0"":3}",,,likert_CGRS_Q3
5412,,,survey-text,453,1291368,0.0-28.0,15008,List2B,white,man,,,,,"{""Q0"":""ccc""}",,,worker_id
4908,,,external-html,454,1296344,0.0-29.0,15008,List2B,white,man,debrief.html,,,,,,,
