rt,stimulus,button_pressed,trial_type,trial_index,time_elapsed,internal_node_id,subject,list,ppt_race,ppt_gender,url,first_guess,correct,key_press,responses,image_type,phrase_type,test_part
1944,Welcome to the experiment. Press Continue to begin.,0,html-button-response,0,1949,0.0-0.0,15655,List1A,white,man,,,,,,,,
7710,,,external-html,1,10822,0.0-1.0,15655,List1A,white,man,consent.html,,,,,,,
10591,"<p>On the next page, you will see portraits of 8 people and their names.</p><p>Your first task is to take a few minutes to memorise the names of these people.</p><p>You will have to recall their names during the rest of the experiment, so it is</p><p>essential that you try to memorise these people and their names as best as you can.</p><br><p><strong>You will then be tested on your memory of these names and portraits.</strong></p><br><p>The experiment will start after you have completed this memory test.</p><br><p>Ready?</p>",0,html-button-response,2,21417,0.0-2.0,15655,List1A,white,man,,,,,,,,
25059,"<img src='img/portrait_matrix_list1.jpg' style='width:900px;height:500px;''></img><p>If you have memorised all the portraits and names and are ready to start, press Continue.</p><p><strong>Please note: Your memory of these faces will be tested 4 times during this experiment.</strong></p>",0,html-button-response,3,47485,0.0-3.0-0.0,15655,List1A,white,man,,,,,,,,
2855,"<img src=""portrait/WW2.jpg""style=""height:400px;""></img>",1,html-button-response,4,51349,0.0-3.0-1.0,15655,List1A,white,man,,TRUE,3,,,,,
6781,"<img src=""portrait/WW2.jpg""style=""height:400px;""></img>",3,html-button-response,5,59141,0.0-3.0-3.0-0.0,15655,List1A,white,man,,FALSE,3,,,,,
null,CORRECT,,html-keyboard-response,6,60648,0.0-3.0-3.0-1.0-0.0,15655,List1A,white,man,,,,null,,,,
3145,"<img src=""portrait/BM1.jpg""style=""height:400px;""></img>",5,html-button-response,7,63798,0.0-3.0-4.0,15655,List1A,white,man,,TRUE,4,,,,,
5348,"<img src=""portrait/BM1.jpg""style=""height:400px;""></img>",4,html-button-response,8,70153,0.0-3.0-6.0-0.0,15655,List1A,white,man,,FALSE,4,,,,,
null,CORRECT,,html-keyboard-response,9,71664,0.0-3.0-6.0-1.0-0.0,15655,List1A,white,man,,,,null,,,,
4466,"<img src=""portrait/BW1.jpg""style=""height:400px;""></img>",2,html-button-response,10,76133,0.0-3.0-7.0,15655,List1A,white,man,,TRUE,0,,,,,
4664,"<img src=""portrait/BW1.jpg""style=""height:400px;""></img>",0,html-button-response,11,81805,0.0-3.0-9.0-0.0,15655,List1A,white,man,,FALSE,0,,,,,
null,CORRECT,,html-keyboard-response,12,83315,0.0-3.0-9.0-1.0-0.0,15655,List1A,white,man,,,,null,,,,
5233,"<img src=""portrait/BW2.jpg""style=""height:400px;""></img>",1,html-button-response,13,88550,0.0-3.0-10.0,15655,List1A,white,man,,TRUE,2,,,,,
2366,"<img src=""portrait/BW2.jpg""style=""height:400px;""></img>",2,html-button-response,14,91924,0.0-3.0-12.0-0.0,15655,List1A,white,man,,FALSE,2,,,,,
null,CORRECT,,html-keyboard-response,15,93432,0.0-3.0-12.0-1.0-0.0,15655,List1A,white,man,,,,null,,,,
8191,"<img src=""portrait/BM2.jpg""style=""height:400px;""></img>",4,html-button-response,16,101626,0.0-3.0-13.0,15655,List1A,white,man,,TRUE,5,,,,,
1874,"<img src=""portrait/BM2.jpg""style=""height:400px;""></img>",5,html-button-response,17,104511,0.0-3.0-15.0-0.0,15655,List1A,white,man,,FALSE,5,,,,,
null,CORRECT,,html-keyboard-response,18,106019,0.0-3.0-15.0-1.0-0.0,15655,List1A,white,man,,,,null,,,,
2887,"<img src=""portrait/WM2.jpg""style=""height:400px;""></img>",5,html-button-response,19,108909,0.0-3.0-16.0,15655,List1A,white,man,,TRUE,7,,,,,
2303,"<img src=""portrait/WM2.jpg""style=""height:400px;""></img>",7,html-button-response,20,112250,0.0-3.0-18.0-0.0,15655,List1A,white,man,,FALSE,7,,,,,
null,CORRECT,,html-keyboard-response,21,113759,0.0-3.0-18.0-1.0-0.0,15655,List1A,white,man,,,,null,,,,
2986,"<img src=""portrait/WM1.jpg""style=""height:400px;""></img>",6,html-button-response,22,116750,0.0-3.0-19.0,15655,List1A,white,man,,TRUE,6,,,,,
null,CORRECT,,html-keyboard-response,23,118258,0.0-3.0-20.0-0.0,15655,List1A,white,man,,,,null,,,,
2773,"<img src=""portrait/WW1.jpg""style=""height:400px;""></img>",3,html-button-response,24,121033,0.0-3.0-22.0,15655,List1A,white,man,,TRUE,1,,,,,
1692,"<img src=""portrait/WW1.jpg""style=""height:400px;""></img>",1,html-button-response,25,123733,0.0-3.0-24.0-0.0,15655,List1A,white,man,,FALSE,1,,,,,
null,CORRECT,,html-keyboard-response,26,125239,0.0-3.0-24.0-1.0-0.0,15655,List1A,white,man,,,,null,,,,
1467,<p>You got 1 out of 8 right first time. Press Continue.</p>,0,html-button-response,27,126710,0.0-3.0-25.0,15655,List1A,white,man,,,,,,,,
3722,"As you did not score 100%, the memory game will repeat. Press Continue.",0,html-button-response,28,131439,0.0-3.0-26.0-0.0,15655,List1A,white,man,,,,,,,,
7130,"<img src='img/portrait_matrix_list1.jpg' style='width:900px;height:500px;''></img><p>If you have memorised all the portraits and names and are ready to start, press Continue.</p><p><strong>Please note: Your memory of these faces will be tested 4 times during this experiment.</strong></p>",0,html-button-response,29,139579,0.0-3.1-0.1,15655,List1A,white,man,,,,,,,,
2164,"<img src=""portrait/WW2.jpg""style=""height:400px;""></img>",1,html-button-response,30,142749,0.0-3.1-1.1,15655,List1A,white,man,,TRUE,3,,,,,
1333,"<img src=""portrait/WW2.jpg""style=""height:400px;""></img>",3,html-button-response,31,145090,0.0-3.1-3.1-0.1,15655,List1A,white,man,,FALSE,3,,,,,
null,CORRECT,,html-keyboard-response,32,146595,0.0-3.1-3.1-1.1-0.1,15655,List1A,white,man,,,,null,,,,
2663,"<img src=""portrait/BM1.jpg""style=""height:400px;""></img>",7,html-button-response,33,149260,0.0-3.1-4.1,15655,List1A,white,man,,TRUE,4,,,,,
1339,"<img src=""portrait/BM1.jpg""style=""height:400px;""></img>",4,html-button-response,34,151609,0.0-3.1-6.1-0.1,15655,List1A,white,man,,FALSE,4,,,,,
null,CORRECT,,html-keyboard-response,35,153115,0.0-3.1-6.1-1.1-0.1,15655,List1A,white,man,,,,null,,,,
1762,"<img src=""portrait/BW1.jpg""style=""height:400px;""></img>",2,html-button-response,36,154880,0.0-3.1-7.1,15655,List1A,white,man,,TRUE,0,,,,,
1685,"<img src=""portrait/BW1.jpg""style=""height:400px;""></img>",0,html-button-response,37,157576,0.0-3.1-9.1-0.1,15655,List1A,white,man,,FALSE,0,,,,,
null,CORRECT,,html-keyboard-response,38,159084,0.0-3.1-9.1-1.1-0.1,15655,List1A,white,man,,,,null,,,,
1361,"<img src=""portrait/BW2.jpg""style=""height:400px;""></img>",1,html-button-response,39,160449,0.0-3.1-10.1,15655,List1A,white,man,,TRUE,2,,,,,
1825,"<img src=""portrait/BW2.jpg""style=""height:400px;""></img>",2,html-button-response,40,163279,0.0-3.1-12.1-0.1,15655,List1A,white,man,,FALSE,2,,,,,
null,CORRECT,,html-keyboard-response,41,164789,0.0-3.1-12.1-1.1-0.1,15655,List1A,white,man,,,,null,,,,
2271,"<img src=""portrait/BM2.jpg""style=""height:400px;""></img>",4,html-button-response,42,167063,0.0-3.1-13.1,15655,List1A,white,man,,TRUE,5,,,,,
2267,"<img src=""portrait/BM2.jpg""style=""height:400px;""></img>",5,html-button-response,43,170339,0.0-3.1-15.1-0.1,15655,List1A,white,man,,FALSE,5,,,,,
null,CORRECT,,html-keyboard-response,44,171846,0.0-3.1-15.1-1.1-0.1,15655,List1A,white,man,,,,null,,,,
3025,"<img src=""portrait/WM2.jpg""style=""height:400px;""></img>",7,html-button-response,45,174875,0.0-3.1-16.1,15655,List1A,white,man,,TRUE,7,,,,,
null,CORRECT,,html-keyboard-response,46,176440,0.0-3.1-17.1-0.1,15655,List1A,white,man,,,,null,,,,
1525,"<img src=""portrait/WM1.jpg""style=""height:400px;""></img>",6,html-button-response,47,177968,0.0-3.1-19.1,15655,List1A,white,man,,TRUE,6,,,,,
null,CORRECT,,html-keyboard-response,48,179528,0.0-3.1-20.1-0.1,15655,List1A,white,man,,,,null,,,,
2868,"<img src=""portrait/WW1.jpg""style=""height:400px;""></img>",1,html-button-response,49,182398,0.0-3.1-22.1,15655,List1A,white,man,,TRUE,1,,,,,
null,CORRECT,,html-keyboard-response,50,184014,0.0-3.1-23.1-0.1,15655,List1A,white,man,,,,null,,,,
1647,<p>You got 3 out of 8 right first time. Press Continue.</p>,0,html-button-response,51,185675,0.0-3.1-25.1,15655,List1A,white,man,,,,,,,,
1755,"As you did not score 100%, the memory game will repeat. Press Continue.",0,html-button-response,52,188563,0.0-3.1-26.1-0.1,15655,List1A,white,man,,,,,,,,
5067,"<img src='img/portrait_matrix_list1.jpg' style='width:900px;height:500px;''></img><p>If you have memorised all the portraits and names and are ready to start, press Continue.</p><p><strong>Please note: Your memory of these faces will be tested 4 times during this experiment.</strong></p>",0,html-button-response,53,194639,0.0-3.2-0.2,15655,List1A,white,man,,,,,,,,
3422,"<img src=""portrait/WW2.jpg""style=""height:400px;""></img>",2,html-button-response,54,199067,0.0-3.2-1.2,15655,List1A,white,man,,TRUE,3,,,,,
2717,"<img src=""portrait/WW2.jpg""style=""height:400px;""></img>",3,html-button-response,55,202810,0.0-3.2-3.2-0.2,15655,List1A,white,man,,FALSE,3,,,,,
null,CORRECT,,html-keyboard-response,56,204323,0.0-3.2-3.2-1.2-0.2,15655,List1A,white,man,,,,null,,,,
2223,"<img src=""portrait/BM1.jpg""style=""height:400px;""></img>",7,html-button-response,57,206548,0.0-3.2-4.2,15655,List1A,white,man,,TRUE,4,,,,,
1921,"<img src=""portrait/BM1.jpg""style=""height:400px;""></img>",4,html-button-response,58,209475,0.0-3.2-6.2-0.2,15655,List1A,white,man,,FALSE,4,,,,,
null,CORRECT,,html-keyboard-response,59,210993,0.0-3.2-6.2-1.2-0.2,15655,List1A,white,man,,,,null,,,,
1900,"<img src=""portrait/BW1.jpg""style=""height:400px;""></img>",0,html-button-response,60,212896,0.0-3.2-7.2,15655,List1A,white,man,,TRUE,0,,,,,
null,CORRECT,,html-keyboard-response,61,214408,0.0-3.2-8.2-0.2,15655,List1A,white,man,,,,null,,,,
3155,"<img src=""portrait/BW2.jpg""style=""height:400px;""></img>",2,html-button-response,62,217578,0.0-3.2-10.2,15655,List1A,white,man,,TRUE,2,,,,,
null,CORRECT,,html-keyboard-response,63,219085,0.0-3.2-11.2-0.2,15655,List1A,white,man,,,,null,,,,
4836,"<img src=""portrait/BM2.jpg""style=""height:400px;""></img>",7,html-button-response,64,223923,0.0-3.2-13.2,15655,List1A,white,man,,TRUE,5,,,,,
2232,"<img src=""portrait/BM2.jpg""style=""height:400px;""></img>",5,html-button-response,65,227165,0.0-3.2-15.2-0.2,15655,List1A,white,man,,FALSE,5,,,,,
null,CORRECT,,html-keyboard-response,66,228685,0.0-3.2-15.2-1.2-0.2,15655,List1A,white,man,,,,null,,,,
1478,"<img src=""portrait/WM2.jpg""style=""height:400px;""></img>",7,html-button-response,67,230167,0.0-3.2-16.2,15655,List1A,white,man,,TRUE,7,,,,,
null,CORRECT,,html-keyboard-response,68,231675,0.0-3.2-17.2-0.2,15655,List1A,white,man,,,,null,,,,
1854,"<img src=""portrait/WM1.jpg""style=""height:400px;""></img>",6,html-button-response,69,233531,0.0-3.2-19.2,15655,List1A,white,man,,TRUE,6,,,,,
null,CORRECT,,html-keyboard-response,70,235039,0.0-3.2-20.2-0.2,15655,List1A,white,man,,,,null,,,,
3960,"<img src=""portrait/WW1.jpg""style=""height:400px;""></img>",2,html-button-response,71,239001,0.0-3.2-22.2,15655,List1A,white,man,,TRUE,1,,,,,
1909,"<img src=""portrait/WW1.jpg""style=""height:400px;""></img>",1,html-button-response,72,241921,0.0-3.2-24.2-0.2,15655,List1A,white,man,,FALSE,1,,,,,
null,CORRECT,,html-keyboard-response,73,243426,0.0-3.2-24.2-1.2-0.2,15655,List1A,white,man,,,,null,,,,
1672,<p>You got 4 out of 8 right first time. Press Continue.</p>,0,html-button-response,74,245101,0.0-3.2-25.2,15655,List1A,white,man,,,,,,,,
1195,"As you did not score 100%, the memory game will repeat. Press Continue.",0,html-button-response,75,247304,0.0-3.2-26.2-0.2,15655,List1A,white,man,,,,,,,,
12591,"<img src='img/portrait_matrix_list1.jpg' style='width:900px;height:500px;''></img><p>If you have memorised all the portraits and names and are ready to start, press Continue.</p><p><strong>Please note: Your memory of these faces will be tested 4 times during this experiment.</strong></p>",0,html-button-response,76,260900,0.0-3.3-0.3,15655,List1A,white,man,,,,,,,,
1475,"<img src=""portrait/WW2.jpg""style=""height:400px;""></img>",3,html-button-response,77,263383,0.0-3.3-1.3,15655,List1A,white,man,,TRUE,3,,,,,
null,CORRECT,,html-keyboard-response,78,264891,0.0-3.3-2.3-0.3,15655,List1A,white,man,,,,null,,,,
2058,"<img src=""portrait/BM1.jpg""style=""height:400px;""></img>",7,html-button-response,79,266952,0.0-3.3-4.3,15655,List1A,white,man,,TRUE,4,,,,,
1830,"<img src=""portrait/BM1.jpg""style=""height:400px;""></img>",4,html-button-response,80,269791,0.0-3.3-6.3-0.3,15655,List1A,white,man,,FALSE,4,,,,,
null,CORRECT,,html-keyboard-response,81,271298,0.0-3.3-6.3-1.3-0.3,15655,List1A,white,man,,,,null,,,,
1598,"<img src=""portrait/BW1.jpg""style=""height:400px;""></img>",1,html-button-response,82,272899,0.0-3.3-7.3,15655,List1A,white,man,,TRUE,0,,,,,
1414,"<img src=""portrait/BW1.jpg""style=""height:400px;""></img>",0,html-button-response,83,275321,0.0-3.3-9.3-0.3,15655,List1A,white,man,,FALSE,0,,,,,
null,CORRECT,,html-keyboard-response,84,276828,0.0-3.3-9.3-1.3-0.3,15655,List1A,white,man,,,,null,,,,
1906,"<img src=""portrait/BW2.jpg""style=""height:400px;""></img>",2,html-button-response,85,278737,0.0-3.3-10.3,15655,List1A,white,man,,TRUE,2,,,,,
null,CORRECT,,html-keyboard-response,86,280241,0.0-3.3-11.3-0.3,15655,List1A,white,man,,,,null,,,,
4212,"<img src=""portrait/BM2.jpg""style=""height:400px;""></img>",5,html-button-response,87,284455,0.0-3.3-13.3,15655,List1A,white,man,,TRUE,5,,,,,
null,CORRECT,,html-keyboard-response,88,285962,0.0-3.3-14.3-0.3,15655,List1A,white,man,,,,null,,,,
2674,"<img src=""portrait/WM2.jpg""style=""height:400px;""></img>",7,html-button-response,89,288640,0.0-3.3-16.3,15655,List1A,white,man,,TRUE,7,,,,,
null,CORRECT,,html-keyboard-response,90,290154,0.0-3.3-17.3-0.3,15655,List1A,white,man,,,,null,,,,
1807,"<img src=""portrait/WM1.jpg""style=""height:400px;""></img>",6,html-button-response,91,291965,0.0-3.3-19.3,15655,List1A,white,man,,TRUE,6,,,,,
null,CORRECT,,html-keyboard-response,92,293473,0.0-3.3-20.3-0.3,15655,List1A,white,man,,,,null,,,,
2885,"<img src=""portrait/WW1.jpg""style=""height:400px;""></img>",0,html-button-response,93,296361,0.0-3.3-22.3,15655,List1A,white,man,,TRUE,1,,,,,
1277,"<img src=""portrait/WW1.jpg""style=""height:400px;""></img>",1,html-button-response,94,298644,0.0-3.3-24.3-0.3,15655,List1A,white,man,,FALSE,1,,,,,
null,CORRECT,,html-keyboard-response,95,300155,0.0-3.3-24.3-1.3-0.3,15655,List1A,white,man,,,,null,,,,
1379,<p>You got 5 out of 8 right first time. Press Continue.</p>,0,html-button-response,96,301536,0.0-3.3-25.3,15655,List1A,white,man,,,,,,,,
1319,"As you did not score 100%, the memory game will repeat. Press Continue.",0,html-button-response,97,303861,0.0-3.3-26.3-0.3,15655,List1A,white,man,,,,,,,,
3904,"<img src='img/portrait_matrix_list1.jpg' style='width:900px;height:500px;''></img><p>If you have memorised all the portraits and names and are ready to start, press Continue.</p><p><strong>Please note: Your memory of these faces will be tested 4 times during this experiment.</strong></p>",0,html-button-response,98,308774,0.0-3.4-0.4,15655,List1A,white,man,,,,,,,,
3590,"<img src=""portrait/WW2.jpg""style=""height:400px;""></img>",2,html-button-response,99,313373,0.0-3.4-1.4,15655,List1A,white,man,,TRUE,3,,,,,
1693,"<img src=""portrait/WW2.jpg""style=""height:400px;""></img>",3,html-button-response,100,316071,0.0-3.4-3.4-0.4,15655,List1A,white,man,,FALSE,3,,,,,
null,CORRECT,,html-keyboard-response,101,317578,0.0-3.4-3.4-1.4-0.4,15655,List1A,white,man,,,,null,,,,
6832,"<img src=""portrait/BM1.jpg""style=""height:400px;""></img>",4,html-button-response,102,324414,0.0-3.4-4.4,15655,List1A,white,man,,TRUE,4,,,,,
null,CORRECT,,html-keyboard-response,103,325926,0.0-3.4-5.4-0.4,15655,List1A,white,man,,,,null,,,,
1782,"<img src=""portrait/BW1.jpg""style=""height:400px;""></img>",1,html-button-response,104,327710,0.0-3.4-7.4,15655,List1A,white,man,,TRUE,0,,,,,
1428,"<img src=""portrait/BW1.jpg""style=""height:400px;""></img>",0,html-button-response,105,330145,0.0-3.4-9.4-0.4,15655,List1A,white,man,,FALSE,0,,,,,
null,CORRECT,,html-keyboard-response,106,331650,0.0-3.4-9.4-1.4-0.4,15655,List1A,white,man,,,,null,,,,
1820,"<img src=""portrait/BW2.jpg""style=""height:400px;""></img>",2,html-button-response,107,333472,0.0-3.4-10.4,15655,List1A,white,man,,TRUE,2,,,,,
null,CORRECT,,html-keyboard-response,108,334982,0.0-3.4-11.4-0.4,15655,List1A,white,man,,,,null,,,,
1737,"<img src=""portrait/BM2.jpg""style=""height:400px;""></img>",7,html-button-response,109,336723,0.0-3.4-13.4,15655,List1A,white,man,,TRUE,5,,,,,
1700,"<img src=""portrait/BM2.jpg""style=""height:400px;""></img>",5,html-button-response,110,339431,0.0-3.4-15.4-0.4,15655,List1A,white,man,,FALSE,5,,,,,
null,CORRECT,,html-keyboard-response,111,340938,0.0-3.4-15.4-1.4-0.4,15655,List1A,white,man,,,,null,,,,
1355,"<img src=""portrait/WM2.jpg""style=""height:400px;""></img>",7,html-button-response,112,342296,0.0-3.4-16.4,15655,List1A,white,man,,TRUE,7,,,,,
null,CORRECT,,html-keyboard-response,113,343806,0.0-3.4-17.4-0.4,15655,List1A,white,man,,,,null,,,,
1728,"<img src=""portrait/WM1.jpg""style=""height:400px;""></img>",6,html-button-response,114,345537,0.0-3.4-19.4,15655,List1A,white,man,,TRUE,6,,,,,
null,CORRECT,,html-keyboard-response,115,347048,0.0-3.4-20.4-0.4,15655,List1A,white,man,,,,null,,,,
1693,"<img src=""portrait/WW1.jpg""style=""height:400px;""></img>",3,html-button-response,116,348744,0.0-3.4-22.4,15655,List1A,white,man,,TRUE,1,,,,,
1410,"<img src=""portrait/WW1.jpg""style=""height:400px;""></img>",1,html-button-response,117,351178,0.0-3.4-24.4-0.4,15655,List1A,white,man,,FALSE,1,,,,,
null,CORRECT,,html-keyboard-response,118,352691,0.0-3.4-24.4-1.4-0.4,15655,List1A,white,man,,,,null,,,,
1432,<p>You got 4 out of 8 right first time. Press Continue.</p>,0,html-button-response,119,354126,0.0-3.4-25.4,15655,List1A,white,man,,,,,,,,
1385,"As you did not score 100%, the memory game will repeat. Press Continue.",0,html-button-response,120,356518,0.0-3.4-26.4-0.4,15655,List1A,white,man,,,,,,,,
35554,"<img src='img/portrait_matrix_list1.jpg' style='width:900px;height:500px;''></img><p>If you have memorised all the portraits and names and are ready to start, press Continue.</p><p><strong>Please note: Your memory of these faces will be tested 4 times during this experiment.</strong></p>",0,html-button-response,121,393080,0.0-3.5-0.5,15655,List1A,white,man,,,,,,,,
5123,"<img src=""portrait/WW2.jpg""style=""height:400px;""></img>",3,html-button-response,122,399212,0.0-3.5-1.5,15655,List1A,white,man,,TRUE,3,,,,,
null,CORRECT,,html-keyboard-response,123,400725,0.0-3.5-2.5-0.5,15655,List1A,white,man,,,,null,,,,
5093,"<img src=""portrait/BM1.jpg""style=""height:400px;""></img>",4,html-button-response,124,405821,0.0-3.5-4.5,15655,List1A,white,man,,TRUE,4,,,,,
null,CORRECT,,html-keyboard-response,125,407326,0.0-3.5-5.5-0.5,15655,List1A,white,man,,,,null,,,,
4379,"<img src=""portrait/BW1.jpg""style=""height:400px;""></img>",0,html-button-response,126,411709,0.0-3.5-7.5,15655,List1A,white,man,,TRUE,0,,,,,
null,CORRECT,,html-keyboard-response,127,413216,0.0-3.5-8.5-0.5,15655,List1A,white,man,,,,null,,,,
3770,"<img src=""portrait/BW2.jpg""style=""height:400px;""></img>",2,html-button-response,128,416989,0.0-3.5-10.5,15655,List1A,white,man,,TRUE,2,,,,,
null,CORRECT,,html-keyboard-response,129,418497,0.0-3.5-11.5-0.5,15655,List1A,white,man,,,,null,,,,
4741,"<img src=""portrait/BM2.jpg""style=""height:400px;""></img>",5,html-button-response,130,423241,0.0-3.5-13.5,15655,List1A,white,man,,TRUE,5,,,,,
null,CORRECT,,html-keyboard-response,131,424748,0.0-3.5-14.5-0.5,15655,List1A,white,man,,,,null,,,,
4655,"<img src=""portrait/WM2.jpg""style=""height:400px;""></img>",7,html-button-response,132,429410,0.0-3.5-16.5,15655,List1A,white,man,,TRUE,7,,,,,
null,CORRECT,,html-keyboard-response,133,430917,0.0-3.5-17.5-0.5,15655,List1A,white,man,,,,null,,,,
1831,"<img src=""portrait/WM1.jpg""style=""height:400px;""></img>",6,html-button-response,134,432754,0.0-3.5-19.5,15655,List1A,white,man,,TRUE,6,,,,,
null,CORRECT,,html-keyboard-response,135,434262,0.0-3.5-20.5-0.5,15655,List1A,white,man,,,,null,,,,
4771,"<img src=""portrait/WW1.jpg""style=""height:400px;""></img>",1,html-button-response,136,439037,0.0-3.5-22.5,15655,List1A,white,man,,TRUE,1,,,,,
null,CORRECT,,html-keyboard-response,137,440555,0.0-3.5-23.5-0.5,15655,List1A,white,man,,,,null,,,,
1673,<p>You got 8 out of 8 right first time. Press Continue.</p>,0,html-button-response,138,442231,0.0-3.5-25.5,15655,List1A,white,man,,,,,,,,
13226,"<p>In this experiment, you will view photographs of the people from the memory game interacting.</p><p>By using the <strong>exact</strong> phrase given <i>after</i> the photograph appears and recalling the correct names of the people in the photographs, form a sentence describing the interaction. You do not need to capitalise names.</p><p>Type your answer in the space provided. Please complete every sentence before moving onto the next trial.</p><p>You will only have a few seconds to memorise each given photograph and phrase before you can respond, so try your best to focus.</p><p>An example is given below. Press 'Continue' when you are ready.</p><img src='img/speaking_example.jpg' style='width:800px;height:460px;''></img>",0,html-button-response,139,456466,0.0-4.0,15655,List1A,white,man,,,,,,,,
2484,"<p>Before the experiment starts, you will watch two example trials. Press 'Continue'.</p>",0,html-button-response,140,459958,0.0-5.0,15655,List1A,white,man,,,,,,,,
null,<img src='img/meet_eg.gif' style='height:400px;''></img>,,html-keyboard-response,141,462971,0.0-6.0,15655,List1A,white,man,,,,null,,,,
null,<p>is meeting</p>,,html-keyboard-response,142,464975,0.0-7.0,15655,List1A,white,man,,,,null,,,,
4729,<p><b>Answer:</b> kate is meeting beth</p>,0,html-button-response,143,469706,0.0-8.0,15655,List1A,white,man,,,,,,,,
null,<img src='img/look_eg.gif' style='height:400px;''></img>,,html-keyboard-response,144,472722,0.0-9.0,15655,List1A,white,man,,,,null,,,,
null,<p>are looking at each other</p>,,html-keyboard-response,145,474727,0.0-10.0,15655,List1A,white,man,,,,null,,,,
19599,<p><b>Answer:</b> luke and dave are looking at each other</p>,0,html-button-response,146,494332,0.0-11.0,15655,List1A,white,man,,,,,,,,
2126,"<p>Ready to start the experiment?</p><br><p><strong>Remember to describe the picture using a full sentence,</strong></p><p><strong>that combines the names of the people with the <i>exact</i> phrase given.</strong></p><p><strong>To receive full payment you must do this correctly.</strong></p><p><strong> You do not need to capitalise names or use punctuation.</strong></p><br><p>Press 'Continue' to begin.</p>",0,html-button-response,147,497463,0.0-12.0,15655,List1A,white,man,,,,,,,,
null,"<div style=""font-size:60px;"">+</div>",,html-keyboard-response,148,498977,0.0-13.0-0.0,15655,List1A,white,man,,,,null,,,,
null,"<img src=""stim_listA/kiss4.gif""style=""height:400px;""></stim_listA>",,html-keyboard-response,149,500981,0.0-13.0-1.0,15655,List1A,white,man,,,,null,,,,
null,are kissing each other,,html-keyboard-response,150,503651,0.0-13.0-2.0,15655,List1A,white,man,,,,null,,,,
17070,,,survey-text,151,520724,0.0-13.0-3.0,15655,List1A,white,man,,,,,"{""Q0"":""jane spking to dave""}","<img src=""stim_listA/kiss4.gif""style=""height:400px;""></stim_listA>",are kissing each other,
null,"<div style=""font-size:60px;"">+</div>",,html-keyboard-response,152,521228,0.0-13.0-0.1,15655,List1A,white,man,,,,null,,,,
null,"<img src=""stim_listA/talk1.gif""style=""height:400px;""></stim_listA>",,html-keyboard-response,153,523231,0.0-13.0-1.1,15655,List1A,white,man,,,,null,,,,
null,is talking to,,html-keyboard-response,154,525239,0.0-13.0-2.1,15655,List1A,white,man,,,,null,,,,
21723,,,survey-text,155,546964,0.0-13.0-3.1,15655,List1A,white,man,,,,,"{""Q0"":""fred talking to kate""}","<img src=""stim_listA/talk1.gif""style=""height:400px;""></stim_listA>",is talking to,
null,"<div style=""font-size:60px;"">+</div>",,html-keyboard-response,156,547470,0.0-13.0-0.2,15655,List1A,white,man,,,,null,,,,
null,"<img src=""stim_listA/kiss3.gif""style=""height:400px;""></stim_listA>",,html-keyboard-response,157,549475,0.0-13.0-1.2,15655,List1A,white,man,,,,null,,,,
null,is kissing,,html-keyboard-response,158,551664,0.0-13.0-2.2,15655,List1A,white,man,,,,null,,,,
9741,,,survey-text,159,561407,0.0-13.0-3.2,15655,List1A,white,man,,,,,"{""Q0"":""ruth talking to luke""}","<img src=""stim_listA/kiss3.gif""style=""height:400px;""></stim_listA>",is kissing,
null,"<div style=""font-size:60px;"">+</div>",,html-keyboard-response,160,561913,0.0-13.0-0.3,15655,List1A,white,man,,,,null,,,,
null,"<img src=""stim_listA/marry1.gif""style=""height:400px;""></stim_listA>",,html-keyboard-response,161,563917,0.0-13.0-1.3,15655,List1A,white,man,,,,null,,,,
null,is marrying,,html-keyboard-response,162,566650,0.0-13.0-2.3,15655,List1A,white,man,,,,null,,,,
12031,,,survey-text,163,578682,0.0-13.0-3.3,15655,List1A,white,man,,,,,"{""Q0"":""beth talking to mike""}","<img src=""stim_listA/marry1.gif""style=""height:400px;""></stim_listA>",is marrying,
null,"<div style=""font-size:60px;"">+</div>",,html-keyboard-response,164,579188,0.0-13.0-0.4,15655,List1A,white,man,,,,null,,,,
null,"<img src=""stim_listA/shout3.gif""style=""height:400px;""></stim_listA>",,html-keyboard-response,165,581207,0.0-13.0-1.4,15655,List1A,white,man,,,,null,,,,
null,is shouting at,,html-keyboard-response,166,583465,0.0-13.0-2.4,15655,List1A,white,man,,,,null,,,,
9132,,,survey-text,167,592605,0.0-13.0-3.4,15655,List1A,white,man,,,,,"{""Q0"":""ruth talking to luke""}","<img src=""stim_listA/shout3.gif""style=""height:400px;""></stim_listA>",is shouting at,
null,"<div style=""font-size:60px;"">+</div>",,html-keyboard-response,168,593113,0.0-13.0-0.5,15655,List1A,white,man,,,,null,,,,
null,"<img src=""stim_listA/play1.gif""style=""height:400px;""></stim_listA>",,html-keyboard-response,169,595118,0.0-13.0-1.5,15655,List1A,white,man,,,,null,,,,
null,is playing with,,html-keyboard-response,170,597121,0.0-13.0-2.5,15655,List1A,white,man,,,,null,,,,
15837,,,survey-text,171,612961,0.0-13.0-3.5,15655,List1A,white,man,,,,,"{""Q0"":""kate and mike""}","<img src=""stim_listA/play1.gif""style=""height:400px;""></stim_listA>",is playing with,
null,"<div style=""font-size:60px;"">+</div>",,html-keyboard-response,172,613468,0.0-13.0-0.6,15655,List1A,white,man,,,,null,,,,
null,"<img src=""stim_listA/talk3.gif""style=""height:400px;""></stim_listA>",,html-keyboard-response,173,615471,0.0-13.0-1.6,15655,List1A,white,man,,,,null,,,,
null,is talking to,,html-keyboard-response,174,617649,0.0-13.0-2.6,15655,List1A,white,man,,,,null,,,,
11834,,,survey-text,175,629488,0.0-13.0-3.6,15655,List1A,white,man,,,,,"{""Q0"":""jane talking to luke""}","<img src=""stim_listA/talk3.gif""style=""height:400px;""></stim_listA>",is talking to,
null,"<div style=""font-size:60px;"">+</div>",,html-keyboard-response,176,629995,0.0-13.0-0.7,15655,List1A,white,man,,,,null,,,,
null,"<img src=""stim_listA/play2.gif""style=""height:400px;""></stim_listA>",,html-keyboard-response,177,632683,0.0-13.0-1.7,15655,List1A,white,man,,,,null,,,,
null,are playing with each other,,html-keyboard-response,178,634737,0.0-13.0-2.7,15655,List1A,white,man,,,,null,,,,
7920,,,survey-text,179,642659,0.0-13.0-3.7,15655,List1A,white,man,,,,,"{""Q0"":""fred and ruth""}","<img src=""stim_listA/play2.gif""style=""height:400px;""></stim_listA>",are playing with each other,
null,"<div style=""font-size:60px;"">+</div>",,html-keyboard-response,180,643167,0.0-13.0-0.8,15655,List1A,white,man,,,,null,,,,
null,"<img src=""stim_listA/fight4.gif""style=""height:400px;""></stim_listA>",,html-keyboard-response,181,645171,0.0-13.0-1.8,15655,List1A,white,man,,,,null,,,,
null,are fighting each other,,html-keyboard-response,182,647647,0.0-13.0-2.8,15655,List1A,white,man,,,,null,,,,
8372,,,survey-text,183,656023,0.0-13.0-3.8,15655,List1A,white,man,,,,,"{""Q0"":""ruth and luke""}","<img src=""stim_listA/fight4.gif""style=""height:400px;""></stim_listA>",are fighting each other,
null,"<div style=""font-size:60px;"">+</div>",,html-keyboard-response,184,656528,0.0-13.0-0.9,15655,List1A,white,man,,,,null,,,,
null,"<img src=""stim_listA/shout7.gif""style=""height:400px;""></stim_listA>",,html-keyboard-response,185,658554,0.0-13.0-1.9,15655,List1A,white,man,,,,null,,,,
null,is shouting at,,html-keyboard-response,186,660649,0.0-13.0-2.9,15655,List1A,white,man,,,,null,,,,
6229,,,survey-text,187,666881,0.0-13.0-3.9,15655,List1A,white,man,,,,,"{""Q0"":""ruth and beth""}","<img src=""stim_listA/shout7.gif""style=""height:400px;""></stim_listA>",is shouting at,
null,"<div style=""font-size:60px;"">+</div>",,html-keyboard-response,188,667386,0.0-13.0-0.10,15655,List1A,white,man,,,,null,,,,
null,"<img src=""stim_listA/talk8.gif""style=""height:400px;""></stim_listA>",,html-keyboard-response,189,669645,0.0-13.0-1.10,15655,List1A,white,man,,,,null,,,,
null,are talking to each other,,html-keyboard-response,190,671648,0.0-13.0-2.10,15655,List1A,white,man,,,,null,,,,
6706,,,survey-text,191,678356,0.0-13.0-3.10,15655,List1A,white,man,,,,,"{""Q0"":""ruth and kaith""}","<img src=""stim_listA/talk8.gif""style=""height:400px;""></stim_listA>",are talking to each other,
null,"<div style=""font-size:60px;"">+</div>",,html-keyboard-response,192,678859,0.0-13.0-0.11,15655,List1A,white,man,,,,null,,,,
null,"<img src=""stim_listA/dance1.gif""style=""height:400px;""></stim_listA>",,html-keyboard-response,193,681630,0.0-13.0-1.11,15655,List1A,white,man,,,,null,,,,
null,is dancing with,,html-keyboard-response,194,683636,0.0-13.0-2.11,15655,List1A,white,man,,,,null,,,,
6329,,,survey-text,195,689969,0.0-13.0-3.11,15655,List1A,white,man,,,,,"{""Q0"":""kate and fred""}","<img src=""stim_listA/dance1.gif""style=""height:400px;""></stim_listA>",is dancing with,
null,"<div style=""font-size:60px;"">+</div>",,html-keyboard-response,196,690475,0.0-13.0-0.12,15655,List1A,white,man,,,,null,,,,
null,"<img src=""stim_listA/flirt1.gif""style=""height:400px;""></stim_listA>",,html-keyboard-response,197,692486,0.0-13.0-1.12,15655,List1A,white,man,,,,null,,,,
null,is flirting with,,html-keyboard-response,198,694491,0.0-13.0-2.12,15655,List1A,white,man,,,,null,,,,
7313,,,survey-text,199,701809,0.0-13.0-3.12,15655,List1A,white,man,,,,,"{""Q0"":""fread and kate""}","<img src=""stim_listA/flirt1.gif""style=""height:400px;""></stim_listA>",is flirting with,
null,"<div style=""font-size:60px;"">+</div>",,html-keyboard-response,200,702313,0.0-13.0-0.13,15655,List1A,white,man,,,,null,,,,
null,"<img src=""stim_listA/dance8.gif""style=""height:400px;""></stim_listA>",,html-keyboard-response,201,704667,0.0-13.0-1.13,15655,List1A,white,man,,,,null,,,,
null,are dancing with each other,,html-keyboard-response,202,706677,0.0-13.0-2.13,15655,List1A,white,man,,,,null,,,,
13759,,,survey-text,203,720439,0.0-13.0-3.13,15655,List1A,white,man,,,,,"{""Q0"":""ruth and kate""}","<img src=""stim_listA/dance8.gif""style=""height:400px;""></stim_listA>",are dancing with each other,
null,"<div style=""font-size:60px;"">+</div>",,html-keyboard-response,204,720942,0.0-13.0-0.14,15655,List1A,white,man,,,,null,,,,
null,"<img src=""stim_listA/kiss1.gif""style=""height:400px;""></stim_listA>",,html-keyboard-response,205,723684,0.0-13.0-1.14,15655,List1A,white,man,,,,null,,,,
null,is kissing,,html-keyboard-response,206,725700,0.0-13.0-2.14,15655,List1A,white,man,,,,null,,,,
6464,,,survey-text,207,732167,0.0-13.0-3.14,15655,List1A,white,man,,,,,"{""Q0"":""fread and beth""}","<img src=""stim_listA/kiss1.gif""style=""height:400px;""></stim_listA>",is kissing,
null,"<div style=""font-size:60px;"">+</div>",,html-keyboard-response,208,732674,0.0-13.0-0.15,15655,List1A,white,man,,,,null,,,,
null,"<img src=""stim_listA/marry7.gif""style=""height:400px;""></stim_listA>",,html-keyboard-response,209,735648,0.0-13.0-1.15,15655,List1A,white,man,,,,null,,,,
null,is marrying,,html-keyboard-response,210,737650,0.0-13.0-2.15,15655,List1A,white,man,,,,null,,,,
8421,,,survey-text,211,746073,0.0-13.0-3.15,15655,List1A,white,man,,,,,"{""Q0"":""kate and ruth""}","<img src=""stim_listA/marry7.gif""style=""height:400px;""></stim_listA>",is marrying,
null,"<div style=""font-size:60px;"">+</div>",,html-keyboard-response,212,746576,0.0-13.0-0.16,15655,List1A,white,man,,,,null,,,,
null,"<img src=""stim_listA/talk4.gif""style=""height:400px;""></stim_listA>",,html-keyboard-response,213,748582,0.0-13.0-1.16,15655,List1A,white,man,,,,null,,,,
null,are talking to each other,,html-keyboard-response,214,750586,0.0-13.0-2.16,15655,List1A,white,man,,,,null,,,,
28489,,,survey-text,215,779077,0.0-13.0-3.16,15655,List1A,white,man,,,,,"{""Q0"":""luke and kate""}","<img src=""stim_listA/talk4.gif""style=""height:400px;""></stim_listA>",are talking to each other,
null,"<div style=""font-size:60px;"">+</div>",,html-keyboard-response,216,779586,0.0-13.0-0.17,15655,List1A,white,man,,,,null,,,,
null,"<img src=""stim_listA/flirt4.gif""style=""height:400px;""></stim_listA>",,html-keyboard-response,217,781591,0.0-13.0-1.17,15655,List1A,white,man,,,,null,,,,
null,are flirting with each other,,html-keyboard-response,218,783694,0.0-13.0-2.17,15655,List1A,white,man,,,,null,,,,
9240,,,survey-text,219,792936,0.0-13.0-3.17,15655,List1A,white,man,,,,,"{""Q0"":""dave and beth""}","<img src=""stim_listA/flirt4.gif""style=""height:400px;""></stim_listA>",are flirting with each other,
null,"<div style=""font-size:60px;"">+</div>",,html-keyboard-response,220,793440,0.0-13.0-0.18,15655,List1A,white,man,,,,null,,,,
null,"<img src=""stim_listA/flirt3.gif""style=""height:400px;""></stim_listA>",,html-keyboard-response,221,795445,0.0-13.0-1.18,15655,List1A,white,man,,,,null,,,,
null,is flirting with,,html-keyboard-response,222,797657,0.0-13.0-2.18,15655,List1A,white,man,,,,null,,,,
8938,,,survey-text,223,806597,0.0-13.0-3.18,15655,List1A,white,man,,,,,"{""Q0"":""luke and jane""}","<img src=""stim_listA/flirt3.gif""style=""height:400px;""></stim_listA>",is flirting with,
null,"<div style=""font-size:60px;"">+</div>",,html-keyboard-response,224,807102,0.0-13.0-0.19,15655,List1A,white,man,,,,null,,,,
null,"<img src=""stim_listA/marry3.gif""style=""height:400px;""></stim_listA>",,html-keyboard-response,225,809651,0.0-13.0-1.19,15655,List1A,white,man,,,,null,,,,
null,is marrying,,html-keyboard-response,226,812648,0.0-13.0-2.19,15655,List1A,white,man,,,,null,,,,
7904,,,survey-text,227,820553,0.0-13.0-3.19,15655,List1A,white,man,,,,,"{""Q0"":""ruth and dave""}","<img src=""stim_listA/marry3.gif""style=""height:400px;""></stim_listA>",is marrying,
7330,"<img src='img/portrait_matrix_list1.jpg' style='width:900px;height:500px;''></img><p>If you have memorised all the portraits and names and are ready to start, press Continue.</p><p><strong>Please note: Your memory of these faces will be tested 4 times during this experiment.</strong></p>",0,html-button-response,228,827888,0.0-14.0-0.0,15655,List1A,white,man,,,,,,,,
4454,"<img src=""portrait/WW1.jpg""style=""height:400px;""></img>",1,html-button-response,229,833349,0.0-14.0-1.0,15655,List1A,white,man,,TRUE,1,,,,,
null,CORRECT,,html-keyboard-response,230,834857,0.0-14.0-2.0-0.0,15655,List1A,white,man,,,,null,,,,
2107,"<img src=""portrait/WM1.jpg""style=""height:400px;""></img>",6,html-button-response,231,836968,0.0-14.0-4.0,15655,List1A,white,man,,TRUE,6,,,,,
null,CORRECT,,html-keyboard-response,232,838475,0.0-14.0-5.0-0.0,15655,List1A,white,man,,,,null,,,,
3746,"<img src=""portrait/BM1.jpg""style=""height:400px;""></img>",4,html-button-response,233,842225,0.0-14.0-7.0,15655,List1A,white,man,,TRUE,4,,,,,
null,CORRECT,,html-keyboard-response,234,843733,0.0-14.0-8.0-0.0,15655,List1A,white,man,,,,null,,,,
3466,"<img src=""portrait/WM2.jpg""style=""height:400px;""></img>",7,html-button-response,235,847203,0.0-14.0-10.0,15655,List1A,white,man,,TRUE,7,,,,,
null,CORRECT,,html-keyboard-response,236,848716,0.0-14.0-11.0-0.0,15655,List1A,white,man,,,,null,,,,
3687,"<img src=""portrait/BW2.jpg""style=""height:400px;""></img>",2,html-button-response,237,852411,0.0-14.0-13.0,15655,List1A,white,man,,TRUE,2,,,,,
null,CORRECT,,html-keyboard-response,238,853923,0.0-14.0-14.0-0.0,15655,List1A,white,man,,,,null,,,,
3291,"<img src=""portrait/WW2.jpg""style=""height:400px;""></img>",3,html-button-response,239,857217,0.0-14.0-16.0,15655,List1A,white,man,,TRUE,3,,,,,
null,CORRECT,,html-keyboard-response,240,858745,0.0-14.0-17.0-0.0,15655,List1A,white,man,,,,null,,,,
3777,"<img src=""portrait/BM2.jpg""style=""height:400px;""></img>",5,html-button-response,241,862526,0.0-14.0-19.0,15655,List1A,white,man,,TRUE,5,,,,,
null,CORRECT,,html-keyboard-response,242,864037,0.0-14.0-20.0-0.0,15655,List1A,white,man,,,,null,,,,
3672,"<img src=""portrait/BW1.jpg""style=""height:400px;""></img>",0,html-button-response,243,867713,0.0-14.0-22.0,15655,List1A,white,man,,TRUE,0,,,,,
null,CORRECT,,html-keyboard-response,244,869219,0.0-14.0-23.0-0.0,15655,List1A,white,man,,,,null,,,,
1460,<p>You got 8 out of 8 right first time. Press Continue.</p>,0,html-button-response,245,870682,0.0-14.0-25.0,15655,List1A,white,man,,,,,,,,
null,"<div style=""font-size:60px;"">+</div>",,html-keyboard-response,246,872203,0.0-15.0-0.0,15655,List1A,white,man,,,,null,,,,
null,"<img src=""stim_listA/shout6.gif""style=""height:400px;""></stim_listA>",,html-keyboard-response,247,874206,0.0-15.0-1.0,15655,List1A,white,man,,,,null,,,,
null,are shouting at each other,,html-keyboard-response,248,876208,0.0-15.0-2.0,15655,List1A,white,man,,,,null,,,,
11519,,,survey-text,249,887730,0.0-15.0-3.0,15655,List1A,white,man,,,,,"{""Q0"":""mike and dave""}","<img src=""stim_listA/shout6.gif""style=""height:400px;""></stim_listA>",are shouting at each other,
null,"<div style=""font-size:60px;"">+</div>",,html-keyboard-response,250,888236,0.0-15.0-0.1,15655,List1A,white,man,,,,null,,,,
null,"<img src=""stim_listA/touch2.gif""style=""height:400px;""></stim_listA>",,html-keyboard-response,251,890249,0.0-15.0-1.1,15655,List1A,white,man,,,,null,,,,
null,are touching each other,,html-keyboard-response,252,892360,0.0-15.0-2.1,15655,List1A,white,man,,,,null,,,,
7852,,,survey-text,253,900215,0.0-15.0-3.1,15655,List1A,white,man,,,,,"{""Q0"":""fred and beth""}","<img src=""stim_listA/touch2.gif""style=""height:400px;""></stim_listA>",are touching each other,
null,"<div style=""font-size:60px;"">+</div>",,html-keyboard-response,254,900723,0.0-15.0-0.2,15655,List1A,white,man,,,,null,,,,
null,"<img src=""stim_listA/play8.gif""style=""height:400px;""></stim_listA>",,html-keyboard-response,255,902732,0.0-15.0-1.2,15655,List1A,white,man,,,,null,,,,
null,are playing with each other,,html-keyboard-response,256,905651,0.0-15.0-2.2,15655,List1A,white,man,,,,null,,,,
7391,,,survey-text,257,913051,0.0-15.0-3.2,15655,List1A,white,man,,,,,"{""Q0"":""ruth and beth""}","<img src=""stim_listA/play8.gif""style=""height:400px;""></stim_listA>",are playing with each other,
null,"<div style=""font-size:60px;"">+</div>",,html-keyboard-response,258,913556,0.0-15.0-0.3,15655,List1A,white,man,,,,null,,,,
null,"<img src=""stim_listA/flirt8.gif""style=""height:400px;""></stim_listA>",,html-keyboard-response,259,915563,0.0-15.0-1.3,15655,List1A,white,man,,,,null,,,,
null,are flirting with each other,,html-keyboard-response,260,917651,0.0-15.0-2.3,15655,List1A,white,man,,,,null,,,,
8819,,,survey-text,261,926474,0.0-15.0-3.3,15655,List1A,white,man,,,,,"{""Q0"":""kate and ruth""}","<img src=""stim_listA/flirt8.gif""style=""height:400px;""></stim_listA>",are flirting with each other,
null,"<div style=""font-size:60px;"">+</div>",,html-keyboard-response,262,926978,0.0-15.0-0.4,15655,List1A,white,man,,,,null,,,,
null,"<img src=""stim_listA/shout1.gif""style=""height:400px;""></stim_listA>",,html-keyboard-response,263,929543,0.0-15.0-1.4,15655,List1A,white,man,,,,null,,,,
null,is shouting at,,html-keyboard-response,264,931553,0.0-15.0-2.4,15655,List1A,white,man,,,,null,,,,
7279,,,survey-text,265,938834,0.0-15.0-3.4,15655,List1A,white,man,,,,,"{""Q0"":""fred and beth""}","<img src=""stim_listA/shout1.gif""style=""height:400px;""></stim_listA>",is shouting at,
null,"<div style=""font-size:60px;"">+</div>",,html-keyboard-response,266,939340,0.0-15.0-0.5,15655,List1A,white,man,,,,null,,,,
null,"<img src=""stim_listA/touch7.gif""style=""height:400px;""></stim_listA>",,html-keyboard-response,267,941648,0.0-15.0-1.5,15655,List1A,white,man,,,,null,,,,
null,is touching,,html-keyboard-response,268,943663,0.0-15.0-2.5,15655,List1A,white,man,,,,null,,,,
8918,,,survey-text,269,952583,0.0-15.0-3.5,15655,List1A,white,man,,,,,"{""Q0"":""jane and kate""}","<img src=""stim_listA/touch7.gif""style=""height:400px;""></stim_listA>",is touching,
null,"<div style=""font-size:60px;"">+</div>",,html-keyboard-response,270,953089,0.0-15.0-0.6,15655,List1A,white,man,,,,null,,,,
null,"<img src=""stim_listA/touch6.gif""style=""height:400px;""></stim_listA>",,html-keyboard-response,271,955653,0.0-15.0-1.6,15655,List1A,white,man,,,,null,,,,
null,are touching each other,,html-keyboard-response,272,957660,0.0-15.0-2.6,15655,List1A,white,man,,,,null,,,,
8307,,,survey-text,273,965970,0.0-15.0-3.6,15655,List1A,white,man,,,,,"{""Q0"":""fred and luke""}","<img src=""stim_listA/touch6.gif""style=""height:400px;""></stim_listA>",are touching each other,
null,"<div style=""font-size:60px;"">+</div>",,html-keyboard-response,274,966476,0.0-15.0-0.7,15655,List1A,white,man,,,,null,,,,
null,"<img src=""stim_listA/kiss8.gif""style=""height:400px;""></stim_listA>",,html-keyboard-response,275,968649,0.0-15.0-1.7,15655,List1A,white,man,,,,null,,,,
null,are kissing each other,,html-keyboard-response,276,970651,0.0-15.0-2.7,15655,List1A,white,man,,,,null,,,,
7993,,,survey-text,277,978647,0.0-15.0-3.7,15655,List1A,white,man,,,,,"{""Q0"":""kate and jane""}","<img src=""stim_listA/kiss8.gif""style=""height:400px;""></stim_listA>",are kissing each other,
null,"<div style=""font-size:60px;"">+</div>",,html-keyboard-response,278,979165,0.0-15.0-0.8,15655,List1A,white,man,,,,null,,,,
null,"<img src=""stim_listA/play5.gif""style=""height:400px;""></stim_listA>",,html-keyboard-response,279,981648,0.0-15.0-1.8,15655,List1A,white,man,,,,null,,,,
null,is playing with,,html-keyboard-response,280,983658,0.0-15.0-2.8,15655,List1A,white,man,,,,null,,,,
7152,,,survey-text,281,990812,0.0-15.0-3.8,15655,List1A,white,man,,,,,"{""Q0"":""mike and dave""}","<img src=""stim_listA/play5.gif""style=""height:400px;""></stim_listA>",is playing with,
null,"<div style=""font-size:60px;"">+</div>",,html-keyboard-response,282,991332,0.0-15.0-0.9,15655,List1A,white,man,,,,null,,,,
null,"<img src=""stim_listA/argue8.gif""style=""height:400px;""></stim_listA>",,html-keyboard-response,283,993649,0.0-15.0-1.9,15655,List1A,white,man,,,,null,,,,
null,are arguing with each other,,html-keyboard-response,284,995664,0.0-15.0-2.9,15655,List1A,white,man,,,,null,,,,
6422,,,survey-text,285,1002088,0.0-15.0-3.9,15655,List1A,white,man,,,,,"{""Q0"":""ruth and beth""}","<img src=""stim_listA/argue8.gif""style=""height:400px;""></stim_listA>",are arguing with each other,
null,"<div style=""font-size:60px;"">+</div>",,html-keyboard-response,286,1002595,0.0-15.0-0.10,15655,List1A,white,man,,,,null,,,,
null,"<img src=""stim_listA/fight1.gif""style=""height:400px;""></stim_listA>",,html-keyboard-response,287,1004650,0.0-15.0-1.10,15655,List1A,white,man,,,,null,,,,
null,is fighting,,html-keyboard-response,288,1006658,0.0-15.0-2.10,15655,List1A,white,man,,,,null,,,,
11199,,,survey-text,289,1017863,0.0-15.0-3.10,15655,List1A,white,man,,,,,"{""Q0"":""kate and mike""}","<img src=""stim_listA/fight1.gif""style=""height:400px;""></stim_listA>",is fighting,
null,"<div style=""font-size:60px;"">+</div>",,html-keyboard-response,290,1018370,0.0-15.0-0.11,15655,List1A,white,man,,,,null,,,,
null,"<img src=""stim_listA/dance5.gif""style=""height:400px;""></stim_listA>",,html-keyboard-response,291,1020650,0.0-15.0-1.11,15655,List1A,white,man,,,,null,,,,
null,is dancing with,,html-keyboard-response,292,1022653,0.0-15.0-2.11,15655,List1A,white,man,,,,null,,,,
8367,,,survey-text,293,1031022,0.0-15.0-3.11,15655,List1A,white,man,,,,,"{""Q0"":""fred and dave""}","<img src=""stim_listA/dance5.gif""style=""height:400px;""></stim_listA>",is dancing with,
null,"<div style=""font-size:60px;"">+</div>",,html-keyboard-response,294,1031528,0.0-15.0-0.12,15655,List1A,white,man,,,,null,,,,
null,"<img src=""stim_listA/argue2.gif""style=""height:400px;""></stim_listA>",,html-keyboard-response,295,1033535,0.0-15.0-1.12,15655,List1A,white,man,,,,null,,,,
null,are arguing with each other,,html-keyboard-response,296,1035537,0.0-15.0-2.12,15655,List1A,white,man,,,,null,,,,
9515,,,survey-text,297,1045054,0.0-15.0-3.12,15655,List1A,white,man,,,,,"{""Q0"":""fead and kate""}","<img src=""stim_listA/argue2.gif""style=""height:400px;""></stim_listA>",are arguing with each other,
null,"<div style=""font-size:60px;"">+</div>",,html-keyboard-response,298,1045562,0.0-15.0-0.13,15655,List1A,white,man,,,,null,,,,
null,"<img src=""stim_listA/marry8.gif""style=""height:400px;""></stim_listA>",,html-keyboard-response,299,1047649,0.0-15.0-1.13,15655,List1A,white,man,,,,null,,,,
null,are marrying each other,,html-keyboard-response,300,1050629,0.0-15.0-2.13,15655,List1A,white,man,,,,null,,,,
8929,,,survey-text,301,1059560,0.0-15.0-3.13,15655,List1A,white,man,,,,,"{""Q0"":""kate and jane""}","<img src=""stim_listA/marry8.gif""style=""height:400px;""></stim_listA>",are marrying each other,
null,"<div style=""font-size:60px;"">+</div>",,html-keyboard-response,302,1060067,0.0-15.0-0.14,15655,List1A,white,man,,,,null,,,,
null,"<img src=""stim_listA/argue4.gif""style=""height:400px;""></stim_listA>",,html-keyboard-response,303,1062074,0.0-15.0-1.14,15655,List1A,white,man,,,,null,,,,
null,are arguing with each other,,html-keyboard-response,304,1064078,0.0-15.0-2.14,15655,List1A,white,man,,,,null,,,,
61336,,,survey-text,305,1125416,0.0-15.0-3.14,15655,List1A,white,man,,,,,"{""Q0"":""kate and dave""}","<img src=""stim_listA/argue4.gif""style=""height:400px;""></stim_listA>",are arguing with each other,
null,"<div style=""font-size:60px;"">+</div>",,html-keyboard-response,306,1125920,0.0-15.0-0.15,15655,List1A,white,man,,,,null,,,,
null,"<img src=""stim_listA/fight5.gif""style=""height:400px;""></stim_listA>",,html-keyboard-response,307,1127928,0.0-15.0-1.15,15655,List1A,white,man,,,,null,,,,
null,is fighting,,html-keyboard-response,308,1130647,0.0-15.0-2.15,15655,List1A,white,man,,,,null,,,,
5819,,,survey-text,309,1136470,0.0-15.0-3.15,15655,List1A,white,man,,,,,"{""Q0"":""mike and dave""}","<img src=""stim_listA/fight5.gif""style=""height:400px;""></stim_listA>",is fighting,
null,"<div style=""font-size:60px;"">+</div>",,html-keyboard-response,310,1136976,0.0-15.0-0.16,15655,List1A,white,man,,,,null,,,,
null,"<img src=""stim_listA/argue3.gif""style=""height:400px;""></stim_listA>",,html-keyboard-response,311,1139647,0.0-15.0-1.16,15655,List1A,white,man,,,,null,,,,
null,is arguing with,,html-keyboard-response,312,1141652,0.0-15.0-2.16,15655,List1A,white,man,,,,null,,,,
7387,,,survey-text,313,1149041,0.0-15.0-3.16,15655,List1A,white,man,,,,,"{""Q0"":""dave and ruth""}","<img src=""stim_listA/argue3.gif""style=""height:400px;""></stim_listA>",is arguing with,
null,"<div style=""font-size:60px;"">+</div>",,html-keyboard-response,314,1149546,0.0-15.0-0.17,15655,List1A,white,man,,,,null,,,,
null,"<img src=""stim_listA/argue1.gif""style=""height:400px;""></stim_listA>",,html-keyboard-response,315,1151648,0.0-15.0-1.17,15655,List1A,white,man,,,,null,,,,
null,is arguing with,,html-keyboard-response,316,1153653,0.0-15.0-2.17,15655,List1A,white,man,,,,null,,,,
6407,,,survey-text,317,1160062,0.0-15.0-3.17,15655,List1A,white,man,,,,,"{""Q0"":""beth and mike""}","<img src=""stim_listA/argue1.gif""style=""height:400px;""></stim_listA>",is arguing with,
null,"<div style=""font-size:60px;"">+</div>",,html-keyboard-response,318,1160568,0.0-15.0-0.18,15655,List1A,white,man,,,,null,,,,
null,"<img src=""stim_listA/dance2.gif""style=""height:400px;""></stim_listA>",,html-keyboard-response,319,1162575,0.0-15.0-1.18,15655,List1A,white,man,,,,null,,,,
null,are dancing with each other,,html-keyboard-response,320,1164577,0.0-15.0-2.18,15655,List1A,white,man,,,,null,,,,
6460,,,survey-text,321,1171040,0.0-15.0-3.18,15655,List1A,white,man,,,,,"{""Q0"":""beth and mike""}","<img src=""stim_listA/dance2.gif""style=""height:400px;""></stim_listA>",are dancing with each other,
null,"<div style=""font-size:60px;"">+</div>",,html-keyboard-response,322,1171550,0.0-15.0-0.19,15655,List1A,white,man,,,,null,,,,
null,"<img src=""stim_listA/touch8.gif""style=""height:400px;""></stim_listA>",,html-keyboard-response,323,1173670,0.0-15.0-1.19,15655,List1A,white,man,,,,null,,,,
null,are touching each other,,html-keyboard-response,324,1176250,0.0-15.0-2.19,15655,List1A,white,man,,,,null,,,,
6755,,,survey-text,325,1183007,0.0-15.0-3.19,15655,List1A,white,man,,,,,"{""Q0"":""beth and ruth""}","<img src=""stim_listA/touch8.gif""style=""height:400px;""></stim_listA>",are touching each other,
2203,"<img src='img/portrait_matrix_list1.jpg' style='width:900px;height:500px;''></img><p>If you have memorised all the portraits and names and are ready to start, press Continue.</p><p><strong>Please note: Your memory of these faces will be tested 4 times during this experiment.</strong></p>",0,html-button-response,326,1185215,0.0-16.0-0.0,15655,List1A,white,man,,,,,,,,
4838,"<img src=""portrait/BW2.jpg""style=""height:400px;""></img>",2,html-button-response,327,1191059,0.0-16.0-1.0,15655,List1A,white,man,,TRUE,2,,,,,
null,CORRECT,,html-keyboard-response,328,1192570,0.0-16.0-2.0-0.0,15655,List1A,white,man,,,,null,,,,
1476,"<img src=""portrait/WM1.jpg""style=""height:400px;""></img>",6,html-button-response,329,1194050,0.0-16.0-4.0,15655,List1A,white,man,,TRUE,6,,,,,
null,CORRECT,,html-keyboard-response,330,1195557,0.0-16.0-5.0-0.0,15655,List1A,white,man,,,,null,,,,
2027,"<img src=""portrait/WW1.jpg""style=""height:400px;""></img>",1,html-button-response,331,1197587,0.0-16.0-7.0,15655,List1A,white,man,,TRUE,1,,,,,
null,CORRECT,,html-keyboard-response,332,1199096,0.0-16.0-8.0-0.0,15655,List1A,white,man,,,,null,,,,
3288,"<img src=""portrait/WW2.jpg""style=""height:400px;""></img>",3,html-button-response,333,1202387,0.0-16.0-10.0,15655,List1A,white,man,,TRUE,3,,,,,
null,CORRECT,,html-keyboard-response,334,1203896,0.0-16.0-11.0-0.0,15655,List1A,white,man,,,,null,,,,
4929,"<img src=""portrait/BM1.jpg""style=""height:400px;""></img>",4,html-button-response,335,1208828,0.0-16.0-13.0,15655,List1A,white,man,,TRUE,4,,,,,
null,CORRECT,,html-keyboard-response,336,1210337,0.0-16.0-14.0-0.0,15655,List1A,white,man,,,,null,,,,
4307,"<img src=""portrait/BM2.jpg""style=""height:400px;""></img>",5,html-button-response,337,1214647,0.0-16.0-16.0,15655,List1A,white,man,,TRUE,5,,,,,
null,CORRECT,,html-keyboard-response,338,1216159,0.0-16.0-17.0-0.0,15655,List1A,white,man,,,,null,,,,
1367,"<img src=""portrait/WM2.jpg""style=""height:400px;""></img>",7,html-button-response,339,1217531,0.0-16.0-19.0,15655,List1A,white,man,,TRUE,7,,,,,
null,CORRECT,,html-keyboard-response,340,1219057,0.0-16.0-20.0-0.0,15655,List1A,white,man,,,,null,,,,
4035,"<img src=""portrait/BW1.jpg""style=""height:400px;""></img>",0,html-button-response,341,1223095,0.0-16.0-22.0,15655,List1A,white,man,,TRUE,0,,,,,
null,CORRECT,,html-keyboard-response,342,1224606,0.0-16.0-23.0-0.0,15655,List1A,white,man,,,,null,,,,
1592,<p>You got 8 out of 8 right first time. Press Continue.</p>,0,html-button-response,343,1226202,0.0-16.0-25.0,15655,List1A,white,man,,,,,,,,
null,"<div style=""font-size:60px;"">+</div>",,html-keyboard-response,344,1227712,0.0-17.0-0.0,15655,List1A,white,man,,,,null,,,,
null,"<img src=""stim_listA/play4.gif""style=""height:400px;""></stim_listA>",,html-keyboard-response,345,1229718,0.0-17.0-1.0,15655,List1A,white,man,,,,null,,,,
null,are playing with each other,,html-keyboard-response,346,1232650,0.0-17.0-2.0,15655,List1A,white,man,,,,null,,,,
10139,,,survey-text,347,1242792,0.0-17.0-3.0,15655,List1A,white,man,,,,,"{""Q0"":""ruth and luke""}","<img src=""stim_listA/play4.gif""style=""height:400px;""></stim_listA>",are playing with each other,
null,"<div style=""font-size:60px;"">+</div>",,html-keyboard-response,348,1243297,0.0-17.0-0.1,15655,List1A,white,man,,,,null,,,,
null,"<img src=""stim_listA/kiss5.gif""style=""height:400px;""></stim_listA>",,html-keyboard-response,349,1245300,0.0-17.0-1.1,15655,List1A,white,man,,,,null,,,,
null,is kissing,,html-keyboard-response,350,1247304,0.0-17.0-2.1,15655,List1A,white,man,,,,null,,,,
7212,,,survey-text,351,1254519,0.0-17.0-3.1,15655,List1A,white,man,,,,,"{""Q0"":""luke and fred""}","<img src=""stim_listA/kiss5.gif""style=""height:400px;""></stim_listA>",is kissing,
null,"<div style=""font-size:60px;"">+</div>",,html-keyboard-response,352,1255027,0.0-17.0-0.2,15655,List1A,white,man,,,,null,,,,
null,"<img src=""stim_listA/dance4.gif""style=""height:400px;""></stim_listA>",,html-keyboard-response,353,1257652,0.0-17.0-1.2,15655,List1A,white,man,,,,null,,,,
null,are dancing with each other,,html-keyboard-response,354,1259660,0.0-17.0-2.2,15655,List1A,white,man,,,,null,,,,
6228,,,survey-text,355,1265893,0.0-17.0-3.2,15655,List1A,white,man,,,,,"{""Q0"":""dave and ruth""}","<img src=""stim_listA/dance4.gif""style=""height:400px;""></stim_listA>",are dancing with each other,
null,"<div style=""font-size:60px;"">+</div>",,html-keyboard-response,356,1266398,0.0-17.0-0.3,15655,List1A,white,man,,,,null,,,,
null,"<img src=""stim_listA/touch4.gif""style=""height:400px;""></stim_listA>",,html-keyboard-response,357,1268662,0.0-17.0-1.3,15655,List1A,white,man,,,,null,,,,
null,are touching each other,,html-keyboard-response,358,1270668,0.0-17.0-2.3,15655,List1A,white,man,,,,null,,,,
6660,,,survey-text,359,1277330,0.0-17.0-3.3,15655,List1A,white,man,,,,,"{""Q0"":""luke and ruth""}","<img src=""stim_listA/touch4.gif""style=""height:400px;""></stim_listA>",are touching each other,
null,"<div style=""font-size:60px;"">+</div>",,html-keyboard-response,360,1277835,0.0-17.0-0.4,15655,List1A,white,man,,,,null,,,,
null,"<img src=""stim_listA/marry6.gif""style=""height:400px;""></stim_listA>",,html-keyboard-response,361,1279842,0.0-17.0-1.4,15655,List1A,white,man,,,,null,,,,
null,are marrying each other,,html-keyboard-response,362,1281847,0.0-17.0-2.4,15655,List1A,white,man,,,,null,,,,
8566,,,survey-text,363,1290416,0.0-17.0-3.4,15655,List1A,white,man,,,,,"{""Q0"":""fred and dave""}","<img src=""stim_listA/marry6.gif""style=""height:400px;""></stim_listA>",are marrying each other,
null,"<div style=""font-size:60px;"">+</div>",,html-keyboard-response,364,1290923,0.0-17.0-0.5,15655,List1A,white,man,,,,null,,,,
null,"<img src=""stim_listA/fight6.gif""style=""height:400px;""></stim_listA>",,html-keyboard-response,365,1292935,0.0-17.0-1.5,15655,List1A,white,man,,,,null,,,,
null,are fighting each other,,html-keyboard-response,366,1294943,0.0-17.0-2.5,15655,List1A,white,man,,,,null,,,,
6602,,,survey-text,367,1301549,0.0-17.0-3.5,15655,List1A,white,man,,,,,"{""Q0"":""fred and luke""}","<img src=""stim_listA/fight6.gif""style=""height:400px;""></stim_listA>",are fighting each other,
null,"<div style=""font-size:60px;"">+</div>",,html-keyboard-response,368,1302054,0.0-17.0-0.6,15655,List1A,white,man,,,,null,,,,
null,"<img src=""stim_listA/talk6.gif""style=""height:400px;""></stim_listA>",,html-keyboard-response,369,1304059,0.0-17.0-1.6,15655,List1A,white,man,,,,null,,,,
null,are talking to each other,,html-keyboard-response,370,1306072,0.0-17.0-2.6,15655,List1A,white,man,,,,null,,,,
6913,,,survey-text,371,1313000,0.0-17.0-3.6,15655,List1A,white,man,,,,,"{""Q0"":""mike and luke""}","<img src=""stim_listA/talk6.gif""style=""height:400px;""></stim_listA>",are talking to each other,
null,"<div style=""font-size:60px;"">+</div>",,html-keyboard-response,372,1313509,0.0-17.0-0.7,15655,List1A,white,man,,,,null,,,,
null,"<img src=""stim_listA/marry5.gif""style=""height:400px;""></stim_listA>",,html-keyboard-response,373,1315513,0.0-17.0-1.7,15655,List1A,white,man,,,,null,,,,
null,is marrying,,html-keyboard-response,374,1317517,0.0-17.0-2.7,15655,List1A,white,man,,,,null,,,,
6416,,,survey-text,375,1323935,0.0-17.0-3.7,15655,List1A,white,man,,,,,"{""Q0"":""mike and luke""}","<img src=""stim_listA/marry5.gif""style=""height:400px;""></stim_listA>",is marrying,
null,"<div style=""font-size:60px;"">+</div>",,html-keyboard-response,376,1324439,0.0-17.0-0.8,15655,List1A,white,man,,,,null,,,,
null,"<img src=""stim_listA/play6.gif""style=""height:400px;""></stim_listA>",,html-keyboard-response,377,1326443,0.0-17.0-1.8,15655,List1A,white,man,,,,null,,,,
null,are playing with each other,,html-keyboard-response,378,1328453,0.0-17.0-2.8,15655,List1A,white,man,,,,null,,,,
10690,,,survey-text,379,1339147,0.0-17.0-3.8,15655,List1A,white,man,,,,,"{""Q0"":""fred and luke""}","<img src=""stim_listA/play6.gif""style=""height:400px;""></stim_listA>",are playing with each other,
null,"<div style=""font-size:60px;"">+</div>",,html-keyboard-response,380,1339668,0.0-17.0-0.9,15655,List1A,white,man,,,,null,,,,
null,"<img src=""stim_listA/dance6.gif""style=""height:400px;""></stim_listA>",,html-keyboard-response,381,1341671,0.0-17.0-1.9,15655,List1A,white,man,,,,null,,,,
null,are dancing with each other,,html-keyboard-response,382,1343679,0.0-17.0-2.9,15655,List1A,white,man,,,,null,,,,
7330,,,survey-text,383,1351011,0.0-17.0-3.9,15655,List1A,white,man,,,,,"{""Q0"":""mike and luke""}","<img src=""stim_listA/dance6.gif""style=""height:400px;""></stim_listA>",are dancing with each other,
null,"<div style=""font-size:60px;"">+</div>",,html-keyboard-response,384,1351515,0.0-17.0-0.10,15655,List1A,white,man,,,,null,,,,
null,"<img src=""stim_listA/play7.gif""style=""height:400px;""></stim_listA>",,html-keyboard-response,385,1353649,0.0-17.0-1.10,15655,List1A,white,man,,,,null,,,,
null,is playing with,,html-keyboard-response,386,1355652,0.0-17.0-2.10,15655,List1A,white,man,,,,null,,,,
6817,,,survey-text,387,1362476,0.0-17.0-3.10,15655,List1A,white,man,,,,,"{""Q0"":""kate and jane""}","<img src=""stim_listA/play7.gif""style=""height:400px;""></stim_listA>",is playing with,
null,"<div style=""font-size:60px;"">+</div>",,html-keyboard-response,388,1362981,0.0-17.0-0.11,15655,List1A,white,man,,,,null,,,,
null,"<img src=""stim_listA/flirt7.gif""style=""height:400px;""></stim_listA>",,html-keyboard-response,389,1365648,0.0-17.0-1.11,15655,List1A,white,man,,,,null,,,,
null,is flirting with,,html-keyboard-response,390,1367652,0.0-17.0-2.11,15655,List1A,white,man,,,,null,,,,
6593,,,survey-text,391,1374247,0.0-17.0-3.11,15655,List1A,white,man,,,,,"{""Q0"":""beth and jane""}","<img src=""stim_listA/flirt7.gif""style=""height:400px;""></stim_listA>",is flirting with,
null,"<div style=""font-size:60px;"">+</div>",,html-keyboard-response,392,1374752,0.0-17.0-0.12,15655,List1A,white,man,,,,null,,,,
null,"<img src=""stim_listA/argue6.gif""style=""height:400px;""></stim_listA>",,html-keyboard-response,393,1376760,0.0-17.0-1.12,15655,List1A,white,man,,,,null,,,,
null,are arguing with each other,,html-keyboard-response,394,1378768,0.0-17.0-2.12,15655,List1A,white,man,,,,null,,,,
7704,,,survey-text,395,1386474,0.0-17.0-3.12,15655,List1A,white,man,,,,,"{""Q0"":""fred and dave""}","<img src=""stim_listA/argue6.gif""style=""height:400px;""></stim_listA>",are arguing with each other,
null,"<div style=""font-size:60px;"">+</div>",,html-keyboard-response,396,1386981,0.0-17.0-0.13,15655,List1A,white,man,,,,null,,,,
null,"<img src=""stim_listA/argue5.gif""style=""height:400px;""></stim_listA>",,html-keyboard-response,397,1388987,0.0-17.0-1.13,15655,List1A,white,man,,,,null,,,,
null,is arguing with,,html-keyboard-response,398,1391019,0.0-17.0-2.13,15655,List1A,white,man,,,,null,,,,
6609,,,survey-text,399,1397631,0.0-17.0-3.13,15655,List1A,white,man,,,,,"{""Q0"":""mike and luke""}","<img src=""stim_listA/argue5.gif""style=""height:400px;""></stim_listA>",is arguing with,
null,"<div style=""font-size:60px;"">+</div>",,html-keyboard-response,400,1398138,0.0-17.0-0.14,15655,List1A,white,man,,,,null,,,,
null,"<img src=""stim_listA/dance3.gif""style=""height:400px;""></stim_listA>",,html-keyboard-response,401,1400144,0.0-17.0-1.14,15655,List1A,white,man,,,,null,,,,
null,is dancing with,,html-keyboard-response,402,1402649,0.0-17.0-2.14,15655,List1A,white,man,,,,null,,,,
8788,,,survey-text,403,1411440,0.0-17.0-3.14,15655,List1A,white,man,,,,,"{""Q0"":""jane and luke""}","<img src=""stim_listA/dance3.gif""style=""height:400px;""></stim_listA>",is dancing with,
null,"<div style=""font-size:60px;"">+</div>",,html-keyboard-response,404,1411944,0.0-17.0-0.15,15655,List1A,white,man,,,,null,,,,
null,"<img src=""stim_listA/fight3.gif""style=""height:400px;""></stim_listA>",,html-keyboard-response,405,1413949,0.0-17.0-1.15,15655,List1A,white,man,,,,null,,,,
null,is fighting,,html-keyboard-response,406,1416091,0.0-17.0-2.15,15655,List1A,white,man,,,,null,,,,
7325,,,survey-text,407,1423424,0.0-17.0-3.15,15655,List1A,white,man,,,,,"{""Q0"":""dave and jane""}","<img src=""stim_listA/fight3.gif""style=""height:400px;""></stim_listA>",is fighting,
null,"<div style=""font-size:60px;"">+</div>",,html-keyboard-response,408,1423928,0.0-17.0-0.16,15655,List1A,white,man,,,,null,,,,
null,"<img src=""stim_listA/touch3.gif""style=""height:400px;""></stim_listA>",,html-keyboard-response,409,1425934,0.0-17.0-1.16,15655,List1A,white,man,,,,null,,,,
null,is touching,,html-keyboard-response,410,1427939,0.0-17.0-2.16,15655,List1A,white,man,,,,null,,,,
13361,,,survey-text,411,1441303,0.0-17.0-3.16,15655,List1A,white,man,,,,,"{""Q0"":""dave and ruth""}","<img src=""stim_listA/touch3.gif""style=""height:400px;""></stim_listA>",is touching,
null,"<div style=""font-size:60px;"">+</div>",,html-keyboard-response,412,1441807,0.0-17.0-0.17,15655,List1A,white,man,,,,null,,,,
null,"<img src=""stim_listA/touch5.gif""style=""height:400px;""></stim_listA>",,html-keyboard-response,413,1443810,0.0-17.0-1.17,15655,List1A,white,man,,,,null,,,,
null,is touching,,html-keyboard-response,414,1445812,0.0-17.0-2.17,15655,List1A,white,man,,,,null,,,,
5584,,,survey-text,415,1451398,0.0-17.0-3.17,15655,List1A,white,man,,,,,"{""Q0"":""dave and mike""}","<img src=""stim_listA/touch5.gif""style=""height:400px;""></stim_listA>",is touching,
null,"<div style=""font-size:60px;"">+</div>",,html-keyboard-response,416,1451905,0.0-17.0-0.18,15655,List1A,white,man,,,,null,,,,
null,"<img src=""stim_listA/flirt2.gif""style=""height:400px;""></stim_listA>",,html-keyboard-response,417,1453911,0.0-17.0-1.18,15655,List1A,white,man,,,,null,,,,
null,are flirting with each other,,html-keyboard-response,418,1455916,0.0-17.0-2.18,15655,List1A,white,man,,,,null,,,,
6411,,,survey-text,419,1462329,0.0-17.0-3.18,15655,List1A,white,man,,,,,"{""Q0"":""beth and mike""}","<img src=""stim_listA/flirt2.gif""style=""height:400px;""></stim_listA>",are flirting with each other,
null,"<div style=""font-size:60px;"">+</div>",,html-keyboard-response,420,1462835,0.0-17.0-0.19,15655,List1A,white,man,,,,null,,,,
null,"<img src=""stim_listA/fight2.gif""style=""height:400px;""></stim_listA>",,html-keyboard-response,421,1464843,0.0-17.0-1.19,15655,List1A,white,man,,,,null,,,,
null,are fighting each other,,html-keyboard-response,422,1466856,0.0-17.0-2.19,15655,List1A,white,man,,,,null,,,,
6124,,,survey-text,423,1472986,0.0-17.0-3.19,15655,List1A,white,man,,,,,"{""Q0"":""fred and beth""}","<img src=""stim_listA/fight2.gif""style=""height:400px;""></stim_listA>",are fighting each other,
1840,"<img src='img/portrait_matrix_list1.jpg' style='width:900px;height:500px;''></img><p>If you have memorised all the portraits and names and are ready to start, press Continue.</p><p><strong>Please note: Your memory of these faces will be tested 4 times during this experiment.</strong></p>",0,html-button-response,424,1474832,0.0-18.0-0.0,15655,List1A,white,man,,,,,,,,
5247,"<img src=""portrait/BW1.jpg""style=""height:400px;""></img>",0,html-button-response,425,1481085,0.0-18.0-1.0,15655,List1A,white,man,,TRUE,0,,,,,
null,CORRECT,,html-keyboard-response,426,1482595,0.0-18.0-2.0-0.0,15655,List1A,white,man,,,,null,,,,
3004,"<img src=""portrait/BM2.jpg""style=""height:400px;""></img>",5,html-button-response,427,1485602,0.0-18.0-4.0,15655,List1A,white,man,,TRUE,5,,,,,
null,CORRECT,,html-keyboard-response,428,1487113,0.0-18.0-5.0-0.0,15655,List1A,white,man,,,,null,,,,
3941,"<img src=""portrait/WW2.jpg""style=""height:400px;""></img>",3,html-button-response,429,1491057,0.0-18.0-7.0,15655,List1A,white,man,,TRUE,3,,,,,
null,CORRECT,,html-keyboard-response,430,1492567,0.0-18.0-8.0-0.0,15655,List1A,white,man,,,,null,,,,
6231,"<img src=""portrait/BW2.jpg""style=""height:400px;""></img>",2,html-button-response,431,1498800,0.0-18.0-10.0,15655,List1A,white,man,,TRUE,2,,,,,
null,CORRECT,,html-keyboard-response,432,1500306,0.0-18.0-11.0-0.0,15655,List1A,white,man,,,,null,,,,
1777,"<img src=""portrait/WM1.jpg""style=""height:400px;""></img>",6,html-button-response,433,1502086,0.0-18.0-13.0,15655,List1A,white,man,,TRUE,6,,,,,
null,CORRECT,,html-keyboard-response,434,1503594,0.0-18.0-14.0-0.0,15655,List1A,white,man,,,,null,,,,
4205,"<img src=""portrait/WW1.jpg""style=""height:400px;""></img>",1,html-button-response,435,1507802,0.0-18.0-16.0,15655,List1A,white,man,,TRUE,1,,,,,
null,CORRECT,,html-keyboard-response,436,1509308,0.0-18.0-17.0-0.0,15655,List1A,white,man,,,,null,,,,
1624,"<img src=""portrait/WM2.jpg""style=""height:400px;""></img>",7,html-button-response,437,1510936,0.0-18.0-19.0,15655,List1A,white,man,,TRUE,7,,,,,
null,CORRECT,,html-keyboard-response,438,1512444,0.0-18.0-20.0-0.0,15655,List1A,white,man,,,,null,,,,
4299,"<img src=""portrait/BM1.jpg""style=""height:400px;""></img>",4,html-button-response,439,1516746,0.0-18.0-22.0,15655,List1A,white,man,,TRUE,4,,,,,
null,CORRECT,,html-keyboard-response,440,1518253,0.0-18.0-23.0-0.0,15655,List1A,white,man,,,,null,,,,
1145,<p>You got 8 out of 8 right first time. Press Continue.</p>,0,html-button-response,441,1519401,0.0-18.0-25.0,15655,List1A,white,man,,,,,,,,
null,"<div style=""font-size:60px;"">+</div>",,html-keyboard-response,442,1520920,0.0-19.0-0.0,15655,List1A,white,man,,,,null,,,,
null,"<img src=""stim_listA/shout2.gif""style=""height:400px;""></stim_listA>",,html-keyboard-response,443,1522924,0.0-19.0-1.0,15655,List1A,white,man,,,,null,,,,
null,are shouting at each other,,html-keyboard-response,444,1525245,0.0-19.0-2.0,15655,List1A,white,man,,,,null,,,,
8293,,,survey-text,445,1533541,0.0-19.0-3.0,15655,List1A,white,man,,,,,"{""Q0"":""mike and kate""}","<img src=""stim_listA/shout2.gif""style=""height:400px;""></stim_listA>",are shouting at each other,
null,"<div style=""font-size:60px;"">+</div>",,html-keyboard-response,446,1534048,0.0-19.0-0.1,15655,List1A,white,man,,,,null,,,,
null,"<img src=""stim_listA/shout8.gif""style=""height:400px;""></stim_listA>",,html-keyboard-response,447,1536649,0.0-19.0-1.1,15655,List1A,white,man,,,,null,,,,
null,are shouting at each other,,html-keyboard-response,448,1538652,0.0-19.0-2.1,15655,List1A,white,man,,,,null,,,,
7502,,,survey-text,449,1546160,0.0-19.0-3.1,15655,List1A,white,man,,,,,"{""Q0"":""kate and jane""}","<img src=""stim_listA/shout8.gif""style=""height:400px;""></stim_listA>",are shouting at each other,
null,"<div style=""font-size:60px;"">+</div>",,html-keyboard-response,450,1546664,0.0-19.0-0.2,15655,List1A,white,man,,,,null,,,,
null,"<img src=""stim_listA/talk2.gif""style=""height:400px;""></stim_listA>",,html-keyboard-response,451,1548667,0.0-19.0-1.2,15655,List1A,white,man,,,,null,,,,
null,are talking to each other,,html-keyboard-response,452,1550679,0.0-19.0-2.2,15655,List1A,white,man,,,,null,,,,
7422,,,survey-text,453,1558104,0.0-19.0-3.2,15655,List1A,white,man,,,,,"{""Q0"":""beth and mike""}","<img src=""stim_listA/talk2.gif""style=""height:400px;""></stim_listA>",are talking to each other,
null,"<div style=""font-size:60px;"">+</div>",,html-keyboard-response,454,1558608,0.0-19.0-0.3,15655,List1A,white,man,,,,null,,,,
null,"<img src=""stim_listA/kiss2.gif""style=""height:400px;""></stim_listA>",,html-keyboard-response,455,1560655,0.0-19.0-1.3,15655,List1A,white,man,,,,null,,,,
null,are kissing each other,,html-keyboard-response,456,1562665,0.0-19.0-2.3,15655,List1A,white,man,,,,null,,,,
6352,,,survey-text,457,1569020,0.0-19.0-3.3,15655,List1A,white,man,,,,,"{""Q0"":""mike and kate""}","<img src=""stim_listA/kiss2.gif""style=""height:400px;""></stim_listA>",are kissing each other,
null,"<div style=""font-size:60px;"">+</div>",,html-keyboard-response,458,1569528,0.0-19.0-0.4,15655,List1A,white,man,,,,null,,,,
null,"<img src=""stim_listA/play3.gif""style=""height:400px;""></stim_listA>",,html-keyboard-response,459,1571531,0.0-19.0-1.4,15655,List1A,white,man,,,,null,,,,
null,is playing with,,html-keyboard-response,460,1573536,0.0-19.0-2.4,15655,List1A,white,man,,,,null,,,,
8380,,,survey-text,461,1581918,0.0-19.0-3.4,15655,List1A,white,man,,,,,"{""Q0"":""dave and jane""}","<img src=""stim_listA/play3.gif""style=""height:400px;""></stim_listA>",is playing with,
null,"<div style=""font-size:60px;"">+</div>",,html-keyboard-response,462,1582427,0.0-19.0-0.5,15655,List1A,white,man,,,,null,,,,
null,"<img src=""stim_listA/flirt5.gif""style=""height:400px;""></stim_listA>",,html-keyboard-response,463,1584433,0.0-19.0-1.5,15655,List1A,white,man,,,,null,,,,
null,is flirting with,,html-keyboard-response,464,1586437,0.0-19.0-2.5,15655,List1A,white,man,,,,null,,,,
7151,,,survey-text,465,1593591,0.0-19.0-3.5,15655,List1A,white,man,,,,,"{""Q0"":""dave and fred""}","<img src=""stim_listA/flirt5.gif""style=""height:400px;""></stim_listA>",is flirting with,
null,"<div style=""font-size:60px;"">+</div>",,html-keyboard-response,466,1594101,0.0-19.0-0.6,15655,List1A,white,man,,,,null,,,,
null,"<img src=""stim_listA/kiss7.gif""style=""height:400px;""></stim_listA>",,html-keyboard-response,467,1596649,0.0-19.0-1.6,15655,List1A,white,man,,,,null,,,,
null,is kissing,,html-keyboard-response,468,1598652,0.0-19.0-2.6,15655,List1A,white,man,,,,null,,,,
7720,,,survey-text,469,1606375,0.0-19.0-3.6,15655,List1A,white,man,,,,,"{""Q0"":""ruth and beth""}","<img src=""stim_listA/kiss7.gif""style=""height:400px;""></stim_listA>",is kissing,
null,"<div style=""font-size:60px;"">+</div>",,html-keyboard-response,470,1606882,0.0-19.0-0.7,15655,List1A,white,man,,,,null,,,,
null,"<img src=""stim_listA/kiss6.gif""style=""height:400px;""></stim_listA>",,html-keyboard-response,471,1608885,0.0-19.0-1.7,15655,List1A,white,man,,,,null,,,,
null,are kissing each other,,html-keyboard-response,472,1610888,0.0-19.0-2.7,15655,List1A,white,man,,,,null,,,,
7755,,,survey-text,473,1618646,0.0-19.0-3.7,15655,List1A,white,man,,,,,"{""Q0"":""dave and beth""}","<img src=""stim_listA/kiss6.gif""style=""height:400px;""></stim_listA>",are kissing each other,
null,"<div style=""font-size:60px;"">+</div>",,html-keyboard-response,474,1619152,0.0-19.0-0.8,15655,List1A,white,man,,,,null,,,,
null,"<img src=""stim_listA/shout5.gif""style=""height:400px;""></stim_listA>",,html-keyboard-response,475,1621159,0.0-19.0-1.8,15655,List1A,white,man,,,,null,,,,
null,is shouting at,,html-keyboard-response,476,1623175,0.0-19.0-2.8,15655,List1A,white,man,,,,null,,,,
7041,,,survey-text,477,1630220,0.0-19.0-3.8,15655,List1A,white,man,,,,,"{""Q0"":""fred and like""}","<img src=""stim_listA/shout5.gif""style=""height:400px;""></stim_listA>",is shouting at,
null,"<div style=""font-size:60px;"">+</div>",,html-keyboard-response,478,1630726,0.0-19.0-0.9,15655,List1A,white,man,,,,null,,,,
null,"<img src=""stim_listA/fight8.gif""style=""height:400px;""></stim_listA>",,html-keyboard-response,479,1633488,0.0-19.0-1.9,15655,List1A,white,man,,,,null,,,,
null,are fighting each other,,html-keyboard-response,480,1635512,0.0-19.0-2.9,15655,List1A,white,man,,,,null,,,,
6156,,,survey-text,481,1641679,0.0-19.0-3.9,15655,List1A,white,man,,,,,"{""Q0"":""ruth and beth""}","<img src=""stim_listA/fight8.gif""style=""height:400px;""></stim_listA>",are fighting each other,
null,"<div style=""font-size:60px;"">+</div>",,html-keyboard-response,482,1642206,0.0-19.0-0.10,15655,List1A,white,man,,,,null,,,,
null,"<img src=""stim_listA/touch1.gif""style=""height:400px;""></stim_listA>",,html-keyboard-response,483,1644586,0.0-19.0-1.10,15655,List1A,white,man,,,,null,,,,
null,is touching,,html-keyboard-response,484,1646597,0.0-19.0-2.10,15655,List1A,white,man,,,,null,,,,
6911,,,survey-text,485,1653511,0.0-19.0-3.10,15655,List1A,white,man,,,,,"{""Q0"":""mike and kate""}","<img src=""stim_listA/touch1.gif""style=""height:400px;""></stim_listA>",is touching,
null,"<div style=""font-size:60px;"">+</div>",,html-keyboard-response,486,1654015,0.0-19.0-0.11,15655,List1A,white,man,,,,null,,,,
null,"<img src=""stim_listA/argue7.gif""style=""height:400px;""></stim_listA>",,html-keyboard-response,487,1656070,0.0-19.0-1.11,15655,List1A,white,man,,,,null,,,,
null,is arguing with,,html-keyboard-response,488,1658368,0.0-19.0-2.11,15655,List1A,white,man,,,,null,,,,
8105,,,survey-text,489,1666475,0.0-19.0-3.11,15655,List1A,white,man,,,,,"{""Q0"":""ruth and kate""}","<img src=""stim_listA/argue7.gif""style=""height:400px;""></stim_listA>",is arguing with,
null,"<div style=""font-size:60px;"">+</div>",,html-keyboard-response,490,1666980,0.0-19.0-0.12,15655,List1A,white,man,,,,null,,,,
null,"<img src=""stim_listA/marry2.gif""style=""height:400px;""></stim_listA>",,html-keyboard-response,491,1668987,0.0-19.0-1.12,15655,List1A,white,man,,,,null,,,,
null,are marrying each other,,html-keyboard-response,492,1670994,0.0-19.0-2.12,15655,List1A,white,man,,,,null,,,,
7184,,,survey-text,493,1678180,0.0-19.0-3.12,15655,List1A,white,man,,,,,"{""Q0"":""fred and kate""}","<img src=""stim_listA/marry2.gif""style=""height:400px;""></stim_listA>",are marrying each other,
null,"<div style=""font-size:60px;"">+</div>",,html-keyboard-response,494,1678685,0.0-19.0-0.13,15655,List1A,white,man,,,,null,,,,
null,"<img src=""stim_listA/shout4.gif""style=""height:400px;""></stim_listA>",,html-keyboard-response,495,1681651,0.0-19.0-1.13,15655,List1A,white,man,,,,null,,,,
null,are shouting at each other,,html-keyboard-response,496,1683673,0.0-19.0-2.13,15655,List1A,white,man,,,,null,,,,
7389,,,survey-text,497,1691069,0.0-19.0-3.13,15655,List1A,white,man,,,,,"{""Q0"":""jane and dave""}","<img src=""stim_listA/shout4.gif""style=""height:400px;""></stim_listA>",are shouting at each other,
null,"<div style=""font-size:60px;"">+</div>",,html-keyboard-response,498,1691575,0.0-19.0-0.14,15655,List1A,white,man,,,,null,,,,
null,"<img src=""stim_listA/flirt6.gif""style=""height:400px;""></stim_listA>",,html-keyboard-response,499,1693586,0.0-19.0-1.14,15655,List1A,white,man,,,,null,,,,
null,are flirting with each other,,html-keyboard-response,500,1695613,0.0-19.0-2.14,15655,List1A,white,man,,,,null,,,,
6842,,,survey-text,501,1702458,0.0-19.0-3.14,15655,List1A,white,man,,,,,"{""Q0"":""luke and mike""}","<img src=""stim_listA/flirt6.gif""style=""height:400px;""></stim_listA>",are flirting with each other,
null,"<div style=""font-size:60px;"">+</div>",,html-keyboard-response,502,1702962,0.0-19.0-0.15,15655,List1A,white,man,,,,null,,,,
null,"<img src=""stim_listA/marry4.gif""style=""height:400px;""></stim_listA>",,html-keyboard-response,503,1705649,0.0-19.0-1.15,15655,List1A,white,man,,,,null,,,,
null,are marrying each other,,html-keyboard-response,504,1707656,0.0-19.0-2.15,15655,List1A,white,man,,,,null,,,,
7213,,,survey-text,505,1714872,0.0-19.0-3.15,15655,List1A,white,man,,,,,"{""Q0"":""luke and jane""}","<img src=""stim_listA/marry4.gif""style=""height:400px;""></stim_listA>",are marrying each other,
null,"<div style=""font-size:60px;"">+</div>",,html-keyboard-response,506,1715380,0.0-19.0-0.16,15655,List1A,white,man,,,,null,,,,
null,"<img src=""stim_listA/fight7.gif""style=""height:400px;""></stim_listA>",,html-keyboard-response,507,1717649,0.0-19.0-1.16,15655,List1A,white,man,,,,null,,,,
null,is fighting,,html-keyboard-response,508,1719653,0.0-19.0-2.16,15655,List1A,white,man,,,,null,,,,
7104,,,survey-text,509,1726759,0.0-19.0-3.16,15655,List1A,white,man,,,,,"{""Q0"":""kate and jane""}","<img src=""stim_listA/fight7.gif""style=""height:400px;""></stim_listA>",is fighting,
null,"<div style=""font-size:60px;"">+</div>",,html-keyboard-response,510,1727267,0.0-19.0-0.17,15655,List1A,white,man,,,,null,,,,
null,"<img src=""stim_listA/dance7.gif""style=""height:400px;""></stim_listA>",,html-keyboard-response,511,1729646,0.0-19.0-1.17,15655,List1A,white,man,,,,null,,,,
null,is dancing with,,html-keyboard-response,512,1731651,0.0-19.0-2.17,15655,List1A,white,man,,,,null,,,,
7117,,,survey-text,513,1738770,0.0-19.0-3.17,15655,List1A,white,man,,,,,"{""Q0"":""beth and jane""}","<img src=""stim_listA/dance7.gif""style=""height:400px;""></stim_listA>",is dancing with,
null,"<div style=""font-size:60px;"">+</div>",,html-keyboard-response,514,1739277,0.0-19.0-0.18,15655,List1A,white,man,,,,null,,,,
null,"<img src=""stim_listA/talk5.gif""style=""height:400px;""></stim_listA>",,html-keyboard-response,515,1741284,0.0-19.0-1.18,15655,List1A,white,man,,,,null,,,,
null,is talking to,,html-keyboard-response,516,1743295,0.0-19.0-2.18,15655,List1A,white,man,,,,null,,,,
6458,,,survey-text,517,1749757,0.0-19.0-3.18,15655,List1A,white,man,,,,,"{""Q0"":""fred and dave""}","<img src=""stim_listA/talk5.gif""style=""height:400px;""></stim_listA>",is talking to,
null,"<div style=""font-size:60px;"">+</div>",,html-keyboard-response,518,1750263,0.0-19.0-0.19,15655,List1A,white,man,,,,null,,,,
null,"<img src=""stim_listA/talk7.gif""style=""height:400px;""></stim_listA>",,html-keyboard-response,519,1752649,0.0-19.0-1.19,15655,List1A,white,man,,,,null,,,,
null,is talking to,,html-keyboard-response,520,1754653,0.0-19.0-2.19,15655,List1A,white,man,,,,null,,,,
6795,,,survey-text,521,1761451,0.0-19.0-3.19,15655,List1A,white,man,,,,,"{""Q0"":""ruth and jane""}","<img src=""stim_listA/talk7.gif""style=""height:400px;""></stim_listA>",is talking to,
1791,<p>Thank you for completing that task.</p><p>The final part of this session is a short questionnaire.</p><p>Press Continue.</p>,0,html-button-response,522,1763246,0.0-20.0,15655,List1A,white,man,,,,,,,,
38158,,,survey-text,523,1802414,0.0-21.0,15655,List1A,white,man,,,,,"{""Q0"":""40"",""Q1"":""english"",""Q2"":""english"",""Q3"":""scotland"",""Q4"":""white"",""Q5"":""male""}",,,demographics
7229,,,survey-likert,524,1809651,0.0-22.0,15655,List1A,white,man,,,,,"{""Q0"":4}",,,likert_ESS
11132,,,survey-likert,525,1820794,0.0-23.0,15655,List1A,white,man,,,,,"{""Q0"":4}",,,likert_NSSAL_Q1
3673,,,survey-likert,526,1824478,0.0-24.0,15655,List1A,white,man,,,,,"{""Q0"":4}",,,likert_NSSAL_Q2
4914,,,survey-likert,527,1829399,0.0-25.0,15655,List1A,white,man,,,,,"{""Q0"":4}",,,likert_CGRS_Q1
3445,,,survey-likert,528,1832850,0.0-26.0,15655,List1A,white,man,,,,,"{""Q0"":4}",,,likert_CGRS_Q2
3002,,,survey-likert,529,1835858,0.0-27.0,15655,List1A,white,man,,,,,"{""Q0"":4}",,,likert_CGRS_Q3
18183,,,survey-text,530,1854046,0.0-28.0,15655,List1A,white,man,,,,,"{""Q0"":""ccc""}",,,worker_id
13820,,,external-html,531,1868116,0.0-29.0,15655,List1A,white,man,debrief.html,,,,,,,
