rt,stimulus,button_pressed,trial_type,trial_index,time_elapsed,internal_node_id,subject,list,ppt_race,ppt_gender,url,first_guess,correct,key_press,responses,image_type,phrase_type,test_part
1771,Welcome to the experiment. Press Continue to begin.,0,html-button-response,0,1775,0.0-0.0,16141,List1A,black,man,,,,,,,,
4388,,,external-html,1,7271,0.0-1.0,16141,List1A,black,man,consent.html,,,,,,,
991,"<p>On the next page, you will see portraits of 8 people and their names.</p><p>Your first task is to take a few minutes to memorise the names of these people.</p><p>You will have to recall their names during the rest of the experiment, so it is</p><p>essential that you try to memorise these people and their names as best as you can.</p><br><p><strong>You will then be tested on your memory of these names and portraits.</strong></p><br><p>The experiment will start after you have completed this memory test.</p><br><p>Ready?</p>",0,html-button-response,2,8263,0.0-2.0,16141,List1A,black,man,,,,,,,,
1366,"<img src='img/portrait_matrix_list1.jpg' style='width:900px;height:500px;''></img><p>If you have memorised all the portraits and names and are ready to start, press Continue.</p><p><strong>Please note: Your memory of these faces will be tested 4 times during this experiment.</strong></p>",0,html-button-response,3,10630,0.0-3.0-0.0,16141,List1A,black,man,,,,,,,,
11429,"<img src=""portrait/BM1.jpg""style=""height:400px;""></img>",4,html-button-response,4,23062,0.0-3.0-1.0,16141,List1A,black,man,,TRUE,4,,,,,
null,CORRECT,,html-keyboard-response,5,24571,0.0-3.0-2.0-0.0,16141,List1A,black,man,,,,null,,,,
2290,"<img src=""portrait/BW1.jpg""style=""height:400px;""></img>",0,html-button-response,6,26862,0.0-3.0-4.0,16141,List1A,black,man,,TRUE,0,,,,,
null,CORRECT,,html-keyboard-response,7,28369,0.0-3.0-5.0-0.0,16141,List1A,black,man,,,,null,,,,
4332,"<img src=""portrait/BW2.jpg""style=""height:400px;""></img>",2,html-button-response,8,32702,0.0-3.0-7.0,16141,List1A,black,man,,TRUE,2,,,,,
null,CORRECT,,html-keyboard-response,9,34209,0.0-3.0-8.0-0.0,16141,List1A,black,man,,,,null,,,,
4044,"<img src=""portrait/BM2.jpg""style=""height:400px;""></img>",5,html-button-response,10,38254,0.0-3.0-10.0,16141,List1A,black,man,,TRUE,5,,,,,
null,CORRECT,,html-keyboard-response,11,39755,0.0-3.0-11.0-0.0,16141,List1A,black,man,,,,null,,,,
10681,"<img src=""portrait/WW1.jpg""style=""height:400px;""></img>",1,html-button-response,12,50437,0.0-3.0-13.0,16141,List1A,black,man,,TRUE,1,,,,,
null,CORRECT,,html-keyboard-response,13,51943,0.0-3.0-14.0-0.0,16141,List1A,black,man,,,,null,,,,
8966,"<img src=""portrait/WW2.jpg""style=""height:400px;""></img>",3,html-button-response,14,60910,0.0-3.0-16.0,16141,List1A,black,man,,TRUE,3,,,,,
null,CORRECT,,html-keyboard-response,15,62420,0.0-3.0-17.0-0.0,16141,List1A,black,man,,,,null,,,,
4696,"<img src=""portrait/WM1.jpg""style=""height:400px;""></img>",6,html-button-response,16,67118,0.0-3.0-19.0,16141,List1A,black,man,,TRUE,6,,,,,
null,CORRECT,,html-keyboard-response,17,68619,0.0-3.0-20.0-0.0,16141,List1A,black,man,,,,null,,,,
4105,"<img src=""portrait/WM2.jpg""style=""height:400px;""></img>",7,html-button-response,18,72726,0.0-3.0-22.0,16141,List1A,black,man,,TRUE,7,,,,,
null,CORRECT,,html-keyboard-response,19,74236,0.0-3.0-23.0-0.0,16141,List1A,black,man,,,,null,,,,
1672,<p>You got 8 out of 8 right first time. Press Continue.</p>,0,html-button-response,20,75910,0.0-3.0-25.0,16141,List1A,black,man,,,,,,,,
1778,"<p>In this experiment, you will view photographs of the people from the memory game interacting.</p><p>By using the <strong>exact</strong> phrase given <i>after</i> the photograph appears and recalling the correct names of the people in the photographs, form a sentence describing the interaction. You do not need to capitalise names.</p><p>Type your answer in the space provided. Please complete every sentence before moving onto the next trial.</p><p>You will only have a few seconds to memorise each given photograph and phrase before you can respond, so try your best to focus.</p><p>An example is given below. Press 'Continue' when you are ready.</p><img src='img/speaking_example.jpg' style='width:800px;height:460px;''></img>",0,html-button-response,21,78693,0.0-4.0,16141,List1A,black,man,,,,,,,,
1377,"<p>Before the experiment starts, you will watch two example trials. Press 'Continue'.</p>",0,html-button-response,22,81077,0.0-5.0,16141,List1A,black,man,,,,,,,,
null,<img src='img/meet_eg.gif' style='height:400px;''></img>,,html-keyboard-response,23,84085,0.0-6.0,16141,List1A,black,man,,,,null,,,,
null,<p>is meeting</p>,,html-keyboard-response,24,86092,0.0-7.0,16141,List1A,black,man,,,,null,,,,
27576,<p><b>Answer:</b> kate is meeting beth</p>,0,html-button-response,25,113668,0.0-8.0,16141,List1A,black,man,,,,,,,,
null,<img src='img/look_eg.gif' style='height:400px;''></img>,,html-keyboard-response,26,116674,0.0-9.0,16141,List1A,black,man,,,,null,,,,
null,<p>are looking at each other</p>,,html-keyboard-response,27,118680,0.0-10.0,16141,List1A,black,man,,,,null,,,,
30339,<p><b>Answer:</b> luke and dave are looking at each other</p>,0,html-button-response,28,149020,0.0-11.0,16141,List1A,black,man,,,,,,,,
2594,"<p>Ready to start the experiment?</p><br><p><strong>Remember to describe the picture using a full sentence,</strong></p><p><strong>that combines the names of the people with the <i>exact</i> phrase given.</strong></p><p><strong>To receive full payment you must do this correctly.</strong></p><p><strong> You do not need to capitalise names or use punctuation.</strong></p><br><p>Press 'Continue' to begin.</p>",0,html-button-response,29,152620,0.0-12.0,16141,List1A,black,man,,,,,,,,
null,"<div style=""font-size:60px;"">+</div>",,html-keyboard-response,30,154122,0.0-13.0-0.0,16141,List1A,black,man,,,,null,,,,
null,"<img src=""stim_listA/argue7.gif""style=""height:400px;""></stim_listA>",,html-keyboard-response,31,156129,0.0-13.0-1.0,16141,List1A,black,man,,,,null,,,,
null,is arguing with,,html-keyboard-response,32,158134,0.0-13.0-2.0,16141,List1A,black,man,,,,null,,,,
17629,,,survey-text,33,175764,0.0-13.0-3.0,16141,List1A,black,man,,,,,"{""Q0"":""Ruth and kate""}","<img src=""stim_listA/argue7.gif""style=""height:400px;""></stim_listA>",is arguing with,
null,"<div style=""font-size:60px;"">+</div>",,html-keyboard-response,34,176268,0.0-13.0-0.1,16141,List1A,black,man,,,,null,,,,
null,"<img src=""stim_listA/kiss2.gif""style=""height:400px;""></stim_listA>",,html-keyboard-response,35,178270,0.0-13.0-1.1,16141,List1A,black,man,,,,null,,,,
null,are kissing each other,,html-keyboard-response,36,180273,0.0-13.0-2.1,16141,List1A,black,man,,,,null,,,,
11026,,,survey-text,37,191299,0.0-13.0-3.1,16141,List1A,black,man,,,,,"{""Q0"":""Kate and Mike""}","<img src=""stim_listA/kiss2.gif""style=""height:400px;""></stim_listA>",are kissing each other,
null,"<div style=""font-size:60px;"">+</div>",,html-keyboard-response,38,191805,0.0-13.0-0.2,16141,List1A,black,man,,,,null,,,,
null,"<img src=""stim_listA/play2.gif""style=""height:400px;""></stim_listA>",,html-keyboard-response,39,193808,0.0-13.0-1.2,16141,List1A,black,man,,,,null,,,,
null,are playing with each other,,html-keyboard-response,40,195814,0.0-13.0-2.2,16141,List1A,black,man,,,,null,,,,
13211,,,survey-text,41,209026,0.0-13.0-3.2,16141,List1A,black,man,,,,,"{""Q0"":""Fred and Beth""}","<img src=""stim_listA/play2.gif""style=""height:400px;""></stim_listA>",are playing with each other,
null,"<div style=""font-size:60px;"">+</div>",,html-keyboard-response,42,209528,0.0-13.0-0.3,16141,List1A,black,man,,,,null,,,,
null,"<img src=""stim_listA/talk2.gif""style=""height:400px;""></stim_listA>",,html-keyboard-response,43,211533,0.0-13.0-1.3,16141,List1A,black,man,,,,null,,,,
null,are talking to each other,,html-keyboard-response,44,213536,0.0-13.0-2.3,16141,List1A,black,man,,,,null,,,,
7666,,,survey-text,45,221202,0.0-13.0-3.3,16141,List1A,black,man,,,,,"{""Q0"":""Mike and Beth""}","<img src=""stim_listA/talk2.gif""style=""height:400px;""></stim_listA>",are talking to each other,
null,"<div style=""font-size:60px;"">+</div>",,html-keyboard-response,46,221707,0.0-13.0-0.4,16141,List1A,black,man,,,,null,,,,
null,"<img src=""stim_listA/dance7.gif""style=""height:400px;""></stim_listA>",,html-keyboard-response,47,223713,0.0-13.0-1.4,16141,List1A,black,man,,,,null,,,,
null,is dancing with,,html-keyboard-response,48,225717,0.0-13.0-2.4,16141,List1A,black,man,,,,null,,,,
5941,,,survey-text,49,231658,0.0-13.0-3.4,16141,List1A,black,man,,,,,"{""Q0"":""jane and beth""}","<img src=""stim_listA/dance7.gif""style=""height:400px;""></stim_listA>",is dancing with,
null,"<div style=""font-size:60px;"">+</div>",,html-keyboard-response,50,232161,0.0-13.0-0.5,16141,List1A,black,man,,,,null,,,,
null,"<img src=""stim_listA/marry6.gif""style=""height:400px;""></stim_listA>",,html-keyboard-response,51,234165,0.0-13.0-1.5,16141,List1A,black,man,,,,null,,,,
null,are marrying each other,,html-keyboard-response,52,236166,0.0-13.0-2.5,16141,List1A,black,man,,,,null,,,,
7292,,,survey-text,53,243458,0.0-13.0-3.5,16141,List1A,black,man,,,,,"{""Q0"":""Dave and fred""}","<img src=""stim_listA/marry6.gif""style=""height:400px;""></stim_listA>",are marrying each other,
null,"<div style=""font-size:60px;"">+</div>",,html-keyboard-response,54,243962,0.0-13.0-0.6,16141,List1A,black,man,,,,null,,,,
null,"<img src=""stim_listA/marry3.gif""style=""height:400px;""></stim_listA>",,html-keyboard-response,55,245967,0.0-13.0-1.6,16141,List1A,black,man,,,,null,,,,
null,is marrying,,html-keyboard-response,56,247970,0.0-13.0-2.6,16141,List1A,black,man,,,,null,,,,
11407,,,survey-text,57,259378,0.0-13.0-3.6,16141,List1A,black,man,,,,,"{""Q0"":""Dave and Ruth""}","<img src=""stim_listA/marry3.gif""style=""height:400px;""></stim_listA>",is marrying,
null,"<div style=""font-size:60px;"">+</div>",,html-keyboard-response,58,259880,0.0-13.0-0.7,16141,List1A,black,man,,,,null,,,,
null,"<img src=""stim_listA/talk5.gif""style=""height:400px;""></stim_listA>",,html-keyboard-response,59,261881,0.0-13.0-1.7,16141,List1A,black,man,,,,null,,,,
null,is talking to,,html-keyboard-response,60,263883,0.0-13.0-2.7,16141,List1A,black,man,,,,null,,,,
11318,,,survey-text,61,275202,0.0-13.0-3.7,16141,List1A,black,man,,,,,"{""Q0"":""Dave and Fred""}","<img src=""stim_listA/talk5.gif""style=""height:400px;""></stim_listA>",is talking to,
null,"<div style=""font-size:60px;"">+</div>",,html-keyboard-response,62,275707,0.0-13.0-0.8,16141,List1A,black,man,,,,null,,,,
null,"<img src=""stim_listA/argue4.gif""style=""height:400px;""></stim_listA>",,html-keyboard-response,63,277709,0.0-13.0-1.8,16141,List1A,black,man,,,,null,,,,
null,are arguing with each other,,html-keyboard-response,64,279710,0.0-13.0-2.8,16141,List1A,black,man,,,,null,,,,
7082,,,survey-text,65,286793,0.0-13.0-3.8,16141,List1A,black,man,,,,,"{""Q0"":""Luke and Jane""}","<img src=""stim_listA/argue4.gif""style=""height:400px;""></stim_listA>",are arguing with each other,
null,"<div style=""font-size:60px;"">+</div>",,html-keyboard-response,66,287297,0.0-13.0-0.9,16141,List1A,black,man,,,,null,,,,
null,"<img src=""stim_listA/argue6.gif""style=""height:400px;""></stim_listA>",,html-keyboard-response,67,289303,0.0-13.0-1.9,16141,List1A,black,man,,,,null,,,,
null,are arguing with each other,,html-keyboard-response,68,291304,0.0-13.0-2.9,16141,List1A,black,man,,,,null,,,,
5713,,,survey-text,69,297017,0.0-13.0-3.9,16141,List1A,black,man,,,,,"{""Q0"":""Dave and Fred""}","<img src=""stim_listA/argue6.gif""style=""height:400px;""></stim_listA>",are arguing with each other,
null,"<div style=""font-size:60px;"">+</div>",,html-keyboard-response,70,297518,0.0-13.0-0.10,16141,List1A,black,man,,,,null,,,,
null,"<img src=""stim_listA/talk3.gif""style=""height:400px;""></stim_listA>",,html-keyboard-response,71,299520,0.0-13.0-1.10,16141,List1A,black,man,,,,null,,,,
null,is talking to,,html-keyboard-response,72,301522,0.0-13.0-2.10,16141,List1A,black,man,,,,null,,,,
15517,,,survey-text,73,317041,0.0-13.0-3.10,16141,List1A,black,man,,,,,"{""Q0"":""luke and jane""}","<img src=""stim_listA/talk3.gif""style=""height:400px;""></stim_listA>",is talking to,
null,"<div style=""font-size:60px;"">+</div>",,html-keyboard-response,74,317547,0.0-13.0-0.11,16141,List1A,black,man,,,,null,,,,
null,"<img src=""stim_listA/argue5.gif""style=""height:400px;""></stim_listA>",,html-keyboard-response,75,319548,0.0-13.0-1.11,16141,List1A,black,man,,,,null,,,,
null,is arguing with,,html-keyboard-response,76,321551,0.0-13.0-2.11,16141,List1A,black,man,,,,null,,,,
81129,,,survey-text,77,402680,0.0-13.0-3.11,16141,List1A,black,man,,,,,"{""Q0"":""Mike and Luke""}","<img src=""stim_listA/argue5.gif""style=""height:400px;""></stim_listA>",is arguing with,
null,"<div style=""font-size:60px;"">+</div>",,html-keyboard-response,78,403182,0.0-13.0-0.12,16141,List1A,black,man,,,,null,,,,
null,"<img src=""stim_listA/flirt3.gif""style=""height:400px;""></stim_listA>",,html-keyboard-response,79,405187,0.0-13.0-1.12,16141,List1A,black,man,,,,null,,,,
null,is flirting with,,html-keyboard-response,80,407190,0.0-13.0-2.12,16141,List1A,black,man,,,,null,,,,
33496,,,survey-text,81,440686,0.0-13.0-3.12,16141,List1A,black,man,,,,,"{""Q0"":""Luke and Jane""}","<img src=""stim_listA/flirt3.gif""style=""height:400px;""></stim_listA>",is flirting with,
null,"<div style=""font-size:60px;"">+</div>",,html-keyboard-response,82,441190,0.0-13.0-0.13,16141,List1A,black,man,,,,null,,,,
null,"<img src=""stim_listA/marry7.gif""style=""height:400px;""></stim_listA>",,html-keyboard-response,83,443196,0.0-13.0-1.13,16141,List1A,black,man,,,,null,,,,
null,is marrying,,html-keyboard-response,84,445198,0.0-13.0-2.13,16141,List1A,black,man,,,,null,,,,
16431,,,survey-text,85,461630,0.0-13.0-3.13,16141,List1A,black,man,,,,,"{""Q0"":""Kate and Ruth""}","<img src=""stim_listA/marry7.gif""style=""height:400px;""></stim_listA>",is marrying,
null,"<div style=""font-size:60px;"">+</div>",,html-keyboard-response,86,462132,0.0-13.0-0.14,16141,List1A,black,man,,,,null,,,,
null,"<img src=""stim_listA/talk6.gif""style=""height:400px;""></stim_listA>",,html-keyboard-response,87,464136,0.0-13.0-1.14,16141,List1A,black,man,,,,null,,,,
null,are talking to each other,,html-keyboard-response,88,466138,0.0-13.0-2.14,16141,List1A,black,man,,,,null,,,,
8772,,,survey-text,89,474910,0.0-13.0-3.14,16141,List1A,black,man,,,,,"{""Q0"":""Luke and Mike""}","<img src=""stim_listA/talk6.gif""style=""height:400px;""></stim_listA>",are talking to each other,
null,"<div style=""font-size:60px;"">+</div>",,html-keyboard-response,90,475411,0.0-13.0-0.15,16141,List1A,black,man,,,,null,,,,
null,"<img src=""stim_listA/marry1.gif""style=""height:400px;""></stim_listA>",,html-keyboard-response,91,477413,0.0-13.0-1.15,16141,List1A,black,man,,,,null,,,,
null,is marrying,,html-keyboard-response,92,479417,0.0-13.0-2.15,16141,List1A,black,man,,,,null,,,,
6619,,,survey-text,93,486038,0.0-13.0-3.15,16141,List1A,black,man,,,,,"{""Q0"":""Fred and Kate""}","<img src=""stim_listA/marry1.gif""style=""height:400px;""></stim_listA>",is marrying,
null,"<div style=""font-size:60px;"">+</div>",,html-keyboard-response,94,486543,0.0-13.0-0.16,16141,List1A,black,man,,,,null,,,,
null,"<img src=""stim_listA/fight3.gif""style=""height:400px;""></stim_listA>",,html-keyboard-response,95,488545,0.0-13.0-1.16,16141,List1A,black,man,,,,null,,,,
null,is fighting,,html-keyboard-response,96,490547,0.0-13.0-2.16,16141,List1A,black,man,,,,null,,,,
12418,,,survey-text,97,502965,0.0-13.0-3.16,16141,List1A,black,man,,,,,"{""Q0"":""Dave and Ruth""}","<img src=""stim_listA/fight3.gif""style=""height:400px;""></stim_listA>",is fighting,
null,"<div style=""font-size:60px;"">+</div>",,html-keyboard-response,98,503468,0.0-13.0-0.17,16141,List1A,black,man,,,,null,,,,
null,"<img src=""stim_listA/fight8.gif""style=""height:400px;""></stim_listA>",,html-keyboard-response,99,505474,0.0-13.0-1.17,16141,List1A,black,man,,,,null,,,,
null,are fighting each other,,html-keyboard-response,100,507476,0.0-13.0-2.17,16141,List1A,black,man,,,,null,,,,
18904,,,survey-text,101,526381,0.0-13.0-3.17,16141,List1A,black,man,,,,,"{""Q0"":""Kate and Luke""}","<img src=""stim_listA/fight8.gif""style=""height:400px;""></stim_listA>",are fighting each other,
null,"<div style=""font-size:60px;"">+</div>",,html-keyboard-response,102,526883,0.0-13.0-0.18,16141,List1A,black,man,,,,null,,,,
null,"<img src=""stim_listA/argue8.gif""style=""height:400px;""></stim_listA>",,html-keyboard-response,103,528888,0.0-13.0-1.18,16141,List1A,black,man,,,,null,,,,
null,are arguing with each other,,html-keyboard-response,104,530889,0.0-13.0-2.18,16141,List1A,black,man,,,,null,,,,
12618,,,survey-text,105,543509,0.0-13.0-3.18,16141,List1A,black,man,,,,,"{""Q0"":""Beth and Ruth""}","<img src=""stim_listA/argue8.gif""style=""height:400px;""></stim_listA>",are arguing with each other,
null,"<div style=""font-size:60px;"">+</div>",,html-keyboard-response,106,544011,0.0-13.0-0.19,16141,List1A,black,man,,,,null,,,,
null,"<img src=""stim_listA/marry4.gif""style=""height:400px;""></stim_listA>",,html-keyboard-response,107,546018,0.0-13.0-1.19,16141,List1A,black,man,,,,null,,,,
null,are marrying each other,,html-keyboard-response,108,548023,0.0-13.0-2.19,16141,List1A,black,man,,,,null,,,,
8589,,,survey-text,109,556613,0.0-13.0-3.19,16141,List1A,black,man,,,,,"{""Q0"":""Luke and Jane""}","<img src=""stim_listA/marry4.gif""style=""height:400px;""></stim_listA>",are marrying each other,
1231,"<img src='img/portrait_matrix_list1.jpg' style='width:900px;height:500px;''></img><p>If you have memorised all the portraits and names and are ready to start, press Continue.</p><p><strong>Please note: Your memory of these faces will be tested 4 times during this experiment.</strong></p>",0,html-button-response,110,557844,0.0-14.0-0.0,16141,List1A,black,man,,,,,,,,
3929,"<img src=""portrait/BW2.jpg""style=""height:400px;""></img>",2,html-button-response,111,562781,0.0-14.0-1.0,16141,List1A,black,man,,TRUE,2,,,,,
null,CORRECT,,html-keyboard-response,112,564288,0.0-14.0-2.0-0.0,16141,List1A,black,man,,,,null,,,,
6236,"<img src=""portrait/WW2.jpg""style=""height:400px;""></img>",3,html-button-response,113,570524,0.0-14.0-4.0,16141,List1A,black,man,,TRUE,3,,,,,
null,CORRECT,,html-keyboard-response,114,572031,0.0-14.0-5.0-0.0,16141,List1A,black,man,,,,null,,,,
4484,"<img src=""portrait/BM1.jpg""style=""height:400px;""></img>",4,html-button-response,115,576516,0.0-14.0-7.0,16141,List1A,black,man,,TRUE,4,,,,,
null,CORRECT,,html-keyboard-response,116,578027,0.0-14.0-8.0-0.0,16141,List1A,black,man,,,,null,,,,
16847,"<img src=""portrait/BM2.jpg""style=""height:400px;""></img>",5,html-button-response,117,594876,0.0-14.0-10.0,16141,List1A,black,man,,TRUE,5,,,,,
null,CORRECT,,html-keyboard-response,118,596384,0.0-14.0-11.0-0.0,16141,List1A,black,man,,,,null,,,,
4819,"<img src=""portrait/WW1.jpg""style=""height:400px;""></img>",1,html-button-response,119,601203,0.0-14.0-13.0,16141,List1A,black,man,,TRUE,1,,,,,
null,CORRECT,,html-keyboard-response,120,602712,0.0-14.0-14.0-0.0,16141,List1A,black,man,,,,null,,,,
3650,"<img src=""portrait/BW1.jpg""style=""height:400px;""></img>",0,html-button-response,121,606364,0.0-14.0-16.0,16141,List1A,black,man,,TRUE,0,,,,,
null,CORRECT,,html-keyboard-response,122,607866,0.0-14.0-17.0-0.0,16141,List1A,black,man,,,,null,,,,
3216,"<img src=""portrait/WM1.jpg""style=""height:400px;""></img>",6,html-button-response,123,611083,0.0-14.0-19.0,16141,List1A,black,man,,TRUE,6,,,,,
null,CORRECT,,html-keyboard-response,124,612594,0.0-14.0-20.0-0.0,16141,List1A,black,man,,,,null,,,,
2888,"<img src=""portrait/WM2.jpg""style=""height:400px;""></img>",7,html-button-response,125,615484,0.0-14.0-22.0,16141,List1A,black,man,,TRUE,7,,,,,
null,CORRECT,,html-keyboard-response,126,616987,0.0-14.0-23.0-0.0,16141,List1A,black,man,,,,null,,,,
1345,<p>You got 8 out of 8 right first time. Press Continue.</p>,0,html-button-response,127,618332,0.0-14.0-25.0,16141,List1A,black,man,,,,,,,,
null,"<div style=""font-size:60px;"">+</div>",,html-keyboard-response,128,619834,0.0-15.0-0.0,16141,List1A,black,man,,,,null,,,,
null,"<img src=""stim_listA/fight6.gif""style=""height:400px;""></stim_listA>",,html-keyboard-response,129,621838,0.0-15.0-1.0,16141,List1A,black,man,,,,null,,,,
null,are fighting each other,,html-keyboard-response,130,623841,0.0-15.0-2.0,16141,List1A,black,man,,,,null,,,,
22729,,,survey-text,131,646571,0.0-15.0-3.0,16141,List1A,black,man,,,,,"{""Q0"":""Fred and Luke""}","<img src=""stim_listA/fight6.gif""style=""height:400px;""></stim_listA>",are fighting each other,
null,"<div style=""font-size:60px;"">+</div>",,html-keyboard-response,132,647073,0.0-15.0-0.1,16141,List1A,black,man,,,,null,,,,
null,"<img src=""stim_listA/kiss7.gif""style=""height:400px;""></stim_listA>",,html-keyboard-response,133,649074,0.0-15.0-1.1,16141,List1A,black,man,,,,null,,,,
null,is kissing,,html-keyboard-response,134,651081,0.0-15.0-2.1,16141,List1A,black,man,,,,null,,,,
11121,,,survey-text,135,662202,0.0-15.0-3.1,16141,List1A,black,man,,,,,"{""Q0"":""Ruth and Beth""}","<img src=""stim_listA/kiss7.gif""style=""height:400px;""></stim_listA>",is kissing,
null,"<div style=""font-size:60px;"">+</div>",,html-keyboard-response,136,662704,0.0-15.0-0.2,16141,List1A,black,man,,,,null,,,,
null,"<img src=""stim_listA/fight1.gif""style=""height:400px;""></stim_listA>",,html-keyboard-response,137,664707,0.0-15.0-1.2,16141,List1A,black,man,,,,null,,,,
null,is fighting,,html-keyboard-response,138,666710,0.0-15.0-2.2,16141,List1A,black,man,,,,null,,,,
8460,,,survey-text,139,675170,0.0-15.0-3.2,16141,List1A,black,man,,,,,"{""Q0"":""Kate and Mike""}","<img src=""stim_listA/fight1.gif""style=""height:400px;""></stim_listA>",is fighting,
null,"<div style=""font-size:60px;"">+</div>",,html-keyboard-response,140,675677,0.0-15.0-0.3,16141,List1A,black,man,,,,null,,,,
null,"<img src=""stim_listA/play5.gif""style=""height:400px;""></stim_listA>",,html-keyboard-response,141,677678,0.0-15.0-1.3,16141,List1A,black,man,,,,null,,,,
null,is playing with,,html-keyboard-response,142,679681,0.0-15.0-2.3,16141,List1A,black,man,,,,null,,,,
13440,,,survey-text,143,693123,0.0-15.0-3.3,16141,List1A,black,man,,,,,"{""Q0"":""Dave and Mike""}","<img src=""stim_listA/play5.gif""style=""height:400px;""></stim_listA>",is playing with,
null,"<div style=""font-size:60px;"">+</div>",,html-keyboard-response,144,693628,0.0-15.0-0.4,16141,List1A,black,man,,,,null,,,,
null,"<img src=""stim_listA/talk7.gif""style=""height:400px;""></stim_listA>",,html-keyboard-response,145,695631,0.0-15.0-1.4,16141,List1A,black,man,,,,null,,,,
null,is talking to,,html-keyboard-response,146,697637,0.0-15.0-2.4,16141,List1A,black,man,,,,null,,,,
14381,,,survey-text,147,712018,0.0-15.0-3.4,16141,List1A,black,man,,,,,"{""Q0"":""dave and kate""}","<img src=""stim_listA/talk7.gif""style=""height:400px;""></stim_listA>",is talking to,
null,"<div style=""font-size:60px;"">+</div>",,html-keyboard-response,148,712519,0.0-15.0-0.5,16141,List1A,black,man,,,,null,,,,
null,"<img src=""stim_listA/fight2.gif""style=""height:400px;""></stim_listA>",,html-keyboard-response,149,714522,0.0-15.0-1.5,16141,List1A,black,man,,,,null,,,,
null,are fighting each other,,html-keyboard-response,150,716524,0.0-15.0-2.5,16141,List1A,black,man,,,,null,,,,
4685,,,survey-text,151,721210,0.0-15.0-3.5,16141,List1A,black,man,,,,,"{""Q0"":""Fred and Beth""}","<img src=""stim_listA/fight2.gif""style=""height:400px;""></stim_listA>",are fighting each other,
null,"<div style=""font-size:60px;"">+</div>",,html-keyboard-response,152,721716,0.0-15.0-0.6,16141,List1A,black,man,,,,null,,,,
null,"<img src=""stim_listA/marry2.gif""style=""height:400px;""></stim_listA>",,html-keyboard-response,153,723722,0.0-15.0-1.6,16141,List1A,black,man,,,,null,,,,
null,are marrying each other,,html-keyboard-response,154,725728,0.0-15.0-2.6,16141,List1A,black,man,,,,null,,,,
8887,,,survey-text,155,734617,0.0-15.0-3.6,16141,List1A,black,man,,,,,"{""Q0"":""Fred and Beth""}","<img src=""stim_listA/marry2.gif""style=""height:400px;""></stim_listA>",are marrying each other,
null,"<div style=""font-size:60px;"">+</div>",,html-keyboard-response,156,735122,0.0-15.0-0.7,16141,List1A,black,man,,,,null,,,,
null,"<img src=""stim_listA/shout1.gif""style=""height:400px;""></stim_listA>",,html-keyboard-response,157,737125,0.0-15.0-1.7,16141,List1A,black,man,,,,null,,,,
null,is shouting at,,html-keyboard-response,158,739128,0.0-15.0-2.7,16141,List1A,black,man,,,,null,,,,
4305,,,survey-text,159,743433,0.0-15.0-3.7,16141,List1A,black,man,,,,,"{""Q0"":""Fred and beth""}","<img src=""stim_listA/shout1.gif""style=""height:400px;""></stim_listA>",is shouting at,
null,"<div style=""font-size:60px;"">+</div>",,html-keyboard-response,160,743935,0.0-15.0-0.8,16141,List1A,black,man,,,,null,,,,
null,"<img src=""stim_listA/play1.gif""style=""height:400px;""></stim_listA>",,html-keyboard-response,161,745940,0.0-15.0-1.8,16141,List1A,black,man,,,,null,,,,
null,is playing with,,html-keyboard-response,162,747946,0.0-15.0-2.8,16141,List1A,black,man,,,,null,,,,
4341,,,survey-text,163,752289,0.0-15.0-3.8,16141,List1A,black,man,,,,,"{""Q0"":""Kate and Mike""}","<img src=""stim_listA/play1.gif""style=""height:400px;""></stim_listA>",is playing with,
null,"<div style=""font-size:60px;"">+</div>",,html-keyboard-response,164,752792,0.0-15.0-0.9,16141,List1A,black,man,,,,null,,,,
null,"<img src=""stim_listA/dance2.gif""style=""height:400px;""></stim_listA>",,html-keyboard-response,165,754795,0.0-15.0-1.9,16141,List1A,black,man,,,,null,,,,
null,are dancing with each other,,html-keyboard-response,166,756800,0.0-15.0-2.9,16141,List1A,black,man,,,,null,,,,
58535,,,survey-text,167,815336,0.0-15.0-3.9,16141,List1A,black,man,,,,,"{""Q0"":""Beth and Mike""}","<img src=""stim_listA/dance2.gif""style=""height:400px;""></stim_listA>",are dancing with each other,
null,"<div style=""font-size:60px;"">+</div>",,html-keyboard-response,168,815841,0.0-15.0-0.10,16141,List1A,black,man,,,,null,,,,
null,"<img src=""stim_listA/flirt6.gif""style=""height:400px;""></stim_listA>",,html-keyboard-response,169,817844,0.0-15.0-1.10,16141,List1A,black,man,,,,null,,,,
null,are flirting with each other,,html-keyboard-response,170,819850,0.0-15.0-2.10,16141,List1A,black,man,,,,null,,,,
11956,,,survey-text,171,831808,0.0-15.0-3.10,16141,List1A,black,man,,,,,"{""Q0"":""Ruth and Luke""}","<img src=""stim_listA/flirt6.gif""style=""height:400px;""></stim_listA>",are flirting with each other,
null,"<div style=""font-size:60px;"">+</div>",,html-keyboard-response,172,832310,0.0-15.0-0.11,16141,List1A,black,man,,,,null,,,,
null,"<img src=""stim_listA/flirt1.gif""style=""height:400px;""></stim_listA>",,html-keyboard-response,173,834313,0.0-15.0-1.11,16141,List1A,black,man,,,,null,,,,
null,is flirting with,,html-keyboard-response,174,836319,0.0-15.0-2.11,16141,List1A,black,man,,,,null,,,,
5120,,,survey-text,175,841439,0.0-15.0-3.11,16141,List1A,black,man,,,,,"{""Q0"":""Fred and Kate""}","<img src=""stim_listA/flirt1.gif""style=""height:400px;""></stim_listA>",is flirting with,
null,"<div style=""font-size:60px;"">+</div>",,html-keyboard-response,176,841940,0.0-15.0-0.12,16141,List1A,black,man,,,,null,,,,
null,"<img src=""stim_listA/touch8.gif""style=""height:400px;""></stim_listA>",,html-keyboard-response,177,843942,0.0-15.0-1.12,16141,List1A,black,man,,,,null,,,,
null,are touching each other,,html-keyboard-response,178,845945,0.0-15.0-2.12,16141,List1A,black,man,,,,null,,,,
10396,,,survey-text,179,856343,0.0-15.0-3.12,16141,List1A,black,man,,,,,"{""Q0"":""Ruth and Beth""}","<img src=""stim_listA/touch8.gif""style=""height:400px;""></stim_listA>",are touching each other,
null,"<div style=""font-size:60px;"">+</div>",,html-keyboard-response,180,856845,0.0-15.0-0.13,16141,List1A,black,man,,,,null,,,,
null,"<img src=""stim_listA/talk8.gif""style=""height:400px;""></stim_listA>",,html-keyboard-response,181,858847,0.0-15.0-1.13,16141,List1A,black,man,,,,null,,,,
null,are talking to each other,,html-keyboard-response,182,860853,0.0-15.0-2.13,16141,List1A,black,man,,,,null,,,,
15280,,,survey-text,183,876134,0.0-15.0-3.13,16141,List1A,black,man,,,,,"{""Q0"":""Ruth and kate""}","<img src=""stim_listA/talk8.gif""style=""height:400px;""></stim_listA>",are talking to each other,
null,"<div style=""font-size:60px;"">+</div>",,html-keyboard-response,184,876636,0.0-15.0-0.14,16141,List1A,black,man,,,,null,,,,
null,"<img src=""stim_listA/fight7.gif""style=""height:400px;""></stim_listA>",,html-keyboard-response,185,878641,0.0-15.0-1.14,16141,List1A,black,man,,,,null,,,,
null,is fighting,,html-keyboard-response,186,880646,0.0-15.0-2.14,16141,List1A,black,man,,,,null,,,,
7528,,,survey-text,187,888175,0.0-15.0-3.14,16141,List1A,black,man,,,,,"{""Q0"":""kate and ruth""}","<img src=""stim_listA/fight7.gif""style=""height:400px;""></stim_listA>",is fighting,
null,"<div style=""font-size:60px;"">+</div>",,html-keyboard-response,188,888675,0.0-15.0-0.15,16141,List1A,black,man,,,,null,,,,
null,"<img src=""stim_listA/argue3.gif""style=""height:400px;""></stim_listA>",,html-keyboard-response,189,890680,0.0-15.0-1.15,16141,List1A,black,man,,,,null,,,,
null,is arguing with,,html-keyboard-response,190,892685,0.0-15.0-2.15,16141,List1A,black,man,,,,null,,,,
20792,,,survey-text,191,913478,0.0-15.0-3.15,16141,List1A,black,man,,,,,"{""Q0"":""mike and ruth""}","<img src=""stim_listA/argue3.gif""style=""height:400px;""></stim_listA>",is arguing with,
null,"<div style=""font-size:60px;"">+</div>",,html-keyboard-response,192,913980,0.0-15.0-0.16,16141,List1A,black,man,,,,null,,,,
null,"<img src=""stim_listA/kiss1.gif""style=""height:400px;""></stim_listA>",,html-keyboard-response,193,915986,0.0-15.0-1.16,16141,List1A,black,man,,,,null,,,,
null,is kissing,,html-keyboard-response,194,917988,0.0-15.0-2.16,16141,List1A,black,man,,,,null,,,,
7896,,,survey-text,195,925885,0.0-15.0-3.16,16141,List1A,black,man,,,,,"{""Q0"":""Fred and Beth""}","<img src=""stim_listA/kiss1.gif""style=""height:400px;""></stim_listA>",is kissing,
null,"<div style=""font-size:60px;"">+</div>",,html-keyboard-response,196,926387,0.0-15.0-0.17,16141,List1A,black,man,,,,null,,,,
null,"<img src=""stim_listA/flirt4.gif""style=""height:400px;""></stim_listA>",,html-keyboard-response,197,928389,0.0-15.0-1.17,16141,List1A,black,man,,,,null,,,,
null,are flirting with each other,,html-keyboard-response,198,930390,0.0-15.0-2.17,16141,List1A,black,man,,,,null,,,,
28415,,,survey-text,199,958805,0.0-15.0-3.17,16141,List1A,black,man,,,,,"{""Q0"":""fred and ruth""}","<img src=""stim_listA/flirt4.gif""style=""height:400px;""></stim_listA>",are flirting with each other,
null,"<div style=""font-size:60px;"">+</div>",,html-keyboard-response,200,959308,0.0-15.0-0.18,16141,List1A,black,man,,,,null,,,,
null,"<img src=""stim_listA/shout6.gif""style=""height:400px;""></stim_listA>",,html-keyboard-response,201,961309,0.0-15.0-1.18,16141,List1A,black,man,,,,null,,,,
null,are shouting at each other,,html-keyboard-response,202,963311,0.0-15.0-2.18,16141,List1A,black,man,,,,null,,,,
28252,,,survey-text,203,991565,0.0-15.0-3.18,16141,List1A,black,man,,,,,"{""Q0"":""Ruth and Kate""}","<img src=""stim_listA/shout6.gif""style=""height:400px;""></stim_listA>",are shouting at each other,
null,"<div style=""font-size:60px;"">+</div>",,html-keyboard-response,204,992067,0.0-15.0-0.19,16141,List1A,black,man,,,,null,,,,
null,"<img src=""stim_listA/flirt2.gif""style=""height:400px;""></stim_listA>",,html-keyboard-response,205,994068,0.0-15.0-1.19,16141,List1A,black,man,,,,null,,,,
null,are flirting with each other,,html-keyboard-response,206,996073,0.0-15.0-2.19,16141,List1A,black,man,,,,null,,,,
6058,,,survey-text,207,1002132,0.0-15.0-3.19,16141,List1A,black,man,,,,,"{""Q0"":""kate and fred""}","<img src=""stim_listA/flirt2.gif""style=""height:400px;""></stim_listA>",are flirting with each other,
1960,"<img src='img/portrait_matrix_list1.jpg' style='width:900px;height:500px;''></img><p>If you have memorised all the portraits and names and are ready to start, press Continue.</p><p><strong>Please note: Your memory of these faces will be tested 4 times during this experiment.</strong></p>",0,html-button-response,208,1004092,0.0-16.0-0.0,16141,List1A,black,man,,,,,,,,
3326,"<img src=""portrait/WM2.jpg""style=""height:400px;""></img>",7,html-button-response,209,1008421,0.0-16.0-1.0,16141,List1A,black,man,,TRUE,7,,,,,
null,CORRECT,,html-keyboard-response,210,1009929,0.0-16.0-2.0-0.0,16141,List1A,black,man,,,,null,,,,
3643,"<img src=""portrait/BW1.jpg""style=""height:400px;""></img>",0,html-button-response,211,1013572,0.0-16.0-4.0,16141,List1A,black,man,,TRUE,0,,,,,
null,CORRECT,,html-keyboard-response,212,1015084,0.0-16.0-5.0-0.0,16141,List1A,black,man,,,,null,,,,
7463,"<img src=""portrait/BW2.jpg""style=""height:400px;""></img>",2,html-button-response,213,1022548,0.0-16.0-7.0,16141,List1A,black,man,,TRUE,2,,,,,
null,CORRECT,,html-keyboard-response,214,1024055,0.0-16.0-8.0-0.0,16141,List1A,black,man,,,,null,,,,
3548,"<img src=""portrait/WW2.jpg""style=""height:400px;""></img>",3,html-button-response,215,1027604,0.0-16.0-10.0,16141,List1A,black,man,,TRUE,3,,,,,
null,CORRECT,,html-keyboard-response,216,1029107,0.0-16.0-11.0-0.0,16141,List1A,black,man,,,,null,,,,
6737,"<img src=""portrait/BM2.jpg""style=""height:400px;""></img>",5,html-button-response,217,1035844,0.0-16.0-13.0,16141,List1A,black,man,,TRUE,5,,,,,
null,CORRECT,,html-keyboard-response,218,1037347,0.0-16.0-14.0-0.0,16141,List1A,black,man,,,,null,,,,
5247,"<img src=""portrait/WW1.jpg""style=""height:400px;""></img>",6,html-button-response,219,1042596,0.0-16.0-16.0,16141,List1A,black,man,,TRUE,1,,,,,
5278,"<img src=""portrait/WW1.jpg""style=""height:400px;""></img>",1,html-button-response,220,1048876,0.0-16.0-18.0-0.0,16141,List1A,black,man,,FALSE,1,,,,,
null,CORRECT,,html-keyboard-response,221,1050382,0.0-16.0-18.0-1.0-0.0,16141,List1A,black,man,,,,null,,,,
3340,"<img src=""portrait/BM1.jpg""style=""height:400px;""></img>",4,html-button-response,222,1053723,0.0-16.0-19.0,16141,List1A,black,man,,TRUE,4,,,,,
null,CORRECT,,html-keyboard-response,223,1055233,0.0-16.0-20.0-0.0,16141,List1A,black,man,,,,null,,,,
4784,"<img src=""portrait/WM1.jpg""style=""height:400px;""></img>",6,html-button-response,224,1060019,0.0-16.0-22.0,16141,List1A,black,man,,TRUE,6,,,,,
null,CORRECT,,html-keyboard-response,225,1061523,0.0-16.0-23.0-0.0,16141,List1A,black,man,,,,null,,,,
1360,<p>You got 7 out of 8 right first time. Press Continue.</p>,0,html-button-response,226,1062883,0.0-16.0-25.0,16141,List1A,black,man,,,,,,,,
3314,"As you did not score 100%, the memory game will repeat. Press Continue.",0,html-button-response,227,1067203,0.0-16.0-26.0-0.0,16141,List1A,black,man,,,,,,,,
1524,"<img src='img/portrait_matrix_list1.jpg' style='width:900px;height:500px;''></img><p>If you have memorised all the portraits and names and are ready to start, press Continue.</p><p><strong>Please note: Your memory of these faces will be tested 4 times during this experiment.</strong></p>",0,html-button-response,228,1069732,0.0-16.1-0.1,16141,List1A,black,man,,,,,,,,
3095,"<img src=""portrait/WM2.jpg""style=""height:400px;""></img>",7,html-button-response,229,1073828,0.0-16.1-1.1,16141,List1A,black,man,,TRUE,7,,,,,
null,CORRECT,,html-keyboard-response,230,1075328,0.0-16.1-2.1-0.1,16141,List1A,black,man,,,,null,,,,
5009,"<img src=""portrait/BW1.jpg""style=""height:400px;""></img>",0,html-button-response,231,1080339,0.0-16.1-4.1,16141,List1A,black,man,,TRUE,0,,,,,
null,CORRECT,,html-keyboard-response,232,1081850,0.0-16.1-5.1-0.1,16141,List1A,black,man,,,,null,,,,
1888,"<img src=""portrait/BW2.jpg""style=""height:400px;""></img>",2,html-button-response,233,1083739,0.0-16.1-7.1,16141,List1A,black,man,,TRUE,2,,,,,
null,CORRECT,,html-keyboard-response,234,1085246,0.0-16.1-8.1-0.1,16141,List1A,black,man,,,,null,,,,
2347,"<img src=""portrait/WW2.jpg""style=""height:400px;""></img>",3,html-button-response,235,1087595,0.0-16.1-10.1,16141,List1A,black,man,,TRUE,3,,,,,
null,CORRECT,,html-keyboard-response,236,1089101,0.0-16.1-11.1-0.1,16141,List1A,black,man,,,,null,,,,
2060,"<img src=""portrait/BM2.jpg""style=""height:400px;""></img>",5,html-button-response,237,1091163,0.0-16.1-13.1,16141,List1A,black,man,,TRUE,5,,,,,
null,CORRECT,,html-keyboard-response,238,1092670,0.0-16.1-14.1-0.1,16141,List1A,black,man,,,,null,,,,
4165,"<img src=""portrait/WW1.jpg""style=""height:400px;""></img>",1,html-button-response,239,1096835,0.0-16.1-16.1,16141,List1A,black,man,,TRUE,1,,,,,
null,CORRECT,,html-keyboard-response,240,1098337,0.0-16.1-17.1-0.1,16141,List1A,black,man,,,,null,,,,
5600,"<img src=""portrait/BM1.jpg""style=""height:400px;""></img>",4,html-button-response,241,1103939,0.0-16.1-19.1,16141,List1A,black,man,,TRUE,4,,,,,
null,CORRECT,,html-keyboard-response,242,1105445,0.0-16.1-20.1-0.1,16141,List1A,black,man,,,,null,,,,
4364,"<img src=""portrait/WM1.jpg""style=""height:400px;""></img>",6,html-button-response,243,1109811,0.0-16.1-22.1,16141,List1A,black,man,,TRUE,6,,,,,
null,CORRECT,,html-keyboard-response,244,1111318,0.0-16.1-23.1-0.1,16141,List1A,black,man,,,,null,,,,
1060,<p>You got 8 out of 8 right first time. Press Continue.</p>,0,html-button-response,245,1112379,0.0-16.1-25.1,16141,List1A,black,man,,,,,,,,
null,"<div style=""font-size:60px;"">+</div>",,html-keyboard-response,246,1113887,0.0-17.0-0.0,16141,List1A,black,man,,,,null,,,,
null,"<img src=""stim_listA/dance4.gif""style=""height:400px;""></stim_listA>",,html-keyboard-response,247,1115888,0.0-17.0-1.0,16141,List1A,black,man,,,,null,,,,
null,are dancing with each other,,html-keyboard-response,248,1117893,0.0-17.0-2.0,16141,List1A,black,man,,,,null,,,,
8900,,,survey-text,249,1126794,0.0-17.0-3.0,16141,List1A,black,man,,,,,"{""Q0"":""Ruth and Dave""}","<img src=""stim_listA/dance4.gif""style=""height:400px;""></stim_listA>",are dancing with each other,
null,"<div style=""font-size:60px;"">+</div>",,html-keyboard-response,250,1127300,0.0-17.0-0.1,16141,List1A,black,man,,,,null,,,,
null,"<img src=""stim_listA/dance1.gif""style=""height:400px;""></stim_listA>",,html-keyboard-response,251,1129301,0.0-17.0-1.1,16141,List1A,black,man,,,,null,,,,
null,is dancing with,,html-keyboard-response,252,1131308,0.0-17.0-2.1,16141,List1A,black,man,,,,null,,,,
8620,,,survey-text,253,1139930,0.0-17.0-3.1,16141,List1A,black,man,,,,,"{""Q0"":""Kate and Fred""}","<img src=""stim_listA/dance1.gif""style=""height:400px;""></stim_listA>",is dancing with,
null,"<div style=""font-size:60px;"">+</div>",,html-keyboard-response,254,1140435,0.0-17.0-0.2,16141,List1A,black,man,,,,null,,,,
null,"<img src=""stim_listA/touch4.gif""style=""height:400px;""></stim_listA>",,html-keyboard-response,255,1142439,0.0-17.0-1.2,16141,List1A,black,man,,,,null,,,,
null,are touching each other,,html-keyboard-response,256,1144445,0.0-17.0-2.2,16141,List1A,black,man,,,,null,,,,
12060,,,survey-text,257,1156505,0.0-17.0-3.2,16141,List1A,black,man,,,,,"{""Q0"":""Luke and ruth""}","<img src=""stim_listA/touch4.gif""style=""height:400px;""></stim_listA>",are touching each other,
null,"<div style=""font-size:60px;"">+</div>",,html-keyboard-response,258,1157010,0.0-17.0-0.3,16141,List1A,black,man,,,,null,,,,
null,"<img src=""stim_listA/play7.gif""style=""height:400px;""></stim_listA>",,html-keyboard-response,259,1159015,0.0-17.0-1.3,16141,List1A,black,man,,,,null,,,,
null,is playing with,,html-keyboard-response,260,1161022,0.0-17.0-2.3,16141,List1A,black,man,,,,null,,,,
13363,,,survey-text,261,1174385,0.0-17.0-3.3,16141,List1A,black,man,,,,,"{""Q0"":""kate and mike""}","<img src=""stim_listA/play7.gif""style=""height:400px;""></stim_listA>",is playing with,
null,"<div style=""font-size:60px;"">+</div>",,html-keyboard-response,262,1174888,0.0-17.0-0.4,16141,List1A,black,man,,,,null,,,,
null,"<img src=""stim_listA/fight4.gif""style=""height:400px;""></stim_listA>",,html-keyboard-response,263,1176890,0.0-17.0-1.4,16141,List1A,black,man,,,,null,,,,
null,are fighting each other,,html-keyboard-response,264,1178892,0.0-17.0-2.4,16141,List1A,black,man,,,,null,,,,
7541,,,survey-text,265,1186433,0.0-17.0-3.4,16141,List1A,black,man,,,,,"{""Q0"":""Ruth and luke""}","<img src=""stim_listA/fight4.gif""style=""height:400px;""></stim_listA>",are fighting each other,
null,"<div style=""font-size:60px;"">+</div>",,html-keyboard-response,266,1186938,0.0-17.0-0.5,16141,List1A,black,man,,,,null,,,,
null,"<img src=""stim_listA/touch7.gif""style=""height:400px;""></stim_listA>",,html-keyboard-response,267,1188940,0.0-17.0-1.5,16141,List1A,black,man,,,,null,,,,
null,is touching,,html-keyboard-response,268,1190942,0.0-17.0-2.5,16141,List1A,black,man,,,,null,,,,
6785,,,survey-text,269,1197729,0.0-17.0-3.5,16141,List1A,black,man,,,,,"{""Q0"":""Kate and Jane""}","<img src=""stim_listA/touch7.gif""style=""height:400px;""></stim_listA>",is touching,
null,"<div style=""font-size:60px;"">+</div>",,html-keyboard-response,270,1198230,0.0-17.0-0.6,16141,List1A,black,man,,,,null,,,,
null,"<img src=""stim_listA/marry5.gif""style=""height:400px;""></stim_listA>",,html-keyboard-response,271,1200236,0.0-17.0-1.6,16141,List1A,black,man,,,,null,,,,
null,is marrying,,html-keyboard-response,272,1202241,0.0-17.0-2.6,16141,List1A,black,man,,,,null,,,,
8431,,,survey-text,273,1210673,0.0-17.0-3.6,16141,List1A,black,man,,,,,"{""Q0"":""mike and luke""}","<img src=""stim_listA/marry5.gif""style=""height:400px;""></stim_listA>",is marrying,
null,"<div style=""font-size:60px;"">+</div>",,html-keyboard-response,274,1211175,0.0-17.0-0.7,16141,List1A,black,man,,,,null,,,,
null,"<img src=""stim_listA/talk4.gif""style=""height:400px;""></stim_listA>",,html-keyboard-response,275,1213176,0.0-17.0-1.7,16141,List1A,black,man,,,,null,,,,
null,are talking to each other,,html-keyboard-response,276,1215177,0.0-17.0-2.7,16141,List1A,black,man,,,,null,,,,
7750,,,survey-text,277,1222928,0.0-17.0-3.7,16141,List1A,black,man,,,,,"{""Q0"":""Ruth and Dave""}","<img src=""stim_listA/talk4.gif""style=""height:400px;""></stim_listA>",are talking to each other,
null,"<div style=""font-size:60px;"">+</div>",,html-keyboard-response,278,1223431,0.0-17.0-0.8,16141,List1A,black,man,,,,null,,,,
null,"<img src=""stim_listA/dance5.gif""style=""height:400px;""></stim_listA>",,html-keyboard-response,279,1225436,0.0-17.0-1.8,16141,List1A,black,man,,,,null,,,,
null,is dancing with,,html-keyboard-response,280,1227441,0.0-17.0-2.8,16141,List1A,black,man,,,,null,,,,
50006,,,survey-text,281,1277448,0.0-17.0-3.8,16141,List1A,black,man,,,,,"{""Q0"":""Dave and mike""}","<img src=""stim_listA/dance5.gif""style=""height:400px;""></stim_listA>",is dancing with,
null,"<div style=""font-size:60px;"">+</div>",,html-keyboard-response,282,1277949,0.0-17.0-0.9,16141,List1A,black,man,,,,null,,,,
null,"<img src=""stim_listA/fight5.gif""style=""height:400px;""></stim_listA>",,html-keyboard-response,283,1279951,0.0-17.0-1.9,16141,List1A,black,man,,,,null,,,,
null,is fighting,,html-keyboard-response,284,1281957,0.0-17.0-2.9,16141,List1A,black,man,,,,null,,,,
9922,,,survey-text,285,1291879,0.0-17.0-3.9,16141,List1A,black,man,,,,,"{""Q0"":""Mike and fred""}","<img src=""stim_listA/fight5.gif""style=""height:400px;""></stim_listA>",is fighting,
null,"<div style=""font-size:60px;"">+</div>",,html-keyboard-response,286,1292380,0.0-17.0-0.10,16141,List1A,black,man,,,,null,,,,
null,"<img src=""stim_listA/kiss6.gif""style=""height:400px;""></stim_listA>",,html-keyboard-response,287,1294387,0.0-17.0-1.10,16141,List1A,black,man,,,,null,,,,
null,are kissing each other,,html-keyboard-response,288,1296389,0.0-17.0-2.10,16141,List1A,black,man,,,,null,,,,
6392,,,survey-text,289,1302783,0.0-17.0-3.10,16141,List1A,black,man,,,,,"{""Q0"":""dave and mike""}","<img src=""stim_listA/kiss6.gif""style=""height:400px;""></stim_listA>",are kissing each other,
null,"<div style=""font-size:60px;"">+</div>",,html-keyboard-response,290,1303284,0.0-17.0-0.11,16141,List1A,black,man,,,,null,,,,
null,"<img src=""stim_listA/touch1.gif""style=""height:400px;""></stim_listA>",,html-keyboard-response,291,1305289,0.0-17.0-1.11,16141,List1A,black,man,,,,null,,,,
null,is touching,,html-keyboard-response,292,1307290,0.0-17.0-2.11,16141,List1A,black,man,,,,null,,,,
4836,,,survey-text,293,1312127,0.0-17.0-3.11,16141,List1A,black,man,,,,,"{""Q0"":""mike and kate""}","<img src=""stim_listA/touch1.gif""style=""height:400px;""></stim_listA>",is touching,
null,"<div style=""font-size:60px;"">+</div>",,html-keyboard-response,294,1312629,0.0-17.0-0.12,16141,List1A,black,man,,,,null,,,,
null,"<img src=""stim_listA/flirt7.gif""style=""height:400px;""></stim_listA>",,html-keyboard-response,295,1314635,0.0-17.0-1.12,16141,List1A,black,man,,,,null,,,,
null,is flirting with,,html-keyboard-response,296,1316640,0.0-17.0-2.12,16141,List1A,black,man,,,,null,,,,
7118,,,survey-text,297,1323759,0.0-17.0-3.12,16141,List1A,black,man,,,,,"{""Q0"":""kate and jane""}","<img src=""stim_listA/flirt7.gif""style=""height:400px;""></stim_listA>",is flirting with,
null,"<div style=""font-size:60px;"">+</div>",,html-keyboard-response,298,1324261,0.0-17.0-0.13,16141,List1A,black,man,,,,null,,,,
null,"<img src=""stim_listA/kiss5.gif""style=""height:400px;""></stim_listA>",,html-keyboard-response,299,1326264,0.0-17.0-1.13,16141,List1A,black,man,,,,null,,,,
null,is kissing,,html-keyboard-response,300,1328270,0.0-17.0-2.13,16141,List1A,black,man,,,,null,,,,
7558,,,survey-text,301,1335830,0.0-17.0-3.13,16141,List1A,black,man,,,,,"{""Q0"":""luke and fred""}","<img src=""stim_listA/kiss5.gif""style=""height:400px;""></stim_listA>",is kissing,
null,"<div style=""font-size:60px;"">+</div>",,html-keyboard-response,302,1336332,0.0-17.0-0.14,16141,List1A,black,man,,,,null,,,,
null,"<img src=""stim_listA/flirt8.gif""style=""height:400px;""></stim_listA>",,html-keyboard-response,303,1338335,0.0-17.0-1.14,16141,List1A,black,man,,,,null,,,,
null,are flirting with each other,,html-keyboard-response,304,1340339,0.0-17.0-2.14,16141,List1A,black,man,,,,null,,,,
6426,,,survey-text,305,1346766,0.0-17.0-3.14,16141,List1A,black,man,,,,,"{""Q0"":""kate and ruth""}","<img src=""stim_listA/flirt8.gif""style=""height:400px;""></stim_listA>",are flirting with each other,
null,"<div style=""font-size:60px;"">+</div>",,html-keyboard-response,306,1347268,0.0-17.0-0.15,16141,List1A,black,man,,,,null,,,,
null,"<img src=""stim_listA/play4.gif""style=""height:400px;""></stim_listA>",,html-keyboard-response,307,1349274,0.0-17.0-1.15,16141,List1A,black,man,,,,null,,,,
null,are playing with each other,,html-keyboard-response,308,1351278,0.0-17.0-2.15,16141,List1A,black,man,,,,null,,,,
7103,,,survey-text,309,1358382,0.0-17.0-3.15,16141,List1A,black,man,,,,,"{""Q0"":""luke and ruth""}","<img src=""stim_listA/play4.gif""style=""height:400px;""></stim_listA>",are playing with each other,
null,"<div style=""font-size:60px;"">+</div>",,html-keyboard-response,310,1358885,0.0-17.0-0.16,16141,List1A,black,man,,,,null,,,,
null,"<img src=""stim_listA/argue1.gif""style=""height:400px;""></stim_listA>",,html-keyboard-response,311,1360886,0.0-17.0-1.16,16141,List1A,black,man,,,,null,,,,
null,is arguing with,,html-keyboard-response,312,1362889,0.0-17.0-2.16,16141,List1A,black,man,,,,null,,,,
11109,,,survey-text,313,1373998,0.0-17.0-3.16,16141,List1A,black,man,,,,,"{""Q0"":""Kate and Beth""}","<img src=""stim_listA/argue1.gif""style=""height:400px;""></stim_listA>",is arguing with,
null,"<div style=""font-size:60px;"">+</div>",,html-keyboard-response,314,1374500,0.0-17.0-0.17,16141,List1A,black,man,,,,null,,,,
null,"<img src=""stim_listA/touch2.gif""style=""height:400px;""></stim_listA>",,html-keyboard-response,315,1376503,0.0-17.0-1.17,16141,List1A,black,man,,,,null,,,,
null,are touching each other,,html-keyboard-response,316,1378504,0.0-17.0-2.17,16141,List1A,black,man,,,,null,,,,
15644,,,survey-text,317,1394149,0.0-17.0-3.17,16141,List1A,black,man,,,,,"{""Q0"":""fred and beth""}","<img src=""stim_listA/touch2.gif""style=""height:400px;""></stim_listA>",are touching each other,
null,"<div style=""font-size:60px;"">+</div>",,html-keyboard-response,318,1394651,0.0-17.0-0.18,16141,List1A,black,man,,,,null,,,,
null,"<img src=""stim_listA/dance6.gif""style=""height:400px;""></stim_listA>",,html-keyboard-response,319,1396654,0.0-17.0-1.18,16141,List1A,black,man,,,,null,,,,
null,are dancing with each other,,html-keyboard-response,320,1398656,0.0-17.0-2.18,16141,List1A,black,man,,,,null,,,,
12717,,,survey-text,321,1411374,0.0-17.0-3.18,16141,List1A,black,man,,,,,"{""Q0"":""jane and luke""}","<img src=""stim_listA/dance6.gif""style=""height:400px;""></stim_listA>",are dancing with each other,
null,"<div style=""font-size:60px;"">+</div>",,html-keyboard-response,322,1411876,0.0-17.0-0.19,16141,List1A,black,man,,,,null,,,,
null,"<img src=""stim_listA/touch6.gif""style=""height:400px;""></stim_listA>",,html-keyboard-response,323,1413881,0.0-17.0-1.19,16141,List1A,black,man,,,,null,,,,
null,are touching each other,,html-keyboard-response,324,1415888,0.0-17.0-2.19,16141,List1A,black,man,,,,null,,,,
5516,,,survey-text,325,1421404,0.0-17.0-3.19,16141,List1A,black,man,,,,,"{""Q0"":""luke and fred""}","<img src=""stim_listA/touch6.gif""style=""height:400px;""></stim_listA>",are touching each other,
4943,"<img src='img/portrait_matrix_list1.jpg' style='width:900px;height:500px;''></img><p>If you have memorised all the portraits and names and are ready to start, press Continue.</p><p><strong>Please note: Your memory of these faces will be tested 4 times during this experiment.</strong></p>",0,html-button-response,326,1426349,0.0-18.0-0.0,16141,List1A,black,man,,,,,,,,
5454,"<img src=""portrait/WW1.jpg""style=""height:400px;""></img>",1,html-button-response,327,1432805,0.0-18.0-1.0,16141,List1A,black,man,,TRUE,1,,,,,
null,CORRECT,,html-keyboard-response,328,1434314,0.0-18.0-2.0-0.0,16141,List1A,black,man,,,,null,,,,
4538,"<img src=""portrait/WM2.jpg""style=""height:400px;""></img>",7,html-button-response,329,1438853,0.0-18.0-4.0,16141,List1A,black,man,,TRUE,7,,,,,
null,CORRECT,,html-keyboard-response,330,1440363,0.0-18.0-5.0-0.0,16141,List1A,black,man,,,,null,,,,
4592,"<img src=""portrait/BM1.jpg""style=""height:400px;""></img>",4,html-button-response,331,1444956,0.0-18.0-7.0,16141,List1A,black,man,,TRUE,4,,,,,
null,CORRECT,,html-keyboard-response,332,1446463,0.0-18.0-8.0-0.0,16141,List1A,black,man,,,,null,,,,
4172,"<img src=""portrait/BM2.jpg""style=""height:400px;""></img>",5,html-button-response,333,1450636,0.0-18.0-10.0,16141,List1A,black,man,,TRUE,5,,,,,
null,CORRECT,,html-keyboard-response,334,1452145,0.0-18.0-11.0-0.0,16141,List1A,black,man,,,,null,,,,
2729,"<img src=""portrait/WW2.jpg""style=""height:400px;""></img>",3,html-button-response,335,1454876,0.0-18.0-13.0,16141,List1A,black,man,,TRUE,3,,,,,
null,CORRECT,,html-keyboard-response,336,1456387,0.0-18.0-14.0-0.0,16141,List1A,black,man,,,,null,,,,
4432,"<img src=""portrait/WM1.jpg""style=""height:400px;""></img>",6,html-button-response,337,1460820,0.0-18.0-16.0,16141,List1A,black,man,,TRUE,6,,,,,
null,CORRECT,,html-keyboard-response,338,1462326,0.0-18.0-17.0-0.0,16141,List1A,black,man,,,,null,,,,
4293,"<img src=""portrait/BW1.jpg""style=""height:400px;""></img>",0,html-button-response,339,1466620,0.0-18.0-19.0,16141,List1A,black,man,,TRUE,0,,,,,
null,CORRECT,,html-keyboard-response,340,1468127,0.0-18.0-20.0-0.0,16141,List1A,black,man,,,,null,,,,
3363,"<img src=""portrait/BW2.jpg""style=""height:400px;""></img>",2,html-button-response,341,1471492,0.0-18.0-22.0,16141,List1A,black,man,,TRUE,2,,,,,
null,CORRECT,,html-keyboard-response,342,1472997,0.0-18.0-23.0-0.0,16141,List1A,black,man,,,,null,,,,
1381,<p>You got 8 out of 8 right first time. Press Continue.</p>,0,html-button-response,343,1474380,0.0-18.0-25.0,16141,List1A,black,man,,,,,,,,
null,"<div style=""font-size:60px;"">+</div>",,html-keyboard-response,344,1475888,0.0-19.0-0.0,16141,List1A,black,man,,,,null,,,,
null,"<img src=""stim_listA/kiss3.gif""style=""height:400px;""></stim_listA>",,html-keyboard-response,345,1477890,0.0-19.0-1.0,16141,List1A,black,man,,,,null,,,,
null,is kissing,,html-keyboard-response,346,1479892,0.0-19.0-2.0,16141,List1A,black,man,,,,null,,,,
6447,,,survey-text,347,1486340,0.0-19.0-3.0,16141,List1A,black,man,,,,,"{""Q0"":""Ruth and luke""}","<img src=""stim_listA/kiss3.gif""style=""height:400px;""></stim_listA>",is kissing,
null,"<div style=""font-size:60px;"">+</div>",,html-keyboard-response,348,1486840,0.0-19.0-0.1,16141,List1A,black,man,,,,null,,,,
null,"<img src=""stim_listA/touch3.gif""style=""height:400px;""></stim_listA>",,html-keyboard-response,349,1488842,0.0-19.0-1.1,16141,List1A,black,man,,,,null,,,,
null,is touching,,html-keyboard-response,350,1490845,0.0-19.0-2.1,16141,List1A,black,man,,,,null,,,,
11309,,,survey-text,351,1502155,0.0-19.0-3.1,16141,List1A,black,man,,,,,"{""Q0"":""jane and dave""}","<img src=""stim_listA/touch3.gif""style=""height:400px;""></stim_listA>",is touching,
null,"<div style=""font-size:60px;"">+</div>",,html-keyboard-response,352,1502659,0.0-19.0-0.2,16141,List1A,black,man,,,,null,,,,
null,"<img src=""stim_listA/flirt5.gif""style=""height:400px;""></stim_listA>",,html-keyboard-response,353,1504661,0.0-19.0-1.2,16141,List1A,black,man,,,,null,,,,
null,is flirting with,,html-keyboard-response,354,1506665,0.0-19.0-2.2,16141,List1A,black,man,,,,null,,,,
8489,,,survey-text,355,1515155,0.0-19.0-3.2,16141,List1A,black,man,,,,,"{""Q0"":""Dave and Mike""}","<img src=""stim_listA/flirt5.gif""style=""height:400px;""></stim_listA>",is flirting with,
null,"<div style=""font-size:60px;"">+</div>",,html-keyboard-response,356,1515656,0.0-19.0-0.3,16141,List1A,black,man,,,,null,,,,
null,"<img src=""stim_listA/kiss4.gif""style=""height:400px;""></stim_listA>",,html-keyboard-response,357,1517658,0.0-19.0-1.3,16141,List1A,black,man,,,,null,,,,
null,are kissing each other,,html-keyboard-response,358,1519659,0.0-19.0-2.3,16141,List1A,black,man,,,,null,,,,
14880,,,survey-text,359,1534539,0.0-19.0-3.3,16141,List1A,black,man,,,,,"{""Q0"":""Dave and Mike""}","<img src=""stim_listA/kiss4.gif""style=""height:400px;""></stim_listA>",are kissing each other,
null,"<div style=""font-size:60px;"">+</div>",,html-keyboard-response,360,1535042,0.0-19.0-0.4,16141,List1A,black,man,,,,null,,,,
null,"<img src=""stim_listA/dance8.gif""style=""height:400px;""></stim_listA>",,html-keyboard-response,361,1537046,0.0-19.0-1.4,16141,List1A,black,man,,,,null,,,,
null,are dancing with each other,,html-keyboard-response,362,1539051,0.0-19.0-2.4,16141,List1A,black,man,,,,null,,,,
8382,,,survey-text,363,1547434,0.0-19.0-3.4,16141,List1A,black,man,,,,,"{""Q0"":""Kate and Ruth""}","<img src=""stim_listA/dance8.gif""style=""height:400px;""></stim_listA>",are dancing with each other,
null,"<div style=""font-size:60px;"">+</div>",,html-keyboard-response,364,1547939,0.0-19.0-0.5,16141,List1A,black,man,,,,null,,,,
null,"<img src=""stim_listA/play6.gif""style=""height:400px;""></stim_listA>",,html-keyboard-response,365,1549945,0.0-19.0-1.5,16141,List1A,black,man,,,,null,,,,
null,are playing with each other,,html-keyboard-response,366,1551950,0.0-19.0-2.5,16141,List1A,black,man,,,,null,,,,
60410,,,survey-text,367,1612362,0.0-19.0-3.5,16141,List1A,black,man,,,,,"{""Q0"":""Luke and fred""}","<img src=""stim_listA/play6.gif""style=""height:400px;""></stim_listA>",are playing with each other,
null,"<div style=""font-size:60px;"">+</div>",,html-keyboard-response,368,1612863,0.0-19.0-0.6,16141,List1A,black,man,,,,null,,,,
null,"<img src=""stim_listA/argue2.gif""style=""height:400px;""></stim_listA>",,html-keyboard-response,369,1614868,0.0-19.0-1.6,16141,List1A,black,man,,,,null,,,,
null,are arguing with each other,,html-keyboard-response,370,1616875,0.0-19.0-2.6,16141,List1A,black,man,,,,null,,,,
5262,,,survey-text,371,1622137,0.0-19.0-3.6,16141,List1A,black,man,,,,,"{""Q0"":""Kate and Fred""}","<img src=""stim_listA/argue2.gif""style=""height:400px;""></stim_listA>",are arguing with each other,
null,"<div style=""font-size:60px;"">+</div>",,html-keyboard-response,372,1622639,0.0-19.0-0.7,16141,List1A,black,man,,,,null,,,,
null,"<img src=""stim_listA/shout8.gif""style=""height:400px;""></stim_listA>",,html-keyboard-response,373,1624641,0.0-19.0-1.7,16141,List1A,black,man,,,,null,,,,
null,are shouting at each other,,html-keyboard-response,374,1626642,0.0-19.0-2.7,16141,List1A,black,man,,,,null,,,,
8318,,,survey-text,375,1634961,0.0-19.0-3.7,16141,List1A,black,man,,,,,"{""Q0"":""Jane and kate""}","<img src=""stim_listA/shout8.gif""style=""height:400px;""></stim_listA>",are shouting at each other,
null,"<div style=""font-size:60px;"">+</div>",,html-keyboard-response,376,1635463,0.0-19.0-0.8,16141,List1A,black,man,,,,null,,,,
null,"<img src=""stim_listA/shout5.gif""style=""height:400px;""></stim_listA>",,html-keyboard-response,377,1637469,0.0-19.0-1.8,16141,List1A,black,man,,,,null,,,,
null,is shouting at,,html-keyboard-response,378,1639476,0.0-19.0-2.8,16141,List1A,black,man,,,,null,,,,
8252,,,survey-text,379,1647729,0.0-19.0-3.8,16141,List1A,black,man,,,,,"{""Q0"":""luke and mike""}","<img src=""stim_listA/shout5.gif""style=""height:400px;""></stim_listA>",is shouting at,
null,"<div style=""font-size:60px;"">+</div>",,html-keyboard-response,380,1648231,0.0-19.0-0.9,16141,List1A,black,man,,,,null,,,,
null,"<img src=""stim_listA/touch5.gif""style=""height:400px;""></stim_listA>",,html-keyboard-response,381,1650237,0.0-19.0-1.9,16141,List1A,black,man,,,,null,,,,
null,is touching,,html-keyboard-response,382,1652237,0.0-19.0-2.9,16141,List1A,black,man,,,,null,,,,
10034,,,survey-text,383,1662273,0.0-19.0-3.9,16141,List1A,black,man,,,,,"{""Q0"":""dave and mike""}","<img src=""stim_listA/touch5.gif""style=""height:400px;""></stim_listA>",is touching,
null,"<div style=""font-size:60px;"">+</div>",,html-keyboard-response,384,1662775,0.0-19.0-0.10,16141,List1A,black,man,,,,null,,,,
null,"<img src=""stim_listA/shout4.gif""style=""height:400px;""></stim_listA>",,html-keyboard-response,385,1664780,0.0-19.0-1.10,16141,List1A,black,man,,,,null,,,,
null,are shouting at each other,,html-keyboard-response,386,1666787,0.0-19.0-2.10,16141,List1A,black,man,,,,null,,,,
4469,,,survey-text,387,1671256,0.0-19.0-3.10,16141,List1A,black,man,,,,,"{""Q0"":""Jane and dave""}","<img src=""stim_listA/shout4.gif""style=""height:400px;""></stim_listA>",are shouting at each other,
null,"<div style=""font-size:60px;"">+</div>",,html-keyboard-response,388,1671758,0.0-19.0-0.11,16141,List1A,black,man,,,,null,,,,
null,"<img src=""stim_listA/marry8.gif""style=""height:400px;""></stim_listA>",,html-keyboard-response,389,1673760,0.0-19.0-1.11,16141,List1A,black,man,,,,null,,,,
null,are marrying each other,,html-keyboard-response,390,1675767,0.0-19.0-2.11,16141,List1A,black,man,,,,null,,,,
6208,,,survey-text,391,1681976,0.0-19.0-3.11,16141,List1A,black,man,,,,,"{""Q0"":""Jane and beth""}","<img src=""stim_listA/marry8.gif""style=""height:400px;""></stim_listA>",are marrying each other,
null,"<div style=""font-size:60px;"">+</div>",,html-keyboard-response,392,1682478,0.0-19.0-0.12,16141,List1A,black,man,,,,null,,,,
null,"<img src=""stim_listA/play8.gif""style=""height:400px;""></stim_listA>",,html-keyboard-response,393,1684481,0.0-19.0-1.12,16141,List1A,black,man,,,,null,,,,
null,are playing with each other,,html-keyboard-response,394,1686483,0.0-19.0-2.12,16141,List1A,black,man,,,,null,,,,
15076,,,survey-text,395,1701560,0.0-19.0-3.12,16141,List1A,black,man,,,,,"{""Q0"":""Ruth and jane""}","<img src=""stim_listA/play8.gif""style=""height:400px;""></stim_listA>",are playing with each other,
null,"<div style=""font-size:60px;"">+</div>",,html-keyboard-response,396,1702066,0.0-19.0-0.13,16141,List1A,black,man,,,,null,,,,
null,"<img src=""stim_listA/shout7.gif""style=""height:400px;""></stim_listA>",,html-keyboard-response,397,1704071,0.0-19.0-1.13,16141,List1A,black,man,,,,null,,,,
null,is shouting at,,html-keyboard-response,398,1706075,0.0-19.0-2.13,16141,List1A,black,man,,,,null,,,,
12236,,,survey-text,399,1718312,0.0-19.0-3.13,16141,List1A,black,man,,,,,"{""Q0"":""Fred and jane""}","<img src=""stim_listA/shout7.gif""style=""height:400px;""></stim_listA>",is shouting at,
null,"<div style=""font-size:60px;"">+</div>",,html-keyboard-response,400,1718813,0.0-19.0-0.14,16141,List1A,black,man,,,,null,,,,
null,"<img src=""stim_listA/play3.gif""style=""height:400px;""></stim_listA>",,html-keyboard-response,401,1720818,0.0-19.0-1.14,16141,List1A,black,man,,,,null,,,,
null,is playing with,,html-keyboard-response,402,1722820,0.0-19.0-2.14,16141,List1A,black,man,,,,null,,,,
7882,,,survey-text,403,1730703,0.0-19.0-3.14,16141,List1A,black,man,,,,,"{""Q0"":""Dave and Jane""}","<img src=""stim_listA/play3.gif""style=""height:400px;""></stim_listA>",is playing with,
null,"<div style=""font-size:60px;"">+</div>",,html-keyboard-response,404,1731209,0.0-19.0-0.15,16141,List1A,black,man,,,,null,,,,
null,"<img src=""stim_listA/shout3.gif""style=""height:400px;""></stim_listA>",,html-keyboard-response,405,1733215,0.0-19.0-1.15,16141,List1A,black,man,,,,null,,,,
null,is shouting at,,html-keyboard-response,406,1735216,0.0-19.0-2.15,16141,List1A,black,man,,,,null,,,,
5038,,,survey-text,407,1740255,0.0-19.0-3.15,16141,List1A,black,man,,,,,"{""Q0"":""Luke and Ruth""}","<img src=""stim_listA/shout3.gif""style=""height:400px;""></stim_listA>",is shouting at,
null,"<div style=""font-size:60px;"">+</div>",,html-keyboard-response,408,1740762,0.0-19.0-0.16,16141,List1A,black,man,,,,null,,,,
null,"<img src=""stim_listA/talk1.gif""style=""height:400px;""></stim_listA>",,html-keyboard-response,409,1742765,0.0-19.0-1.16,16141,List1A,black,man,,,,null,,,,
null,is talking to,,html-keyboard-response,410,1744765,0.0-19.0-2.16,16141,List1A,black,man,,,,null,,,,
7593,,,survey-text,411,1752359,0.0-19.0-3.16,16141,List1A,black,man,,,,,"{""Q0"":""Fred and Kate""}","<img src=""stim_listA/talk1.gif""style=""height:400px;""></stim_listA>",is talking to,
null,"<div style=""font-size:60px;"">+</div>",,html-keyboard-response,412,1752861,0.0-19.0-0.17,16141,List1A,black,man,,,,null,,,,
null,"<img src=""stim_listA/kiss8.gif""style=""height:400px;""></stim_listA>",,html-keyboard-response,413,1754864,0.0-19.0-1.17,16141,List1A,black,man,,,,null,,,,
null,are kissing each other,,html-keyboard-response,414,1756865,0.0-19.0-2.17,16141,List1A,black,man,,,,null,,,,
5325,,,survey-text,415,1762190,0.0-19.0-3.17,16141,List1A,black,man,,,,,"{""Q0"":""Kate and Jane""}","<img src=""stim_listA/kiss8.gif""style=""height:400px;""></stim_listA>",are kissing each other,
null,"<div style=""font-size:60px;"">+</div>",,html-keyboard-response,416,1762692,0.0-19.0-0.18,16141,List1A,black,man,,,,null,,,,
null,"<img src=""stim_listA/dance3.gif""style=""height:400px;""></stim_listA>",,html-keyboard-response,417,1764695,0.0-19.0-1.18,16141,List1A,black,man,,,,null,,,,
null,is dancing with,,html-keyboard-response,418,1766697,0.0-19.0-2.18,16141,List1A,black,man,,,,null,,,,
4405,,,survey-text,419,1771103,0.0-19.0-3.18,16141,List1A,black,man,,,,,"{""Q0"":""Jane and luke""}","<img src=""stim_listA/dance3.gif""style=""height:400px;""></stim_listA>",is dancing with,
null,"<div style=""font-size:60px;"">+</div>",,html-keyboard-response,420,1771608,0.0-19.0-0.19,16141,List1A,black,man,,,,null,,,,
null,"<img src=""stim_listA/shout2.gif""style=""height:400px;""></stim_listA>",,html-keyboard-response,421,1773613,0.0-19.0-1.19,16141,List1A,black,man,,,,null,,,,
null,are shouting at each other,,html-keyboard-response,422,1775614,0.0-19.0-2.19,16141,List1A,black,man,,,,null,,,,
4120,,,survey-text,423,1779735,0.0-19.0-3.19,16141,List1A,black,man,,,,,"{""Q0"":""Kate and Mike""}","<img src=""stim_listA/shout2.gif""style=""height:400px;""></stim_listA>",are shouting at each other,
3494,<p>Thank you for completing that task.</p><p>The final part of this session is a short questionnaire.</p><p>Press Continue.</p>,0,html-button-response,424,1783230,0.0-20.0,16141,List1A,black,man,,,,,,,,
30533,,,survey-text,425,1814766,0.0-21.0,16141,List1A,black,man,,,,,"{""Q0"":""19"",""Q1"":""english"",""Q2"":""wolof"",""Q3"":""United sates"",""Q4"":""African american"",""Q5"":""Male""}",,,demographics
9183,,,survey-likert,426,1823950,0.0-22.0,16141,List1A,black,man,,,,,"{""Q0"":3}",,,likert_ESS
7422,,,survey-likert,427,1831373,0.0-23.0,16141,List1A,black,man,,,,,"{""Q0"":4}",,,likert_NSSAL_Q1
8863,,,survey-likert,428,1840238,0.0-24.0,16141,List1A,black,man,,,,,"{""Q0"":4}",,,likert_NSSAL_Q2
5567,,,survey-likert,429,1845806,0.0-25.0,16141,List1A,black,man,,,,,"{""Q0"":4}",,,likert_CGRS_Q1
5222,,,survey-likert,430,1851029,0.0-26.0,16141,List1A,black,man,,,,,"{""Q0"":4}",,,likert_CGRS_Q2
3143,,,survey-likert,431,1854173,0.0-27.0,16141,List1A,black,man,,,,,"{""Q0"":4}",,,likert_CGRS_Q3
9999,,,survey-text,432,1864173,0.0-28.0,16141,List1A,black,man,,,,,"{""Q0"":""ccc""}",,,worker_id
3556,,,external-html,433,1867909,0.0-29.0,16141,List1A,black,man,debrief.html,,,,,,,
