rt,stimulus,button_pressed,trial_type,trial_index,time_elapsed,internal_node_id,subject,list,ppt_race,ppt_gender,url,first_guess,correct,key_press,responses,image_type,phrase_type,test_part
1194,Welcome to the experiment. Press Continue to begin.,0,html-button-response,0,1197,0.0-0.0,16904,List2A,white,woman,,,,,,,,
4047,,,external-html,1,6297,0.0-1.0,16904,List2A,white,woman,consent.html,,,,,,,
8613,"<p>On the next page, you will see portraits of 8 people and their names.</p><p>Your first task is to take a few minutes to memorise the names of these people.</p><p>You will have to recall their names during the rest of the experiment, so it is</p><p>essential that you try to memorise these people and their names as best as you can.</p><br><p><strong>You will then be tested on your memory of these names and portraits.</strong></p><br><p>The experiment will start after you have completed this memory test.</p><br><p>Ready?</p>",0,html-button-response,2,14912,0.0-2.0,16904,List2A,white,woman,,,,,,,,
47797,"<img src='img/portrait_matrix_list2.jpg' style='width:900px;height:500px;''></img><p>If you have memorised all the portraits and names and are ready to start, press Continue.</p><p><strong>Please note: Your memory of these faces will be tested 4 times during this experiment.</strong></p>",0,html-button-response,3,63712,0.0-3.0-0.0,16904,List2A,white,woman,,,,,,,,
6242,"<img src=""portrait/BW2.jpg""style=""height:400px;""></img>",1,html-button-response,4,70958,0.0-3.0-1.0,16904,List2A,white,woman,,TRUE,2,,,,,
3370,"<img src=""portrait/BW2.jpg""style=""height:400px;""></img>",1,html-button-response,5,75334,0.0-3.0-3.0-0.0,16904,List2A,white,woman,,FALSE,2,,,,,
null,INCORRECT,,html-keyboard-response,6,76867,0.0-3.0-3.0-2.0-0.0,16904,List2A,white,woman,,,,null,,,,
3374,"<img src=""portrait/WW2.jpg""style=""height:400px;""></img>",3,html-button-response,7,80250,0.0-3.0-4.0,16904,List2A,white,woman,,TRUE,3,,,,,
null,CORRECT,,html-keyboard-response,8,81764,0.0-3.0-5.0-0.0,16904,List2A,white,woman,,,,null,,,,
1988,"<img src=""portrait/WM1.jpg""style=""height:400px;""></img>",7,html-button-response,9,83754,0.0-3.0-7.0,16904,List2A,white,woman,,TRUE,6,,,,,
6589,"<img src=""portrait/WM1.jpg""style=""height:400px;""></img>",6,html-button-response,10,91345,0.0-3.0-9.0-0.0,16904,List2A,white,woman,,FALSE,6,,,,,
null,CORRECT,,html-keyboard-response,11,92854,0.0-3.0-9.0-1.0-0.0,16904,List2A,white,woman,,,,null,,,,
1982,"<img src=""portrait/BM2.jpg""style=""height:400px;""></img>",5,html-button-response,12,94838,0.0-3.0-10.0,16904,List2A,white,woman,,TRUE,5,,,,,
null,CORRECT,,html-keyboard-response,13,96349,0.0-3.0-11.0-0.0,16904,List2A,white,woman,,,,null,,,,
2330,"<img src=""portrait/BW1.jpg""style=""height:400px;""></img>",1,html-button-response,14,98680,0.0-3.0-13.0,16904,List2A,white,woman,,TRUE,0,,,,,
2655,"<img src=""portrait/BW1.jpg""style=""height:400px;""></img>",0,html-button-response,15,102350,0.0-3.0-15.0-0.0,16904,List2A,white,woman,,FALSE,0,,,,,
null,CORRECT,,html-keyboard-response,16,103857,0.0-3.0-15.0-1.0-0.0,16904,List2A,white,woman,,,,null,,,,
1710,"<img src=""portrait/BM1.jpg""style=""height:400px;""></img>",4,html-button-response,17,105570,0.0-3.0-16.0,16904,List2A,white,woman,,TRUE,4,,,,,
null,CORRECT,,html-keyboard-response,18,107096,0.0-3.0-17.0-0.0,16904,List2A,white,woman,,,,null,,,,
4649,"<img src=""portrait/WM2.jpg""style=""height:400px;""></img>",6,html-button-response,19,111745,0.0-3.0-19.0,16904,List2A,white,woman,,TRUE,7,,,,,
1104,"<img src=""portrait/WM2.jpg""style=""height:400px;""></img>",7,html-button-response,20,113868,0.0-3.0-21.0-0.0,16904,List2A,white,woman,,FALSE,7,,,,,
null,CORRECT,,html-keyboard-response,21,115384,0.0-3.0-21.0-1.0-0.0,16904,List2A,white,woman,,,,null,,,,
2265,"<img src=""portrait/WW1.jpg""style=""height:400px;""></img>",2,html-button-response,22,117651,0.0-3.0-22.0,16904,List2A,white,woman,,TRUE,1,,,,,
2003,"<img src=""portrait/WW1.jpg""style=""height:400px;""></img>",1,html-button-response,23,120657,0.0-3.0-24.0-0.0,16904,List2A,white,woman,,FALSE,1,,,,,
null,CORRECT,,html-keyboard-response,24,122182,0.0-3.0-24.0-1.0-0.0,16904,List2A,white,woman,,,,null,,,,
1575,<p>You got 3 out of 8 right first time. Press Continue.</p>,0,html-button-response,25,123759,0.0-3.0-25.0,16904,List2A,white,woman,,,,,,,,
2212,"As you did not score 100%, the memory game will repeat. Press Continue.",0,html-button-response,26,126979,0.0-3.0-26.0-0.0,16904,List2A,white,woman,,,,,,,,
39062,"<img src='img/portrait_matrix_list2.jpg' style='width:900px;height:500px;''></img><p>If you have memorised all the portraits and names and are ready to start, press Continue.</p><p><strong>Please note: Your memory of these faces will be tested 4 times during this experiment.</strong></p>",0,html-button-response,27,167044,0.0-3.1-0.1,16904,List2A,white,woman,,,,,,,,
3118,"<img src=""portrait/BW2.jpg""style=""height:400px;""></img>",2,html-button-response,28,171165,0.0-3.1-1.1,16904,List2A,white,woman,,TRUE,2,,,,,
null,CORRECT,,html-keyboard-response,29,172680,0.0-3.1-2.1-0.1,16904,List2A,white,woman,,,,null,,,,
4323,"<img src=""portrait/WW2.jpg""style=""height:400px;""></img>",3,html-button-response,30,177005,0.0-3.1-4.1,16904,List2A,white,woman,,TRUE,3,,,,,
null,CORRECT,,html-keyboard-response,31,178513,0.0-3.1-5.1-0.1,16904,List2A,white,woman,,,,null,,,,
2449,"<img src=""portrait/WM1.jpg""style=""height:400px;""></img>",6,html-button-response,32,180965,0.0-3.1-7.1,16904,List2A,white,woman,,TRUE,6,,,,,
null,CORRECT,,html-keyboard-response,33,182496,0.0-3.1-8.1-0.1,16904,List2A,white,woman,,,,null,,,,
1375,"<img src=""portrait/BM2.jpg""style=""height:400px;""></img>",5,html-button-response,34,183873,0.0-3.1-10.1,16904,List2A,white,woman,,TRUE,5,,,,,
null,CORRECT,,html-keyboard-response,35,185376,0.0-3.1-11.1-0.1,16904,List2A,white,woman,,,,null,,,,
7969,"<img src=""portrait/BW1.jpg""style=""height:400px;""></img>",2,html-button-response,36,193347,0.0-3.1-13.1,16904,List2A,white,woman,,TRUE,0,,,,,
2125,"<img src=""portrait/BW1.jpg""style=""height:400px;""></img>",0,html-button-response,37,196475,0.0-3.1-15.1-0.1,16904,List2A,white,woman,,FALSE,0,,,,,
null,CORRECT,,html-keyboard-response,38,197982,0.0-3.1-15.1-1.1-0.1,16904,List2A,white,woman,,,,null,,,,
2753,"<img src=""portrait/BM1.jpg""style=""height:400px;""></img>",4,html-button-response,39,200737,0.0-3.1-16.1,16904,List2A,white,woman,,TRUE,4,,,,,
null,CORRECT,,html-keyboard-response,40,202264,0.0-3.1-17.1-0.1,16904,List2A,white,woman,,,,null,,,,
3279,"<img src=""portrait/WM2.jpg""style=""height:400px;""></img>",7,html-button-response,41,205545,0.0-3.1-19.1,16904,List2A,white,woman,,TRUE,7,,,,,
null,CORRECT,,html-keyboard-response,42,207064,0.0-3.1-20.1-0.1,16904,List2A,white,woman,,,,null,,,,
3007,"<img src=""portrait/WW1.jpg""style=""height:400px;""></img>",1,html-button-response,43,210073,0.0-3.1-22.1,16904,List2A,white,woman,,TRUE,1,,,,,
null,CORRECT,,html-keyboard-response,44,211580,0.0-3.1-23.1-0.1,16904,List2A,white,woman,,,,null,,,,
1201,<p>You got 7 out of 8 right first time. Press Continue.</p>,0,html-button-response,45,212783,0.0-3.1-25.1,16904,List2A,white,woman,,,,,,,,
1142,"As you did not score 100%, the memory game will repeat. Press Continue.",0,html-button-response,46,214927,0.0-3.1-26.1-0.1,16904,List2A,white,woman,,,,,,,,
1187,"<img src='img/portrait_matrix_list2.jpg' style='width:900px;height:500px;''></img><p>If you have memorised all the portraits and names and are ready to start, press Continue.</p><p><strong>Please note: Your memory of these faces will be tested 4 times during this experiment.</strong></p>",0,html-button-response,47,217130,0.0-3.2-0.2,16904,List2A,white,woman,,,,,,,,
2771,"<img src=""portrait/BW2.jpg""style=""height:400px;""></img>",2,html-button-response,48,220919,0.0-3.2-1.2,16904,List2A,white,woman,,TRUE,2,,,,,
null,CORRECT,,html-keyboard-response,49,222421,0.0-3.2-2.2-0.2,16904,List2A,white,woman,,,,null,,,,
2958,"<img src=""portrait/WW2.jpg""style=""height:400px;""></img>",3,html-button-response,50,225381,0.0-3.2-4.2,16904,List2A,white,woman,,TRUE,3,,,,,
null,CORRECT,,html-keyboard-response,51,226884,0.0-3.2-5.2-0.2,16904,List2A,white,woman,,,,null,,,,
2311,"<img src=""portrait/WM1.jpg""style=""height:400px;""></img>",6,html-button-response,52,229197,0.0-3.2-7.2,16904,List2A,white,woman,,TRUE,6,,,,,
null,CORRECT,,html-keyboard-response,53,230731,0.0-3.2-8.2-0.2,16904,List2A,white,woman,,,,null,,,,
1363,"<img src=""portrait/BM2.jpg""style=""height:400px;""></img>",5,html-button-response,54,232096,0.0-3.2-10.2,16904,List2A,white,woman,,TRUE,5,,,,,
null,CORRECT,,html-keyboard-response,55,233613,0.0-3.2-11.2-0.2,16904,List2A,white,woman,,,,null,,,,
2059,"<img src=""portrait/BW1.jpg""style=""height:400px;""></img>",0,html-button-response,56,235674,0.0-3.2-13.2,16904,List2A,white,woman,,TRUE,0,,,,,
null,CORRECT,,html-keyboard-response,57,237176,0.0-3.2-14.2-0.2,16904,List2A,white,woman,,,,null,,,,
1509,"<img src=""portrait/BM1.jpg""style=""height:400px;""></img>",4,html-button-response,58,238688,0.0-3.2-16.2,16904,List2A,white,woman,,TRUE,4,,,,,
null,CORRECT,,html-keyboard-response,59,240199,0.0-3.2-17.2-0.2,16904,List2A,white,woman,,,,null,,,,
2668,"<img src=""portrait/WM2.jpg""style=""height:400px;""></img>",7,html-button-response,60,242870,0.0-3.2-19.2,16904,List2A,white,woman,,TRUE,7,,,,,
null,CORRECT,,html-keyboard-response,61,244372,0.0-3.2-20.2-0.2,16904,List2A,white,woman,,,,null,,,,
2195,"<img src=""portrait/WW1.jpg""style=""height:400px;""></img>",1,html-button-response,62,246570,0.0-3.2-22.2,16904,List2A,white,woman,,TRUE,1,,,,,
null,CORRECT,,html-keyboard-response,63,248079,0.0-3.2-23.2-0.2,16904,List2A,white,woman,,,,null,,,,
1331,<p>You got 8 out of 8 right first time. Press Continue.</p>,0,html-button-response,64,249412,0.0-3.2-25.2,16904,List2A,white,woman,,,,,,,,
14630,"<p>In this experiment, you will view photographs of the people from the memory game interacting.</p><p>By using the <strong>exact</strong> phrase given <i>after</i> the photograph appears and recalling the correct names of the people in the photographs, form a sentence describing the interaction. You do not need to capitalise names.</p><p>Type your answer in the space provided. Please complete every sentence before moving onto the next trial.</p><p>You will only have a few seconds to memorise each given photograph and phrase before you can respond, so try your best to focus.</p><p>An example is given below. Press 'Continue' when you are ready.</p><img src='img/speaking_example.jpg' style='width:800px;height:460px;''></img>",0,html-button-response,65,265056,0.0-4.0,16904,List2A,white,woman,,,,,,,,
1169,"<p>Before the experiment starts, you will watch two example trials. Press 'Continue'.</p>",0,html-button-response,66,267233,0.0-5.0,16904,List2A,white,woman,,,,,,,,
null,<img src='img/meet_eg.gif' style='height:400px;''></img>,,html-keyboard-response,67,270249,0.0-6.0,16904,List2A,white,woman,,,,null,,,,
null,<p>is meeting</p>,,html-keyboard-response,68,272262,0.0-7.0,16904,List2A,white,woman,,,,null,,,,
2715,<p><b>Answer:</b> jane is meeting ruth</p>,0,html-button-response,69,274977,0.0-8.0,16904,List2A,white,woman,,,,,,,,
null,<img src='img/look_eg.gif' style='height:400px;''></img>,,html-keyboard-response,70,277982,0.0-9.0,16904,List2A,white,woman,,,,null,,,,
null,<p>are looking at each other</p>,,html-keyboard-response,71,279993,0.0-10.0,16904,List2A,white,woman,,,,null,,,,
3711,<p><b>Answer:</b> fred and mike are looking at each other</p>,0,html-button-response,72,283705,0.0-11.0,16904,List2A,white,woman,,,,,,,,
8826,"<p>Ready to start the experiment?</p><br><p><strong>Remember to describe the picture using a full sentence,</strong></p><p><strong>that combines the names of the people with the <i>exact</i> phrase given.</strong></p><p><strong>To receive full payment you must do this correctly.</strong></p><p><strong> You do not need to capitalise names or use punctuation.</strong></p><br><p>Press 'Continue' to begin.</p>",0,html-button-response,73,293533,0.0-12.0,16904,List2A,white,woman,,,,,,,,
null,"<div style=""font-size:60px;"">+</div>",,html-keyboard-response,74,295036,0.0-13.0-0.0,16904,List2A,white,woman,,,,null,,,,
null,"<img src=""stim_listA/argue8.gif""style=""height:400px;""></stim_listA>",,html-keyboard-response,75,297046,0.0-13.0-1.0,16904,List2A,white,woman,,,,null,,,,
null,are arguing with each other,,html-keyboard-response,76,299062,0.0-13.0-2.0,16904,List2A,white,woman,,,,null,,,,
13474,,,survey-text,77,312538,0.0-13.0-3.0,16904,List2A,white,woman,,,,,"{""Q0"":""ruth and kate are arguing with each other ""}","<img src=""stim_listA/argue8.gif""style=""height:400px;""></stim_listA>",are arguing with each other,
null,"<div style=""font-size:60px;"">+</div>",,html-keyboard-response,78,313043,0.0-13.0-0.1,16904,List2A,white,woman,,,,null,,,,
null,"<img src=""stim_listA/kiss7.gif""style=""height:400px;""></stim_listA>",,html-keyboard-response,79,315047,0.0-13.0-1.1,16904,List2A,white,woman,,,,null,,,,
null,is kissing,,html-keyboard-response,80,317062,0.0-13.0-2.1,16904,List2A,white,woman,,,,null,,,,
13312,,,survey-text,81,330376,0.0-13.0-3.1,16904,List2A,white,woman,,,,,"{""Q0"":""ruth and beth are kissing""}","<img src=""stim_listA/kiss7.gif""style=""height:400px;""></stim_listA>",is kissing,
null,"<div style=""font-size:60px;"">+</div>",,html-keyboard-response,82,330877,0.0-13.0-0.2,16904,List2A,white,woman,,,,null,,,,
null,"<img src=""stim_listA/shout8.gif""style=""height:400px;""></stim_listA>",,html-keyboard-response,83,332879,0.0-13.0-1.2,16904,List2A,white,woman,,,,null,,,,
null,are shouting at each other,,html-keyboard-response,84,334880,0.0-13.0-2.2,16904,List2A,white,woman,,,,null,,,,
11538,,,survey-text,85,346419,0.0-13.0-3.2,16904,List2A,white,woman,,,,,"{""Q0"":""jane and kate are shouting at each other ""}","<img src=""stim_listA/shout8.gif""style=""height:400px;""></stim_listA>",are shouting at each other,
null,"<div style=""font-size:60px;"">+</div>",,html-keyboard-response,86,346920,0.0-13.0-0.3,16904,List2A,white,woman,,,,null,,,,
null,"<img src=""stim_listA/marry4.gif""style=""height:400px;""></stim_listA>",,html-keyboard-response,87,348925,0.0-13.0-1.3,16904,List2A,white,woman,,,,null,,,,
null,are marrying each other,,html-keyboard-response,88,350926,0.0-13.0-2.3,16904,List2A,white,woman,,,,null,,,,
7790,,,survey-text,89,358717,0.0-13.0-3.3,16904,List2A,white,woman,,,,,"{""Q0"":""fred and kate are marrying each other ""}","<img src=""stim_listA/marry4.gif""style=""height:400px;""></stim_listA>",are marrying each other,
null,"<div style=""font-size:60px;"">+</div>",,html-keyboard-response,90,359227,0.0-13.0-0.4,16904,List2A,white,woman,,,,null,,,,
null,"<img src=""stim_listA/fight7.gif""style=""height:400px;""></stim_listA>",,html-keyboard-response,91,361230,0.0-13.0-1.4,16904,List2A,white,woman,,,,null,,,,
null,is fighting,,html-keyboard-response,92,363232,0.0-13.0-2.4,16904,List2A,white,woman,,,,null,,,,
16442,,,survey-text,93,379675,0.0-13.0-3.4,16904,List2A,white,woman,,,,,"{""Q0"":""kate and jane are pushing each other""}","<img src=""stim_listA/fight7.gif""style=""height:400px;""></stim_listA>",is fighting,
null,"<div style=""font-size:60px;"">+</div>",,html-keyboard-response,94,380176,0.0-13.0-0.5,16904,List2A,white,woman,,,,null,,,,
null,"<img src=""stim_listA/shout5.gif""style=""height:400px;""></stim_listA>",,html-keyboard-response,95,382178,0.0-13.0-1.5,16904,List2A,white,woman,,,,null,,,,
null,is shouting at,,html-keyboard-response,96,384180,0.0-13.0-2.5,16904,List2A,white,woman,,,,null,,,,
8603,,,survey-text,97,392785,0.0-13.0-3.5,16904,List2A,white,woman,,,,,"{""Q0"":""fred is shouting at luke""}","<img src=""stim_listA/shout5.gif""style=""height:400px;""></stim_listA>",is shouting at,
null,"<div style=""font-size:60px;"">+</div>",,html-keyboard-response,98,393296,0.0-13.0-0.6,16904,List2A,white,woman,,,,null,,,,
null,"<img src=""stim_listA/play2.gif""style=""height:400px;""></stim_listA>",,html-keyboard-response,99,395298,0.0-13.0-1.6,16904,List2A,white,woman,,,,null,,,,
null,are playing with each other,,html-keyboard-response,100,397300,0.0-13.0-2.6,16904,List2A,white,woman,,,,null,,,,
6959,,,survey-text,101,404261,0.0-13.0-3.6,16904,List2A,white,woman,,,,,"{""Q0"":""ruth and luke are playing with each other ""}","<img src=""stim_listA/play2.gif""style=""height:400px;""></stim_listA>",are playing with each other,
null,"<div style=""font-size:60px;"">+</div>",,html-keyboard-response,102,404762,0.0-13.0-0.7,16904,List2A,white,woman,,,,null,,,,
null,"<img src=""stim_listA/flirt3.gif""style=""height:400px;""></stim_listA>",,html-keyboard-response,103,406773,0.0-13.0-1.7,16904,List2A,white,woman,,,,null,,,,
null,is flirting with,,html-keyboard-response,104,408780,0.0-13.0-2.7,16904,List2A,white,woman,,,,null,,,,
5957,,,survey-text,105,414739,0.0-13.0-3.7,16904,List2A,white,woman,,,,,"{""Q0"":""fred is flirting with kate ""}","<img src=""stim_listA/flirt3.gif""style=""height:400px;""></stim_listA>",is flirting with,
null,"<div style=""font-size:60px;"">+</div>",,html-keyboard-response,106,415240,0.0-13.0-0.8,16904,List2A,white,woman,,,,null,,,,
null,"<img src=""stim_listA/dance4.gif""style=""height:400px;""></stim_listA>",,html-keyboard-response,107,417242,0.0-13.0-1.8,16904,List2A,white,woman,,,,null,,,,
null,are dancing with each other,,html-keyboard-response,108,419242,0.0-13.0-2.8,16904,List2A,white,woman,,,,null,,,,
7047,,,survey-text,109,426290,0.0-13.0-3.8,16904,List2A,white,woman,,,,,"{""Q0"":""beth and mike are dancing with each other ""}","<img src=""stim_listA/dance4.gif""style=""height:400px;""></stim_listA>",are dancing with each other,
null,"<div style=""font-size:60px;"">+</div>",,html-keyboard-response,110,426792,0.0-13.0-0.9,16904,List2A,white,woman,,,,null,,,,
null,"<img src=""stim_listA/touch1.gif""style=""height:400px;""></stim_listA>",,html-keyboard-response,111,428794,0.0-13.0-1.9,16904,List2A,white,woman,,,,null,,,,
null,is touching,,html-keyboard-response,112,430796,0.0-13.0-2.9,16904,List2A,white,woman,,,,null,,,,
9291,,,survey-text,113,440088,0.0-13.0-3.9,16904,List2A,white,woman,,,,,"{""Q0"":""jane and dave are touching ""}","<img src=""stim_listA/touch1.gif""style=""height:400px;""></stim_listA>",is touching,
null,"<div style=""font-size:60px;"">+</div>",,html-keyboard-response,114,440590,0.0-13.0-0.10,16904,List2A,white,woman,,,,null,,,,
null,"<img src=""stim_listA/fight2.gif""style=""height:400px;""></stim_listA>",,html-keyboard-response,115,442593,0.0-13.0-1.10,16904,List2A,white,woman,,,,null,,,,
null,are fighting each other,,html-keyboard-response,116,444594,0.0-13.0-2.10,16904,List2A,white,woman,,,,null,,,,
6764,,,survey-text,117,451358,0.0-13.0-3.10,16904,List2A,white,woman,,,,,"{""Q0"":""ruth and luke are fighting each other ""}","<img src=""stim_listA/fight2.gif""style=""height:400px;""></stim_listA>",are fighting each other,
null,"<div style=""font-size:60px;"">+</div>",,html-keyboard-response,118,451860,0.0-13.0-0.11,16904,List2A,white,woman,,,,null,,,,
null,"<img src=""stim_listA/touch4.gif""style=""height:400px;""></stim_listA>",,html-keyboard-response,119,453863,0.0-13.0-1.11,16904,List2A,white,woman,,,,null,,,,
null,are touching each other,,html-keyboard-response,120,455865,0.0-13.0-2.11,16904,List2A,white,woman,,,,null,,,,
11090,,,survey-text,121,466956,0.0-13.0-3.11,16904,List2A,white,woman,,,,,"{""Q0"":""fred and beth are fighting each other ""}","<img src=""stim_listA/touch4.gif""style=""height:400px;""></stim_listA>",are touching each other,
null,"<div style=""font-size:60px;"">+</div>",,html-keyboard-response,122,467462,0.0-13.0-0.12,16904,List2A,white,woman,,,,null,,,,
null,"<img src=""stim_listA/dance3.gif""style=""height:400px;""></stim_listA>",,html-keyboard-response,123,469465,0.0-13.0-1.12,16904,List2A,white,woman,,,,null,,,,
null,is dancing with,,html-keyboard-response,124,471467,0.0-13.0-2.12,16904,List2A,white,woman,,,,null,,,,
7493,,,survey-text,125,478962,0.0-13.0-3.12,16904,List2A,white,woman,,,,,"{""Q0"":""kate is dancing with fred""}","<img src=""stim_listA/dance3.gif""style=""height:400px;""></stim_listA>",is dancing with,
null,"<div style=""font-size:60px;"">+</div>",,html-keyboard-response,126,479473,0.0-13.0-0.13,16904,List2A,white,woman,,,,null,,,,
null,"<img src=""stim_listA/talk2.gif""style=""height:400px;""></stim_listA>",,html-keyboard-response,127,481476,0.0-13.0-1.13,16904,List2A,white,woman,,,,null,,,,
null,are talking to each other,,html-keyboard-response,128,483478,0.0-13.0-2.13,16904,List2A,white,woman,,,,null,,,,
6747,,,survey-text,129,490226,0.0-13.0-3.13,16904,List2A,white,woman,,,,,"{""Q0"":""ruth and dave are talking to each other ""}","<img src=""stim_listA/talk2.gif""style=""height:400px;""></stim_listA>",are talking to each other,
null,"<div style=""font-size:60px;"">+</div>",,html-keyboard-response,130,490728,0.0-13.0-0.14,16904,List2A,white,woman,,,,null,,,,
null,"<img src=""stim_listA/marry5.gif""style=""height:400px;""></stim_listA>",,html-keyboard-response,131,492731,0.0-13.0-1.14,16904,List2A,white,woman,,,,null,,,,
null,is marrying,,html-keyboard-response,132,494733,0.0-13.0-2.14,16904,List2A,white,woman,,,,null,,,,
8481,,,survey-text,133,503215,0.0-13.0-3.14,16904,List2A,white,woman,,,,,"{""Q0"":""dave and fred are marrying each other ""}","<img src=""stim_listA/marry5.gif""style=""height:400px;""></stim_listA>",is marrying,
null,"<div style=""font-size:60px;"">+</div>",,html-keyboard-response,134,503717,0.0-13.0-0.15,16904,List2A,white,woman,,,,null,,,,
null,"<img src=""stim_listA/talk8.gif""style=""height:400px;""></stim_listA>",,html-keyboard-response,135,505719,0.0-13.0-1.15,16904,List2A,white,woman,,,,null,,,,
null,are talking to each other,,html-keyboard-response,136,507720,0.0-13.0-2.15,16904,List2A,white,woman,,,,null,,,,
7652,,,survey-text,137,515374,0.0-13.0-3.15,16904,List2A,white,woman,,,,,"{""Q0"":""beth and jane are talking to each other ""}","<img src=""stim_listA/talk8.gif""style=""height:400px;""></stim_listA>",are talking to each other,
null,"<div style=""font-size:60px;"">+</div>",,html-keyboard-response,138,515875,0.0-13.0-0.16,16904,List2A,white,woman,,,,null,,,,
null,"<img src=""stim_listA/touch3.gif""style=""height:400px;""></stim_listA>",,html-keyboard-response,139,517878,0.0-13.0-1.16,16904,List2A,white,woman,,,,null,,,,
null,is touching,,html-keyboard-response,140,519895,0.0-13.0-2.16,16904,List2A,white,woman,,,,null,,,,
5124,,,survey-text,141,525019,0.0-13.0-3.16,16904,List2A,white,woman,,,,,"{""Q0"":""mike and kate is touching""}","<img src=""stim_listA/touch3.gif""style=""height:400px;""></stim_listA>",is touching,
null,"<div style=""font-size:60px;"">+</div>",,html-keyboard-response,142,525521,0.0-13.0-0.17,16904,List2A,white,woman,,,,null,,,,
null,"<img src=""stim_listA/marry3.gif""style=""height:400px;""></stim_listA>",,html-keyboard-response,143,527523,0.0-13.0-1.17,16904,List2A,white,woman,,,,null,,,,
null,is marrying,,html-keyboard-response,144,529528,0.0-13.0-2.17,16904,List2A,white,woman,,,,null,,,,
5602,,,survey-text,145,535131,0.0-13.0-3.17,16904,List2A,white,woman,,,,,"{""Q0"":""beth and mike is marrying""}","<img src=""stim_listA/marry3.gif""style=""height:400px;""></stim_listA>",is marrying,
null,"<div style=""font-size:60px;"">+</div>",,html-keyboard-response,146,535632,0.0-13.0-0.18,16904,List2A,white,woman,,,,null,,,,
null,"<img src=""stim_listA/play6.gif""style=""height:400px;""></stim_listA>",,html-keyboard-response,147,537635,0.0-13.0-1.18,16904,List2A,white,woman,,,,null,,,,
null,are playing with each other,,html-keyboard-response,148,539636,0.0-13.0-2.18,16904,List2A,white,woman,,,,null,,,,
7582,,,survey-text,149,547219,0.0-13.0-3.18,16904,List2A,white,woman,,,,,"{""Q0"":""fred and luke are playing with each other ""}","<img src=""stim_listA/play6.gif""style=""height:400px;""></stim_listA>",are playing with each other,
null,"<div style=""font-size:60px;"">+</div>",,html-keyboard-response,150,547727,0.0-13.0-0.19,16904,List2A,white,woman,,,,null,,,,
null,"<img src=""stim_listA/touch8.gif""style=""height:400px;""></stim_listA>",,html-keyboard-response,151,549742,0.0-13.0-1.19,16904,List2A,white,woman,,,,null,,,,
null,are touching each other,,html-keyboard-response,152,551743,0.0-13.0-2.19,16904,List2A,white,woman,,,,null,,,,
6141,,,survey-text,153,557885,0.0-13.0-3.19,16904,List2A,white,woman,,,,,"{""Q0"":""beth and ruth are touching each other ""}","<img src=""stim_listA/touch8.gif""style=""height:400px;""></stim_listA>",are touching each other,
70947,"<img src='img/portrait_matrix_list2.jpg' style='width:900px;height:500px;''></img><p>If you have memorised all the portraits and names and are ready to start, press Continue.</p><p><strong>Please note: Your memory of these faces will be tested 4 times during this experiment.</strong></p>",0,html-button-response,154,628833,0.0-14.0-0.0,16904,List2A,white,woman,,,,,,,,
3275,"<img src=""portrait/WW2.jpg""style=""height:400px;""></img>",3,html-button-response,155,633111,0.0-14.0-1.0,16904,List2A,white,woman,,TRUE,3,,,,,
null,CORRECT,,html-keyboard-response,156,634637,0.0-14.0-2.0-0.0,16904,List2A,white,woman,,,,null,,,,
2124,"<img src=""portrait/WM1.jpg""style=""height:400px;""></img>",6,html-button-response,157,636763,0.0-14.0-4.0,16904,List2A,white,woman,,TRUE,6,,,,,
null,CORRECT,,html-keyboard-response,158,638267,0.0-14.0-5.0-0.0,16904,List2A,white,woman,,,,null,,,,
1383,"<img src=""portrait/BM1.jpg""style=""height:400px;""></img>",4,html-button-response,159,639651,0.0-14.0-7.0,16904,List2A,white,woman,,TRUE,4,,,,,
null,CORRECT,,html-keyboard-response,160,641160,0.0-14.0-8.0-0.0,16904,List2A,white,woman,,,,null,,,,
2532,"<img src=""portrait/WM2.jpg""style=""height:400px;""></img>",7,html-button-response,161,643693,0.0-14.0-10.0,16904,List2A,white,woman,,TRUE,7,,,,,
null,CORRECT,,html-keyboard-response,162,645195,0.0-14.0-11.0-0.0,16904,List2A,white,woman,,,,null,,,,
2085,"<img src=""portrait/BW1.jpg""style=""height:400px;""></img>",0,html-button-response,163,647281,0.0-14.0-13.0,16904,List2A,white,woman,,TRUE,0,,,,,
null,CORRECT,,html-keyboard-response,164,648783,0.0-14.0-14.0-0.0,16904,List2A,white,woman,,,,null,,,,
2747,"<img src=""portrait/WW1.jpg""style=""height:400px;""></img>",1,html-button-response,165,651531,0.0-14.0-16.0,16904,List2A,white,woman,,TRUE,1,,,,,
null,CORRECT,,html-keyboard-response,166,653054,0.0-14.0-17.0-0.0,16904,List2A,white,woman,,,,null,,,,
1735,"<img src=""portrait/BM2.jpg""style=""height:400px;""></img>",5,html-button-response,167,654791,0.0-14.0-19.0,16904,List2A,white,woman,,TRUE,5,,,,,
null,CORRECT,,html-keyboard-response,168,656309,0.0-14.0-20.0-0.0,16904,List2A,white,woman,,,,null,,,,
6781,"<img src=""portrait/BW2.jpg""style=""height:400px;""></img>",2,html-button-response,169,663091,0.0-14.0-22.0,16904,List2A,white,woman,,TRUE,2,,,,,
null,CORRECT,,html-keyboard-response,170,664607,0.0-14.0-23.0-0.0,16904,List2A,white,woman,,,,null,,,,
1313,<p>You got 8 out of 8 right first time. Press Continue.</p>,0,html-button-response,171,665921,0.0-14.0-25.0,16904,List2A,white,woman,,,,,,,,
null,"<div style=""font-size:60px;"">+</div>",,html-keyboard-response,172,667429,0.0-15.0-0.0,16904,List2A,white,woman,,,,null,,,,
null,"<img src=""stim_listA/dance8.gif""style=""height:400px;""></stim_listA>",,html-keyboard-response,173,669432,0.0-15.0-1.0,16904,List2A,white,woman,,,,null,,,,
null,are dancing with each other,,html-keyboard-response,174,671442,0.0-15.0-2.0,16904,List2A,white,woman,,,,null,,,,
11371,,,survey-text,175,682815,0.0-15.0-3.0,16904,List2A,white,woman,,,,,"{""Q0"":""beth and jane are dancing with each other ""}","<img src=""stim_listA/dance8.gif""style=""height:400px;""></stim_listA>",are dancing with each other,
null,"<div style=""font-size:60px;"">+</div>",,html-keyboard-response,176,683330,0.0-15.0-0.1,16904,List2A,white,woman,,,,null,,,,
null,"<img src=""stim_listA/flirt5.gif""style=""height:400px;""></stim_listA>",,html-keyboard-response,177,685333,0.0-15.0-1.1,16904,List2A,white,woman,,,,null,,,,
null,is flirting with,,html-keyboard-response,178,687335,0.0-15.0-2.1,16904,List2A,white,woman,,,,null,,,,
5683,,,survey-text,179,693018,0.0-15.0-3.1,16904,List2A,white,woman,,,,,"{""Q0"":""mike is flirting with luke ""}","<img src=""stim_listA/flirt5.gif""style=""height:400px;""></stim_listA>",is flirting with,
null,"<div style=""font-size:60px;"">+</div>",,html-keyboard-response,180,693523,0.0-15.0-0.2,16904,List2A,white,woman,,,,null,,,,
null,"<img src=""stim_listA/touch7.gif""style=""height:400px;""></stim_listA>",,html-keyboard-response,181,695526,0.0-15.0-1.2,16904,List2A,white,woman,,,,null,,,,
null,is touching,,html-keyboard-response,182,697528,0.0-15.0-2.2,16904,List2A,white,woman,,,,null,,,,
6125,,,survey-text,183,703655,0.0-15.0-3.2,16904,List2A,white,woman,,,,,"{""Q0"":""jane is touching kate""}","<img src=""stim_listA/touch7.gif""style=""height:400px;""></stim_listA>",is touching,
null,"<div style=""font-size:60px;"">+</div>",,html-keyboard-response,184,704157,0.0-15.0-0.3,16904,List2A,white,woman,,,,null,,,,
null,"<img src=""stim_listA/shout7.gif""style=""height:400px;""></stim_listA>",,html-keyboard-response,185,706160,0.0-15.0-1.3,16904,List2A,white,woman,,,,null,,,,
null,is shouting at,,html-keyboard-response,186,708162,0.0-15.0-2.3,16904,List2A,white,woman,,,,null,,,,
4615,,,survey-text,187,712778,0.0-15.0-3.3,16904,List2A,white,woman,,,,,"{""Q0"":""ruth is shouting at beth ""}","<img src=""stim_listA/shout7.gif""style=""height:400px;""></stim_listA>",is shouting at,
null,"<div style=""font-size:60px;"">+</div>",,html-keyboard-response,188,713290,0.0-15.0-0.4,16904,List2A,white,woman,,,,null,,,,
null,"<img src=""stim_listA/play7.gif""style=""height:400px;""></stim_listA>",,html-keyboard-response,189,715294,0.0-15.0-1.4,16904,List2A,white,woman,,,,null,,,,
null,is playing with,,html-keyboard-response,190,717304,0.0-15.0-2.4,16904,List2A,white,woman,,,,null,,,,
6077,,,survey-text,191,723383,0.0-15.0-3.4,16904,List2A,white,woman,,,,,"{""Q0"":""jane is playing with kate ""}","<img src=""stim_listA/play7.gif""style=""height:400px;""></stim_listA>",is playing with,
null,"<div style=""font-size:60px;"">+</div>",,html-keyboard-response,192,723884,0.0-15.0-0.5,16904,List2A,white,woman,,,,null,,,,
null,"<img src=""stim_listA/fight6.gif""style=""height:400px;""></stim_listA>",,html-keyboard-response,193,725889,0.0-15.0-1.5,16904,List2A,white,woman,,,,null,,,,
null,are fighting each other,,html-keyboard-response,194,727891,0.0-15.0-2.5,16904,List2A,white,woman,,,,null,,,,
8651,,,survey-text,195,736542,0.0-15.0-3.5,16904,List2A,white,woman,,,,,"{""Q0"":""fred and luke are ighting each other ""}","<img src=""stim_listA/fight6.gif""style=""height:400px;""></stim_listA>",are fighting each other,
null,"<div style=""font-size:60px;"">+</div>",,html-keyboard-response,196,737043,0.0-15.0-0.6,16904,List2A,white,woman,,,,null,,,,
null,"<img src=""stim_listA/flirt2.gif""style=""height:400px;""></stim_listA>",,html-keyboard-response,197,739053,0.0-15.0-1.6,16904,List2A,white,woman,,,,null,,,,
null,are flirting with each other,,html-keyboard-response,198,741069,0.0-15.0-2.6,16904,List2A,white,woman,,,,null,,,,
6540,,,survey-text,199,747610,0.0-15.0-3.6,16904,List2A,white,woman,,,,,"{""Q0"":""ruth and dave are flirting with each other ""}","<img src=""stim_listA/flirt2.gif""style=""height:400px;""></stim_listA>",are flirting with each other,
null,"<div style=""font-size:60px;"">+</div>",,html-keyboard-response,200,748124,0.0-15.0-0.7,16904,List2A,white,woman,,,,null,,,,
null,"<img src=""stim_listA/fight8.gif""style=""height:400px;""></stim_listA>",,html-keyboard-response,201,750127,0.0-15.0-1.7,16904,List2A,white,woman,,,,null,,,,
null,are fighting each other,,html-keyboard-response,202,752129,0.0-15.0-2.7,16904,List2A,white,woman,,,,null,,,,
6100,,,survey-text,203,758230,0.0-15.0-3.7,16904,List2A,white,woman,,,,,"{""Q0"":""ruth and beth are fighting eachother ""}","<img src=""stim_listA/fight8.gif""style=""height:400px;""></stim_listA>",are fighting each other,
null,"<div style=""font-size:60px;"">+</div>",,html-keyboard-response,204,758741,0.0-15.0-0.8,16904,List2A,white,woman,,,,null,,,,
null,"<img src=""stim_listA/kiss5.gif""style=""height:400px;""></stim_listA>",,html-keyboard-response,205,760745,0.0-15.0-1.8,16904,List2A,white,woman,,,,null,,,,
null,is kissing,,html-keyboard-response,206,762757,0.0-15.0-2.8,16904,List2A,white,woman,,,,null,,,,
4525,,,survey-text,207,767282,0.0-15.0-3.8,16904,List2A,white,woman,,,,,"{""Q0"":""luke is kissing fred ""}","<img src=""stim_listA/kiss5.gif""style=""height:400px;""></stim_listA>",is kissing,
null,"<div style=""font-size:60px;"">+</div>",,html-keyboard-response,208,767785,0.0-15.0-0.9,16904,List2A,white,woman,,,,null,,,,
null,"<img src=""stim_listA/dance2.gif""style=""height:400px;""></stim_listA>",,html-keyboard-response,209,769794,0.0-15.0-1.9,16904,List2A,white,woman,,,,null,,,,
null,are dancing with each other,,html-keyboard-response,210,771797,0.0-15.0-2.9,16904,List2A,white,woman,,,,null,,,,
6799,,,survey-text,211,778598,0.0-15.0-3.9,16904,List2A,white,woman,,,,,"{""Q0"":""ruth and dave are dancing with each other ""}","<img src=""stim_listA/dance2.gif""style=""height:400px;""></stim_listA>",are dancing with each other,
null,"<div style=""font-size:60px;"">+</div>",,html-keyboard-response,212,779110,0.0-15.0-0.10,16904,List2A,white,woman,,,,null,,,,
null,"<img src=""stim_listA/argue5.gif""style=""height:400px;""></stim_listA>",,html-keyboard-response,213,781113,0.0-15.0-1.10,16904,List2A,white,woman,,,,null,,,,
null,is arguing with,,html-keyboard-response,214,783114,0.0-15.0-2.10,16904,List2A,white,woman,,,,null,,,,
4678,,,survey-text,215,787794,0.0-15.0-3.10,16904,List2A,white,woman,,,,,"{""Q0"":""dave is arguing with fred""}","<img src=""stim_listA/argue5.gif""style=""height:400px;""></stim_listA>",is arguing with,
null,"<div style=""font-size:60px;"">+</div>",,html-keyboard-response,216,788295,0.0-15.0-0.11,16904,List2A,white,woman,,,,null,,,,
null,"<img src=""stim_listA/play5.gif""style=""height:400px;""></stim_listA>",,html-keyboard-response,217,790297,0.0-15.0-1.11,16904,List2A,white,woman,,,,null,,,,
null,is playing with,,html-keyboard-response,218,792300,0.0-15.0-2.11,16904,List2A,white,woman,,,,null,,,,
4685,,,survey-text,219,796986,0.0-15.0-3.11,16904,List2A,white,woman,,,,,"{""Q0"":""dave is playing with mike ""}","<img src=""stim_listA/play5.gif""style=""height:400px;""></stim_listA>",is playing with,
null,"<div style=""font-size:60px;"">+</div>",,html-keyboard-response,220,797487,0.0-15.0-0.12,16904,List2A,white,woman,,,,null,,,,
null,"<img src=""stim_listA/dance6.gif""style=""height:400px;""></stim_listA>",,html-keyboard-response,221,799490,0.0-15.0-1.12,16904,List2A,white,woman,,,,null,,,,
null,are dancing with each other,,html-keyboard-response,222,801506,0.0-15.0-2.12,16904,List2A,white,woman,,,,null,,,,
7765,,,survey-text,223,809272,0.0-15.0-3.12,16904,List2A,white,woman,,,,,"{""Q0"":""dave is dancing with fred""}","<img src=""stim_listA/dance6.gif""style=""height:400px;""></stim_listA>",are dancing with each other,
null,"<div style=""font-size:60px;"">+</div>",,html-keyboard-response,224,809774,0.0-15.0-0.13,16904,List2A,white,woman,,,,null,,,,
null,"<img src=""stim_listA/dance5.gif""style=""height:400px;""></stim_listA>",,html-keyboard-response,225,811776,0.0-15.0-1.13,16904,List2A,white,woman,,,,null,,,,
null,is dancing with,,html-keyboard-response,226,813778,0.0-15.0-2.13,16904,List2A,white,woman,,,,null,,,,
4350,,,survey-text,227,818130,0.0-15.0-3.13,16904,List2A,white,woman,,,,,"{""Q0"":""mike is dancing with luke ""}","<img src=""stim_listA/dance5.gif""style=""height:400px;""></stim_listA>",is dancing with,
null,"<div style=""font-size:60px;"">+</div>",,html-keyboard-response,228,818645,0.0-15.0-0.14,16904,List2A,white,woman,,,,null,,,,
null,"<img src=""stim_listA/play3.gif""style=""height:400px;""></stim_listA>",,html-keyboard-response,229,820648,0.0-15.0-1.14,16904,List2A,white,woman,,,,null,,,,
null,is playing with,,html-keyboard-response,230,822659,0.0-15.0-2.14,16904,List2A,white,woman,,,,null,,,,
4541,,,survey-text,231,827202,0.0-15.0-3.14,16904,List2A,white,woman,,,,,"{""Q0"":""mike is playing with kate ""}","<img src=""stim_listA/play3.gif""style=""height:400px;""></stim_listA>",is playing with,
null,"<div style=""font-size:60px;"">+</div>",,html-keyboard-response,232,827706,0.0-15.0-0.15,16904,List2A,white,woman,,,,null,,,,
null,"<img src=""stim_listA/marry6.gif""style=""height:400px;""></stim_listA>",,html-keyboard-response,233,829709,0.0-15.0-1.15,16904,List2A,white,woman,,,,null,,,,
null,are marrying each other,,html-keyboard-response,234,831711,0.0-15.0-2.15,16904,List2A,white,woman,,,,null,,,,
6095,,,survey-text,235,837808,0.0-15.0-3.15,16904,List2A,white,woman,,,,,"{""Q0"":""mike and luke are marrying eachothet ""}","<img src=""stim_listA/marry6.gif""style=""height:400px;""></stim_listA>",are marrying each other,
null,"<div style=""font-size:60px;"">+</div>",,html-keyboard-response,236,838324,0.0-15.0-0.16,16904,List2A,white,woman,,,,null,,,,
null,"<img src=""stim_listA/play8.gif""style=""height:400px;""></stim_listA>",,html-keyboard-response,237,840328,0.0-15.0-1.16,16904,List2A,white,woman,,,,null,,,,
null,are playing with each other,,html-keyboard-response,238,842331,0.0-15.0-2.16,16904,List2A,white,woman,,,,null,,,,
6652,,,survey-text,239,848984,0.0-15.0-3.16,16904,List2A,white,woman,,,,,"{""Q0"":""ruth and beth are playing with each other ""}","<img src=""stim_listA/play8.gif""style=""height:400px;""></stim_listA>",are playing with each other,
null,"<div style=""font-size:60px;"">+</div>",,html-keyboard-response,240,849485,0.0-15.0-0.17,16904,List2A,white,woman,,,,null,,,,
null,"<img src=""stim_listA/kiss4.gif""style=""height:400px;""></stim_listA>",,html-keyboard-response,241,851487,0.0-15.0-1.17,16904,List2A,white,woman,,,,null,,,,
null,are kissing each other,,html-keyboard-response,242,853495,0.0-15.0-2.17,16904,List2A,white,woman,,,,null,,,,
8049,,,survey-text,243,861545,0.0-15.0-3.17,16904,List2A,white,woman,,,,,"{""Q0"":""kate and mike are kissing eachother ""}","<img src=""stim_listA/kiss4.gif""style=""height:400px;""></stim_listA>",are kissing each other,
null,"<div style=""font-size:60px;"">+</div>",,html-keyboard-response,244,862060,0.0-15.0-0.18,16904,List2A,white,woman,,,,null,,,,
null,"<img src=""stim_listA/marry8.gif""style=""height:400px;""></stim_listA>",,html-keyboard-response,245,864078,0.0-15.0-1.18,16904,List2A,white,woman,,,,null,,,,
null,are marrying each other,,html-keyboard-response,246,866090,0.0-15.0-2.18,16904,List2A,white,woman,,,,null,,,,
5654,,,survey-text,247,871746,0.0-15.0-3.18,16904,List2A,white,woman,,,,,"{""Q0"":""kate and ruth are marrying ""}","<img src=""stim_listA/marry8.gif""style=""height:400px;""></stim_listA>",are marrying each other,
null,"<div style=""font-size:60px;"">+</div>",,html-keyboard-response,248,872248,0.0-15.0-0.19,16904,List2A,white,woman,,,,null,,,,
null,"<img src=""stim_listA/argue6.gif""style=""height:400px;""></stim_listA>",,html-keyboard-response,249,874250,0.0-15.0-1.19,16904,List2A,white,woman,,,,null,,,,
null,are arguing with each other,,html-keyboard-response,250,876253,0.0-15.0-2.19,16904,List2A,white,woman,,,,null,,,,
6806,,,survey-text,251,883060,0.0-15.0-3.19,16904,List2A,white,woman,,,,,"{""Q0"":""mike and luke are arguing with each other ""}","<img src=""stim_listA/argue6.gif""style=""height:400px;""></stim_listA>",are arguing with each other,
1336,"<img src='img/portrait_matrix_list2.jpg' style='width:900px;height:500px;''></img><p>If you have memorised all the portraits and names and are ready to start, press Continue.</p><p><strong>Please note: Your memory of these faces will be tested 4 times during this experiment.</strong></p>",0,html-button-response,252,884398,0.0-16.0-0.0,16904,List2A,white,woman,,,,,,,,
1871,"<img src=""portrait/BM1.jpg""style=""height:400px;""></img>",4,html-button-response,253,887272,0.0-16.0-1.0,16904,List2A,white,woman,,TRUE,4,,,,,
null,CORRECT,,html-keyboard-response,254,888774,0.0-16.0-2.0-0.0,16904,List2A,white,woman,,,,null,,,,
1284,"<img src=""portrait/WW2.jpg""style=""height:400px;""></img>",3,html-button-response,255,890060,0.0-16.0-4.0,16904,List2A,white,woman,,TRUE,3,,,,,
null,CORRECT,,html-keyboard-response,256,891577,0.0-16.0-5.0-0.0,16904,List2A,white,woman,,,,null,,,,
1783,"<img src=""portrait/BW2.jpg""style=""height:400px;""></img>",2,html-button-response,257,893362,0.0-16.0-7.0,16904,List2A,white,woman,,TRUE,2,,,,,
null,CORRECT,,html-keyboard-response,258,894872,0.0-16.0-8.0-0.0,16904,List2A,white,woman,,,,null,,,,
1416,"<img src=""portrait/WW1.jpg""style=""height:400px;""></img>",1,html-button-response,259,896290,0.0-16.0-10.0,16904,List2A,white,woman,,TRUE,1,,,,,
null,CORRECT,,html-keyboard-response,260,897818,0.0-16.0-11.0-0.0,16904,List2A,white,woman,,,,null,,,,
1664,"<img src=""portrait/BM2.jpg""style=""height:400px;""></img>",5,html-button-response,261,899484,0.0-16.0-13.0,16904,List2A,white,woman,,TRUE,5,,,,,
null,CORRECT,,html-keyboard-response,262,900994,0.0-16.0-14.0-0.0,16904,List2A,white,woman,,,,null,,,,
2298,"<img src=""portrait/WM1.jpg""style=""height:400px;""></img>",6,html-button-response,263,903294,0.0-16.0-16.0,16904,List2A,white,woman,,TRUE,6,,,,,
null,CORRECT,,html-keyboard-response,264,904809,0.0-16.0-17.0-0.0,16904,List2A,white,woman,,,,null,,,,
1771,"<img src=""portrait/BW1.jpg""style=""height:400px;""></img>",0,html-button-response,265,906582,0.0-16.0-19.0,16904,List2A,white,woman,,TRUE,0,,,,,
null,CORRECT,,html-keyboard-response,266,908084,0.0-16.0-20.0-0.0,16904,List2A,white,woman,,,,null,,,,
1658,"<img src=""portrait/WM2.jpg""style=""height:400px;""></img>",7,html-button-response,267,909744,0.0-16.0-22.0,16904,List2A,white,woman,,TRUE,7,,,,,
null,CORRECT,,html-keyboard-response,268,911255,0.0-16.0-23.0-0.0,16904,List2A,white,woman,,,,null,,,,
1153,<p>You got 8 out of 8 right first time. Press Continue.</p>,0,html-button-response,269,912409,0.0-16.0-25.0,16904,List2A,white,woman,,,,,,,,
null,"<div style=""font-size:60px;"">+</div>",,html-keyboard-response,270,913922,0.0-17.0-0.0,16904,List2A,white,woman,,,,null,,,,
null,"<img src=""stim_listA/dance7.gif""style=""height:400px;""></stim_listA>",,html-keyboard-response,271,915925,0.0-17.0-1.0,16904,List2A,white,woman,,,,null,,,,
null,is dancing with,,html-keyboard-response,272,917927,0.0-17.0-2.0,16904,List2A,white,woman,,,,null,,,,
4753,,,survey-text,273,922681,0.0-17.0-3.0,16904,List2A,white,woman,,,,,"{""Q0"":""beth is dancing with ruth""}","<img src=""stim_listA/dance7.gif""style=""height:400px;""></stim_listA>",is dancing with,
null,"<div style=""font-size:60px;"">+</div>",,html-keyboard-response,274,923184,0.0-17.0-0.1,16904,List2A,white,woman,,,,null,,,,
null,"<img src=""stim_listA/touch2.gif""style=""height:400px;""></stim_listA>",,html-keyboard-response,275,925186,0.0-17.0-1.1,16904,List2A,white,woman,,,,null,,,,
null,are touching each other,,html-keyboard-response,276,927190,0.0-17.0-2.1,16904,List2A,white,woman,,,,null,,,,
7527,,,survey-text,277,934718,0.0-17.0-3.1,16904,List2A,white,woman,,,,,"{""Q0"":""ruth and luke are touching each other ""}","<img src=""stim_listA/touch2.gif""style=""height:400px;""></stim_listA>",are touching each other,
null,"<div style=""font-size:60px;"">+</div>",,html-keyboard-response,278,935220,0.0-17.0-0.2,16904,List2A,white,woman,,,,null,,,,
null,"<img src=""stim_listA/shout1.gif""style=""height:400px;""></stim_listA>",,html-keyboard-response,279,937222,0.0-17.0-1.2,16904,List2A,white,woman,,,,null,,,,
null,is shouting at,,html-keyboard-response,280,939223,0.0-17.0-2.2,16904,List2A,white,woman,,,,null,,,,
4477,,,survey-text,281,943702,0.0-17.0-3.2,16904,List2A,white,woman,,,,,"{""Q0"":""ruth is shouting at luke ""}","<img src=""stim_listA/shout1.gif""style=""height:400px;""></stim_listA>",is shouting at,
null,"<div style=""font-size:60px;"">+</div>",,html-keyboard-response,282,944216,0.0-17.0-0.3,16904,List2A,white,woman,,,,null,,,,
null,"<img src=""stim_listA/fight5.gif""style=""height:400px;""></stim_listA>",,html-keyboard-response,283,946219,0.0-17.0-1.3,16904,List2A,white,woman,,,,null,,,,
null,is fighting,,html-keyboard-response,284,948231,0.0-17.0-2.3,16904,List2A,white,woman,,,,null,,,,
5314,,,survey-text,285,953545,0.0-17.0-3.3,16904,List2A,white,woman,,,,,"{""Q0"":""mike is fighting with dave ""}","<img src=""stim_listA/fight5.gif""style=""height:400px;""></stim_listA>",is fighting,
null,"<div style=""font-size:60px;"">+</div>",,html-keyboard-response,286,954051,0.0-17.0-0.4,16904,List2A,white,woman,,,,null,,,,
null,"<img src=""stim_listA/shout2.gif""style=""height:400px;""></stim_listA>",,html-keyboard-response,287,956054,0.0-17.0-1.4,16904,List2A,white,woman,,,,null,,,,
null,are shouting at each other,,html-keyboard-response,288,958060,0.0-17.0-2.4,16904,List2A,white,woman,,,,null,,,,
9906,,,survey-text,289,967967,0.0-17.0-3.4,16904,List2A,white,woman,,,,,"{""Q0"":""jane and dave are shouting ""}","<img src=""stim_listA/shout2.gif""style=""height:400px;""></stim_listA>",are shouting at each other,
null,"<div style=""font-size:60px;"">+</div>",,html-keyboard-response,290,968483,0.0-17.0-0.5,16904,List2A,white,woman,,,,null,,,,
null,"<img src=""stim_listA/play4.gif""style=""height:400px;""></stim_listA>",,html-keyboard-response,291,970486,0.0-17.0-1.5,16904,List2A,white,woman,,,,null,,,,
null,are playing with each other,,html-keyboard-response,292,972495,0.0-17.0-2.5,16904,List2A,white,woman,,,,null,,,,
6569,,,survey-text,293,979065,0.0-17.0-3.5,16904,List2A,white,woman,,,,,"{""Q0"":""beth and fred are playing with each other ""}","<img src=""stim_listA/play4.gif""style=""height:400px;""></stim_listA>",are playing with each other,
null,"<div style=""font-size:60px;"">+</div>",,html-keyboard-response,294,979566,0.0-17.0-0.6,16904,List2A,white,woman,,,,null,,,,
null,"<img src=""stim_listA/flirt8.gif""style=""height:400px;""></stim_listA>",,html-keyboard-response,295,981570,0.0-17.0-1.6,16904,List2A,white,woman,,,,null,,,,
null,are flirting with each other,,html-keyboard-response,296,983572,0.0-17.0-2.6,16904,List2A,white,woman,,,,null,,,,
7999,,,survey-text,297,991571,0.0-17.0-3.6,16904,List2A,white,woman,,,,,"{""Q0"":""beth and jane are flirting with each other ""}","<img src=""stim_listA/flirt8.gif""style=""height:400px;""></stim_listA>",are flirting with each other,
null,"<div style=""font-size:60px;"">+</div>",,html-keyboard-response,298,992085,0.0-17.0-0.7,16904,List2A,white,woman,,,,null,,,,
null,"<img src=""stim_listA/kiss8.gif""style=""height:400px;""></stim_listA>",,html-keyboard-response,299,994102,0.0-17.0-1.7,16904,List2A,white,woman,,,,null,,,,
null,are kissing each other,,html-keyboard-response,300,996112,0.0-17.0-2.7,16904,List2A,white,woman,,,,null,,,,
6057,,,survey-text,301,1002171,0.0-17.0-3.7,16904,List2A,white,woman,,,,,"{""Q0"":""jane and kate are kisisng each other ""}","<img src=""stim_listA/kiss8.gif""style=""height:400px;""></stim_listA>",are kissing each other,
null,"<div style=""font-size:60px;"">+</div>",,html-keyboard-response,302,1002685,0.0-17.0-0.8,16904,List2A,white,woman,,,,null,,,,
null,"<img src=""stim_listA/argue3.gif""style=""height:400px;""></stim_listA>",,html-keyboard-response,303,1004698,0.0-17.0-1.8,16904,List2A,white,woman,,,,null,,,,
null,is arguing with,,html-keyboard-response,304,1006702,0.0-17.0-2.8,16904,List2A,white,woman,,,,null,,,,
5000,,,survey-text,305,1011703,0.0-17.0-3.8,16904,List2A,white,woman,,,,,"{""Q0"":""beth is arguing with mike ""}","<img src=""stim_listA/argue3.gif""style=""height:400px;""></stim_listA>",is arguing with,
null,"<div style=""font-size:60px;"">+</div>",,html-keyboard-response,306,1012204,0.0-17.0-0.9,16904,List2A,white,woman,,,,null,,,,
null,"<img src=""stim_listA/play1.gif""style=""height:400px;""></stim_listA>",,html-keyboard-response,307,1014213,0.0-17.0-1.9,16904,List2A,white,woman,,,,null,,,,
null,is playing with,,html-keyboard-response,308,1016215,0.0-17.0-2.9,16904,List2A,white,woman,,,,null,,,,
4244,,,survey-text,309,1020461,0.0-17.0-3.9,16904,List2A,white,woman,,,,,"{""Q0"":""dave is playing with jane ""}","<img src=""stim_listA/play1.gif""style=""height:400px;""></stim_listA>",is playing with,
null,"<div style=""font-size:60px;"">+</div>",,html-keyboard-response,310,1020962,0.0-17.0-0.10,16904,List2A,white,woman,,,,null,,,,
null,"<img src=""stim_listA/kiss6.gif""style=""height:400px;""></stim_listA>",,html-keyboard-response,311,1022965,0.0-17.0-1.10,16904,List2A,white,woman,,,,null,,,,
null,are kissing each other,,html-keyboard-response,312,1024966,0.0-17.0-2.10,16904,List2A,white,woman,,,,null,,,,
4391,,,survey-text,313,1029359,0.0-17.0-3.10,16904,List2A,white,woman,,,,,"{""Q0"":""dave and mike are kisisng ""}","<img src=""stim_listA/kiss6.gif""style=""height:400px;""></stim_listA>",are kissing each other,
null,"<div style=""font-size:60px;"">+</div>",,html-keyboard-response,314,1029860,0.0-17.0-0.11,16904,List2A,white,woman,,,,null,,,,
null,"<img src=""stim_listA/flirt6.gif""style=""height:400px;""></stim_listA>",,html-keyboard-response,315,1031863,0.0-17.0-1.11,16904,List2A,white,woman,,,,null,,,,
null,are flirting with each other,,html-keyboard-response,316,1033865,0.0-17.0-2.11,16904,List2A,white,woman,,,,null,,,,
6278,,,survey-text,317,1040145,0.0-17.0-3.11,16904,List2A,white,woman,,,,,"{""Q0"":""fred and dave are flirting with each other ""}","<img src=""stim_listA/flirt6.gif""style=""height:400px;""></stim_listA>",are flirting with each other,
null,"<div style=""font-size:60px;"">+</div>",,html-keyboard-response,318,1040646,0.0-17.0-0.12,16904,List2A,white,woman,,,,null,,,,
null,"<img src=""stim_listA/fight3.gif""style=""height:400px;""></stim_listA>",,html-keyboard-response,319,1042648,0.0-17.0-1.12,16904,List2A,white,woman,,,,null,,,,
null,is fighting,,html-keyboard-response,320,1044649,0.0-17.0-2.12,16904,List2A,white,woman,,,,null,,,,
5584,,,survey-text,321,1050234,0.0-17.0-3.12,16904,List2A,white,woman,,,,,"{""Q0"":""mike is fighting with kate ""}","<img src=""stim_listA/fight3.gif""style=""height:400px;""></stim_listA>",is fighting,
null,"<div style=""font-size:60px;"">+</div>",,html-keyboard-response,322,1050736,0.0-17.0-0.13,16904,List2A,white,woman,,,,null,,,,
null,"<img src=""stim_listA/flirt1.gif""style=""height:400px;""></stim_listA>",,html-keyboard-response,323,1052739,0.0-17.0-1.13,16904,List2A,white,woman,,,,null,,,,
null,is flirting with,,html-keyboard-response,324,1054742,0.0-17.0-2.13,16904,List2A,white,woman,,,,null,,,,
5996,,,survey-text,325,1060738,0.0-17.0-3.13,16904,List2A,white,woman,,,,,"{""Q0"":""luke is flirting with jane ""}","<img src=""stim_listA/flirt1.gif""style=""height:400px;""></stim_listA>",is flirting with,
null,"<div style=""font-size:60px;"">+</div>",,html-keyboard-response,326,1061239,0.0-17.0-0.14,16904,List2A,white,woman,,,,null,,,,
null,"<img src=""stim_listA/marry7.gif""style=""height:400px;""></stim_listA>",,html-keyboard-response,327,1063242,0.0-17.0-1.14,16904,List2A,white,woman,,,,null,,,,
null,is marrying,,html-keyboard-response,328,1065244,0.0-17.0-2.14,16904,List2A,white,woman,,,,null,,,,
5115,,,survey-text,329,1070360,0.0-17.0-3.14,16904,List2A,white,woman,,,,,"{""Q0"":""jane and beth are marrying ""}","<img src=""stim_listA/marry7.gif""style=""height:400px;""></stim_listA>",is marrying,
null,"<div style=""font-size:60px;"">+</div>",,html-keyboard-response,330,1070862,0.0-17.0-0.15,16904,List2A,white,woman,,,,null,,,,
null,"<img src=""stim_listA/touch5.gif""style=""height:400px;""></stim_listA>",,html-keyboard-response,331,1072866,0.0-17.0-1.15,16904,List2A,white,woman,,,,null,,,,
null,is touching,,html-keyboard-response,332,1074867,0.0-17.0-2.15,16904,List2A,white,woman,,,,null,,,,
4265,,,survey-text,333,1079134,0.0-17.0-3.15,16904,List2A,white,woman,,,,,"{""Q0"":""dave is touching mike ""}","<img src=""stim_listA/touch5.gif""style=""height:400px;""></stim_listA>",is touching,
null,"<div style=""font-size:60px;"">+</div>",,html-keyboard-response,334,1079643,0.0-17.0-0.16,16904,List2A,white,woman,,,,null,,,,
null,"<img src=""stim_listA/shout4.gif""style=""height:400px;""></stim_listA>",,html-keyboard-response,335,1081647,0.0-17.0-1.16,16904,List2A,white,woman,,,,null,,,,
null,are shouting at each other,,html-keyboard-response,336,1083650,0.0-17.0-2.16,16904,List2A,white,woman,,,,null,,,,
9182,,,survey-text,337,1092834,0.0-17.0-3.16,16904,List2A,white,woman,,,,,"{""Q0"":""beth is shoutung at mike ""}","<img src=""stim_listA/shout4.gif""style=""height:400px;""></stim_listA>",are shouting at each other,
null,"<div style=""font-size:60px;"">+</div>",,html-keyboard-response,338,1093335,0.0-17.0-0.17,16904,List2A,white,woman,,,,null,,,,
null,"<img src=""stim_listA/argue7.gif""style=""height:400px;""></stim_listA>",,html-keyboard-response,339,1095337,0.0-17.0-1.17,16904,List2A,white,woman,,,,null,,,,
null,is arguing with,,html-keyboard-response,340,1097339,0.0-17.0-2.17,16904,List2A,white,woman,,,,null,,,,
8578,,,survey-text,341,1105918,0.0-17.0-3.17,16904,List2A,white,woman,,,,,"{""Q0"":""beth is arguing with jane ""}","<img src=""stim_listA/argue7.gif""style=""height:400px;""></stim_listA>",is arguing with,
null,"<div style=""font-size:60px;"">+</div>",,html-keyboard-response,342,1106427,0.0-17.0-0.18,16904,List2A,white,woman,,,,null,,,,
null,"<img src=""stim_listA/touch6.gif""style=""height:400px;""></stim_listA>",,html-keyboard-response,343,1108443,0.0-17.0-1.18,16904,List2A,white,woman,,,,null,,,,
null,are touching each other,,html-keyboard-response,344,1110456,0.0-17.0-2.18,16904,List2A,white,woman,,,,null,,,,
6172,,,survey-text,345,1116629,0.0-17.0-3.18,16904,List2A,white,woman,,,,,"{""Q0"":""luke and fred are touching each other ""}","<img src=""stim_listA/touch6.gif""style=""height:400px;""></stim_listA>",are touching each other,
null,"<div style=""font-size:60px;"">+</div>",,html-keyboard-response,346,1117139,0.0-17.0-0.19,16904,List2A,white,woman,,,,null,,,,
null,"<img src=""stim_listA/argue4.gif""style=""height:400px;""></stim_listA>",,html-keyboard-response,347,1119142,0.0-17.0-1.19,16904,List2A,white,woman,,,,null,,,,
null,are arguing with each other,,html-keyboard-response,348,1121153,0.0-17.0-2.19,16904,List2A,white,woman,,,,null,,,,
6043,,,survey-text,349,1127198,0.0-17.0-3.19,16904,List2A,white,woman,,,,,"{""Q0"":""fred and kate are aguing ""}","<img src=""stim_listA/argue4.gif""style=""height:400px;""></stim_listA>",are arguing with each other,
1512,"<img src='img/portrait_matrix_list2.jpg' style='width:900px;height:500px;''></img><p>If you have memorised all the portraits and names and are ready to start, press Continue.</p><p><strong>Please note: Your memory of these faces will be tested 4 times during this experiment.</strong></p>",0,html-button-response,350,1128711,0.0-18.0-0.0,16904,List2A,white,woman,,,,,,,,
2654,"<img src=""portrait/BM1.jpg""style=""height:400px;""></img>",4,html-button-response,351,1132367,0.0-18.0-1.0,16904,List2A,white,woman,,TRUE,4,,,,,
null,CORRECT,,html-keyboard-response,352,1133889,0.0-18.0-2.0-0.0,16904,List2A,white,woman,,,,null,,,,
1557,"<img src=""portrait/WM2.jpg""style=""height:400px;""></img>",7,html-button-response,353,1135448,0.0-18.0-4.0,16904,List2A,white,woman,,TRUE,7,,,,,
null,CORRECT,,html-keyboard-response,354,1136949,0.0-18.0-5.0-0.0,16904,List2A,white,woman,,,,null,,,,
1273,"<img src=""portrait/BM2.jpg""style=""height:400px;""></img>",5,html-button-response,355,1138223,0.0-18.0-7.0,16904,List2A,white,woman,,TRUE,5,,,,,
null,CORRECT,,html-keyboard-response,356,1139740,0.0-18.0-8.0-0.0,16904,List2A,white,woman,,,,null,,,,
2166,"<img src=""portrait/WM1.jpg""style=""height:400px;""></img>",6,html-button-response,357,1141908,0.0-18.0-10.0,16904,List2A,white,woman,,TRUE,6,,,,,
null,CORRECT,,html-keyboard-response,358,1143424,0.0-18.0-11.0-0.0,16904,List2A,white,woman,,,,null,,,,
2023,"<img src=""portrait/BW2.jpg""style=""height:400px;""></img>",2,html-button-response,359,1145449,0.0-18.0-13.0,16904,List2A,white,woman,,TRUE,2,,,,,
null,CORRECT,,html-keyboard-response,360,1146959,0.0-18.0-14.0-0.0,16904,List2A,white,woman,,,,null,,,,
1213,"<img src=""portrait/WW1.jpg""style=""height:400px;""></img>",1,html-button-response,361,1148173,0.0-18.0-16.0,16904,List2A,white,woman,,TRUE,1,,,,,
null,CORRECT,,html-keyboard-response,362,1149687,0.0-18.0-17.0-0.0,16904,List2A,white,woman,,,,null,,,,
1635,"<img src=""portrait/BW1.jpg""style=""height:400px;""></img>",0,html-button-response,363,1151323,0.0-18.0-19.0,16904,List2A,white,woman,,TRUE,0,,,,,
null,CORRECT,,html-keyboard-response,364,1152838,0.0-18.0-20.0-0.0,16904,List2A,white,woman,,,,null,,,,
1680,"<img src=""portrait/WW2.jpg""style=""height:400px;""></img>",2,html-button-response,365,1154519,0.0-18.0-22.0,16904,List2A,white,woman,,TRUE,3,,,,,
1732,"<img src=""portrait/WW2.jpg""style=""height:400px;""></img>",3,html-button-response,366,1157257,0.0-18.0-24.0-0.0,16904,List2A,white,woman,,FALSE,3,,,,,
null,CORRECT,,html-keyboard-response,367,1158776,0.0-18.0-24.0-1.0-0.0,16904,List2A,white,woman,,,,null,,,,
1172,<p>You got 7 out of 8 right first time. Press Continue.</p>,0,html-button-response,368,1159949,0.0-18.0-25.0,16904,List2A,white,woman,,,,,,,,
1357,"As you did not score 100%, the memory game will repeat. Press Continue.",0,html-button-response,369,1162317,0.0-18.0-26.0-0.0,16904,List2A,white,woman,,,,,,,,
2841,"<img src='img/portrait_matrix_list2.jpg' style='width:900px;height:500px;''></img><p>If you have memorised all the portraits and names and are ready to start, press Continue.</p><p><strong>Please note: Your memory of these faces will be tested 4 times during this experiment.</strong></p>",0,html-button-response,370,1166163,0.0-18.1-0.1,16904,List2A,white,woman,,,,,,,,
1464,"<img src=""portrait/BM1.jpg""style=""height:400px;""></img>",4,html-button-response,371,1168630,0.0-18.1-1.1,16904,List2A,white,woman,,TRUE,4,,,,,
null,CORRECT,,html-keyboard-response,372,1170133,0.0-18.1-2.1-0.1,16904,List2A,white,woman,,,,null,,,,
1427,"<img src=""portrait/WM2.jpg""style=""height:400px;""></img>",7,html-button-response,373,1171562,0.0-18.1-4.1,16904,List2A,white,woman,,TRUE,7,,,,,
null,CORRECT,,html-keyboard-response,374,1173095,0.0-18.1-5.1-0.1,16904,List2A,white,woman,,,,null,,,,
1385,"<img src=""portrait/BM2.jpg""style=""height:400px;""></img>",5,html-button-response,375,1174481,0.0-18.1-7.1,16904,List2A,white,woman,,TRUE,5,,,,,
null,CORRECT,,html-keyboard-response,376,1175984,0.0-18.1-8.1-0.1,16904,List2A,white,woman,,,,null,,,,
1220,"<img src=""portrait/WM1.jpg""style=""height:400px;""></img>",6,html-button-response,377,1177205,0.0-18.1-10.1,16904,List2A,white,woman,,TRUE,6,,,,,
null,CORRECT,,html-keyboard-response,378,1178707,0.0-18.1-11.1-0.1,16904,List2A,white,woman,,,,null,,,,
2252,"<img src=""portrait/BW2.jpg""style=""height:400px;""></img>",2,html-button-response,379,1180961,0.0-18.1-13.1,16904,List2A,white,woman,,TRUE,2,,,,,
null,CORRECT,,html-keyboard-response,380,1182472,0.0-18.1-14.1-0.1,16904,List2A,white,woman,,,,null,,,,
1312,"<img src=""portrait/WW1.jpg""style=""height:400px;""></img>",1,html-button-response,381,1183785,0.0-18.1-16.1,16904,List2A,white,woman,,TRUE,1,,,,,
null,CORRECT,,html-keyboard-response,382,1185288,0.0-18.1-17.1-0.1,16904,List2A,white,woman,,,,null,,,,
1050,"<img src=""portrait/BW1.jpg""style=""height:400px;""></img>",0,html-button-response,383,1186339,0.0-18.1-19.1,16904,List2A,white,woman,,TRUE,0,,,,,
null,CORRECT,,html-keyboard-response,384,1187842,0.0-18.1-20.1-0.1,16904,List2A,white,woman,,,,null,,,,
3742,"<img src=""portrait/WW2.jpg""style=""height:400px;""></img>",3,html-button-response,385,1191585,0.0-18.1-22.1,16904,List2A,white,woman,,TRUE,3,,,,,
null,CORRECT,,html-keyboard-response,386,1193094,0.0-18.1-23.1-0.1,16904,List2A,white,woman,,,,null,,,,
1055,<p>You got 8 out of 8 right first time. Press Continue.</p>,0,html-button-response,387,1194151,0.0-18.1-25.1,16904,List2A,white,woman,,,,,,,,
null,"<div style=""font-size:60px;"">+</div>",,html-keyboard-response,388,1195676,0.0-19.0-0.0,16904,List2A,white,woman,,,,null,,,,
null,"<img src=""stim_listA/flirt7.gif""style=""height:400px;""></stim_listA>",,html-keyboard-response,389,1197680,0.0-19.0-1.0,16904,List2A,white,woman,,,,null,,,,
null,is flirting with,,html-keyboard-response,390,1199682,0.0-19.0-2.0,16904,List2A,white,woman,,,,null,,,,
15572,,,survey-text,391,1215255,0.0-19.0-3.0,16904,List2A,white,woman,,,,,"{""Q0"":""jane is flirting with ruth ""}","<img src=""stim_listA/flirt7.gif""style=""height:400px;""></stim_listA>",is flirting with,
null,"<div style=""font-size:60px;"">+</div>",,html-keyboard-response,392,1215762,0.0-19.0-0.1,16904,List2A,white,woman,,,,null,,,,
null,"<img src=""stim_listA/fight1.gif""style=""height:400px;""></stim_listA>",,html-keyboard-response,393,1217773,0.0-19.0-1.1,16904,List2A,white,woman,,,,null,,,,
null,is fighting,,html-keyboard-response,394,1219775,0.0-19.0-2.1,16904,List2A,white,woman,,,,null,,,,
6281,,,survey-text,395,1226059,0.0-19.0-3.1,16904,List2A,white,woman,,,,,"{""Q0"":""jane is fighting dave ""}","<img src=""stim_listA/fight1.gif""style=""height:400px;""></stim_listA>",is fighting,
null,"<div style=""font-size:60px;"">+</div>",,html-keyboard-response,396,1226560,0.0-19.0-0.2,16904,List2A,white,woman,,,,null,,,,
null,"<img src=""stim_listA/talk6.gif""style=""height:400px;""></stim_listA>",,html-keyboard-response,397,1228586,0.0-19.0-1.2,16904,List2A,white,woman,,,,null,,,,
null,are talking to each other,,html-keyboard-response,398,1230588,0.0-19.0-2.2,16904,List2A,white,woman,,,,null,,,,
4973,,,survey-text,399,1235563,0.0-19.0-3.2,16904,List2A,white,woman,,,,,"{""Q0"":""fred and dave are talking""}","<img src=""stim_listA/talk6.gif""style=""height:400px;""></stim_listA>",are talking to each other,
null,"<div style=""font-size:60px;"">+</div>",,html-keyboard-response,400,1236073,0.0-19.0-0.3,16904,List2A,white,woman,,,,null,,,,
null,"<img src=""stim_listA/argue1.gif""style=""height:400px;""></stim_listA>",,html-keyboard-response,401,1238084,0.0-19.0-1.3,16904,List2A,white,woman,,,,null,,,,
null,is arguing with,,html-keyboard-response,402,1240086,0.0-19.0-2.3,16904,List2A,white,woman,,,,null,,,,
4835,,,survey-text,403,1244923,0.0-19.0-3.3,16904,List2A,white,woman,,,,,"{""Q0"":""ruth is arguing with dave ""}","<img src=""stim_listA/argue1.gif""style=""height:400px;""></stim_listA>",is arguing with,
null,"<div style=""font-size:60px;"">+</div>",,html-keyboard-response,404,1245425,0.0-19.0-0.4,16904,List2A,white,woman,,,,null,,,,
null,"<img src=""stim_listA/kiss1.gif""style=""height:400px;""></stim_listA>",,html-keyboard-response,405,1247429,0.0-19.0-1.4,16904,List2A,white,woman,,,,null,,,,
null,is kissing,,html-keyboard-response,406,1249430,0.0-19.0-2.4,16904,List2A,white,woman,,,,null,,,,
5646,,,survey-text,407,1255077,0.0-19.0-3.4,16904,List2A,white,woman,,,,,"{""Q0"":""ruth is kissing luke ""}","<img src=""stim_listA/kiss1.gif""style=""height:400px;""></stim_listA>",is kissing,
null,"<div style=""font-size:60px;"">+</div>",,html-keyboard-response,408,1255578,0.0-19.0-0.5,16904,List2A,white,woman,,,,null,,,,
null,"<img src=""stim_listA/marry2.gif""style=""height:400px;""></stim_listA>",,html-keyboard-response,409,1257581,0.0-19.0-1.5,16904,List2A,white,woman,,,,null,,,,
null,are marrying each other,,html-keyboard-response,410,1259588,0.0-19.0-2.5,16904,List2A,white,woman,,,,null,,,,
6365,,,survey-text,411,1265955,0.0-19.0-3.5,16904,List2A,white,woman,,,,,"{""Q0"":""jane and luke are maarying each other ""}","<img src=""stim_listA/marry2.gif""style=""height:400px;""></stim_listA>",are marrying each other,
null,"<div style=""font-size:60px;"">+</div>",,html-keyboard-response,412,1266456,0.0-19.0-0.6,16904,List2A,white,woman,,,,null,,,,
null,"<img src=""stim_listA/kiss3.gif""style=""height:400px;""></stim_listA>",,html-keyboard-response,413,1268473,0.0-19.0-1.6,16904,List2A,white,woman,,,,null,,,,
null,is kissing,,html-keyboard-response,414,1270476,0.0-19.0-2.6,16904,List2A,white,woman,,,,null,,,,
4369,,,survey-text,415,1274846,0.0-19.0-3.6,16904,List2A,white,woman,,,,,"{""Q0"":""beth and fred are kissing ""}","<img src=""stim_listA/kiss3.gif""style=""height:400px;""></stim_listA>",is kissing,
null,"<div style=""font-size:60px;"">+</div>",,html-keyboard-response,416,1275348,0.0-19.0-0.7,16904,List2A,white,woman,,,,null,,,,
null,"<img src=""stim_listA/kiss2.gif""style=""height:400px;""></stim_listA>",,html-keyboard-response,417,1277350,0.0-19.0-1.7,16904,List2A,white,woman,,,,null,,,,
null,are kissing each other,,html-keyboard-response,418,1279352,0.0-19.0-2.7,16904,List2A,white,woman,,,,null,,,,
4713,,,survey-text,419,1284066,0.0-19.0-3.7,16904,List2A,white,woman,,,,,"{""Q0"":""dave and jane are kissing ""}","<img src=""stim_listA/kiss2.gif""style=""height:400px;""></stim_listA>",are kissing each other,
null,"<div style=""font-size:60px;"">+</div>",,html-keyboard-response,420,1284567,0.0-19.0-0.8,16904,List2A,white,woman,,,,null,,,,
null,"<img src=""stim_listA/fight4.gif""style=""height:400px;""></stim_listA>",,html-keyboard-response,421,1286570,0.0-19.0-1.8,16904,List2A,white,woman,,,,null,,,,
null,are fighting each other,,html-keyboard-response,422,1288583,0.0-19.0-2.8,16904,List2A,white,woman,,,,null,,,,
11501,,,survey-text,423,1300086,0.0-19.0-3.8,16904,List2A,white,woman,,,,,"{""Q0"":""ruth and fred are flirting ""}","<img src=""stim_listA/fight4.gif""style=""height:400px;""></stim_listA>",are fighting each other,
null,"<div style=""font-size:60px;"">+</div>",,html-keyboard-response,424,1300587,0.0-19.0-0.9,16904,List2A,white,woman,,,,null,,,,
null,"<img src=""stim_listA/talk4.gif""style=""height:400px;""></stim_listA>",,html-keyboard-response,425,1302590,0.0-19.0-1.9,16904,List2A,white,woman,,,,null,,,,
null,are talking to each other,,html-keyboard-response,426,1304592,0.0-19.0-2.9,16904,List2A,white,woman,,,,null,,,,
4974,,,survey-text,427,1309568,0.0-19.0-3.9,16904,List2A,white,woman,,,,,"{""Q0"":""beth and mike are talking""}","<img src=""stim_listA/talk4.gif""style=""height:400px;""></stim_listA>",are talking to each other,
null,"<div style=""font-size:60px;"">+</div>",,html-keyboard-response,428,1310073,0.0-19.0-0.10,16904,List2A,white,woman,,,,null,,,,
null,"<img src=""stim_listA/marry1.gif""style=""height:400px;""></stim_listA>",,html-keyboard-response,429,1312088,0.0-19.0-1.10,16904,List2A,white,woman,,,,null,,,,
null,is marrying,,html-keyboard-response,430,1314090,0.0-19.0-2.10,16904,List2A,white,woman,,,,null,,,,
5094,,,survey-text,431,1319186,0.0-19.0-3.10,16904,List2A,white,woman,,,,,"{""Q0"":""ruth is marrying dave ""}","<img src=""stim_listA/marry1.gif""style=""height:400px;""></stim_listA>",is marrying,
null,"<div style=""font-size:60px;"">+</div>",,html-keyboard-response,432,1319689,0.0-19.0-0.11,16904,List2A,white,woman,,,,null,,,,
null,"<img src=""stim_listA/shout3.gif""style=""height:400px;""></stim_listA>",,html-keyboard-response,433,1321693,0.0-19.0-1.11,16904,List2A,white,woman,,,,null,,,,
null,is shouting at,,html-keyboard-response,434,1323706,0.0-19.0-2.11,16904,List2A,white,woman,,,,null,,,,
5438,,,survey-text,435,1329146,0.0-19.0-3.11,16904,List2A,white,woman,,,,,"{""Q0"":""fred is shouting at beth ""}","<img src=""stim_listA/shout3.gif""style=""height:400px;""></stim_listA>",is shouting at,
null,"<div style=""font-size:60px;"">+</div>",,html-keyboard-response,436,1329647,0.0-19.0-0.12,16904,List2A,white,woman,,,,null,,,,
null,"<img src=""stim_listA/talk3.gif""style=""height:400px;""></stim_listA>",,html-keyboard-response,437,1331649,0.0-19.0-1.12,16904,List2A,white,woman,,,,null,,,,
null,is talking to,,html-keyboard-response,438,1333654,0.0-19.0-2.12,16904,List2A,white,woman,,,,null,,,,
6473,,,survey-text,439,1340129,0.0-19.0-3.12,16904,List2A,white,woman,,,,,"{""Q0"":""fred is talking to kate ""}","<img src=""stim_listA/talk3.gif""style=""height:400px;""></stim_listA>",is talking to,
null,"<div style=""font-size:60px;"">+</div>",,html-keyboard-response,440,1340631,0.0-19.0-0.13,16904,List2A,white,woman,,,,null,,,,
null,"<img src=""stim_listA/shout6.gif""style=""height:400px;""></stim_listA>",,html-keyboard-response,441,1342638,0.0-19.0-1.13,16904,List2A,white,woman,,,,null,,,,
null,are shouting at each other,,html-keyboard-response,442,1344640,0.0-19.0-2.13,16904,List2A,white,woman,,,,null,,,,
7722,,,survey-text,443,1352363,0.0-19.0-3.13,16904,List2A,white,woman,,,,,"{""Q0"":""mike and dave are shouting at each other ""}","<img src=""stim_listA/shout6.gif""style=""height:400px;""></stim_listA>",are shouting at each other,
null,"<div style=""font-size:60px;"">+</div>",,html-keyboard-response,444,1352869,0.0-19.0-0.14,16904,List2A,white,woman,,,,null,,,,
null,"<img src=""stim_listA/talk7.gif""style=""height:400px;""></stim_listA>",,html-keyboard-response,445,1354873,0.0-19.0-1.14,16904,List2A,white,woman,,,,null,,,,
null,is talking to,,html-keyboard-response,446,1356874,0.0-19.0-2.14,16904,List2A,white,woman,,,,null,,,,
4520,,,survey-text,447,1361395,0.0-19.0-3.14,16904,List2A,white,woman,,,,,"{""Q0"":""ruth is talking to kate ""}","<img src=""stim_listA/talk7.gif""style=""height:400px;""></stim_listA>",is talking to,
null,"<div style=""font-size:60px;"">+</div>",,html-keyboard-response,448,1361909,0.0-19.0-0.15,16904,List2A,white,woman,,,,null,,,,
null,"<img src=""stim_listA/dance1.gif""style=""height:400px;""></stim_listA>",,html-keyboard-response,449,1363911,0.0-19.0-1.15,16904,List2A,white,woman,,,,null,,,,
null,is dancing with,,html-keyboard-response,450,1365913,0.0-19.0-2.15,16904,List2A,white,woman,,,,null,,,,
7416,,,survey-text,451,1373330,0.0-19.0-3.15,16904,List2A,white,woman,,,,,"{""Q0"":""luke is dancing with jane ""}","<img src=""stim_listA/dance1.gif""style=""height:400px;""></stim_listA>",is dancing with,
null,"<div style=""font-size:60px;"">+</div>",,html-keyboard-response,452,1373832,0.0-19.0-0.16,16904,List2A,white,woman,,,,null,,,,
null,"<img src=""stim_listA/flirt4.gif""style=""height:400px;""></stim_listA>",,html-keyboard-response,453,1375834,0.0-19.0-1.16,16904,List2A,white,woman,,,,null,,,,
null,are flirting with each other,,html-keyboard-response,454,1377835,0.0-19.0-2.16,16904,List2A,white,woman,,,,null,,,,
5122,,,survey-text,455,1382958,0.0-19.0-3.16,16904,List2A,white,woman,,,,,"{""Q0"":""beth and mike are flirting ""}","<img src=""stim_listA/flirt4.gif""style=""height:400px;""></stim_listA>",are flirting with each other,
null,"<div style=""font-size:60px;"">+</div>",,html-keyboard-response,456,1383460,0.0-19.0-0.17,16904,List2A,white,woman,,,,null,,,,
null,"<img src=""stim_listA/talk5.gif""style=""height:400px;""></stim_listA>",,html-keyboard-response,457,1385463,0.0-19.0-1.17,16904,List2A,white,woman,,,,null,,,,
null,is talking to,,html-keyboard-response,458,1387479,0.0-19.0-2.17,16904,List2A,white,woman,,,,null,,,,
7452,,,survey-text,459,1394932,0.0-19.0-3.17,16904,List2A,white,woman,,,,,"{""Q0"":""mike is talking to luke ""}","<img src=""stim_listA/talk5.gif""style=""height:400px;""></stim_listA>",is talking to,
null,"<div style=""font-size:60px;"">+</div>",,html-keyboard-response,460,1395443,0.0-19.0-0.18,16904,List2A,white,woman,,,,null,,,,
null,"<img src=""stim_listA/argue2.gif""style=""height:400px;""></stim_listA>",,html-keyboard-response,461,1397460,0.0-19.0-1.18,16904,List2A,white,woman,,,,null,,,,
null,are arguing with each other,,html-keyboard-response,462,1399462,0.0-19.0-2.18,16904,List2A,white,woman,,,,null,,,,
6971,,,survey-text,463,1406434,0.0-19.0-3.18,16904,List2A,white,woman,,,,,"{""Q0"":""luke and jane are arguing ""}","<img src=""stim_listA/argue2.gif""style=""height:400px;""></stim_listA>",are arguing with each other,
null,"<div style=""font-size:60px;"">+</div>",,html-keyboard-response,464,1406936,0.0-19.0-0.19,16904,List2A,white,woman,,,,null,,,,
null,"<img src=""stim_listA/talk1.gif""style=""height:400px;""></stim_listA>",,html-keyboard-response,465,1408951,0.0-19.0-1.19,16904,List2A,white,woman,,,,null,,,,
null,is talking to,,html-keyboard-response,466,1410952,0.0-19.0-2.19,16904,List2A,white,woman,,,,null,,,,
4502,,,survey-text,467,1415455,0.0-19.0-3.19,16904,List2A,white,woman,,,,,"{""Q0"":""luke is talking to jane ""}","<img src=""stim_listA/talk1.gif""style=""height:400px;""></stim_listA>",is talking to,
1867,<p>Thank you for completing that task.</p><p>The final part of this session is a short questionnaire.</p><p>Press Continue.</p>,0,html-button-response,468,1417323,0.0-20.0,16904,List2A,white,woman,,,,,,,,
17188,,,survey-text,469,1435527,0.0-21.0,16904,List2A,white,woman,,,,,"{""Q0"":""28"",""Q1"":""english "",""Q2"":""english "",""Q3"":""UK"",""Q4"":""white "",""Q5"":""female ""}",,,demographics
7286,,,survey-likert,470,1442816,0.0-22.0,16904,List2A,white,woman,,,,,"{""Q0"":4}",,,likert_ESS
4638,,,survey-likert,471,1447455,0.0-23.0,16904,List2A,white,woman,,,,,"{""Q0"":4}",,,likert_NSSAL_Q1
2204,,,survey-likert,472,1449661,0.0-24.0,16904,List2A,white,woman,,,,,"{""Q0"":4}",,,likert_NSSAL_Q2
3520,,,survey-likert,473,1453183,0.0-25.0,16904,List2A,white,woman,,,,,"{""Q0"":4}",,,likert_CGRS_Q1
4049,,,survey-likert,474,1457233,0.0-26.0,16904,List2A,white,woman,,,,,"{""Q0"":4}",,,likert_CGRS_Q2
2290,,,survey-likert,475,1459525,0.0-27.0,16904,List2A,white,woman,,,,,"{""Q0"":4}",,,likert_CGRS_Q3
3579,,,survey-text,476,1463105,0.0-28.0,16904,List2A,white,woman,,,,,"{""Q0"":""ccc""}",,,worker_id
26322,,,external-html,477,1489501,0.0-29.0,16904,List2A,white,woman,debrief.html,,,,,,,
