rt,stimulus,button_pressed,trial_type,trial_index,time_elapsed,internal_node_id,subject,list,ppt_race,ppt_gender,url,first_guess,correct,key_press,responses,image_type,phrase_type,test_part
14356,Welcome to the experiment. Press Continue to begin.,0,html-button-response,0,14359,0.0-0.0,17111,List2A,black,man,,,,,,,,
166403,,,external-html,1,181790,0.0-1.0,17111,List2A,black,man,consent.html,,,,,,,
29669,"<p>On the next page, you will see portraits of 8 people and their names.</p><p>Your first task is to take a few minutes to memorise the names of these people.</p><p>You will have to recall their names during the rest of the experiment, so it is</p><p>essential that you try to memorise these people and their names as best as you can.</p><br><p><strong>You will then be tested on your memory of these names and portraits.</strong></p><br><p>The experiment will start after you have completed this memory test.</p><br><p>Ready?</p>",0,html-button-response,2,211462,0.0-2.0,17111,List2A,black,man,,,,,,,,
138902,"<img src='img/portrait_matrix_list2.jpg' style='width:900px;height:500px;''></img><p>If you have memorised all the portraits and names and are ready to start, press Continue.</p><p><strong>Please note: Your memory of these faces will be tested 4 times during this experiment.</strong></p>",0,html-button-response,3,351366,0.0-3.0-0.0,17111,List2A,black,man,,,,,,,,
6581,"<img src=""portrait/WM2.jpg""style=""height:400px;""></img>",7,html-button-response,4,358957,0.0-3.0-1.0,17111,List2A,black,man,,TRUE,7,,,,,
null,CORRECT,,html-keyboard-response,5,360462,0.0-3.0-2.0-0.0,17111,List2A,black,man,,,,null,,,,
5854,"<img src=""portrait/BW1.jpg""style=""height:400px;""></img>",0,html-button-response,6,366318,0.0-3.0-4.0,17111,List2A,black,man,,TRUE,0,,,,,
null,CORRECT,,html-keyboard-response,7,367851,0.0-3.0-5.0-0.0,17111,List2A,black,man,,,,null,,,,
9441,"<img src=""portrait/BM1.jpg""style=""height:400px;""></img>",4,html-button-response,8,377293,0.0-3.0-7.0,17111,List2A,black,man,,TRUE,4,,,,,
null,CORRECT,,html-keyboard-response,9,378810,0.0-3.0-8.0-0.0,17111,List2A,black,man,,,,null,,,,
6690,"<img src=""portrait/BM2.jpg""style=""height:400px;""></img>",5,html-button-response,10,385501,0.0-3.0-10.0,17111,List2A,black,man,,TRUE,5,,,,,
null,CORRECT,,html-keyboard-response,11,387009,0.0-3.0-11.0-0.0,17111,List2A,black,man,,,,null,,,,
5131,"<img src=""portrait/BW2.jpg""style=""height:400px;""></img>",2,html-button-response,12,392142,0.0-3.0-13.0,17111,List2A,black,man,,TRUE,2,,,,,
null,CORRECT,,html-keyboard-response,13,393678,0.0-3.0-14.0-0.0,17111,List2A,black,man,,,,null,,,,
4717,"<img src=""portrait/WM1.jpg""style=""height:400px;""></img>",6,html-button-response,14,398397,0.0-3.0-16.0,17111,List2A,black,man,,TRUE,6,,,,,
null,CORRECT,,html-keyboard-response,15,399908,0.0-3.0-17.0-0.0,17111,List2A,black,man,,,,null,,,,
8247,"<img src=""portrait/WW1.jpg""style=""height:400px;""></img>",1,html-button-response,16,408157,0.0-3.0-19.0,17111,List2A,black,man,,TRUE,1,,,,,
null,CORRECT,,html-keyboard-response,17,409661,0.0-3.0-20.0-0.0,17111,List2A,black,man,,,,null,,,,
15118,"<img src=""portrait/WW2.jpg""style=""height:400px;""></img>",3,html-button-response,18,424781,0.0-3.0-22.0,17111,List2A,black,man,,TRUE,3,,,,,
null,CORRECT,,html-keyboard-response,19,426288,0.0-3.0-23.0-0.0,17111,List2A,black,man,,,,null,,,,
1483,<p>You got 8 out of 8 right first time. Press Continue.</p>,0,html-button-response,20,427774,0.0-3.0-25.0,17111,List2A,black,man,,,,,,,,
52356,"<p>In this experiment, you will view photographs of the people from the memory game interacting.</p><p>By using the <strong>exact</strong> phrase given <i>after</i> the photograph appears and recalling the correct names of the people in the photographs, form a sentence describing the interaction. You do not need to capitalise names.</p><p>Type your answer in the space provided. Please complete every sentence before moving onto the next trial.</p><p>You will only have a few seconds to memorise each given photograph and phrase before you can respond, so try your best to focus.</p><p>An example is given below. Press 'Continue' when you are ready.</p><img src='img/speaking_example.jpg' style='width:800px;height:460px;''></img>",0,html-button-response,21,481133,0.0-4.0,17111,List2A,black,man,,,,,,,,
1654,"<p>Before the experiment starts, you will watch two example trials. Press 'Continue'.</p>",0,html-button-response,22,483797,0.0-5.0,17111,List2A,black,man,,,,,,,,
null,<img src='img/meet_eg.gif' style='height:400px;''></img>,,html-keyboard-response,23,486814,0.0-6.0,17111,List2A,black,man,,,,null,,,,
null,<p>is meeting</p>,,html-keyboard-response,24,488813,0.0-7.0,17111,List2A,black,man,,,,null,,,,
7230,<p><b>Answer:</b> jane is meeting ruth</p>,0,html-button-response,25,496045,0.0-8.0,17111,List2A,black,man,,,,,,,,
null,<img src='img/look_eg.gif' style='height:400px;''></img>,,html-keyboard-response,26,499048,0.0-9.0,17111,List2A,black,man,,,,null,,,,
null,<p>are looking at each other</p>,,html-keyboard-response,27,501053,0.0-10.0,17111,List2A,black,man,,,,null,,,,
1654,<p><b>Answer:</b> fred and mike are looking at each other</p>,0,html-button-response,28,502710,0.0-11.0,17111,List2A,black,man,,,,,,,,
6716,"<p>Ready to start the experiment?</p><br><p><strong>Remember to describe the picture using a full sentence,</strong></p><p><strong>that combines the names of the people with the <i>exact</i> phrase given.</strong></p><p><strong>To receive full payment you must do this correctly.</strong></p><p><strong> You do not need to capitalise names or use punctuation.</strong></p><br><p>Press 'Continue' to begin.</p>",0,html-button-response,29,510430,0.0-12.0,17111,List2A,black,man,,,,,,,,
null,"<div style=""font-size:60px;"">+</div>",,html-keyboard-response,30,511931,0.0-13.0-0.0,17111,List2A,black,man,,,,null,,,,
null,"<img src=""stim_listA/marry2.gif""style=""height:400px;""></stim_listA>",,html-keyboard-response,31,513951,0.0-13.0-1.0,17111,List2A,black,man,,,,null,,,,
null,are marrying each other,,html-keyboard-response,32,515940,0.0-13.0-2.0,17111,List2A,black,man,,,,null,,,,
27350,,,survey-text,33,543294,0.0-13.0-3.0,17111,List2A,black,man,,,,,"{""Q0"":""Jane and Mike are marrying each other""}","<img src=""stim_listA/marry2.gif""style=""height:400px;""></stim_listA>",are marrying each other,
null,"<div style=""font-size:60px;"">+</div>",,html-keyboard-response,34,543805,0.0-13.0-0.1,17111,List2A,black,man,,,,null,,,,
null,"<img src=""stim_listA/kiss6.gif""style=""height:400px;""></stim_listA>",,html-keyboard-response,35,545810,0.0-13.0-1.1,17111,List2A,black,man,,,,null,,,,
null,are kissing each other,,html-keyboard-response,36,547813,0.0-13.0-2.1,17111,List2A,black,man,,,,null,,,,
31011,,,survey-text,37,578826,0.0-13.0-3.1,17111,List2A,black,man,,,,,"{""Q0"":""mike and dave are kjissing each other""}","<img src=""stim_listA/kiss6.gif""style=""height:400px;""></stim_listA>",are kissing each other,
null,"<div style=""font-size:60px;"">+</div>",,html-keyboard-response,38,579330,0.0-13.0-0.2,17111,List2A,black,man,,,,null,,,,
null,"<img src=""stim_listA/argue5.gif""style=""height:400px;""></stim_listA>",,html-keyboard-response,39,581334,0.0-13.0-1.2,17111,List2A,black,man,,,,null,,,,
null,is arguing with,,html-keyboard-response,40,583339,0.0-13.0-2.2,17111,List2A,black,man,,,,null,,,,
34109,,,survey-text,41,617450,0.0-13.0-3.2,17111,List2A,black,man,,,,,"{""Q0"":""fred is arguing with dave""}","<img src=""stim_listA/argue5.gif""style=""height:400px;""></stim_listA>",is arguing with,
null,"<div style=""font-size:60px;"">+</div>",,html-keyboard-response,42,617961,0.0-13.0-0.3,17111,List2A,black,man,,,,null,,,,
null,"<img src=""stim_listA/shout2.gif""style=""height:400px;""></stim_listA>",,html-keyboard-response,43,619971,0.0-13.0-1.3,17111,List2A,black,man,,,,null,,,,
null,are shouting at each other,,html-keyboard-response,44,621974,0.0-13.0-2.3,17111,List2A,black,man,,,,null,,,,
19625,,,survey-text,45,641602,0.0-13.0-3.3,17111,List2A,black,man,,,,,"{""Q0"":""dave and jane are shouting at each other""}","<img src=""stim_listA/shout2.gif""style=""height:400px;""></stim_listA>",are shouting at each other,
null,"<div style=""font-size:60px;"">+</div>",,html-keyboard-response,46,642105,0.0-13.0-0.4,17111,List2A,black,man,,,,null,,,,
null,"<img src=""stim_listA/shout5.gif""style=""height:400px;""></stim_listA>",,html-keyboard-response,47,644125,0.0-13.0-1.4,17111,List2A,black,man,,,,null,,,,
null,is shouting at,,html-keyboard-response,48,646114,0.0-13.0-2.4,17111,List2A,black,man,,,,null,,,,
22581,,,survey-text,49,668698,0.0-13.0-3.4,17111,List2A,black,man,,,,,"{""Q0"":""fred is shouting at luke""}","<img src=""stim_listA/shout5.gif""style=""height:400px;""></stim_listA>",is shouting at,
null,"<div style=""font-size:60px;"">+</div>",,html-keyboard-response,50,669204,0.0-13.0-0.5,17111,List2A,black,man,,,,null,,,,
null,"<img src=""stim_listA/kiss7.gif""style=""height:400px;""></stim_listA>",,html-keyboard-response,51,671209,0.0-13.0-1.5,17111,List2A,black,man,,,,null,,,,
null,is kissing,,html-keyboard-response,52,673214,0.0-13.0-2.5,17111,List2A,black,man,,,,null,,,,
16010,,,survey-text,53,689226,0.0-13.0-3.5,17111,List2A,black,man,,,,,"{""Q0"":""beth is kissing ruth""}","<img src=""stim_listA/kiss7.gif""style=""height:400px;""></stim_listA>",is kissing,
null,"<div style=""font-size:60px;"">+</div>",,html-keyboard-response,54,689730,0.0-13.0-0.6,17111,List2A,black,man,,,,null,,,,
null,"<img src=""stim_listA/fight2.gif""style=""height:400px;""></stim_listA>",,html-keyboard-response,55,691756,0.0-13.0-1.6,17111,List2A,black,man,,,,null,,,,
null,are fighting each other,,html-keyboard-response,56,693736,0.0-13.0-2.6,17111,List2A,black,man,,,,null,,,,
17392,,,survey-text,57,711130,0.0-13.0-3.6,17111,List2A,black,man,,,,,"{""Q0"":""luke and ruth are fighting each other""}","<img src=""stim_listA/fight2.gif""style=""height:400px;""></stim_listA>",are fighting each other,
null,"<div style=""font-size:60px;"">+</div>",,html-keyboard-response,58,711647,0.0-13.0-0.7,17111,List2A,black,man,,,,null,,,,
null,"<img src=""stim_listA/marry8.gif""style=""height:400px;""></stim_listA>",,html-keyboard-response,59,713668,0.0-13.0-1.7,17111,List2A,black,man,,,,null,,,,
null,are marrying each other,,html-keyboard-response,60,715672,0.0-13.0-2.7,17111,List2A,black,man,,,,null,,,,
17560,,,survey-text,61,733233,0.0-13.0-3.7,17111,List2A,black,man,,,,,"{""Q0"":""jane and kate are marrying each other""}","<img src=""stim_listA/marry8.gif""style=""height:400px;""></stim_listA>",are marrying each other,
null,"<div style=""font-size:60px;"">+</div>",,html-keyboard-response,62,733751,0.0-13.0-0.8,17111,List2A,black,man,,,,null,,,,
null,"<img src=""stim_listA/talk4.gif""style=""height:400px;""></stim_listA>",,html-keyboard-response,63,735756,0.0-13.0-1.8,17111,List2A,black,man,,,,null,,,,
null,are talking to each other,,html-keyboard-response,64,737765,0.0-13.0-2.8,17111,List2A,black,man,,,,null,,,,
27531,,,survey-text,65,765297,0.0-13.0-3.8,17111,List2A,black,man,,,,,"{""Q0"":""mike and beth are talking to each other""}","<img src=""stim_listA/talk4.gif""style=""height:400px;""></stim_listA>",are talking to each other,
null,"<div style=""font-size:60px;"">+</div>",,html-keyboard-response,66,765803,0.0-13.0-0.9,17111,List2A,black,man,,,,null,,,,
null,"<img src=""stim_listA/kiss4.gif""style=""height:400px;""></stim_listA>",,html-keyboard-response,67,767808,0.0-13.0-1.9,17111,List2A,black,man,,,,null,,,,
null,are kissing each other,,html-keyboard-response,68,769812,0.0-13.0-2.9,17111,List2A,black,man,,,,null,,,,
24196,,,survey-text,69,794009,0.0-13.0-3.9,17111,List2A,black,man,,,,,"{""Q0"":""mike and kate are kissing each other""}","<img src=""stim_listA/kiss4.gif""style=""height:400px;""></stim_listA>",are kissing each other,
null,"<div style=""font-size:60px;"">+</div>",,html-keyboard-response,70,794523,0.0-13.0-0.10,17111,List2A,black,man,,,,null,,,,
null,"<img src=""stim_listA/dance5.gif""style=""height:400px;""></stim_listA>",,html-keyboard-response,71,796527,0.0-13.0-1.10,17111,List2A,black,man,,,,null,,,,
null,is dancing with,,html-keyboard-response,72,798532,0.0-13.0-2.10,17111,List2A,black,man,,,,null,,,,
12676,,,survey-text,73,811210,0.0-13.0-3.10,17111,List2A,black,man,,,,,"{""Q0"":""luke is dancing with mike""}","<img src=""stim_listA/dance5.gif""style=""height:400px;""></stim_listA>",is dancing with,
null,"<div style=""font-size:60px;"">+</div>",,html-keyboard-response,74,811709,0.0-13.0-0.11,17111,List2A,black,man,,,,null,,,,
null,"<img src=""stim_listA/flirt4.gif""style=""height:400px;""></stim_listA>",,html-keyboard-response,75,813736,0.0-13.0-1.11,17111,List2A,black,man,,,,null,,,,
null,are flirting with each other,,html-keyboard-response,76,815718,0.0-13.0-2.11,17111,List2A,black,man,,,,null,,,,
53281,,,survey-text,77,869001,0.0-13.0-3.11,17111,List2A,black,man,,,,,"{""Q0"":""beth and mike are flirting with each other""}","<img src=""stim_listA/flirt4.gif""style=""height:400px;""></stim_listA>",are flirting with each other,
null,"<div style=""font-size:60px;"">+</div>",,html-keyboard-response,78,869523,0.0-13.0-0.12,17111,List2A,black,man,,,,null,,,,
null,"<img src=""stim_listA/flirt5.gif""style=""height:400px;""></stim_listA>",,html-keyboard-response,79,871532,0.0-13.0-1.12,17111,List2A,black,man,,,,null,,,,
null,is flirting with,,html-keyboard-response,80,873549,0.0-13.0-2.12,17111,List2A,black,man,,,,null,,,,
15642,,,survey-text,81,889194,0.0-13.0-3.12,17111,List2A,black,man,,,,,"{""Q0"":""mike is flirting with luke""}","<img src=""stim_listA/flirt5.gif""style=""height:400px;""></stim_listA>",is flirting with,
null,"<div style=""font-size:60px;"">+</div>",,html-keyboard-response,82,889701,0.0-13.0-0.13,17111,List2A,black,man,,,,null,,,,
null,"<img src=""stim_listA/touch1.gif""style=""height:400px;""></stim_listA>",,html-keyboard-response,83,891705,0.0-13.0-1.13,17111,List2A,black,man,,,,null,,,,
null,is touching,,html-keyboard-response,84,893711,0.0-13.0-2.13,17111,List2A,black,man,,,,null,,,,
11106,,,survey-text,85,904817,0.0-13.0-3.13,17111,List2A,black,man,,,,,"{""Q0"":""jane is touching dave""}","<img src=""stim_listA/touch1.gif""style=""height:400px;""></stim_listA>",is touching,
null,"<div style=""font-size:60px;"">+</div>",,html-keyboard-response,86,905321,0.0-13.0-0.14,17111,List2A,black,man,,,,null,,,,
null,"<img src=""stim_listA/kiss2.gif""style=""height:400px;""></stim_listA>",,html-keyboard-response,87,907326,0.0-13.0-1.14,17111,List2A,black,man,,,,null,,,,
null,are kissing each other,,html-keyboard-response,88,909331,0.0-13.0-2.14,17111,List2A,black,man,,,,null,,,,
15726,,,survey-text,89,925057,0.0-13.0-3.14,17111,List2A,black,man,,,,,"{""Q0"":""dave and jane are kissing each other""}","<img src=""stim_listA/kiss2.gif""style=""height:400px;""></stim_listA>",are kissing each other,
null,"<div style=""font-size:60px;"">+</div>",,html-keyboard-response,90,925568,0.0-13.0-0.15,17111,List2A,black,man,,,,null,,,,
null,"<img src=""stim_listA/argue4.gif""style=""height:400px;""></stim_listA>",,html-keyboard-response,91,927572,0.0-13.0-1.15,17111,List2A,black,man,,,,null,,,,
null,are arguing with each other,,html-keyboard-response,92,929592,0.0-13.0-2.15,17111,List2A,black,man,,,,null,,,,
17239,,,survey-text,93,946833,0.0-13.0-3.15,17111,List2A,black,man,,,,,"{""Q0"":""fred and kate are arguing with each other""}","<img src=""stim_listA/argue4.gif""style=""height:400px;""></stim_listA>",are arguing with each other,
null,"<div style=""font-size:60px;"">+</div>",,html-keyboard-response,94,947333,0.0-13.0-0.16,17111,List2A,black,man,,,,null,,,,
null,"<img src=""stim_listA/dance6.gif""style=""height:400px;""></stim_listA>",,html-keyboard-response,95,949337,0.0-13.0-1.16,17111,List2A,black,man,,,,null,,,,
null,are dancing with each other,,html-keyboard-response,96,951343,0.0-13.0-2.16,17111,List2A,black,man,,,,null,,,,
21377,,,survey-text,97,972722,0.0-13.0-3.16,17111,List2A,black,man,,,,,"{""Q0"":""dave and fred are dancing withe each other""}","<img src=""stim_listA/dance6.gif""style=""height:400px;""></stim_listA>",are dancing with each other,
null,"<div style=""font-size:60px;"">+</div>",,html-keyboard-response,98,973220,0.0-13.0-0.17,17111,List2A,black,man,,,,null,,,,
null,"<img src=""stim_listA/talk8.gif""style=""height:400px;""></stim_listA>",,html-keyboard-response,99,975220,0.0-13.0-1.17,17111,List2A,black,man,,,,null,,,,
null,are talking to each other,,html-keyboard-response,100,977239,0.0-13.0-2.17,17111,List2A,black,man,,,,null,,,,
13763,,,survey-text,101,991010,0.0-13.0-3.17,17111,List2A,black,man,,,,,"{""Q0"":""beth and jane are talking to each other""}","<img src=""stim_listA/talk8.gif""style=""height:400px;""></stim_listA>",are talking to each other,
null,"<div style=""font-size:60px;"">+</div>",,html-keyboard-response,102,991518,0.0-13.0-0.18,17111,List2A,black,man,,,,null,,,,
null,"<img src=""stim_listA/talk6.gif""style=""height:400px;""></stim_listA>",,html-keyboard-response,103,993538,0.0-13.0-1.18,17111,List2A,black,man,,,,null,,,,
null,are talking to each other,,html-keyboard-response,104,995527,0.0-13.0-2.18,17111,List2A,black,man,,,,null,,,,
12320,,,survey-text,105,1007849,0.0-13.0-3.18,17111,List2A,black,man,,,,,"{""Q0"":""dave and fred are talking to each other""}","<img src=""stim_listA/talk6.gif""style=""height:400px;""></stim_listA>",are talking to each other,
null,"<div style=""font-size:60px;"">+</div>",,html-keyboard-response,106,1008356,0.0-13.0-0.19,17111,List2A,black,man,,,,null,,,,
null,"<img src=""stim_listA/touch2.gif""style=""height:400px;""></stim_listA>",,html-keyboard-response,107,1010380,0.0-13.0-1.19,17111,List2A,black,man,,,,null,,,,
null,are touching each other,,html-keyboard-response,108,1012365,0.0-13.0-2.19,17111,List2A,black,man,,,,null,,,,
17491,,,survey-text,109,1029857,0.0-13.0-3.19,17111,List2A,black,man,,,,,"{""Q0"":""ruth and luke are touching each other""}","<img src=""stim_listA/touch2.gif""style=""height:400px;""></stim_listA>",are touching each other,
33623,"<img src='img/portrait_matrix_list2.jpg' style='width:900px;height:500px;''></img><p>If you have memorised all the portraits and names and are ready to start, press Continue.</p><p><strong>Please note: Your memory of these faces will be tested 4 times during this experiment.</strong></p>",0,html-button-response,110,1063481,0.0-14.0-0.0,17111,List2A,black,man,,,,,,,,
4003,"<img src=""portrait/WM2.jpg""style=""height:400px;""></img>",7,html-button-response,111,1068489,0.0-14.0-1.0,17111,List2A,black,man,,TRUE,7,,,,,
null,CORRECT,,html-keyboard-response,112,1070029,0.0-14.0-2.0-0.0,17111,List2A,black,man,,,,null,,,,
2346,"<img src=""portrait/WW1.jpg""style=""height:400px;""></img>",1,html-button-response,113,1072377,0.0-14.0-4.0,17111,List2A,black,man,,TRUE,1,,,,,
null,CORRECT,,html-keyboard-response,114,1073892,0.0-14.0-5.0-0.0,17111,List2A,black,man,,,,null,,,,
2691,"<img src=""portrait/BM2.jpg""style=""height:400px;""></img>",5,html-button-response,115,1076585,0.0-14.0-7.0,17111,List2A,black,man,,TRUE,5,,,,,
null,CORRECT,,html-keyboard-response,116,1078117,0.0-14.0-8.0-0.0,17111,List2A,black,man,,,,null,,,,
4363,"<img src=""portrait/WW2.jpg""style=""height:400px;""></img>",3,html-button-response,117,1082481,0.0-14.0-10.0,17111,List2A,black,man,,TRUE,3,,,,,
null,CORRECT,,html-keyboard-response,118,1083998,0.0-14.0-11.0-0.0,17111,List2A,black,man,,,,null,,,,
2969,"<img src=""portrait/WM1.jpg""style=""height:400px;""></img>",6,html-button-response,119,1086969,0.0-14.0-13.0,17111,List2A,black,man,,TRUE,6,,,,,
null,CORRECT,,html-keyboard-response,120,1088498,0.0-14.0-14.0-0.0,17111,List2A,black,man,,,,null,,,,
3621,"<img src=""portrait/BW1.jpg""style=""height:400px;""></img>",0,html-button-response,121,1092121,0.0-14.0-16.0,17111,List2A,black,man,,TRUE,0,,,,,
null,CORRECT,,html-keyboard-response,122,1093653,0.0-14.0-17.0-0.0,17111,List2A,black,man,,,,null,,,,
3378,"<img src=""portrait/BW2.jpg""style=""height:400px;""></img>",2,html-button-response,123,1097033,0.0-14.0-19.0,17111,List2A,black,man,,TRUE,2,,,,,
null,CORRECT,,html-keyboard-response,124,1098563,0.0-14.0-20.0-0.0,17111,List2A,black,man,,,,null,,,,
2739,"<img src=""portrait/BM1.jpg""style=""height:400px;""></img>",4,html-button-response,125,1101305,0.0-14.0-22.0,17111,List2A,black,man,,TRUE,4,,,,,
null,CORRECT,,html-keyboard-response,126,1102827,0.0-14.0-23.0-0.0,17111,List2A,black,man,,,,null,,,,
1291,<p>You got 8 out of 8 right first time. Press Continue.</p>,0,html-button-response,127,1104121,0.0-14.0-25.0,17111,List2A,black,man,,,,,,,,
null,"<div style=""font-size:60px;"">+</div>",,html-keyboard-response,128,1105633,0.0-15.0-0.0,17111,List2A,black,man,,,,null,,,,
null,"<img src=""stim_listA/fight6.gif""style=""height:400px;""></stim_listA>",,html-keyboard-response,129,1107653,0.0-15.0-1.0,17111,List2A,black,man,,,,null,,,,
null,are fighting each other,,html-keyboard-response,130,1109659,0.0-15.0-2.0,17111,List2A,black,man,,,,null,,,,
14692,,,survey-text,131,1124353,0.0-15.0-3.0,17111,List2A,black,man,,,,,"{""Q0"":""luke and fred are fighting each other""}","<img src=""stim_listA/fight6.gif""style=""height:400px;""></stim_listA>",are fighting each other,
null,"<div style=""font-size:60px;"">+</div>",,html-keyboard-response,132,1124855,0.0-15.0-0.1,17111,List2A,black,man,,,,null,,,,
null,"<img src=""stim_listA/play1.gif""style=""height:400px;""></stim_listA>",,html-keyboard-response,133,1126866,0.0-15.0-1.1,17111,List2A,black,man,,,,null,,,,
null,is playing with,,html-keyboard-response,134,1128864,0.0-15.0-2.1,17111,List2A,black,man,,,,null,,,,
9384,,,survey-text,135,1138249,0.0-15.0-3.1,17111,List2A,black,man,,,,,"{""Q0"":""jane is playing with dave""}","<img src=""stim_listA/play1.gif""style=""height:400px;""></stim_listA>",is playing with,
null,"<div style=""font-size:60px;"">+</div>",,html-keyboard-response,136,1138756,0.0-15.0-0.2,17111,List2A,black,man,,,,null,,,,
null,"<img src=""stim_listA/fight1.gif""style=""height:400px;""></stim_listA>",,html-keyboard-response,137,1140761,0.0-15.0-1.2,17111,List2A,black,man,,,,null,,,,
null,is fighting,,html-keyboard-response,138,1142766,0.0-15.0-2.2,17111,List2A,black,man,,,,null,,,,
10275,,,survey-text,139,1153041,0.0-15.0-3.2,17111,List2A,black,man,,,,,"{""Q0"":""jane is fighting dave""}","<img src=""stim_listA/fight1.gif""style=""height:400px;""></stim_listA>",is fighting,
null,"<div style=""font-size:60px;"">+</div>",,html-keyboard-response,140,1153559,0.0-15.0-0.3,17111,List2A,black,man,,,,null,,,,
null,"<img src=""stim_listA/flirt6.gif""style=""height:400px;""></stim_listA>",,html-keyboard-response,141,1155563,0.0-15.0-1.3,17111,List2A,black,man,,,,null,,,,
null,are flirting with each other,,html-keyboard-response,142,1157568,0.0-15.0-2.3,17111,List2A,black,man,,,,null,,,,
13488,,,survey-text,143,1171057,0.0-15.0-3.3,17111,List2A,black,man,,,,,"{""Q0"":""dave and fred are flirting with each other""}","<img src=""stim_listA/flirt6.gif""style=""height:400px;""></stim_listA>",are flirting with each other,
null,"<div style=""font-size:60px;"">+</div>",,html-keyboard-response,144,1171562,0.0-15.0-0.4,17111,List2A,black,man,,,,null,,,,
null,"<img src=""stim_listA/kiss1.gif""style=""height:400px;""></stim_listA>",,html-keyboard-response,145,1173592,0.0-15.0-1.4,17111,List2A,black,man,,,,null,,,,
null,is kissing,,html-keyboard-response,146,1175571,0.0-15.0-2.4,17111,List2A,black,man,,,,null,,,,
8635,,,survey-text,147,1184209,0.0-15.0-3.4,17111,List2A,black,man,,,,,"{""Q0"":""ruth is kissing luke""}","<img src=""stim_listA/kiss1.gif""style=""height:400px;""></stim_listA>",is kissing,
null,"<div style=""font-size:60px;"">+</div>",,html-keyboard-response,148,1184715,0.0-15.0-0.5,17111,List2A,black,man,,,,null,,,,
null,"<img src=""stim_listA/shout1.gif""style=""height:400px;""></stim_listA>",,html-keyboard-response,149,1186719,0.0-15.0-1.5,17111,List2A,black,man,,,,null,,,,
null,is shouting at,,html-keyboard-response,150,1188724,0.0-15.0-2.5,17111,List2A,black,man,,,,null,,,,
13363,,,survey-text,151,1202089,0.0-15.0-3.5,17111,List2A,black,man,,,,,"{""Q0"":""ruth is shouting at luke""}","<img src=""stim_listA/shout1.gif""style=""height:400px;""></stim_listA>",is shouting at,
null,"<div style=""font-size:60px;"">+</div>",,html-keyboard-response,152,1202602,0.0-15.0-0.6,17111,List2A,black,man,,,,null,,,,
null,"<img src=""stim_listA/touch7.gif""style=""height:400px;""></stim_listA>",,html-keyboard-response,153,1204610,0.0-15.0-1.6,17111,List2A,black,man,,,,null,,,,
null,is touching,,html-keyboard-response,154,1206610,0.0-15.0-2.6,17111,List2A,black,man,,,,null,,,,
15165,,,survey-text,155,1221777,0.0-15.0-3.6,17111,List2A,black,man,,,,,"{""Q0"":""jane is touching kate""}","<img src=""stim_listA/touch7.gif""style=""height:400px;""></stim_listA>",is touching,
null,"<div style=""font-size:60px;"">+</div>",,html-keyboard-response,156,1222278,0.0-15.0-0.7,17111,List2A,black,man,,,,null,,,,
null,"<img src=""stim_listA/play5.gif""style=""height:400px;""></stim_listA>",,html-keyboard-response,157,1224283,0.0-15.0-1.7,17111,List2A,black,man,,,,null,,,,
null,is playing with,,html-keyboard-response,158,1226288,0.0-15.0-2.7,17111,List2A,black,man,,,,null,,,,
22023,,,survey-text,159,1248312,0.0-15.0-3.7,17111,List2A,black,man,,,,,"{""Q0"":""mike is playing with dave""}","<img src=""stim_listA/play5.gif""style=""height:400px;""></stim_listA>",is playing with,
null,"<div style=""font-size:60px;"">+</div>",,html-keyboard-response,160,1248825,0.0-15.0-0.8,17111,List2A,black,man,,,,null,,,,
null,"<img src=""stim_listA/touch8.gif""style=""height:400px;""></stim_listA>",,html-keyboard-response,161,1250844,0.0-15.0-1.8,17111,List2A,black,man,,,,null,,,,
null,are touching each other,,html-keyboard-response,162,1252833,0.0-15.0-2.8,17111,List2A,black,man,,,,null,,,,
12014,,,survey-text,163,1264849,0.0-15.0-3.8,17111,List2A,black,man,,,,,"{""Q0"":""beth and ruth are touching each other""}","<img src=""stim_listA/touch8.gif""style=""height:400px;""></stim_listA>",are touching each other,
null,"<div style=""font-size:60px;"">+</div>",,html-keyboard-response,164,1265362,0.0-15.0-0.9,17111,List2A,black,man,,,,null,,,,
null,"<img src=""stim_listA/fight4.gif""style=""height:400px;""></stim_listA>",,html-keyboard-response,165,1267367,0.0-15.0-1.9,17111,List2A,black,man,,,,null,,,,
null,are fighting each other,,html-keyboard-response,166,1269371,0.0-15.0-2.9,17111,List2A,black,man,,,,null,,,,
12499,,,survey-text,167,1281873,0.0-15.0-3.9,17111,List2A,black,man,,,,,"{""Q0"":""beth and fred are fighting each other""}","<img src=""stim_listA/fight4.gif""style=""height:400px;""></stim_listA>",are fighting each other,
null,"<div style=""font-size:60px;"">+</div>",,html-keyboard-response,168,1282385,0.0-15.0-0.10,17111,List2A,black,man,,,,null,,,,
null,"<img src=""stim_listA/marry4.gif""style=""height:400px;""></stim_listA>",,html-keyboard-response,169,1284422,0.0-15.0-1.10,17111,List2A,black,man,,,,null,,,,
null,are marrying each other,,html-keyboard-response,170,1286395,0.0-15.0-2.10,17111,List2A,black,man,,,,null,,,,
10731,,,survey-text,171,1297128,0.0-15.0-3.10,17111,List2A,black,man,,,,,"{""Q0"":""kate and fred are marring each other""}","<img src=""stim_listA/marry4.gif""style=""height:400px;""></stim_listA>",are marrying each other,
null,"<div style=""font-size:60px;"">+</div>",,html-keyboard-response,172,1297633,0.0-15.0-0.11,17111,List2A,black,man,,,,null,,,,
null,"<img src=""stim_listA/shout4.gif""style=""height:400px;""></stim_listA>",,html-keyboard-response,173,1299650,0.0-15.0-1.11,17111,List2A,black,man,,,,null,,,,
null,are shouting at each other,,html-keyboard-response,174,1301646,0.0-15.0-2.11,17111,List2A,black,man,,,,null,,,,
12416,,,survey-text,175,1314064,0.0-15.0-3.11,17111,List2A,black,man,,,,,"{""Q0"":""mike and kate are shouting at each other""}","<img src=""stim_listA/shout4.gif""style=""height:400px;""></stim_listA>",are shouting at each other,
null,"<div style=""font-size:60px;"">+</div>",,html-keyboard-response,176,1314575,0.0-15.0-0.12,17111,List2A,black,man,,,,null,,,,
null,"<img src=""stim_listA/argue8.gif""style=""height:400px;""></stim_listA>",,html-keyboard-response,177,1316617,0.0-15.0-1.12,17111,List2A,black,man,,,,null,,,,
null,are arguing with each other,,html-keyboard-response,178,1318599,0.0-15.0-2.12,17111,List2A,black,man,,,,null,,,,
11751,,,survey-text,179,1330352,0.0-15.0-3.12,17111,List2A,black,man,,,,,"{""Q0"":""ruth and kate are arduing with each other""}","<img src=""stim_listA/argue8.gif""style=""height:400px;""></stim_listA>",are arguing with each other,
null,"<div style=""font-size:60px;"">+</div>",,html-keyboard-response,180,1330865,0.0-15.0-0.13,17111,List2A,black,man,,,,null,,,,
null,"<img src=""stim_listA/shout8.gif""style=""height:400px;""></stim_listA>",,html-keyboard-response,181,1332886,0.0-15.0-1.13,17111,List2A,black,man,,,,null,,,,
null,are shouting at each other,,html-keyboard-response,182,1334875,0.0-15.0-2.13,17111,List2A,black,man,,,,null,,,,
10627,,,survey-text,183,1345504,0.0-15.0-3.13,17111,List2A,black,man,,,,,"{""Q0"":""jane and kate are shouting at each other""}","<img src=""stim_listA/shout8.gif""style=""height:400px;""></stim_listA>",are shouting at each other,
null,"<div style=""font-size:60px;"">+</div>",,html-keyboard-response,184,1346016,0.0-15.0-0.14,17111,List2A,black,man,,,,null,,,,
null,"<img src=""stim_listA/argue6.gif""style=""height:400px;""></stim_listA>",,html-keyboard-response,185,1348021,0.0-15.0-1.14,17111,List2A,black,man,,,,null,,,,
null,are arguing with each other,,html-keyboard-response,186,1350026,0.0-15.0-2.14,17111,List2A,black,man,,,,null,,,,
14470,,,survey-text,187,1364496,0.0-15.0-3.14,17111,List2A,black,man,,,,,"{""Q0"":""mike and luke are arguing at each other""}","<img src=""stim_listA/argue6.gif""style=""height:400px;""></stim_listA>",are arguing with each other,
null,"<div style=""font-size:60px;"">+</div>",,html-keyboard-response,188,1365006,0.0-15.0-0.15,17111,List2A,black,man,,,,null,,,,
null,"<img src=""stim_listA/dance2.gif""style=""height:400px;""></stim_listA>",,html-keyboard-response,189,1367008,0.0-15.0-1.15,17111,List2A,black,man,,,,null,,,,
null,are dancing with each other,,html-keyboard-response,190,1369016,0.0-15.0-2.15,17111,List2A,black,man,,,,null,,,,
11926,,,survey-text,191,1380944,0.0-15.0-3.15,17111,List2A,black,man,,,,,"{""Q0"":""ruth and dave are dancing with each other""}","<img src=""stim_listA/dance2.gif""style=""height:400px;""></stim_listA>",are dancing with each other,
null,"<div style=""font-size:60px;"">+</div>",,html-keyboard-response,192,1381445,0.0-15.0-0.16,17111,List2A,black,man,,,,null,,,,
null,"<img src=""stim_listA/flirt2.gif""style=""height:400px;""></stim_listA>",,html-keyboard-response,193,1383450,0.0-15.0-1.16,17111,List2A,black,man,,,,null,,,,
null,are flirting with each other,,html-keyboard-response,194,1385454,0.0-15.0-2.16,17111,List2A,black,man,,,,null,,,,
10432,,,survey-text,195,1395888,0.0-15.0-3.16,17111,List2A,black,man,,,,,"{""Q0"":""ruth and dave are flirting with each other""}","<img src=""stim_listA/flirt2.gif""style=""height:400px;""></stim_listA>",are flirting with each other,
null,"<div style=""font-size:60px;"">+</div>",,html-keyboard-response,196,1396401,0.0-15.0-0.17,17111,List2A,black,man,,,,null,,,,
null,"<img src=""stim_listA/marry5.gif""style=""height:400px;""></stim_listA>",,html-keyboard-response,197,1398406,0.0-15.0-1.17,17111,List2A,black,man,,,,null,,,,
null,is marrying,,html-keyboard-response,198,1400410,0.0-15.0-2.17,17111,List2A,black,man,,,,null,,,,
27743,,,survey-text,199,1428155,0.0-15.0-3.17,17111,List2A,black,man,,,,,"{""Q0"":""fred is marrying dave""}","<img src=""stim_listA/marry5.gif""style=""height:400px;""></stim_listA>",is marrying,
null,"<div style=""font-size:60px;"">+</div>",,html-keyboard-response,200,1428676,0.0-15.0-0.18,17111,List2A,black,man,,,,null,,,,
null,"<img src=""stim_listA/shout6.gif""style=""height:400px;""></stim_listA>",,html-keyboard-response,201,1430681,0.0-15.0-1.18,17111,List2A,black,man,,,,null,,,,
null,are shouting at each other,,html-keyboard-response,202,1432685,0.0-15.0-2.18,17111,List2A,black,man,,,,null,,,,
26593,,,survey-text,203,1459280,0.0-15.0-3.18,17111,List2A,black,man,,,,,"{""Q0"":""dave and mike are shouting at each other""}","<img src=""stim_listA/shout6.gif""style=""height:400px;""></stim_listA>",are shouting at each other,
null,"<div style=""font-size:60px;"">+</div>",,html-keyboard-response,204,1459794,0.0-15.0-0.19,17111,List2A,black,man,,,,null,,,,
null,"<img src=""stim_listA/argue7.gif""style=""height:400px;""></stim_listA>",,html-keyboard-response,205,1461799,0.0-15.0-1.19,17111,List2A,black,man,,,,null,,,,
null,is arguing with,,html-keyboard-response,206,1463804,0.0-15.0-2.19,17111,List2A,black,man,,,,null,,,,
10474,,,survey-text,207,1474280,0.0-15.0-3.19,17111,List2A,black,man,,,,,"{""Q0"":""beth is arguing with jane""}","<img src=""stim_listA/argue7.gif""style=""height:400px;""></stim_listA>",is arguing with,
6015,"<img src='img/portrait_matrix_list2.jpg' style='width:900px;height:500px;''></img><p>If you have memorised all the portraits and names and are ready to start, press Continue.</p><p><strong>Please note: Your memory of these faces will be tested 4 times during this experiment.</strong></p>",0,html-button-response,208,1480296,0.0-16.0-0.0,17111,List2A,black,man,,,,,,,,
2743,"<img src=""portrait/BM2.jpg""style=""height:400px;""></img>",5,html-button-response,209,1484040,0.0-16.0-1.0,17111,List2A,black,man,,TRUE,5,,,,,
null,CORRECT,,html-keyboard-response,210,1485584,0.0-16.0-2.0-0.0,17111,List2A,black,man,,,,null,,,,
9423,"<img src=""portrait/WW2.jpg""style=""height:400px;""></img>",3,html-button-response,211,1495008,0.0-16.0-4.0,17111,List2A,black,man,,TRUE,3,,,,,
null,CORRECT,,html-keyboard-response,212,1496531,0.0-16.0-5.0-0.0,17111,List2A,black,man,,,,null,,,,
2610,"<img src=""portrait/WM2.jpg""style=""height:400px;""></img>",7,html-button-response,213,1499144,0.0-16.0-7.0,17111,List2A,black,man,,TRUE,7,,,,,
null,CORRECT,,html-keyboard-response,214,1500687,0.0-16.0-8.0-0.0,17111,List2A,black,man,,,,null,,,,
1719,"<img src=""portrait/BW1.jpg""style=""height:400px;""></img>",0,html-button-response,215,1502408,0.0-16.0-10.0,17111,List2A,black,man,,TRUE,0,,,,,
null,CORRECT,,html-keyboard-response,216,1503911,0.0-16.0-11.0-0.0,17111,List2A,black,man,,,,null,,,,
2624,"<img src=""portrait/BW2.jpg""style=""height:400px;""></img>",2,html-button-response,217,1506536,0.0-16.0-13.0,17111,List2A,black,man,,TRUE,2,,,,,
null,CORRECT,,html-keyboard-response,218,1508073,0.0-16.0-14.0-0.0,17111,List2A,black,man,,,,null,,,,
1613,"<img src=""portrait/WW1.jpg""style=""height:400px;""></img>",1,html-button-response,219,1509688,0.0-16.0-16.0,17111,List2A,black,man,,TRUE,1,,,,,
null,CORRECT,,html-keyboard-response,220,1511227,0.0-16.0-17.0-0.0,17111,List2A,black,man,,,,null,,,,
2226,"<img src=""portrait/WM1.jpg""style=""height:400px;""></img>",6,html-button-response,221,1513457,0.0-16.0-19.0,17111,List2A,black,man,,TRUE,6,,,,,
null,CORRECT,,html-keyboard-response,222,1514989,0.0-16.0-20.0-0.0,17111,List2A,black,man,,,,null,,,,
1761,"<img src=""portrait/BM1.jpg""style=""height:400px;""></img>",4,html-button-response,223,1516752,0.0-16.0-22.0,17111,List2A,black,man,,TRUE,4,,,,,
null,CORRECT,,html-keyboard-response,224,1518297,0.0-16.0-23.0-0.0,17111,List2A,black,man,,,,null,,,,
1131,<p>You got 8 out of 8 right first time. Press Continue.</p>,0,html-button-response,225,1519432,0.0-16.0-25.0,17111,List2A,black,man,,,,,,,,
null,"<div style=""font-size:60px;"">+</div>",,html-keyboard-response,226,1520949,0.0-17.0-0.0,17111,List2A,black,man,,,,null,,,,
null,"<img src=""stim_listA/kiss3.gif""style=""height:400px;""></stim_listA>",,html-keyboard-response,227,1522954,0.0-17.0-1.0,17111,List2A,black,man,,,,null,,,,
null,is kissing,,html-keyboard-response,228,1524958,0.0-17.0-2.0,17111,List2A,black,man,,,,null,,,,
9704,,,survey-text,229,1534664,0.0-17.0-3.0,17111,List2A,black,man,,,,,"{""Q0"":""beth is kissing fred""}","<img src=""stim_listA/kiss3.gif""style=""height:400px;""></stim_listA>",is kissing,
null,"<div style=""font-size:60px;"">+</div>",,html-keyboard-response,230,1535166,0.0-17.0-0.1,17111,List2A,black,man,,,,null,,,,
null,"<img src=""stim_listA/fight5.gif""style=""height:400px;""></stim_listA>",,html-keyboard-response,231,1537187,0.0-17.0-1.1,17111,List2A,black,man,,,,null,,,,
null,is fighting,,html-keyboard-response,232,1539191,0.0-17.0-2.1,17111,List2A,black,man,,,,null,,,,
23335,,,survey-text,233,1562527,0.0-17.0-3.1,17111,List2A,black,man,,,,,"{""Q0"":""mike is fighting with dave""}","<img src=""stim_listA/fight5.gif""style=""height:400px;""></stim_listA>",is fighting,
null,"<div style=""font-size:60px;"">+</div>",,html-keyboard-response,234,1563030,0.0-17.0-0.2,17111,List2A,black,man,,,,null,,,,
null,"<img src=""stim_listA/shout3.gif""style=""height:400px;""></stim_listA>",,html-keyboard-response,235,1565050,0.0-17.0-1.2,17111,List2A,black,man,,,,null,,,,
null,is shouting at,,html-keyboard-response,236,1567039,0.0-17.0-2.2,17111,List2A,black,man,,,,null,,,,
12838,,,survey-text,237,1579880,0.0-17.0-3.2,17111,List2A,black,man,,,,,"{""Q0"":""beth is shouting at fred""}","<img src=""stim_listA/shout3.gif""style=""height:400px;""></stim_listA>",is shouting at,
null,"<div style=""font-size:60px;"">+</div>",,html-keyboard-response,238,1580400,0.0-17.0-0.3,17111,List2A,black,man,,,,null,,,,
null,"<img src=""stim_listA/argue1.gif""style=""height:400px;""></stim_listA>",,html-keyboard-response,239,1582405,0.0-17.0-1.3,17111,List2A,black,man,,,,null,,,,
null,is arguing with,,html-keyboard-response,240,1584410,0.0-17.0-2.3,17111,List2A,black,man,,,,null,,,,
9644,,,survey-text,241,1594056,0.0-17.0-3.3,17111,List2A,black,man,,,,,"{""Q0"":""ruth is arguing with dave""}","<img src=""stim_listA/argue1.gif""style=""height:400px;""></stim_listA>",is arguing with,
null,"<div style=""font-size:60px;"">+</div>",,html-keyboard-response,242,1594586,0.0-17.0-0.4,17111,List2A,black,man,,,,null,,,,
null,"<img src=""stim_listA/play3.gif""style=""height:400px;""></stim_listA>",,html-keyboard-response,243,1596607,0.0-17.0-1.4,17111,List2A,black,man,,,,null,,,,
null,is playing with,,html-keyboard-response,244,1598595,0.0-17.0-2.4,17111,List2A,black,man,,,,null,,,,
10554,,,survey-text,245,1609152,0.0-17.0-3.4,17111,List2A,black,man,,,,,"{""Q0"":""kate is playing with mike""}","<img src=""stim_listA/play3.gif""style=""height:400px;""></stim_listA>",is playing with,
null,"<div style=""font-size:60px;"">+</div>",,html-keyboard-response,246,1609652,0.0-17.0-0.5,17111,List2A,black,man,,,,null,,,,
null,"<img src=""stim_listA/talk1.gif""style=""height:400px;""></stim_listA>",,html-keyboard-response,247,1611664,0.0-17.0-1.5,17111,List2A,black,man,,,,null,,,,
null,is talking to,,html-keyboard-response,248,1613661,0.0-17.0-2.5,17111,List2A,black,man,,,,null,,,,
7577,,,survey-text,249,1621240,0.0-17.0-3.5,17111,List2A,black,man,,,,,"{""Q0"":""jane is talking to luke""}","<img src=""stim_listA/talk1.gif""style=""height:400px;""></stim_listA>",is talking to,
null,"<div style=""font-size:60px;"">+</div>",,html-keyboard-response,250,1621764,0.0-17.0-0.6,17111,List2A,black,man,,,,null,,,,
null,"<img src=""stim_listA/dance7.gif""style=""height:400px;""></stim_listA>",,html-keyboard-response,251,1623784,0.0-17.0-1.6,17111,List2A,black,man,,,,null,,,,
null,is dancing with,,html-keyboard-response,252,1625789,0.0-17.0-2.6,17111,List2A,black,man,,,,null,,,,
9737,,,survey-text,253,1635528,0.0-17.0-3.6,17111,List2A,black,man,,,,,"{""Q0"":""ruth is dancing with kate""}","<img src=""stim_listA/dance7.gif""style=""height:400px;""></stim_listA>",is dancing with,
null,"<div style=""font-size:60px;"">+</div>",,html-keyboard-response,254,1636028,0.0-17.0-0.7,17111,List2A,black,man,,,,null,,,,
null,"<img src=""stim_listA/marry7.gif""style=""height:400px;""></stim_listA>",,html-keyboard-response,255,1638054,0.0-17.0-1.7,17111,List2A,black,man,,,,null,,,,
null,is marrying,,html-keyboard-response,256,1640059,0.0-17.0-2.7,17111,List2A,black,man,,,,null,,,,
17660,,,survey-text,257,1657719,0.0-17.0-3.7,17111,List2A,black,man,,,,,"{""Q0"":""beth is marrying jane""}","<img src=""stim_listA/marry7.gif""style=""height:400px;""></stim_listA>",is marrying,
null,"<div style=""font-size:60px;"">+</div>",,html-keyboard-response,258,1658232,0.0-17.0-0.8,17111,List2A,black,man,,,,null,,,,
null,"<img src=""stim_listA/kiss5.gif""style=""height:400px;""></stim_listA>",,html-keyboard-response,259,1660237,0.0-17.0-1.8,17111,List2A,black,man,,,,null,,,,
null,is kissing,,html-keyboard-response,260,1662242,0.0-17.0-2.8,17111,List2A,black,man,,,,null,,,,
10252,,,survey-text,261,1672496,0.0-17.0-3.8,17111,List2A,black,man,,,,,"{""Q0"":""luke is kissing fred""}","<img src=""stim_listA/kiss5.gif""style=""height:400px;""></stim_listA>",is kissing,
null,"<div style=""font-size:60px;"">+</div>",,html-keyboard-response,262,1672998,0.0-17.0-0.9,17111,List2A,black,man,,,,null,,,,
null,"<img src=""stim_listA/play8.gif""style=""height:400px;""></stim_listA>",,html-keyboard-response,263,1675017,0.0-17.0-1.9,17111,List2A,black,man,,,,null,,,,
null,are playing with each other,,html-keyboard-response,264,1677023,0.0-17.0-2.9,17111,List2A,black,man,,,,null,,,,
13216,,,survey-text,265,1690240,0.0-17.0-3.9,17111,List2A,black,man,,,,,"{""Q0"":""beth and ruth are playing with each other""}","<img src=""stim_listA/play8.gif""style=""height:400px;""></stim_listA>",are playing with each other,
null,"<div style=""font-size:60px;"">+</div>",,html-keyboard-response,266,1690754,0.0-17.0-0.10,17111,List2A,black,man,,,,null,,,,
null,"<img src=""stim_listA/talk7.gif""style=""height:400px;""></stim_listA>",,html-keyboard-response,267,1692758,0.0-17.0-1.10,17111,List2A,black,man,,,,null,,,,
null,is talking to,,html-keyboard-response,268,1694763,0.0-17.0-2.10,17111,List2A,black,man,,,,null,,,,
12211,,,survey-text,269,1706976,0.0-17.0-3.10,17111,List2A,black,man,,,,,"{""Q0"":""kate is talking to ruth""}","<img src=""stim_listA/talk7.gif""style=""height:400px;""></stim_listA>",is talking to,
null,"<div style=""font-size:60px;"">+</div>",,html-keyboard-response,270,1707476,0.0-17.0-0.11,17111,List2A,black,man,,,,null,,,,
null,"<img src=""stim_listA/touch3.gif""style=""height:400px;""></stim_listA>",,html-keyboard-response,271,1709485,0.0-17.0-1.11,17111,List2A,black,man,,,,null,,,,
null,is touching,,html-keyboard-response,272,1711486,0.0-17.0-2.11,17111,List2A,black,man,,,,null,,,,
8000,,,survey-text,273,1719488,0.0-17.0-3.11,17111,List2A,black,man,,,,,"{""Q0"":""kate is touching mike""}","<img src=""stim_listA/touch3.gif""style=""height:400px;""></stim_listA>",is touching,
null,"<div style=""font-size:60px;"">+</div>",,html-keyboard-response,274,1719989,0.0-17.0-0.12,17111,List2A,black,man,,,,null,,,,
null,"<img src=""stim_listA/marry1.gif""style=""height:400px;""></stim_listA>",,html-keyboard-response,275,1721994,0.0-17.0-1.12,17111,List2A,black,man,,,,null,,,,
null,is marrying,,html-keyboard-response,276,1723999,0.0-17.0-2.12,17111,List2A,black,man,,,,null,,,,
7823,,,survey-text,277,1731824,0.0-17.0-3.12,17111,List2A,black,man,,,,,"{""Q0"":""dave is marrying ruth""}","<img src=""stim_listA/marry1.gif""style=""height:400px;""></stim_listA>",is marrying,
null,"<div style=""font-size:60px;"">+</div>",,html-keyboard-response,278,1732334,0.0-17.0-0.13,17111,List2A,black,man,,,,null,,,,
null,"<img src=""stim_listA/touch5.gif""style=""height:400px;""></stim_listA>",,html-keyboard-response,279,1734339,0.0-17.0-1.13,17111,List2A,black,man,,,,null,,,,
null,is touching,,html-keyboard-response,280,1736344,0.0-17.0-2.13,17111,List2A,black,man,,,,null,,,,
7686,,,survey-text,281,1744031,0.0-17.0-3.13,17111,List2A,black,man,,,,,"{""Q0"":""dave is touching mike""}","<img src=""stim_listA/touch5.gif""style=""height:400px;""></stim_listA>",is touching,
null,"<div style=""font-size:60px;"">+</div>",,html-keyboard-response,282,1744546,0.0-17.0-0.14,17111,List2A,black,man,,,,null,,,,
null,"<img src=""stim_listA/flirt8.gif""style=""height:400px;""></stim_listA>",,html-keyboard-response,283,1746566,0.0-17.0-1.14,17111,List2A,black,man,,,,null,,,,
null,are flirting with each other,,html-keyboard-response,284,1748555,0.0-17.0-2.14,17111,List2A,black,man,,,,null,,,,
12770,,,survey-text,285,1761327,0.0-17.0-3.14,17111,List2A,black,man,,,,,"{""Q0"":""ruth and jane are flirting with each other""}","<img src=""stim_listA/flirt8.gif""style=""height:400px;""></stim_listA>",are flirting with each other,
null,"<div style=""font-size:60px;"">+</div>",,html-keyboard-response,286,1761840,0.0-17.0-0.15,17111,List2A,black,man,,,,null,,,,
null,"<img src=""stim_listA/talk2.gif""style=""height:400px;""></stim_listA>",,html-keyboard-response,287,1763844,0.0-17.0-1.15,17111,List2A,black,man,,,,null,,,,
null,are talking to each other,,html-keyboard-response,288,1765848,0.0-17.0-2.15,17111,List2A,black,man,,,,null,,,,
13398,,,survey-text,289,1779247,0.0-17.0-3.15,17111,List2A,black,man,,,,,"{""Q0"":""dave and ruth are talking to each other""}","<img src=""stim_listA/talk2.gif""style=""height:400px;""></stim_listA>",are talking to each other,
null,"<div style=""font-size:60px;"">+</div>",,html-keyboard-response,290,1779758,0.0-17.0-0.16,17111,List2A,black,man,,,,null,,,,
null,"<img src=""stim_listA/fight7.gif""style=""height:400px;""></stim_listA>",,html-keyboard-response,291,1781785,0.0-17.0-1.16,17111,List2A,black,man,,,,null,,,,
null,is fighting,,html-keyboard-response,292,1783768,0.0-17.0-2.16,17111,List2A,black,man,,,,null,,,,
13182,,,survey-text,293,1796951,0.0-17.0-3.16,17111,List2A,black,man,,,,,"{""Q0"":""kate is fighting jane""}","<img src=""stim_listA/fight7.gif""style=""height:400px;""></stim_listA>",is fighting,
null,"<div style=""font-size:60px;"">+</div>",,html-keyboard-response,294,1797452,0.0-17.0-0.17,17111,List2A,black,man,,,,null,,,,
null,"<img src=""stim_listA/dance3.gif""style=""height:400px;""></stim_listA>",,html-keyboard-response,295,1799473,0.0-17.0-1.17,17111,List2A,black,man,,,,null,,,,
null,is dancing with,,html-keyboard-response,296,1801461,0.0-17.0-2.17,17111,List2A,black,man,,,,null,,,,
11329,,,survey-text,297,1812791,0.0-17.0-3.17,17111,List2A,black,man,,,,,"{""Q0"":""fred is dancing with kate""}","<img src=""stim_listA/dance3.gif""style=""height:400px;""></stim_listA>",is dancing with,
null,"<div style=""font-size:60px;"">+</div>",,html-keyboard-response,298,1813304,0.0-17.0-0.18,17111,List2A,black,man,,,,null,,,,
null,"<img src=""stim_listA/flirt1.gif""style=""height:400px;""></stim_listA>",,html-keyboard-response,299,1815306,0.0-17.0-1.18,17111,List2A,black,man,,,,null,,,,
null,is flirting with,,html-keyboard-response,300,1817313,0.0-17.0-2.18,17111,List2A,black,man,,,,null,,,,
15773,,,survey-text,301,1833088,0.0-17.0-3.18,17111,List2A,black,man,,,,,"{""Q0"":""jane is flirting with luke""}","<img src=""stim_listA/flirt1.gif""style=""height:400px;""></stim_listA>",is flirting with,
null,"<div style=""font-size:60px;"">+</div>",,html-keyboard-response,302,1833603,0.0-17.0-0.19,17111,List2A,black,man,,,,null,,,,
null,"<img src=""stim_listA/play6.gif""style=""height:400px;""></stim_listA>",,html-keyboard-response,303,1835608,0.0-17.0-1.19,17111,List2A,black,man,,,,null,,,,
null,are playing with each other,,html-keyboard-response,304,1837644,0.0-17.0-2.19,17111,List2A,black,man,,,,null,,,,
12378,,,survey-text,305,1850023,0.0-17.0-3.19,17111,List2A,black,man,,,,,"{""Q0"":""fred and luke are playing with each other""}","<img src=""stim_listA/play6.gif""style=""height:400px;""></stim_listA>",are playing with each other,
15150,"<img src='img/portrait_matrix_list2.jpg' style='width:900px;height:500px;''></img><p>If you have memorised all the portraits and names and are ready to start, press Continue.</p><p><strong>Please note: Your memory of these faces will be tested 4 times during this experiment.</strong></p>",0,html-button-response,306,1865175,0.0-18.0-0.0,17111,List2A,black,man,,,,,,,,
2557,"<img src=""portrait/WM2.jpg""style=""height:400px;""></img>",7,html-button-response,307,1868751,0.0-18.0-1.0,17111,List2A,black,man,,TRUE,7,,,,,
null,CORRECT,,html-keyboard-response,308,1870266,0.0-18.0-2.0-0.0,17111,List2A,black,man,,,,null,,,,
1931,"<img src=""portrait/WW1.jpg""style=""height:400px;""></img>",1,html-button-response,309,1872200,0.0-18.0-4.0,17111,List2A,black,man,,TRUE,1,,,,,
null,CORRECT,,html-keyboard-response,310,1873726,0.0-18.0-5.0-0.0,17111,List2A,black,man,,,,null,,,,
3798,"<img src=""portrait/WW2.jpg""style=""height:400px;""></img>",3,html-button-response,311,1877527,0.0-18.0-7.0,17111,List2A,black,man,,TRUE,3,,,,,
null,CORRECT,,html-keyboard-response,312,1879069,0.0-18.0-8.0-0.0,17111,List2A,black,man,,,,null,,,,
2416,"<img src=""portrait/WM1.jpg""style=""height:400px;""></img>",6,html-button-response,313,1881487,0.0-18.0-10.0,17111,List2A,black,man,,TRUE,6,,,,,
null,CORRECT,,html-keyboard-response,314,1882995,0.0-18.0-11.0-0.0,17111,List2A,black,man,,,,null,,,,
2561,"<img src=""portrait/BM1.jpg""style=""height:400px;""></img>",4,html-button-response,315,1885560,0.0-18.0-13.0,17111,List2A,black,man,,TRUE,4,,,,,
null,CORRECT,,html-keyboard-response,316,1887089,0.0-18.0-14.0-0.0,17111,List2A,black,man,,,,null,,,,
2588,"<img src=""portrait/BM2.jpg""style=""height:400px;""></img>",5,html-button-response,317,1889680,0.0-18.0-16.0,17111,List2A,black,man,,TRUE,5,,,,,
null,CORRECT,,html-keyboard-response,318,1891199,0.0-18.0-17.0-0.0,17111,List2A,black,man,,,,null,,,,
2926,"<img src=""portrait/BW2.jpg""style=""height:400px;""></img>",2,html-button-response,319,1894128,0.0-18.0-19.0,17111,List2A,black,man,,TRUE,2,,,,,
null,CORRECT,,html-keyboard-response,320,1895646,0.0-18.0-20.0-0.0,17111,List2A,black,man,,,,null,,,,
1855,"<img src=""portrait/BW1.jpg""style=""height:400px;""></img>",0,html-button-response,321,1897503,0.0-18.0-22.0,17111,List2A,black,man,,TRUE,0,,,,,
null,CORRECT,,html-keyboard-response,322,1899032,0.0-18.0-23.0-0.0,17111,List2A,black,man,,,,null,,,,
5854,<p>You got 8 out of 8 right first time. Press Continue.</p>,0,html-button-response,323,1904887,0.0-18.0-25.0,17111,List2A,black,man,,,,,,,,
null,"<div style=""font-size:60px;"">+</div>",,html-keyboard-response,324,1906417,0.0-19.0-0.0,17111,List2A,black,man,,,,null,,,,
null,"<img src=""stim_listA/marry3.gif""style=""height:400px;""></stim_listA>",,html-keyboard-response,325,1908422,0.0-19.0-1.0,17111,List2A,black,man,,,,null,,,,
null,is marrying,,html-keyboard-response,326,1910427,0.0-19.0-2.0,17111,List2A,black,man,,,,null,,,,
10106,,,survey-text,327,1920535,0.0-19.0-3.0,17111,List2A,black,man,,,,,"{""Q0"":""beth is marrying mike""}","<img src=""stim_listA/marry3.gif""style=""height:400px;""></stim_listA>",is marrying,
null,"<div style=""font-size:60px;"">+</div>",,html-keyboard-response,328,1921036,0.0-19.0-0.1,17111,List2A,black,man,,,,null,,,,
null,"<img src=""stim_listA/flirt7.gif""style=""height:400px;""></stim_listA>",,html-keyboard-response,329,1923040,0.0-19.0-1.1,17111,List2A,black,man,,,,null,,,,
null,is flirting with,,html-keyboard-response,330,1925060,0.0-19.0-2.1,17111,List2A,black,man,,,,null,,,,
10001,,,survey-text,331,1935063,0.0-19.0-3.1,17111,List2A,black,man,,,,,"{""Q0"":""ruth is flirting with kate""}","<img src=""stim_listA/flirt7.gif""style=""height:400px;""></stim_listA>",is flirting with,
null,"<div style=""font-size:60px;"">+</div>",,html-keyboard-response,332,1935584,0.0-19.0-0.2,17111,List2A,black,man,,,,null,,,,
null,"<img src=""stim_listA/argue2.gif""style=""height:400px;""></stim_listA>",,html-keyboard-response,333,1937605,0.0-19.0-1.2,17111,List2A,black,man,,,,null,,,,
null,are arguing with each other,,html-keyboard-response,334,1939610,0.0-19.0-2.2,17111,List2A,black,man,,,,null,,,,
15092,,,survey-text,335,1954703,0.0-19.0-3.2,17111,List2A,black,man,,,,,"{""Q0"":""jane and luke are arguing with each other""}","<img src=""stim_listA/argue2.gif""style=""height:400px;""></stim_listA>",are arguing with each other,
null,"<div style=""font-size:60px;"">+</div>",,html-keyboard-response,336,1955229,0.0-19.0-0.3,17111,List2A,black,man,,,,null,,,,
null,"<img src=""stim_listA/play4.gif""style=""height:400px;""></stim_listA>",,html-keyboard-response,337,1957234,0.0-19.0-1.3,17111,List2A,black,man,,,,null,,,,
null,are playing with each other,,html-keyboard-response,338,1959239,0.0-19.0-2.3,17111,List2A,black,man,,,,null,,,,
11080,,,survey-text,339,1970320,0.0-19.0-3.3,17111,List2A,black,man,,,,,"{""Q0"":""fred and beth are playing with each other""}","<img src=""stim_listA/play4.gif""style=""height:400px;""></stim_listA>",are playing with each other,
null,"<div style=""font-size:60px;"">+</div>",,html-keyboard-response,340,1970833,0.0-19.0-0.4,17111,List2A,black,man,,,,null,,,,
null,"<img src=""stim_listA/play2.gif""style=""height:400px;""></stim_listA>",,html-keyboard-response,341,1972854,0.0-19.0-1.4,17111,List2A,black,man,,,,null,,,,
null,are playing with each other,,html-keyboard-response,342,1974843,0.0-19.0-2.4,17111,List2A,black,man,,,,null,,,,
10386,,,survey-text,343,1985231,0.0-19.0-3.4,17111,List2A,black,man,,,,,"{""Q0"":""luke and ruth are playing with each other""}","<img src=""stim_listA/play2.gif""style=""height:400px;""></stim_listA>",are playing with each other,
null,"<div style=""font-size:60px;"">+</div>",,html-keyboard-response,344,1985731,0.0-19.0-0.5,17111,List2A,black,man,,,,null,,,,
null,"<img src=""stim_listA/touch4.gif""style=""height:400px;""></stim_listA>",,html-keyboard-response,345,1987735,0.0-19.0-1.5,17111,List2A,black,man,,,,null,,,,
null,are touching each other,,html-keyboard-response,346,1989740,0.0-19.0-2.5,17111,List2A,black,man,,,,null,,,,
10624,,,survey-text,347,2000367,0.0-19.0-3.5,17111,List2A,black,man,,,,,"{""Q0"":""beth and fred are touching each other""}","<img src=""stim_listA/touch4.gif""style=""height:400px;""></stim_listA>",are touching each other,
null,"<div style=""font-size:60px;"">+</div>",,html-keyboard-response,348,2000866,0.0-19.0-0.6,17111,List2A,black,man,,,,null,,,,
null,"<img src=""stim_listA/flirt3.gif""style=""height:400px;""></stim_listA>",,html-keyboard-response,349,2002871,0.0-19.0-1.6,17111,List2A,black,man,,,,null,,,,
null,is flirting with,,html-keyboard-response,350,2004875,0.0-19.0-2.6,17111,List2A,black,man,,,,null,,,,
11066,,,survey-text,351,2015942,0.0-19.0-3.6,17111,List2A,black,man,,,,,"{""Q0"":""kate is flirting with fred""}","<img src=""stim_listA/flirt3.gif""style=""height:400px;""></stim_listA>",is flirting with,
null,"<div style=""font-size:60px;"">+</div>",,html-keyboard-response,352,2016455,0.0-19.0-0.7,17111,List2A,black,man,,,,null,,,,
null,"<img src=""stim_listA/talk5.gif""style=""height:400px;""></stim_listA>",,html-keyboard-response,353,2018466,0.0-19.0-1.7,17111,List2A,black,man,,,,null,,,,
null,is talking to,,html-keyboard-response,354,2020463,0.0-19.0-2.7,17111,List2A,black,man,,,,null,,,,
9781,,,survey-text,355,2030246,0.0-19.0-3.7,17111,List2A,black,man,,,,,"{""Q0"":""mike is talking to luke""}","<img src=""stim_listA/talk5.gif""style=""height:400px;""></stim_listA>",is talking to,
null,"<div style=""font-size:60px;"">+</div>",,html-keyboard-response,356,2030755,0.0-19.0-0.8,17111,List2A,black,man,,,,null,,,,
null,"<img src=""stim_listA/play7.gif""style=""height:400px;""></stim_listA>",,html-keyboard-response,357,2032760,0.0-19.0-1.8,17111,List2A,black,man,,,,null,,,,
null,is playing with,,html-keyboard-response,358,2034765,0.0-19.0-2.8,17111,List2A,black,man,,,,null,,,,
8433,,,survey-text,359,2043198,0.0-19.0-3.8,17111,List2A,black,man,,,,,"{""Q0"":""kate is playing with jane""}","<img src=""stim_listA/play7.gif""style=""height:400px;""></stim_listA>",is playing with,
null,"<div style=""font-size:60px;"">+</div>",,html-keyboard-response,360,2043700,0.0-19.0-0.9,17111,List2A,black,man,,,,null,,,,
null,"<img src=""stim_listA/fight8.gif""style=""height:400px;""></stim_listA>",,html-keyboard-response,361,2045736,0.0-19.0-1.9,17111,List2A,black,man,,,,null,,,,
null,are fighting each other,,html-keyboard-response,362,2047725,0.0-19.0-2.9,17111,List2A,black,man,,,,null,,,,
12705,,,survey-text,363,2060432,0.0-19.0-3.9,17111,List2A,black,man,,,,,"{""Q0"":""beth and ruth are fighting each other""}","<img src=""stim_listA/fight8.gif""style=""height:400px;""></stim_listA>",are fighting each other,
null,"<div style=""font-size:60px;"">+</div>",,html-keyboard-response,364,2060940,0.0-19.0-0.10,17111,List2A,black,man,,,,null,,,,
null,"<img src=""stim_listA/talk3.gif""style=""height:400px;""></stim_listA>",,html-keyboard-response,365,2062959,0.0-19.0-1.10,17111,List2A,black,man,,,,null,,,,
null,is talking to,,html-keyboard-response,366,2064949,0.0-19.0-2.10,17111,List2A,black,man,,,,null,,,,
11249,,,survey-text,367,2076199,0.0-19.0-3.10,17111,List2A,black,man,,,,,"{""Q0"":""kate is talking to fred""}","<img src=""stim_listA/talk3.gif""style=""height:400px;""></stim_listA>",is talking to,
null,"<div style=""font-size:60px;"">+</div>",,html-keyboard-response,368,2076707,0.0-19.0-0.11,17111,List2A,black,man,,,,null,,,,
null,"<img src=""stim_listA/fight3.gif""style=""height:400px;""></stim_listA>",,html-keyboard-response,369,2078728,0.0-19.0-1.11,17111,List2A,black,man,,,,null,,,,
null,is fighting,,html-keyboard-response,370,2080716,0.0-19.0-2.11,17111,List2A,black,man,,,,null,,,,
11153,,,survey-text,371,2091871,0.0-19.0-3.11,17111,List2A,black,man,,,,,"{""Q0"":""kate is fighting mike""}","<img src=""stim_listA/fight3.gif""style=""height:400px;""></stim_listA>",is fighting,
null,"<div style=""font-size:60px;"">+</div>",,html-keyboard-response,372,2092374,0.0-19.0-0.12,17111,List2A,black,man,,,,null,,,,
null,"<img src=""stim_listA/argue3.gif""style=""height:400px;""></stim_listA>",,html-keyboard-response,373,2094379,0.0-19.0-1.12,17111,List2A,black,man,,,,null,,,,
null,is arguing with,,html-keyboard-response,374,2096406,0.0-19.0-2.12,17111,List2A,black,man,,,,null,,,,
17986,,,survey-text,375,2114394,0.0-19.0-3.12,17111,List2A,black,man,,,,,"{""Q0"":""beth is arguing with dave""}","<img src=""stim_listA/argue3.gif""style=""height:400px;""></stim_listA>",is arguing with,
null,"<div style=""font-size:60px;"">+</div>",,html-keyboard-response,376,2114910,0.0-19.0-0.13,17111,List2A,black,man,,,,null,,,,
null,"<img src=""stim_listA/shout7.gif""style=""height:400px;""></stim_listA>",,html-keyboard-response,377,2116931,0.0-19.0-1.13,17111,List2A,black,man,,,,null,,,,
null,is shouting at,,html-keyboard-response,378,2118920,0.0-19.0-2.13,17111,List2A,black,man,,,,null,,,,
8205,,,survey-text,379,2127127,0.0-19.0-3.13,17111,List2A,black,man,,,,,"{""Q0"":""beth is shouting at ruth""}","<img src=""stim_listA/shout7.gif""style=""height:400px;""></stim_listA>",is shouting at,
null,"<div style=""font-size:60px;"">+</div>",,html-keyboard-response,380,2127633,0.0-19.0-0.14,17111,List2A,black,man,,,,null,,,,
null,"<img src=""stim_listA/kiss8.gif""style=""height:400px;""></stim_listA>",,html-keyboard-response,381,2129644,0.0-19.0-1.14,17111,List2A,black,man,,,,null,,,,
null,are kissing each other,,html-keyboard-response,382,2131648,0.0-19.0-2.14,17111,List2A,black,man,,,,null,,,,
9629,,,survey-text,383,2141279,0.0-19.0-3.14,17111,List2A,black,man,,,,,"{""Q0"":""kate and jane are kissing each other""}","<img src=""stim_listA/kiss8.gif""style=""height:400px;""></stim_listA>",are kissing each other,
null,"<div style=""font-size:60px;"">+</div>",,html-keyboard-response,384,2141789,0.0-19.0-0.15,17111,List2A,black,man,,,,null,,,,
null,"<img src=""stim_listA/dance4.gif""style=""height:400px;""></stim_listA>",,html-keyboard-response,385,2143792,0.0-19.0-1.15,17111,List2A,black,man,,,,null,,,,
null,are dancing with each other,,html-keyboard-response,386,2145797,0.0-19.0-2.15,17111,List2A,black,man,,,,null,,,,
12696,,,survey-text,387,2158494,0.0-19.0-3.15,17111,List2A,black,man,,,,,"{""Q0"":""beth and mike are dancing with each other""}","<img src=""stim_listA/dance4.gif""style=""height:400px;""></stim_listA>",are dancing with each other,
null,"<div style=""font-size:60px;"">+</div>",,html-keyboard-response,388,2158995,0.0-19.0-0.16,17111,List2A,black,man,,,,null,,,,
null,"<img src=""stim_listA/dance1.gif""style=""height:400px;""></stim_listA>",,html-keyboard-response,389,2161000,0.0-19.0-1.16,17111,List2A,black,man,,,,null,,,,
null,is dancing with,,html-keyboard-response,390,2163004,0.0-19.0-2.16,17111,List2A,black,man,,,,null,,,,
9304,,,survey-text,391,2172311,0.0-19.0-3.16,17111,List2A,black,man,,,,,"{""Q0"":""jane is dancing with luke""}","<img src=""stim_listA/dance1.gif""style=""height:400px;""></stim_listA>",is dancing with,
null,"<div style=""font-size:60px;"">+</div>",,html-keyboard-response,392,2172827,0.0-19.0-0.17,17111,List2A,black,man,,,,null,,,,
null,"<img src=""stim_listA/marry6.gif""style=""height:400px;""></stim_listA>",,html-keyboard-response,393,2174832,0.0-19.0-1.17,17111,List2A,black,man,,,,null,,,,
null,are marrying each other,,html-keyboard-response,394,2176837,0.0-19.0-2.17,17111,List2A,black,man,,,,null,,,,
11104,,,survey-text,395,2187942,0.0-19.0-3.17,17111,List2A,black,man,,,,,"{""Q0"":""mike and luke are marrying each other""}","<img src=""stim_listA/marry6.gif""style=""height:400px;""></stim_listA>",are marrying each other,
null,"<div style=""font-size:60px;"">+</div>",,html-keyboard-response,396,2188462,0.0-19.0-0.18,17111,List2A,black,man,,,,null,,,,
null,"<img src=""stim_listA/touch6.gif""style=""height:400px;""></stim_listA>",,html-keyboard-response,397,2190483,0.0-19.0-1.18,17111,List2A,black,man,,,,null,,,,
null,are touching each other,,html-keyboard-response,398,2192472,0.0-19.0-2.18,17111,List2A,black,man,,,,null,,,,
9077,,,survey-text,399,2201550,0.0-19.0-3.18,17111,List2A,black,man,,,,,"{""Q0"":""luke and fred are touching each other""}","<img src=""stim_listA/touch6.gif""style=""height:400px;""></stim_listA>",are touching each other,
null,"<div style=""font-size:60px;"">+</div>",,html-keyboard-response,400,2202063,0.0-19.0-0.19,17111,List2A,black,man,,,,null,,,,
null,"<img src=""stim_listA/dance8.gif""style=""height:400px;""></stim_listA>",,html-keyboard-response,401,2204067,0.0-19.0-1.19,17111,List2A,black,man,,,,null,,,,
null,are dancing with each other,,html-keyboard-response,402,2206072,0.0-19.0-2.19,17111,List2A,black,man,,,,null,,,,
12894,,,survey-text,403,2218966,0.0-19.0-3.19,17111,List2A,black,man,,,,,"{""Q0"":""beth and jane are dancing with each other""}","<img src=""stim_listA/dance8.gif""style=""height:400px;""></stim_listA>",are dancing with each other,
2757,<p>Thank you for completing that task.</p><p>The final part of this session is a short questionnaire.</p><p>Press Continue.</p>,0,html-button-response,404,2221727,0.0-20.0,17111,List2A,black,man,,,,,,,,
33463,,,survey-text,405,2256191,0.0-21.0,17111,List2A,black,man,,,,,"{""Q0"":""31"",""Q1"":""Yoruba"",""Q2"":""English"",""Q3"":""UK"",""Q4"":""African"",""Q5"":""male""}",,,demographics
10103,,,survey-likert,406,2266295,0.0-22.0,17111,List2A,black,man,,,,,"{""Q0"":3}",,,likert_ESS
15133,,,survey-likert,407,2281430,0.0-23.0,17111,List2A,black,man,,,,,"{""Q0"":2}",,,likert_NSSAL_Q1
5214,,,survey-likert,408,2286647,0.0-24.0,17111,List2A,black,man,,,,,"{""Q0"":2}",,,likert_NSSAL_Q2
7807,,,survey-likert,409,2294456,0.0-25.0,17111,List2A,black,man,,,,,"{""Q0"":4}",,,likert_CGRS_Q1
3748,,,survey-likert,410,2298206,0.0-26.0,17111,List2A,black,man,,,,,"{""Q0"":4}",,,likert_CGRS_Q2
3262,,,survey-likert,411,2301470,0.0-27.0,17111,List2A,black,man,,,,,"{""Q0"":4}",,,likert_CGRS_Q3
9216,,,survey-text,412,2310688,0.0-28.0,17111,List2A,black,man,,,,,"{""Q0"":""ccc""}",,,worker_id
45997,,,external-html,413,2356710,0.0-29.0,17111,List2A,black,man,debrief.html,,,,,,,
