rt,stimulus,button_pressed,trial_type,trial_index,time_elapsed,internal_node_id,subject,list,ppt_race,ppt_gender,url,first_guess,correct,key_press,responses,image_type,phrase_type,test_part
3036,Welcome to the experiment. Press Continue to begin.,0,html-button-response,0,3049,0.0-0.0,17304,List2B,black,man,,,,,,,,
29619,,,external-html,1,33764,0.0-1.0,17304,List2B,black,man,consent.html,,,,,,,
16614,"<p>On the next page, you will see portraits of 8 people and their names.</p><p>Your first task is to take a few minutes to memorise the names of these people.</p><p>You will have to recall their names during the rest of the experiment, so it is</p><p>essential that you try to memorise these people and their names as best as you can.</p><br><p><strong>You will then be tested on your memory of these names and portraits.</strong></p><br><p>The experiment will start after you have completed this memory test.</p><br><p>Ready?</p>",0,html-button-response,2,50384,0.0-2.0,17304,List2B,black,man,,,,,,,,
95421,"<img src='img/portrait_matrix_list2.jpg' style='width:900px;height:500px;''></img><p>If you have memorised all the portraits and names and are ready to start, press Continue.</p><p><strong>Please note: Your memory of these faces will be tested 4 times during this experiment.</strong></p>",0,html-button-response,3,146817,0.0-3.0-0.0,17304,List2B,black,man,,,,,,,,
2416,"<img src=""portrait/BM1.jpg""style=""height:400px;""></img>",4,html-button-response,4,150247,0.0-3.0-1.0,17304,List2B,black,man,,TRUE,4,,,,,
null,CORRECT,,html-keyboard-response,5,151768,0.0-3.0-2.0-0.0,17304,List2B,black,man,,,,null,,,,
3041,"<img src=""portrait/BM2.jpg""style=""height:400px;""></img>",5,html-button-response,6,154822,0.0-3.0-4.0,17304,List2B,black,man,,TRUE,5,,,,,
null,CORRECT,,html-keyboard-response,7,156338,0.0-3.0-5.0-0.0,17304,List2B,black,man,,,,null,,,,
2074,"<img src=""portrait/WW2.jpg""style=""height:400px;""></img>",3,html-button-response,8,158427,0.0-3.0-7.0,17304,List2B,black,man,,TRUE,3,,,,,
null,CORRECT,,html-keyboard-response,9,159940,0.0-3.0-8.0-0.0,17304,List2B,black,man,,,,null,,,,
2278,"<img src=""portrait/BW2.jpg""style=""height:400px;""></img>",2,html-button-response,10,162231,0.0-3.0-10.0,17304,List2B,black,man,,TRUE,2,,,,,
null,CORRECT,,html-keyboard-response,11,163742,0.0-3.0-11.0-0.0,17304,List2B,black,man,,,,null,,,,
2274,"<img src=""portrait/WM2.jpg""style=""height:400px;""></img>",7,html-button-response,12,166032,0.0-3.0-13.0,17304,List2B,black,man,,TRUE,7,,,,,
null,CORRECT,,html-keyboard-response,13,167543,0.0-3.0-14.0-0.0,17304,List2B,black,man,,,,null,,,,
5697,"<img src=""portrait/BW1.jpg""style=""height:400px;""></img>",0,html-button-response,14,173253,0.0-3.0-16.0,17304,List2B,black,man,,TRUE,0,,,,,
null,CORRECT,,html-keyboard-response,15,174761,0.0-3.0-17.0-0.0,17304,List2B,black,man,,,,null,,,,
1441,"<img src=""portrait/WW1.jpg""style=""height:400px;""></img>",1,html-button-response,16,176216,0.0-3.0-19.0,17304,List2B,black,man,,TRUE,1,,,,,
null,CORRECT,,html-keyboard-response,17,177729,0.0-3.0-20.0-0.0,17304,List2B,black,man,,,,null,,,,
1932,"<img src=""portrait/WM1.jpg""style=""height:400px;""></img>",6,html-button-response,18,179673,0.0-3.0-22.0,17304,List2B,black,man,,TRUE,6,,,,,
null,CORRECT,,html-keyboard-response,19,181184,0.0-3.0-23.0-0.0,17304,List2B,black,man,,,,null,,,,
1739,<p>You got 8 out of 8 right first time. Press Continue.</p>,0,html-button-response,20,182937,0.0-3.0-25.0,17304,List2B,black,man,,,,,,,,
33901,"<p>In this experiment, you will view photographs of the people from the memory game interacting.</p><p>By using the <strong>exact</strong> phrase given <i>after</i> the photograph appears and recalling the correct names of the people in the photographs, form a sentence describing the interaction. You do not need to capitalise names.</p><p>Type your answer in the space provided. Please complete every sentence before moving onto the next trial.</p><p>You will only have a few seconds to memorise each given photograph and phrase before you can respond, so try your best to focus.</p><p>An example is given below. Press 'Continue' when you are ready.</p><img src='img/speaking_example.jpg' style='width:800px;height:460px;''></img>",0,html-button-response,21,217854,0.0-4.0,17304,List2B,black,man,,,,,,,,
3466,"<p>Before the experiment starts, you will watch two example trials. Press 'Continue'.</p>",0,html-button-response,22,222330,0.0-5.0,17304,List2B,black,man,,,,,,,,
null,<img src='img/meet_eg.gif' style='height:400px;''></img>,,html-keyboard-response,23,225343,0.0-6.0,17304,List2B,black,man,,,,null,,,,
null,<p>is meeting</p>,,html-keyboard-response,24,227356,0.0-7.0,17304,List2B,black,man,,,,null,,,,
10710,<p><b>Answer:</b> jane is meeting ruth</p>,0,html-button-response,25,238073,0.0-8.0,17304,List2B,black,man,,,,,,,,
null,<img src='img/look_eg.gif' style='height:400px;''></img>,,html-keyboard-response,26,241082,0.0-9.0,17304,List2B,black,man,,,,null,,,,
null,<p>are looking at each other</p>,,html-keyboard-response,27,243090,0.0-10.0,17304,List2B,black,man,,,,null,,,,
6659,<p><b>Answer:</b> fred and mike are looking at each other</p>,0,html-button-response,28,249760,0.0-11.0,17304,List2B,black,man,,,,,,,,
7209,"<p>Ready to start the experiment?</p><br><p><strong>Remember to describe the picture using a full sentence,</strong></p><p><strong>that combines the names of the people with the <i>exact</i> phrase given.</strong></p><p><strong>To receive full payment you must do this correctly.</strong></p><p><strong> You do not need to capitalise names or use punctuation.</strong></p><br><p>Press 'Continue' to begin.</p>",0,html-button-response,29,257977,0.0-12.0,17304,List2B,black,man,,,,,,,,
null,"<div style=""font-size:60px;"">+</div>",,html-keyboard-response,30,259489,0.0-13.0-0.0,17304,List2B,black,man,,,,null,,,,
null,"<img src=""stim_listB/kiss4.gif""style=""height:400px;""></stim_listB>",,html-keyboard-response,31,261526,0.0-13.0-1.0,17304,List2B,black,man,,,,null,,,,
null,are kissing each other,,html-keyboard-response,32,263534,0.0-13.0-2.0,17304,List2B,black,man,,,,null,,,,
26592,,,survey-text,33,290134,0.0-13.0-3.0,17304,List2B,black,man,,,,,"{""Q0"":""Mike and Kate are kissing each other""}","<img src=""stim_listB/kiss4.gif""style=""height:400px;""></stim_listB>",are kissing each other,
null,"<div style=""font-size:60px;"">+</div>",,html-keyboard-response,34,290640,0.0-13.0-0.1,17304,List2B,black,man,,,,null,,,,
null,"<img src=""stim_listB/kiss7.gif""style=""height:400px;""></stim_listB>",,html-keyboard-response,35,292651,0.0-13.0-1.1,17304,List2B,black,man,,,,null,,,,
null,is kissing,,html-keyboard-response,36,294661,0.0-13.0-2.1,17304,List2B,black,man,,,,null,,,,
15166,,,survey-text,37,309841,0.0-13.0-3.1,17304,List2B,black,man,,,,,"{""Q0"":""Beth and Ruth are kissing""}","<img src=""stim_listB/kiss7.gif""style=""height:400px;""></stim_listB>",is kissing,
null,"<div style=""font-size:60px;"">+</div>",,html-keyboard-response,38,310348,0.0-13.0-0.2,17304,List2B,black,man,,,,null,,,,
null,"<img src=""stim_listB/dance2.gif""style=""height:400px;""></stim_listB>",,html-keyboard-response,39,312354,0.0-13.0-1.2,17304,List2B,black,man,,,,null,,,,
null,are dancing with each other,,html-keyboard-response,40,314366,0.0-13.0-2.2,17304,List2B,black,man,,,,null,,,,
13979,,,survey-text,41,328354,0.0-13.0-3.2,17304,List2B,black,man,,,,,"{""Q0"":""Dave and Ruth are dancing with each other""}","<img src=""stim_listB/dance2.gif""style=""height:400px;""></stim_listB>",are dancing with each other,
null,"<div style=""font-size:60px;"">+</div>",,html-keyboard-response,42,328858,0.0-13.0-0.3,17304,List2B,black,man,,,,null,,,,
null,"<img src=""stim_listB/argue5.gif""style=""height:400px;""></stim_listB>",,html-keyboard-response,43,330863,0.0-13.0-1.3,17304,List2B,black,man,,,,null,,,,
null,is arguing with,,html-keyboard-response,44,332870,0.0-13.0-2.3,17304,List2B,black,man,,,,null,,,,
11565,,,survey-text,45,344445,0.0-13.0-3.3,17304,List2B,black,man,,,,,"{""Q0"":""Fred is arguing with Dave""}","<img src=""stim_listB/argue5.gif""style=""height:400px;""></stim_listB>",is arguing with,
null,"<div style=""font-size:60px;"">+</div>",,html-keyboard-response,46,344951,0.0-13.0-0.4,17304,List2B,black,man,,,,null,,,,
null,"<img src=""stim_listB/shout4.gif""style=""height:400px;""></stim_listB>",,html-keyboard-response,47,346960,0.0-13.0-1.4,17304,List2B,black,man,,,,null,,,,
null,are shouting at each other,,html-keyboard-response,48,348965,0.0-13.0-2.4,17304,List2B,black,man,,,,null,,,,
18544,,,survey-text,49,367513,0.0-13.0-3.4,17304,List2B,black,man,,,,,"{""Q0"":""Mike and Kate are shouting at each other""}","<img src=""stim_listB/shout4.gif""style=""height:400px;""></stim_listB>",are shouting at each other,
null,"<div style=""font-size:60px;"">+</div>",,html-keyboard-response,50,368017,0.0-13.0-0.5,17304,List2B,black,man,,,,null,,,,
null,"<img src=""stim_listB/dance5.gif""style=""height:400px;""></stim_listB>",,html-keyboard-response,51,370022,0.0-13.0-1.5,17304,List2B,black,man,,,,null,,,,
null,is dancing with,,html-keyboard-response,52,372027,0.0-13.0-2.5,17304,List2B,black,man,,,,null,,,,
9493,,,survey-text,53,381524,0.0-13.0-3.5,17304,List2B,black,man,,,,,"{""Q0"":""Mike is dancing with Luke""}","<img src=""stim_listB/dance5.gif""style=""height:400px;""></stim_listB>",is dancing with,
null,"<div style=""font-size:60px;"">+</div>",,html-keyboard-response,54,382029,0.0-13.0-0.6,17304,List2B,black,man,,,,null,,,,
null,"<img src=""stim_listB/play5.gif""style=""height:400px;""></stim_listB>",,html-keyboard-response,55,384039,0.0-13.0-1.6,17304,List2B,black,man,,,,null,,,,
null,is playing with,,html-keyboard-response,56,386052,0.0-13.0-2.6,17304,List2B,black,man,,,,null,,,,
7959,,,survey-text,57,394024,0.0-13.0-3.6,17304,List2B,black,man,,,,,"{""Q0"":""Mike is playing with Dave""}","<img src=""stim_listB/play5.gif""style=""height:400px;""></stim_listB>",is playing with,
null,"<div style=""font-size:60px;"">+</div>",,html-keyboard-response,58,394528,0.0-13.0-0.7,17304,List2B,black,man,,,,null,,,,
null,"<img src=""stim_listB/touch2.gif""style=""height:400px;""></stim_listB>",,html-keyboard-response,59,396542,0.0-13.0-1.7,17304,List2B,black,man,,,,null,,,,
null,are touching each other,,html-keyboard-response,60,398550,0.0-13.0-2.7,17304,List2B,black,man,,,,null,,,,
23762,,,survey-text,61,422326,0.0-13.0-3.7,17304,List2B,black,man,,,,,"{""Q0"":""Ruth and Luke are touching each other""}","<img src=""stim_listB/touch2.gif""style=""height:400px;""></stim_listB>",are touching each other,
null,"<div style=""font-size:60px;"">+</div>",,html-keyboard-response,62,422833,0.0-13.0-0.8,17304,List2B,black,man,,,,null,,,,
null,"<img src=""stim_listB/dance8.gif""style=""height:400px;""></stim_listB>",,html-keyboard-response,63,424844,0.0-13.0-1.8,17304,List2B,black,man,,,,null,,,,
null,are dancing with each other,,html-keyboard-response,64,426856,0.0-13.0-2.8,17304,List2B,black,man,,,,null,,,,
19015,,,survey-text,65,445883,0.0-13.0-3.8,17304,List2B,black,man,,,,,"{""Q0"":""Beth and Jane are dancing with each other""}","<img src=""stim_listB/dance8.gif""style=""height:400px;""></stim_listB>",are dancing with each other,
null,"<div style=""font-size:60px;"">+</div>",,html-keyboard-response,66,446396,0.0-13.0-0.9,17304,List2B,black,man,,,,null,,,,
null,"<img src=""stim_listB/touch8.gif""style=""height:400px;""></stim_listB>",,html-keyboard-response,67,448407,0.0-13.0-1.9,17304,List2B,black,man,,,,null,,,,
null,are touching each other,,html-keyboard-response,68,450426,0.0-13.0-2.9,17304,List2B,black,man,,,,null,,,,
15986,,,survey-text,69,466421,0.0-13.0-3.9,17304,List2B,black,man,,,,,"{""Q0"":""Beth and Ruth are touching each other""}","<img src=""stim_listB/touch8.gif""style=""height:400px;""></stim_listB>",are touching each other,
null,"<div style=""font-size:60px;"">+</div>",,html-keyboard-response,70,466926,0.0-13.0-0.10,17304,List2B,black,man,,,,null,,,,
null,"<img src=""stim_listB/shout5.gif""style=""height:400px;""></stim_listB>",,html-keyboard-response,71,468930,0.0-13.0-1.10,17304,List2B,black,man,,,,null,,,,
null,is shouting at,,html-keyboard-response,72,470939,0.0-13.0-2.10,17304,List2B,black,man,,,,null,,,,
16306,,,survey-text,73,487253,0.0-13.0-3.10,17304,List2B,black,man,,,,,"{""Q0"":""Luke is shouting at Fred""}","<img src=""stim_listB/shout5.gif""style=""height:400px;""></stim_listB>",is shouting at,
null,"<div style=""font-size:60px;"">+</div>",,html-keyboard-response,74,487756,0.0-13.0-0.11,17304,List2B,black,man,,,,null,,,,
null,"<img src=""stim_listB/talk5.gif""style=""height:400px;""></stim_listB>",,html-keyboard-response,75,489763,0.0-13.0-1.11,17304,List2B,black,man,,,,null,,,,
null,is talking to,,html-keyboard-response,76,491772,0.0-13.0-2.11,17304,List2B,black,man,,,,null,,,,
10447,,,survey-text,77,502227,0.0-13.0-3.11,17304,List2B,black,man,,,,,"{""Q0"":""Mike is talking to Luke""}","<img src=""stim_listB/talk5.gif""style=""height:400px;""></stim_listB>",is talking to,
null,"<div style=""font-size:60px;"">+</div>",,html-keyboard-response,78,502731,0.0-13.0-0.12,17304,List2B,black,man,,,,null,,,,
null,"<img src=""stim_listB/marry5.gif""style=""height:400px;""></stim_listB>",,html-keyboard-response,79,504737,0.0-13.0-1.12,17304,List2B,black,man,,,,null,,,,
null,is marrying,,html-keyboard-response,80,506746,0.0-13.0-2.12,17304,List2B,black,man,,,,null,,,,
10040,,,survey-text,81,516794,0.0-13.0-3.12,17304,List2B,black,man,,,,,"{""Q0"":""Fred is marrying Dave""}","<img src=""stim_listB/marry5.gif""style=""height:400px;""></stim_listB>",is marrying,
null,"<div style=""font-size:60px;"">+</div>",,html-keyboard-response,82,517299,0.0-13.0-0.13,17304,List2B,black,man,,,,null,,,,
null,"<img src=""stim_listB/play2.gif""style=""height:400px;""></stim_listB>",,html-keyboard-response,83,519309,0.0-13.0-1.13,17304,List2B,black,man,,,,null,,,,
null,are playing with each other,,html-keyboard-response,84,521329,0.0-13.0-2.13,17304,List2B,black,man,,,,null,,,,
17110,,,survey-text,85,538450,0.0-13.0-3.13,17304,List2B,black,man,,,,,"{""Q0"":""Luke and Ruth are playing with each other""}","<img src=""stim_listB/play2.gif""style=""height:400px;""></stim_listB>",are playing with each other,
null,"<div style=""font-size:60px;"">+</div>",,html-keyboard-response,86,538956,0.0-13.0-0.14,17304,List2B,black,man,,,,null,,,,
null,"<img src=""stim_listB/talk6.gif""style=""height:400px;""></stim_listB>",,html-keyboard-response,87,540968,0.0-13.0-1.14,17304,List2B,black,man,,,,null,,,,
null,are talking to each other,,html-keyboard-response,88,542980,0.0-13.0-2.14,17304,List2B,black,man,,,,null,,,,
12966,,,survey-text,89,555953,0.0-13.0-3.14,17304,List2B,black,man,,,,,"{""Q0"":""Dave and Fred are talking with each other""}","<img src=""stim_listB/talk6.gif""style=""height:400px;""></stim_listB>",are talking to each other,
null,"<div style=""font-size:60px;"">+</div>",,html-keyboard-response,90,556457,0.0-13.0-0.15,17304,List2B,black,man,,,,null,,,,
null,"<img src=""stim_listB/touch5.gif""style=""height:400px;""></stim_listB>",,html-keyboard-response,91,558465,0.0-13.0-1.15,17304,List2B,black,man,,,,null,,,,
null,is touching,,html-keyboard-response,92,560483,0.0-13.0-2.15,17304,List2B,black,man,,,,null,,,,
8179,,,survey-text,93,568673,0.0-13.0-3.15,17304,List2B,black,man,,,,,"{""Q0"":""Mike is touching Dave""}","<img src=""stim_listB/touch5.gif""style=""height:400px;""></stim_listB>",is touching,
null,"<div style=""font-size:60px;"">+</div>",,html-keyboard-response,94,569176,0.0-13.0-0.16,17304,List2B,black,man,,,,null,,,,
null,"<img src=""stim_listB/dance4.gif""style=""height:400px;""></stim_listB>",,html-keyboard-response,95,571184,0.0-13.0-1.16,17304,List2B,black,man,,,,null,,,,
null,are dancing with each other,,html-keyboard-response,96,573196,0.0-13.0-2.16,17304,List2B,black,man,,,,null,,,,
11761,,,survey-text,97,584967,0.0-13.0-3.16,17304,List2B,black,man,,,,,"{""Q0"":""Mike and Beth are dancing with each other""}","<img src=""stim_listB/dance4.gif""style=""height:400px;""></stim_listB>",are dancing with each other,
null,"<div style=""font-size:60px;"">+</div>",,html-keyboard-response,98,585470,0.0-13.0-0.17,17304,List2B,black,man,,,,null,,,,
null,"<img src=""stim_listB/shout3.gif""style=""height:400px;""></stim_listB>",,html-keyboard-response,99,587478,0.0-13.0-1.17,17304,List2B,black,man,,,,null,,,,
null,is shouting at,,html-keyboard-response,100,589487,0.0-13.0-2.17,17304,List2B,black,man,,,,null,,,,
14939,,,survey-text,101,604433,0.0-13.0-3.17,17304,List2B,black,man,,,,,"{""Q0"":""Beth is shouting at Fred""}","<img src=""stim_listB/shout3.gif""style=""height:400px;""></stim_listB>",is shouting at,
null,"<div style=""font-size:60px;"">+</div>",,html-keyboard-response,102,604936,0.0-13.0-0.18,17304,List2B,black,man,,,,null,,,,
null,"<img src=""stim_listB/flirt2.gif""style=""height:400px;""></stim_listB>",,html-keyboard-response,103,606943,0.0-13.0-1.18,17304,List2B,black,man,,,,null,,,,
null,are flirting with each other,,html-keyboard-response,104,608953,0.0-13.0-2.18,17304,List2B,black,man,,,,null,,,,
17204,,,survey-text,105,626164,0.0-13.0-3.18,17304,List2B,black,man,,,,,"{""Q0"":""Dave and Ruth are flirting with each other""}","<img src=""stim_listB/flirt2.gif""style=""height:400px;""></stim_listB>",are flirting with each other,
null,"<div style=""font-size:60px;"">+</div>",,html-keyboard-response,106,626669,0.0-13.0-0.19,17304,List2B,black,man,,,,null,,,,
null,"<img src=""stim_listB/marry8.gif""style=""height:400px;""></stim_listB>",,html-keyboard-response,107,628678,0.0-13.0-1.19,17304,List2B,black,man,,,,null,,,,
null,are marrying each other,,html-keyboard-response,108,630685,0.0-13.0-2.19,17304,List2B,black,man,,,,null,,,,
15121,,,survey-text,109,645813,0.0-13.0-3.19,17304,List2B,black,man,,,,,"{""Q0"":""Ruth and Kate are marrying each other""}","<img src=""stim_listB/marry8.gif""style=""height:400px;""></stim_listB>",are marrying each other,
8622,"<img src='img/portrait_matrix_list2.jpg' style='width:900px;height:500px;''></img><p>If you have memorised all the portraits and names and are ready to start, press Continue.</p><p><strong>Please note: Your memory of these faces will be tested 4 times during this experiment.</strong></p>",0,html-button-response,110,654440,0.0-14.0-0.0,17304,List2B,black,man,,,,,,,,
3344,"<img src=""portrait/BW1.jpg""style=""height:400px;""></img>",0,html-button-response,111,658798,0.0-14.0-1.0,17304,List2B,black,man,,TRUE,0,,,,,
null,CORRECT,,html-keyboard-response,112,660306,0.0-14.0-2.0-0.0,17304,List2B,black,man,,,,null,,,,
1675,"<img src=""portrait/WW1.jpg""style=""height:400px;""></img>",1,html-button-response,113,661994,0.0-14.0-4.0,17304,List2B,black,man,,TRUE,1,,,,,
null,CORRECT,,html-keyboard-response,114,663505,0.0-14.0-5.0-0.0,17304,List2B,black,man,,,,null,,,,
1728,"<img src=""portrait/WM1.jpg""style=""height:400px;""></img>",6,html-button-response,115,665247,0.0-14.0-7.0,17304,List2B,black,man,,TRUE,6,,,,,
null,CORRECT,,html-keyboard-response,116,666763,0.0-14.0-8.0-0.0,17304,List2B,black,man,,,,null,,,,
1999,"<img src=""portrait/WW2.jpg""style=""height:400px;""></img>",3,html-button-response,117,668776,0.0-14.0-10.0,17304,List2B,black,man,,TRUE,3,,,,,
null,CORRECT,,html-keyboard-response,118,670283,0.0-14.0-11.0-0.0,17304,List2B,black,man,,,,null,,,,
1560,"<img src=""portrait/WM2.jpg""style=""height:400px;""></img>",7,html-button-response,119,671863,0.0-14.0-13.0,17304,List2B,black,man,,TRUE,7,,,,,
null,CORRECT,,html-keyboard-response,120,673373,0.0-14.0-14.0-0.0,17304,List2B,black,man,,,,null,,,,
3380,"<img src=""portrait/BM1.jpg""style=""height:400px;""></img>",4,html-button-response,121,676764,0.0-14.0-16.0,17304,List2B,black,man,,TRUE,4,,,,,
null,CORRECT,,html-keyboard-response,122,678278,0.0-14.0-17.0-0.0,17304,List2B,black,man,,,,null,,,,
1874,"<img src=""portrait/BM2.jpg""style=""height:400px;""></img>",5,html-button-response,123,680165,0.0-14.0-19.0,17304,List2B,black,man,,TRUE,5,,,,,
null,CORRECT,,html-keyboard-response,124,681670,0.0-14.0-20.0-0.0,17304,List2B,black,man,,,,null,,,,
1451,"<img src=""portrait/BW2.jpg""style=""height:400px;""></img>",2,html-button-response,125,683131,0.0-14.0-22.0,17304,List2B,black,man,,TRUE,2,,,,,
null,CORRECT,,html-keyboard-response,126,684644,0.0-14.0-23.0-0.0,17304,List2B,black,man,,,,null,,,,
1651,<p>You got 8 out of 8 right first time. Press Continue.</p>,0,html-button-response,127,686310,0.0-14.0-25.0,17304,List2B,black,man,,,,,,,,
null,"<div style=""font-size:60px;"">+</div>",,html-keyboard-response,128,687826,0.0-15.0-0.0,17304,List2B,black,man,,,,null,,,,
null,"<img src=""stim_listB/dance1.gif""style=""height:400px;""></stim_listB>",,html-keyboard-response,129,689838,0.0-15.0-1.0,17304,List2B,black,man,,,,null,,,,
null,is dancing with,,html-keyboard-response,130,691850,0.0-15.0-2.0,17304,List2B,black,man,,,,null,,,,
11732,,,survey-text,131,703590,0.0-15.0-3.0,17304,List2B,black,man,,,,,"{""Q0"":""Jane is dancing with Mike""}","<img src=""stim_listB/dance1.gif""style=""height:400px;""></stim_listB>",is dancing with,
null,"<div style=""font-size:60px;"">+</div>",,html-keyboard-response,132,704126,0.0-15.0-0.1,17304,List2B,black,man,,,,null,,,,
null,"<img src=""stim_listB/play6.gif""style=""height:400px;""></stim_listB>",,html-keyboard-response,133,706133,0.0-15.0-1.1,17304,List2B,black,man,,,,null,,,,
null,are playing with each other,,html-keyboard-response,134,708139,0.0-15.0-2.1,17304,List2B,black,man,,,,null,,,,
9396,,,survey-text,135,717545,0.0-15.0-3.1,17304,List2B,black,man,,,,,"{""Q0"":""Mike and Fred are playing with each other""}","<img src=""stim_listB/play6.gif""style=""height:400px;""></stim_listB>",are playing with each other,
null,"<div style=""font-size:60px;"">+</div>",,html-keyboard-response,136,718050,0.0-15.0-0.2,17304,List2B,black,man,,,,null,,,,
null,"<img src=""stim_listB/kiss1.gif""style=""height:400px;""></stim_listB>",,html-keyboard-response,137,720061,0.0-15.0-1.2,17304,List2B,black,man,,,,null,,,,
null,is kissing,,html-keyboard-response,138,722075,0.0-15.0-2.2,17304,List2B,black,man,,,,null,,,,
11683,,,survey-text,139,733765,0.0-15.0-3.2,17304,List2B,black,man,,,,,"{""Q0"":""Ruth is kissing Mike""}","<img src=""stim_listB/kiss1.gif""style=""height:400px;""></stim_listB>",is kissing,
null,"<div style=""font-size:60px;"">+</div>",,html-keyboard-response,140,734269,0.0-15.0-0.3,17304,List2B,black,man,,,,null,,,,
null,"<img src=""stim_listB/talk8.gif""style=""height:400px;""></stim_listB>",,html-keyboard-response,141,736278,0.0-15.0-1.3,17304,List2B,black,man,,,,null,,,,
null,are talking to each other,,html-keyboard-response,142,738290,0.0-15.0-2.3,17304,List2B,black,man,,,,null,,,,
29576,,,survey-text,143,767882,0.0-15.0-3.3,17304,List2B,black,man,,,,,"{""Q0"":""Beth and Jane are talking with each other""}","<img src=""stim_listB/talk8.gif""style=""height:400px;""></stim_listB>",are talking to each other,
null,"<div style=""font-size:60px;"">+</div>",,html-keyboard-response,144,768386,0.0-15.0-0.4,17304,List2B,black,man,,,,null,,,,
null,"<img src=""stim_listB/touch6.gif""style=""height:400px;""></stim_listB>",,html-keyboard-response,145,770396,0.0-15.0-1.4,17304,List2B,black,man,,,,null,,,,
null,are touching each other,,html-keyboard-response,146,772411,0.0-15.0-2.4,17304,List2B,black,man,,,,null,,,,
15321,,,survey-text,147,787743,0.0-15.0-3.4,17304,List2B,black,man,,,,,"{""Q0"":""Mike and Fred are touching each other""}","<img src=""stim_listB/touch6.gif""style=""height:400px;""></stim_listB>",are touching each other,
null,"<div style=""font-size:60px;"">+</div>",,html-keyboard-response,148,788248,0.0-15.0-0.5,17304,List2B,black,man,,,,null,,,,
null,"<img src=""stim_listB/talk3.gif""style=""height:400px;""></stim_listB>",,html-keyboard-response,149,790257,0.0-15.0-1.5,17304,List2B,black,man,,,,null,,,,
null,is talking to,,html-keyboard-response,150,792269,0.0-15.0-2.5,17304,List2B,black,man,,,,null,,,,
9129,,,survey-text,151,801406,0.0-15.0-3.5,17304,List2B,black,man,,,,,"{""Q0"":""Kate is talking to Fred""}","<img src=""stim_listB/talk3.gif""style=""height:400px;""></stim_listB>",is talking to,
null,"<div style=""font-size:60px;"">+</div>",,html-keyboard-response,152,801910,0.0-15.0-0.6,17304,List2B,black,man,,,,null,,,,
null,"<img src=""stim_listB/argue6.gif""style=""height:400px;""></stim_listB>",,html-keyboard-response,153,803919,0.0-15.0-1.6,17304,List2B,black,man,,,,null,,,,
null,are arguing with each other,,html-keyboard-response,154,805926,0.0-15.0-2.6,17304,List2B,black,man,,,,null,,,,
14934,,,survey-text,155,820867,0.0-15.0-3.6,17304,List2B,black,man,,,,,"{""Q0"":""Luke and Mike are arguing with each other""}","<img src=""stim_listB/argue6.gif""style=""height:400px;""></stim_listB>",are arguing with each other,
null,"<div style=""font-size:60px;"">+</div>",,html-keyboard-response,156,821371,0.0-15.0-0.7,17304,List2B,black,man,,,,null,,,,
null,"<img src=""stim_listB/argue8.gif""style=""height:400px;""></stim_listB>",,html-keyboard-response,157,823381,0.0-15.0-1.7,17304,List2B,black,man,,,,null,,,,
null,are arguing with each other,,html-keyboard-response,158,825389,0.0-15.0-2.7,17304,List2B,black,man,,,,null,,,,
13255,,,survey-text,159,838649,0.0-15.0-3.7,17304,List2B,black,man,,,,,"{""Q0"":""Ruth and Kate are arguing with each other""}","<img src=""stim_listB/argue8.gif""style=""height:400px;""></stim_listB>",are arguing with each other,
null,"<div style=""font-size:60px;"">+</div>",,html-keyboard-response,160,839153,0.0-15.0-0.8,17304,List2B,black,man,,,,null,,,,
null,"<img src=""stim_listB/marry4.gif""style=""height:400px;""></stim_listB>",,html-keyboard-response,161,841161,0.0-15.0-1.8,17304,List2B,black,man,,,,null,,,,
null,are marrying each other,,html-keyboard-response,162,843175,0.0-15.0-2.8,17304,List2B,black,man,,,,null,,,,
13922,,,survey-text,163,857109,0.0-15.0-3.8,17304,List2B,black,man,,,,,"{""Q0"":""Fred and Kate are marrying each other""}","<img src=""stim_listB/marry4.gif""style=""height:400px;""></stim_listB>",are marrying each other,
null,"<div style=""font-size:60px;"">+</div>",,html-keyboard-response,164,857612,0.0-15.0-0.9,17304,List2B,black,man,,,,null,,,,
null,"<img src=""stim_listB/shout8.gif""style=""height:400px;""></stim_listB>",,html-keyboard-response,165,859620,0.0-15.0-1.9,17304,List2B,black,man,,,,null,,,,
null,are shouting at each other,,html-keyboard-response,166,861635,0.0-15.0-2.9,17304,List2B,black,man,,,,null,,,,
11956,,,survey-text,167,873595,0.0-15.0-3.9,17304,List2B,black,man,,,,,"{""Q0"":""Jane and Kate are shouting at each other""}","<img src=""stim_listB/shout8.gif""style=""height:400px;""></stim_listB>",are shouting at each other,
null,"<div style=""font-size:60px;"">+</div>",,html-keyboard-response,168,874098,0.0-15.0-0.10,17304,List2B,black,man,,,,null,,,,
null,"<img src=""stim_listB/touch1.gif""style=""height:400px;""></stim_listB>",,html-keyboard-response,169,876110,0.0-15.0-1.10,17304,List2B,black,man,,,,null,,,,
null,is touching,,html-keyboard-response,170,878122,0.0-15.0-2.10,17304,List2B,black,man,,,,null,,,,
17201,,,survey-text,171,895337,0.0-15.0-3.10,17304,List2B,black,man,,,,,"{""Q0"":""Jane is touching Dave""}","<img src=""stim_listB/touch1.gif""style=""height:400px;""></stim_listB>",is touching,
null,"<div style=""font-size:60px;"">+</div>",,html-keyboard-response,172,895841,0.0-15.0-0.11,17304,List2B,black,man,,,,null,,,,
null,"<img src=""stim_listB/play3.gif""style=""height:400px;""></stim_listB>",,html-keyboard-response,173,897849,0.0-15.0-1.11,17304,List2B,black,man,,,,null,,,,
null,is playing with,,html-keyboard-response,174,899862,0.0-15.0-2.11,17304,List2B,black,man,,,,null,,,,
13392,,,survey-text,175,913264,0.0-15.0-3.11,17304,List2B,black,man,,,,,"{""Q0"":""Kate is playing with Mike""}","<img src=""stim_listB/play3.gif""style=""height:400px;""></stim_listB>",is playing with,
null,"<div style=""font-size:60px;"">+</div>",,html-keyboard-response,176,913769,0.0-15.0-0.12,17304,List2B,black,man,,,,null,,,,
null,"<img src=""stim_listB/argue1.gif""style=""height:400px;""></stim_listB>",,html-keyboard-response,177,915779,0.0-15.0-1.12,17304,List2B,black,man,,,,null,,,,
null,is arguing with,,html-keyboard-response,178,917791,0.0-15.0-2.12,17304,List2B,black,man,,,,null,,,,
13192,,,survey-text,179,930995,0.0-15.0-3.12,17304,List2B,black,man,,,,,"{""Q0"":""Ruth is arguing with Dave""}","<img src=""stim_listB/argue1.gif""style=""height:400px;""></stim_listB>",is arguing with,
null,"<div style=""font-size:60px;"">+</div>",,html-keyboard-response,180,931499,0.0-15.0-0.13,17304,List2B,black,man,,,,null,,,,
null,"<img src=""stim_listB/fight3.gif""style=""height:400px;""></stim_listB>",,html-keyboard-response,181,933509,0.0-15.0-1.13,17304,List2B,black,man,,,,null,,,,
null,is fighting,,html-keyboard-response,182,935520,0.0-15.0-2.13,17304,List2B,black,man,,,,null,,,,
11210,,,survey-text,183,946738,0.0-15.0-3.13,17304,List2B,black,man,,,,,"{""Q0"":""Kate is fighting Mike""}","<img src=""stim_listB/fight3.gif""style=""height:400px;""></stim_listB>",is fighting,
null,"<div style=""font-size:60px;"">+</div>",,html-keyboard-response,184,947242,0.0-15.0-0.14,17304,List2B,black,man,,,,null,,,,
null,"<img src=""stim_listB/argue7.gif""style=""height:400px;""></stim_listB>",,html-keyboard-response,185,949249,0.0-15.0-1.14,17304,List2B,black,man,,,,null,,,,
null,is arguing with,,html-keyboard-response,186,951256,0.0-15.0-2.14,17304,List2B,black,man,,,,null,,,,
14426,,,survey-text,187,965689,0.0-15.0-3.14,17304,List2B,black,man,,,,,"{""Q0"":""Beth is arguing with Jane""}","<img src=""stim_listB/argue7.gif""style=""height:400px;""></stim_listB>",is arguing with,
null,"<div style=""font-size:60px;"">+</div>",,html-keyboard-response,188,966195,0.0-15.0-0.15,17304,List2B,black,man,,,,null,,,,
null,"<img src=""stim_listB/flirt5.gif""style=""height:400px;""></stim_listB>",,html-keyboard-response,189,968205,0.0-15.0-1.15,17304,List2B,black,man,,,,null,,,,
null,is flirting with,,html-keyboard-response,190,970217,0.0-15.0-2.15,17304,List2B,black,man,,,,null,,,,
17057,,,survey-text,191,987283,0.0-15.0-3.15,17304,List2B,black,man,,,,,"{""Q0"":""Mike is flirting with Luke""}","<img src=""stim_listB/flirt5.gif""style=""height:400px;""></stim_listB>",is flirting with,
null,"<div style=""font-size:60px;"">+</div>",,html-keyboard-response,192,987790,0.0-15.0-0.16,17304,List2B,black,man,,,,null,,,,
null,"<img src=""stim_listB/kiss2.gif""style=""height:400px;""></stim_listB>",,html-keyboard-response,193,989801,0.0-15.0-1.16,17304,List2B,black,man,,,,null,,,,
null,are kissing each other,,html-keyboard-response,194,991811,0.0-15.0-2.16,17304,List2B,black,man,,,,null,,,,
10664,,,survey-text,195,1002482,0.0-15.0-3.16,17304,List2B,black,man,,,,,"{""Q0"":""Dave and Jane are kissing each other""}","<img src=""stim_listB/kiss2.gif""style=""height:400px;""></stim_listB>",are kissing each other,
null,"<div style=""font-size:60px;"">+</div>",,html-keyboard-response,196,1002987,0.0-15.0-0.17,17304,List2B,black,man,,,,null,,,,
null,"<img src=""stim_listB/fight4.gif""style=""height:400px;""></stim_listB>",,html-keyboard-response,197,1004998,0.0-15.0-1.17,17304,List2B,black,man,,,,null,,,,
null,are fighting each other,,html-keyboard-response,198,1007006,0.0-15.0-2.17,17304,List2B,black,man,,,,null,,,,
9888,,,survey-text,199,1016901,0.0-15.0-3.17,17304,List2B,black,man,,,,,"{""Q0"":""Fred and Beth are fighting each other""}","<img src=""stim_listB/fight4.gif""style=""height:400px;""></stim_listB>",are fighting each other,
null,"<div style=""font-size:60px;"">+</div>",,html-keyboard-response,200,1017405,0.0-15.0-0.18,17304,List2B,black,man,,,,null,,,,
null,"<img src=""stim_listB/kiss6.gif""style=""height:400px;""></stim_listB>",,html-keyboard-response,201,1019419,0.0-15.0-1.18,17304,List2B,black,man,,,,null,,,,
null,are kissing each other,,html-keyboard-response,202,1021427,0.0-15.0-2.18,17304,List2B,black,man,,,,null,,,,
14734,,,survey-text,203,1036168,0.0-15.0-3.18,17304,List2B,black,man,,,,,"{""Q0"":""Dave and Mike are kissing each other""}","<img src=""stim_listB/kiss6.gif""style=""height:400px;""></stim_listB>",are kissing each other,
null,"<div style=""font-size:60px;"">+</div>",,html-keyboard-response,204,1036672,0.0-15.0-0.19,17304,List2B,black,man,,,,null,,,,
null,"<img src=""stim_listB/flirt6.gif""style=""height:400px;""></stim_listB>",,html-keyboard-response,205,1038681,0.0-15.0-1.19,17304,List2B,black,man,,,,null,,,,
null,are flirting with each other,,html-keyboard-response,206,1040684,0.0-15.0-2.19,17304,List2B,black,man,,,,null,,,,
23815,,,survey-text,207,1064502,0.0-15.0-3.19,17304,List2B,black,man,,,,,"{""Q0"":""Dave and Fred are flirting with each other""}","<img src=""stim_listB/flirt6.gif""style=""height:400px;""></stim_listB>",are flirting with each other,
21830,"<img src='img/portrait_matrix_list2.jpg' style='width:900px;height:500px;''></img><p>If you have memorised all the portraits and names and are ready to start, press Continue.</p><p><strong>Please note: Your memory of these faces will be tested 4 times during this experiment.</strong></p>",0,html-button-response,208,1086338,0.0-16.0-0.0,17304,List2B,black,man,,,,,,,,
2891,"<img src=""portrait/BW1.jpg""style=""height:400px;""></img>",0,html-button-response,209,1090246,0.0-16.0-1.0,17304,List2B,black,man,,TRUE,0,,,,,
null,CORRECT,,html-keyboard-response,210,1091753,0.0-16.0-2.0-0.0,17304,List2B,black,man,,,,null,,,,
1599,"<img src=""portrait/BM2.jpg""style=""height:400px;""></img>",5,html-button-response,211,1093365,0.0-16.0-4.0,17304,List2B,black,man,,TRUE,5,,,,,
null,CORRECT,,html-keyboard-response,212,1094876,0.0-16.0-5.0-0.0,17304,List2B,black,man,,,,null,,,,
4116,"<img src=""portrait/BM1.jpg""style=""height:400px;""></img>",4,html-button-response,213,1099006,0.0-16.0-7.0,17304,List2B,black,man,,TRUE,4,,,,,
null,CORRECT,,html-keyboard-response,214,1100517,0.0-16.0-8.0-0.0,17304,List2B,black,man,,,,null,,,,
3122,"<img src=""portrait/WW2.jpg""style=""height:400px;""></img>",3,html-button-response,215,1103652,0.0-16.0-10.0,17304,List2B,black,man,,TRUE,3,,,,,
null,CORRECT,,html-keyboard-response,216,1105165,0.0-16.0-11.0-0.0,17304,List2B,black,man,,,,null,,,,
2175,"<img src=""portrait/WM2.jpg""style=""height:400px;""></img>",7,html-button-response,217,1107357,0.0-16.0-13.0,17304,List2B,black,man,,TRUE,7,,,,,
null,CORRECT,,html-keyboard-response,218,1108866,0.0-16.0-14.0-0.0,17304,List2B,black,man,,,,null,,,,
3692,"<img src=""portrait/WW1.jpg""style=""height:400px;""></img>",1,html-button-response,219,1112568,0.0-16.0-16.0,17304,List2B,black,man,,TRUE,1,,,,,
null,CORRECT,,html-keyboard-response,220,1114074,0.0-16.0-17.0-0.0,17304,List2B,black,man,,,,null,,,,
7256,"<img src=""portrait/BW2.jpg""style=""height:400px;""></img>",2,html-button-response,221,1121337,0.0-16.0-19.0,17304,List2B,black,man,,TRUE,2,,,,,
null,CORRECT,,html-keyboard-response,222,1122842,0.0-16.0-20.0-0.0,17304,List2B,black,man,,,,null,,,,
14103,"<img src=""portrait/WM1.jpg""style=""height:400px;""></img>",6,html-button-response,223,1136951,0.0-16.0-22.0,17304,List2B,black,man,,TRUE,6,,,,,
null,CORRECT,,html-keyboard-response,224,1138461,0.0-16.0-23.0-0.0,17304,List2B,black,man,,,,null,,,,
1492,<p>You got 8 out of 8 right first time. Press Continue.</p>,0,html-button-response,225,1139967,0.0-16.0-25.0,17304,List2B,black,man,,,,,,,,
null,"<div style=""font-size:60px;"">+</div>",,html-keyboard-response,226,1141479,0.0-17.0-0.0,17304,List2B,black,man,,,,null,,,,
null,"<img src=""stim_listB/talk1.gif""style=""height:400px;""></stim_listB>",,html-keyboard-response,227,1143500,0.0-17.0-1.0,17304,List2B,black,man,,,,null,,,,
null,is talking to,,html-keyboard-response,228,1145514,0.0-17.0-2.0,17304,List2B,black,man,,,,null,,,,
21531,,,survey-text,229,1167056,0.0-17.0-3.0,17304,List2B,black,man,,,,,"{""Q0"":""Jane is talking to Luke""}","<img src=""stim_listB/talk1.gif""style=""height:400px;""></stim_listB>",is talking to,
null,"<div style=""font-size:60px;"">+</div>",,html-keyboard-response,230,1167560,0.0-17.0-0.1,17304,List2B,black,man,,,,null,,,,
null,"<img src=""stim_listB/dance7.gif""style=""height:400px;""></stim_listB>",,html-keyboard-response,231,1169572,0.0-17.0-1.1,17304,List2B,black,man,,,,null,,,,
null,is dancing with,,html-keyboard-response,232,1171586,0.0-17.0-2.1,17304,List2B,black,man,,,,null,,,,
26219,,,survey-text,233,1197811,0.0-17.0-3.1,17304,List2B,black,man,,,,,"{""Q0"":""Kate is dancing with Ruth""}","<img src=""stim_listB/dance7.gif""style=""height:400px;""></stim_listB>",is dancing with,
null,"<div style=""font-size:60px;"">+</div>",,html-keyboard-response,234,1198315,0.0-17.0-0.2,17304,List2B,black,man,,,,null,,,,
null,"<img src=""stim_listB/argue2.gif""style=""height:400px;""></stim_listB>",,html-keyboard-response,235,1200322,0.0-17.0-1.2,17304,List2B,black,man,,,,null,,,,
null,are arguing with each other,,html-keyboard-response,236,1202332,0.0-17.0-2.2,17304,List2B,black,man,,,,null,,,,
17576,,,survey-text,237,1219915,0.0-17.0-3.2,17304,List2B,black,man,,,,,"{""Q0"":""Luke and Jane are arguing with each other""}","<img src=""stim_listB/argue2.gif""style=""height:400px;""></stim_listB>",are arguing with each other,
null,"<div style=""font-size:60px;"">+</div>",,html-keyboard-response,238,1220420,0.0-17.0-0.3,17304,List2B,black,man,,,,null,,,,
null,"<img src=""stim_listB/fight2.gif""style=""height:400px;""></stim_listB>",,html-keyboard-response,239,1222429,0.0-17.0-1.3,17304,List2B,black,man,,,,null,,,,
null,are fighting each other,,html-keyboard-response,240,1224438,0.0-17.0-2.3,17304,List2B,black,man,,,,null,,,,
22370,,,survey-text,241,1246814,0.0-17.0-3.3,17304,List2B,black,man,,,,,"{""Q0"":""Luke and Ruth are fighting each other""}","<img src=""stim_listB/fight2.gif""style=""height:400px;""></stim_listB>",are fighting each other,
null,"<div style=""font-size:60px;"">+</div>",,html-keyboard-response,242,1247319,0.0-17.0-0.4,17304,List2B,black,man,,,,null,,,,
null,"<img src=""stim_listB/talk4.gif""style=""height:400px;""></stim_listB>",,html-keyboard-response,243,1249328,0.0-17.0-1.4,17304,List2B,black,man,,,,null,,,,
null,are talking to each other,,html-keyboard-response,244,1251342,0.0-17.0-2.4,17304,List2B,black,man,,,,null,,,,
14780,,,survey-text,245,1266137,0.0-17.0-3.4,17304,List2B,black,man,,,,,"{""Q0"":""Mike and Beth are talking to each other""}","<img src=""stim_listB/talk4.gif""style=""height:400px;""></stim_listB>",are talking to each other,
null,"<div style=""font-size:60px;"">+</div>",,html-keyboard-response,246,1266641,0.0-17.0-0.5,17304,List2B,black,man,,,,null,,,,
null,"<img src=""stim_listB/argue3.gif""style=""height:400px;""></stim_listB>",,html-keyboard-response,247,1268652,0.0-17.0-1.5,17304,List2B,black,man,,,,null,,,,
null,is arguing with,,html-keyboard-response,248,1270661,0.0-17.0-2.5,17304,List2B,black,man,,,,null,,,,
9792,,,survey-text,249,1280457,0.0-17.0-3.5,17304,List2B,black,man,,,,,"{""Q0"":""Beth is arguing with Mike""}","<img src=""stim_listB/argue3.gif""style=""height:400px;""></stim_listB>",is arguing with,
null,"<div style=""font-size:60px;"">+</div>",,html-keyboard-response,250,1280964,0.0-17.0-0.6,17304,List2B,black,man,,,,null,,,,
null,"<img src=""stim_listB/flirt4.gif""style=""height:400px;""></stim_listB>",,html-keyboard-response,251,1282976,0.0-17.0-1.6,17304,List2B,black,man,,,,null,,,,
null,are flirting with each other,,html-keyboard-response,252,1284990,0.0-17.0-2.6,17304,List2B,black,man,,,,null,,,,
16835,,,survey-text,253,1301832,0.0-17.0-3.6,17304,List2B,black,man,,,,,"{""Q0"":""Mike and Beth are flirting with each other""}","<img src=""stim_listB/flirt4.gif""style=""height:400px;""></stim_listB>",are flirting with each other,
null,"<div style=""font-size:60px;"">+</div>",,html-keyboard-response,254,1302336,0.0-17.0-0.7,17304,List2B,black,man,,,,null,,,,
null,"<img src=""stim_listB/marry1.gif""style=""height:400px;""></stim_listB>",,html-keyboard-response,255,1304346,0.0-17.0-1.7,17304,List2B,black,man,,,,null,,,,
null,is marrying,,html-keyboard-response,256,1306355,0.0-17.0-2.7,17304,List2B,black,man,,,,null,,,,
9207,,,survey-text,257,1315572,0.0-17.0-3.7,17304,List2B,black,man,,,,,"{""Q0"":""Ruth is marrying Dave""}","<img src=""stim_listB/marry1.gif""style=""height:400px;""></stim_listB>",is marrying,
null,"<div style=""font-size:60px;"">+</div>",,html-keyboard-response,258,1316078,0.0-17.0-0.8,17304,List2B,black,man,,,,null,,,,
null,"<img src=""stim_listB/kiss3.gif""style=""height:400px;""></stim_listB>",,html-keyboard-response,259,1318086,0.0-17.0-1.8,17304,List2B,black,man,,,,null,,,,
null,is kissing,,html-keyboard-response,260,1320097,0.0-17.0-2.8,17304,List2B,black,man,,,,null,,,,
8881,,,survey-text,261,1328983,0.0-17.0-3.8,17304,List2B,black,man,,,,,"{""Q0"":""Beth is kissing Fred""}","<img src=""stim_listB/kiss3.gif""style=""height:400px;""></stim_listB>",is kissing,
null,"<div style=""font-size:60px;"">+</div>",,html-keyboard-response,262,1329487,0.0-17.0-0.9,17304,List2B,black,man,,,,null,,,,
null,"<img src=""stim_listB/touch7.gif""style=""height:400px;""></stim_listB>",,html-keyboard-response,263,1331501,0.0-17.0-1.9,17304,List2B,black,man,,,,null,,,,
null,is touching,,html-keyboard-response,264,1333518,0.0-17.0-2.9,17304,List2B,black,man,,,,null,,,,
10628,,,survey-text,265,1344154,0.0-17.0-3.9,17304,List2B,black,man,,,,,"{""Q0"":""Kate is touching Jane""}","<img src=""stim_listB/touch7.gif""style=""height:400px;""></stim_listB>",is touching,
null,"<div style=""font-size:60px;"">+</div>",,html-keyboard-response,266,1344657,0.0-17.0-0.10,17304,List2B,black,man,,,,null,,,,
null,"<img src=""stim_listB/dance3.gif""style=""height:400px;""></stim_listB>",,html-keyboard-response,267,1346665,0.0-17.0-1.10,17304,List2B,black,man,,,,null,,,,
null,is dancing with,,html-keyboard-response,268,1348680,0.0-17.0-2.10,17304,List2B,black,man,,,,null,,,,
21770,,,survey-text,269,1370456,0.0-17.0-3.10,17304,List2B,black,man,,,,,"{""Q0"":""Kate is dancing with Fred""}","<img src=""stim_listB/dance3.gif""style=""height:400px;""></stim_listB>",is dancing with,
null,"<div style=""font-size:60px;"">+</div>",,html-keyboard-response,270,1370960,0.0-17.0-0.11,17304,List2B,black,man,,,,null,,,,
null,"<img src=""stim_listB/play4.gif""style=""height:400px;""></stim_listB>",,html-keyboard-response,271,1372965,0.0-17.0-1.11,17304,List2B,black,man,,,,null,,,,
null,are playing with each other,,html-keyboard-response,272,1374976,0.0-17.0-2.11,17304,List2B,black,man,,,,null,,,,
29456,,,survey-text,273,1404442,0.0-17.0-3.11,17304,List2B,black,man,,,,,"{""Q0"":""Fred and Beth are playing cards with each other""}","<img src=""stim_listB/play4.gif""style=""height:400px;""></stim_listB>",are playing with each other,
null,"<div style=""font-size:60px;"">+</div>",,html-keyboard-response,274,1404945,0.0-17.0-0.12,17304,List2B,black,man,,,,null,,,,
null,"<img src=""stim_listB/flirt1.gif""style=""height:400px;""></stim_listB>",,html-keyboard-response,275,1406967,0.0-17.0-1.12,17304,List2B,black,man,,,,null,,,,
null,is flirting with,,html-keyboard-response,276,1408979,0.0-17.0-2.12,17304,List2B,black,man,,,,null,,,,
17075,,,survey-text,277,1426066,0.0-17.0-3.12,17304,List2B,black,man,,,,,"{""Q0"":""Jane is flirting with Luke""}","<img src=""stim_listB/flirt1.gif""style=""height:400px;""></stim_listB>",is flirting with,
null,"<div style=""font-size:60px;"">+</div>",,html-keyboard-response,278,1426569,0.0-17.0-0.13,17304,List2B,black,man,,,,null,,,,
null,"<img src=""stim_listB/dance6.gif""style=""height:400px;""></stim_listB>",,html-keyboard-response,279,1428575,0.0-17.0-1.13,17304,List2B,black,man,,,,null,,,,
null,are dancing with each other,,html-keyboard-response,280,1430581,0.0-17.0-2.13,17304,List2B,black,man,,,,null,,,,
12107,,,survey-text,281,1442695,0.0-17.0-3.13,17304,List2B,black,man,,,,,"{""Q0"":""Dave and Fred are dancing with each other""}","<img src=""stim_listB/dance6.gif""style=""height:400px;""></stim_listB>",are dancing with each other,
null,"<div style=""font-size:60px;"">+</div>",,html-keyboard-response,282,1443199,0.0-17.0-0.14,17304,List2B,black,man,,,,null,,,,
null,"<img src=""stim_listB/fight5.gif""style=""height:400px;""></stim_listB>",,html-keyboard-response,283,1445205,0.0-17.0-1.14,17304,List2B,black,man,,,,null,,,,
null,is fighting,,html-keyboard-response,284,1447212,0.0-17.0-2.14,17304,List2B,black,man,,,,null,,,,
14267,,,survey-text,285,1461487,0.0-17.0-3.14,17304,List2B,black,man,,,,,"{""Q0"":""Mike is fighting with Dave""}","<img src=""stim_listB/fight5.gif""style=""height:400px;""></stim_listB>",is fighting,
null,"<div style=""font-size:60px;"">+</div>",,html-keyboard-response,286,1461991,0.0-17.0-0.15,17304,List2B,black,man,,,,null,,,,
null,"<img src=""stim_listB/flirt8.gif""style=""height:400px;""></stim_listB>",,html-keyboard-response,287,1464000,0.0-17.0-1.15,17304,List2B,black,man,,,,null,,,,
null,are flirting with each other,,html-keyboard-response,288,1466012,0.0-17.0-2.15,17304,List2B,black,man,,,,null,,,,
11996,,,survey-text,289,1478013,0.0-17.0-3.15,17304,List2B,black,man,,,,,"{""Q0"":""Jane and Beth are flirting with each other""}","<img src=""stim_listB/flirt8.gif""style=""height:400px;""></stim_listB>",are flirting with each other,
null,"<div style=""font-size:60px;"">+</div>",,html-keyboard-response,290,1478517,0.0-17.0-0.16,17304,List2B,black,man,,,,null,,,,
null,"<img src=""stim_listB/touch4.gif""style=""height:400px;""></stim_listB>",,html-keyboard-response,291,1480526,0.0-17.0-1.16,17304,List2B,black,man,,,,null,,,,
null,are touching each other,,html-keyboard-response,292,1482536,0.0-17.0-2.16,17304,List2B,black,man,,,,null,,,,
16463,,,survey-text,293,1499004,0.0-17.0-3.16,17304,List2B,black,man,,,,,"{""Q0"":""Fred and Beth are touching each other""}","<img src=""stim_listB/touch4.gif""style=""height:400px;""></stim_listB>",are touching each other,
null,"<div style=""font-size:60px;"">+</div>",,html-keyboard-response,294,1499507,0.0-17.0-0.17,17304,List2B,black,man,,,,null,,,,
null,"<img src=""stim_listB/talk7.gif""style=""height:400px;""></stim_listB>",,html-keyboard-response,295,1501518,0.0-17.0-1.17,17304,List2B,black,man,,,,null,,,,
null,is talking to,,html-keyboard-response,296,1503539,0.0-17.0-2.17,17304,List2B,black,man,,,,null,,,,
17155,,,survey-text,297,1520702,0.0-17.0-3.17,17304,List2B,black,man,,,,,"{""Q0"":""Jane is talking to Ruth""}","<img src=""stim_listB/talk7.gif""style=""height:400px;""></stim_listB>",is talking to,
null,"<div style=""font-size:60px;"">+</div>",,html-keyboard-response,298,1521209,0.0-17.0-0.18,17304,List2B,black,man,,,,null,,,,
null,"<img src=""stim_listB/play1.gif""style=""height:400px;""></stim_listB>",,html-keyboard-response,299,1523219,0.0-17.0-1.18,17304,List2B,black,man,,,,null,,,,
null,is playing with,,html-keyboard-response,300,1525228,0.0-17.0-2.18,17304,List2B,black,man,,,,null,,,,
18363,,,survey-text,301,1543598,0.0-17.0-3.18,17304,List2B,black,man,,,,,"{""Q0"":""Jane is playing with Dave""}","<img src=""stim_listB/play1.gif""style=""height:400px;""></stim_listB>",is playing with,
null,"<div style=""font-size:60px;"">+</div>",,html-keyboard-response,302,1544101,0.0-17.0-0.19,17304,List2B,black,man,,,,null,,,,
null,"<img src=""stim_listB/argue4.gif""style=""height:400px;""></stim_listB>",,html-keyboard-response,303,1546112,0.0-17.0-1.19,17304,List2B,black,man,,,,null,,,,
null,are arguing with each other,,html-keyboard-response,304,1548135,0.0-17.0-2.19,17304,List2B,black,man,,,,null,,,,
17693,,,survey-text,305,1565837,0.0-17.0-3.19,17304,List2B,black,man,,,,,"{""Q0"":""Fred and Jane are arguing with each other""}","<img src=""stim_listB/argue4.gif""style=""height:400px;""></stim_listB>",are arguing with each other,
4541,"<img src='img/portrait_matrix_list2.jpg' style='width:900px;height:500px;''></img><p>If you have memorised all the portraits and names and are ready to start, press Continue.</p><p><strong>Please note: Your memory of these faces will be tested 4 times during this experiment.</strong></p>",0,html-button-response,306,1570392,0.0-18.0-0.0,17304,List2B,black,man,,,,,,,,
1561,"<img src=""portrait/WM1.jpg""style=""height:400px;""></img>",6,html-button-response,307,1572969,0.0-18.0-1.0,17304,List2B,black,man,,TRUE,6,,,,,
null,CORRECT,,html-keyboard-response,308,1574480,0.0-18.0-2.0-0.0,17304,List2B,black,man,,,,null,,,,
1753,"<img src=""portrait/WW2.jpg""style=""height:400px;""></img>",3,html-button-response,309,1576253,0.0-18.0-4.0,17304,List2B,black,man,,TRUE,3,,,,,
null,CORRECT,,html-keyboard-response,310,1577765,0.0-18.0-5.0-0.0,17304,List2B,black,man,,,,null,,,,
2603,"<img src=""portrait/BW2.jpg""style=""height:400px;""></img>",2,html-button-response,311,1580386,0.0-18.0-7.0,17304,List2B,black,man,,TRUE,2,,,,,
null,CORRECT,,html-keyboard-response,312,1581899,0.0-18.0-8.0-0.0,17304,List2B,black,man,,,,null,,,,
1664,"<img src=""portrait/WM2.jpg""style=""height:400px;""></img>",7,html-button-response,313,1583607,0.0-18.0-10.0,17304,List2B,black,man,,TRUE,7,,,,,
null,CORRECT,,html-keyboard-response,314,1585118,0.0-18.0-11.0-0.0,17304,List2B,black,man,,,,null,,,,
1406,"<img src=""portrait/WW1.jpg""style=""height:400px;""></img>",1,html-button-response,315,1586538,0.0-18.0-13.0,17304,List2B,black,man,,TRUE,1,,,,,
null,CORRECT,,html-keyboard-response,316,1588056,0.0-18.0-14.0-0.0,17304,List2B,black,man,,,,null,,,,
3280,"<img src=""portrait/BM1.jpg""style=""height:400px;""></img>",4,html-button-response,317,1591351,0.0-18.0-16.0,17304,List2B,black,man,,TRUE,4,,,,,
null,CORRECT,,html-keyboard-response,318,1592863,0.0-18.0-17.0-0.0,17304,List2B,black,man,,,,null,,,,
4864,"<img src=""portrait/BM2.jpg""style=""height:400px;""></img>",5,html-button-response,319,1597744,0.0-18.0-19.0,17304,List2B,black,man,,TRUE,5,,,,,
null,CORRECT,,html-keyboard-response,320,1599253,0.0-18.0-20.0-0.0,17304,List2B,black,man,,,,null,,,,
2685,"<img src=""portrait/BW1.jpg""style=""height:400px;""></img>",0,html-button-response,321,1601955,0.0-18.0-22.0,17304,List2B,black,man,,TRUE,0,,,,,
null,CORRECT,,html-keyboard-response,322,1603468,0.0-18.0-23.0-0.0,17304,List2B,black,man,,,,null,,,,
1373,<p>You got 8 out of 8 right first time. Press Continue.</p>,0,html-button-response,323,1604856,0.0-18.0-25.0,17304,List2B,black,man,,,,,,,,
null,"<div style=""font-size:60px;"">+</div>",,html-keyboard-response,324,1606370,0.0-19.0-0.0,17304,List2B,black,man,,,,null,,,,
null,"<img src=""stim_listB/shout7.gif""style=""height:400px;""></stim_listB>",,html-keyboard-response,325,1608385,0.0-19.0-1.0,17304,List2B,black,man,,,,null,,,,
null,is shouting at,,html-keyboard-response,326,1610393,0.0-19.0-2.0,17304,List2B,black,man,,,,null,,,,
20363,,,survey-text,327,1630769,0.0-19.0-3.0,17304,List2B,black,man,,,,,"{""Q0"":""Beth is shouting at Ruth""}","<img src=""stim_listB/shout7.gif""style=""height:400px;""></stim_listB>",is shouting at,
null,"<div style=""font-size:60px;"">+</div>",,html-keyboard-response,328,1631274,0.0-19.0-0.1,17304,List2B,black,man,,,,null,,,,
null,"<img src=""stim_listB/marry2.gif""style=""height:400px;""></stim_listB>",,html-keyboard-response,329,1633283,0.0-19.0-1.1,17304,List2B,black,man,,,,null,,,,
null,are marrying each other,,html-keyboard-response,330,1635290,0.0-19.0-2.1,17304,List2B,black,man,,,,null,,,,
21477,,,survey-text,331,1656773,0.0-19.0-3.1,17304,List2B,black,man,,,,,"{""Q0"":""Luke and Jane are marrying each other""}","<img src=""stim_listB/marry2.gif""style=""height:400px;""></stim_listB>",are marrying each other,
null,"<div style=""font-size:60px;"">+</div>",,html-keyboard-response,332,1657277,0.0-19.0-0.2,17304,List2B,black,man,,,,null,,,,
null,"<img src=""stim_listB/marry6.gif""style=""height:400px;""></stim_listB>",,html-keyboard-response,333,1659288,0.0-19.0-1.2,17304,List2B,black,man,,,,null,,,,
null,are marrying each other,,html-keyboard-response,334,1661297,0.0-19.0-2.2,17304,List2B,black,man,,,,null,,,,
17692,,,survey-text,335,1678998,0.0-19.0-3.2,17304,List2B,black,man,,,,,"{""Q0"":""Luke and Mike are marrying each other""}","<img src=""stim_listB/marry6.gif""style=""height:400px;""></stim_listB>",are marrying each other,
null,"<div style=""font-size:60px;"">+</div>",,html-keyboard-response,336,1679506,0.0-19.0-0.3,17304,List2B,black,man,,,,null,,,,
null,"<img src=""stim_listB/marry3.gif""style=""height:400px;""></stim_listB>",,html-keyboard-response,337,1681517,0.0-19.0-1.3,17304,List2B,black,man,,,,null,,,,
null,is marrying,,html-keyboard-response,338,1683532,0.0-19.0-2.3,17304,List2B,black,man,,,,null,,,,
10175,,,survey-text,339,1693716,0.0-19.0-3.3,17304,List2B,black,man,,,,,"{""Q0"":""Beth is marrying Mike""}","<img src=""stim_listB/marry3.gif""style=""height:400px;""></stim_listB>",is marrying,
null,"<div style=""font-size:60px;"">+</div>",,html-keyboard-response,340,1694220,0.0-19.0-0.4,17304,List2B,black,man,,,,null,,,,
null,"<img src=""stim_listB/talk2.gif""style=""height:400px;""></stim_listB>",,html-keyboard-response,341,1696231,0.0-19.0-1.4,17304,List2B,black,man,,,,null,,,,
null,are talking to each other,,html-keyboard-response,342,1698246,0.0-19.0-2.4,17304,List2B,black,man,,,,null,,,,
13406,,,survey-text,343,1711660,0.0-19.0-3.4,17304,List2B,black,man,,,,,"{""Q0"":""Dave and Ruth are talking to each other""}","<img src=""stim_listB/talk2.gif""style=""height:400px;""></stim_listB>",are talking to each other,
null,"<div style=""font-size:60px;"">+</div>",,html-keyboard-response,344,1712166,0.0-19.0-0.5,17304,List2B,black,man,,,,null,,,,
null,"<img src=""stim_listB/kiss8.gif""style=""height:400px;""></stim_listB>",,html-keyboard-response,345,1714173,0.0-19.0-1.5,17304,List2B,black,man,,,,null,,,,
null,are kissing each other,,html-keyboard-response,346,1716180,0.0-19.0-2.5,17304,List2B,black,man,,,,null,,,,
12414,,,survey-text,347,1728607,0.0-19.0-3.5,17304,List2B,black,man,,,,,"{""Q0"":""Jane and Kate are kissing each other""}","<img src=""stim_listB/kiss8.gif""style=""height:400px;""></stim_listB>",are kissing each other,
null,"<div style=""font-size:60px;"">+</div>",,html-keyboard-response,348,1729111,0.0-19.0-0.6,17304,List2B,black,man,,,,null,,,,
null,"<img src=""stim_listB/fight1.gif""style=""height:400px;""></stim_listB>",,html-keyboard-response,349,1731118,0.0-19.0-1.6,17304,List2B,black,man,,,,null,,,,
null,is fighting,,html-keyboard-response,350,1733124,0.0-19.0-2.6,17304,List2B,black,man,,,,null,,,,
14601,,,survey-text,351,1747736,0.0-19.0-3.6,17304,List2B,black,man,,,,,"{""Q0"":""Jane is fighting Dave""}","<img src=""stim_listB/fight1.gif""style=""height:400px;""></stim_listB>",is fighting,
null,"<div style=""font-size:60px;"">+</div>",,html-keyboard-response,352,1748242,0.0-19.0-0.7,17304,List2B,black,man,,,,null,,,,
null,"<img src=""stim_listB/touch3.gif""style=""height:400px;""></stim_listB>",,html-keyboard-response,353,1750260,0.0-19.0-1.7,17304,List2B,black,man,,,,null,,,,
null,is touching,,html-keyboard-response,354,1752273,0.0-19.0-2.7,17304,List2B,black,man,,,,null,,,,
8179,,,survey-text,355,1760457,0.0-19.0-3.7,17304,List2B,black,man,,,,,"{""Q0"":""Kate is touching Mike""}","<img src=""stim_listB/touch3.gif""style=""height:400px;""></stim_listB>",is touching,
null,"<div style=""font-size:60px;"">+</div>",,html-keyboard-response,356,1760962,0.0-19.0-0.8,17304,List2B,black,man,,,,null,,,,
null,"<img src=""stim_listB/flirt7.gif""style=""height:400px;""></stim_listB>",,html-keyboard-response,357,1762972,0.0-19.0-1.8,17304,List2B,black,man,,,,null,,,,
null,is flirting with,,html-keyboard-response,358,1764984,0.0-19.0-2.8,17304,List2B,black,man,,,,null,,,,
21125,,,survey-text,359,1786118,0.0-19.0-3.8,17304,List2B,black,man,,,,,"{""Q0"":""Kate is flirting with Ruth""}","<img src=""stim_listB/flirt7.gif""style=""height:400px;""></stim_listB>",is flirting with,
null,"<div style=""font-size:60px;"">+</div>",,html-keyboard-response,360,1786622,0.0-19.0-0.9,17304,List2B,black,man,,,,null,,,,
null,"<img src=""stim_listB/marry7.gif""style=""height:400px;""></stim_listB>",,html-keyboard-response,361,1788629,0.0-19.0-1.9,17304,List2B,black,man,,,,null,,,,
null,is marrying,,html-keyboard-response,362,1790636,0.0-19.0-2.9,17304,List2B,black,man,,,,null,,,,
13517,,,survey-text,363,1804163,0.0-19.0-3.9,17304,List2B,black,man,,,,,"{""Q0"":""Beth is marrying Jane""}","<img src=""stim_listB/marry7.gif""style=""height:400px;""></stim_listB>",is marrying,
null,"<div style=""font-size:60px;"">+</div>",,html-keyboard-response,364,1804669,0.0-19.0-0.10,17304,List2B,black,man,,,,null,,,,
null,"<img src=""stim_listB/fight8.gif""style=""height:400px;""></stim_listB>",,html-keyboard-response,365,1806687,0.0-19.0-1.10,17304,List2B,black,man,,,,null,,,,
null,are fighting each other,,html-keyboard-response,366,1808695,0.0-19.0-2.10,17304,List2B,black,man,,,,null,,,,
15452,,,survey-text,367,1824153,0.0-19.0-3.10,17304,List2B,black,man,,,,,"{""Q0"":""Ruth and Beth are fighting each other""}","<img src=""stim_listB/fight8.gif""style=""height:400px;""></stim_listB>",are fighting each other,
null,"<div style=""font-size:60px;"">+</div>",,html-keyboard-response,368,1824657,0.0-19.0-0.11,17304,List2B,black,man,,,,null,,,,
null,"<img src=""stim_listB/shout6.gif""style=""height:400px;""></stim_listB>",,html-keyboard-response,369,1826670,0.0-19.0-1.11,17304,List2B,black,man,,,,null,,,,
null,are shouting at each other,,html-keyboard-response,370,1828683,0.0-19.0-2.11,17304,List2B,black,man,,,,null,,,,
15932,,,survey-text,371,1844623,0.0-19.0-3.11,17304,List2B,black,man,,,,,"{""Q0"":""Dave and Mike are shouting at each other""}","<img src=""stim_listB/shout6.gif""style=""height:400px;""></stim_listB>",are shouting at each other,
null,"<div style=""font-size:60px;"">+</div>",,html-keyboard-response,372,1845129,0.0-19.0-0.12,17304,List2B,black,man,,,,null,,,,
null,"<img src=""stim_listB/shout2.gif""style=""height:400px;""></stim_listB>",,html-keyboard-response,373,1847140,0.0-19.0-1.12,17304,List2B,black,man,,,,null,,,,
null,are shouting at each other,,html-keyboard-response,374,1849149,0.0-19.0-2.12,17304,List2B,black,man,,,,null,,,,
17585,,,survey-text,375,1866741,0.0-19.0-3.12,17304,List2B,black,man,,,,,"{""Q0"":""Dave and Jane are shouting at each other""}","<img src=""stim_listB/shout2.gif""style=""height:400px;""></stim_listB>",are shouting at each other,
null,"<div style=""font-size:60px;"">+</div>",,html-keyboard-response,376,1867244,0.0-19.0-0.13,17304,List2B,black,man,,,,null,,,,
null,"<img src=""stim_listB/flirt3.gif""style=""height:400px;""></stim_listB>",,html-keyboard-response,377,1869255,0.0-19.0-1.13,17304,List2B,black,man,,,,null,,,,
null,is flirting with,,html-keyboard-response,378,1871269,0.0-19.0-2.13,17304,List2B,black,man,,,,null,,,,
9698,,,survey-text,379,1880974,0.0-19.0-3.13,17304,List2B,black,man,,,,,"{""Q0"":""Kate is flirting with Fred""}","<img src=""stim_listB/flirt3.gif""style=""height:400px;""></stim_listB>",is flirting with,
null,"<div style=""font-size:60px;"">+</div>",,html-keyboard-response,380,1881481,0.0-19.0-0.14,17304,List2B,black,man,,,,null,,,,
null,"<img src=""stim_listB/play7.gif""style=""height:400px;""></stim_listB>",,html-keyboard-response,381,1883491,0.0-19.0-1.14,17304,List2B,black,man,,,,null,,,,
null,is playing with,,html-keyboard-response,382,1885502,0.0-19.0-2.14,17304,List2B,black,man,,,,null,,,,
19641,,,survey-text,383,1905151,0.0-19.0-3.14,17304,List2B,black,man,,,,,"{""Q0"":""Kate is playing with Jane""}","<img src=""stim_listB/play7.gif""style=""height:400px;""></stim_listB>",is playing with,
null,"<div style=""font-size:60px;"">+</div>",,html-keyboard-response,384,1905659,0.0-19.0-0.15,17304,List2B,black,man,,,,null,,,,
null,"<img src=""stim_listB/shout1.gif""style=""height:400px;""></stim_listB>",,html-keyboard-response,385,1907668,0.0-19.0-1.15,17304,List2B,black,man,,,,null,,,,
null,is shouting at,,html-keyboard-response,386,1909679,0.0-19.0-2.15,17304,List2B,black,man,,,,null,,,,
14351,,,survey-text,387,1924038,0.0-19.0-3.15,17304,List2B,black,man,,,,,"{""Q0"":""Ruth is shouting at Luke""}","<img src=""stim_listB/shout1.gif""style=""height:400px;""></stim_listB>",is shouting at,
null,"<div style=""font-size:60px;"">+</div>",,html-keyboard-response,388,1924543,0.0-19.0-0.16,17304,List2B,black,man,,,,null,,,,
null,"<img src=""stim_listB/fight6.gif""style=""height:400px;""></stim_listB>",,html-keyboard-response,389,1926552,0.0-19.0-1.16,17304,List2B,black,man,,,,null,,,,
null,are fighting each other,,html-keyboard-response,390,1928556,0.0-19.0-2.16,17304,List2B,black,man,,,,null,,,,
18542,,,survey-text,391,1947104,0.0-19.0-3.16,17304,List2B,black,man,,,,,"{""Q0"":""Mike and Fred are fighting with each other""}","<img src=""stim_listB/fight6.gif""style=""height:400px;""></stim_listB>",are fighting each other,
null,"<div style=""font-size:60px;"">+</div>",,html-keyboard-response,392,1947609,0.0-19.0-0.17,17304,List2B,black,man,,,,null,,,,
null,"<img src=""stim_listB/play8.gif""style=""height:400px;""></stim_listB>",,html-keyboard-response,393,1949618,0.0-19.0-1.17,17304,List2B,black,man,,,,null,,,,
null,are playing with each other,,html-keyboard-response,394,1951628,0.0-19.0-2.17,17304,List2B,black,man,,,,null,,,,
12579,,,survey-text,395,1964214,0.0-19.0-3.17,17304,List2B,black,man,,,,,"{""Q0"":""Ruth and Beth are playing with each other""}","<img src=""stim_listB/play8.gif""style=""height:400px;""></stim_listB>",are playing with each other,
null,"<div style=""font-size:60px;"">+</div>",,html-keyboard-response,396,1964720,0.0-19.0-0.18,17304,List2B,black,man,,,,null,,,,
null,"<img src=""stim_listB/fight7.gif""style=""height:400px;""></stim_listB>",,html-keyboard-response,397,1966732,0.0-19.0-1.18,17304,List2B,black,man,,,,null,,,,
null,is fighting,,html-keyboard-response,398,1968742,0.0-19.0-2.18,17304,List2B,black,man,,,,null,,,,
14343,,,survey-text,399,1983092,0.0-19.0-3.18,17304,List2B,black,man,,,,,"{""Q0"":""Kate is fighting Jane""}","<img src=""stim_listB/fight7.gif""style=""height:400px;""></stim_listB>",is fighting,
null,"<div style=""font-size:60px;"">+</div>",,html-keyboard-response,400,1983596,0.0-19.0-0.19,17304,List2B,black,man,,,,null,,,,
null,"<img src=""stim_listB/kiss5.gif""style=""height:400px;""></stim_listB>",,html-keyboard-response,401,1985609,0.0-19.0-1.19,17304,List2B,black,man,,,,null,,,,
null,is kissing,,html-keyboard-response,402,1987620,0.0-19.0-2.19,17304,List2B,black,man,,,,null,,,,
10633,,,survey-text,403,1998257,0.0-19.0-3.19,17304,List2B,black,man,,,,,"{""Q0"":""Fred is kissing Luke""}","<img src=""stim_listB/kiss5.gif""style=""height:400px;""></stim_listB>",is kissing,
3376,<p>Thank you for completing that task.</p><p>The final part of this session is a short questionnaire.</p><p>Press Continue.</p>,0,html-button-response,404,2001637,0.0-20.0,17304,List2B,black,man,,,,,,,,
27495,,,survey-text,405,2030177,0.0-21.0,17304,List2B,black,man,,,,,"{""Q0"":""24"",""Q1"":""English"",""Q2"":""English"",""Q3"":""England"",""Q4"":""Black"",""Q5"":""Male""}",,,demographics
14832,,,survey-likert,406,2045369,0.0-22.0,17304,List2B,black,man,,,,,"{""Q0"":3}",,,likert_ESS
8245,,,survey-likert,407,2053628,0.0-23.0,17304,List2B,black,man,,,,,"{""Q0"":5}",,,likert_NSSAL_Q1
3789,,,survey-likert,408,2057427,0.0-24.0,17304,List2B,black,man,,,,,"{""Q0"":5}",,,likert_NSSAL_Q2
4596,,,survey-likert,409,2062031,0.0-25.0,17304,List2B,black,man,,,,,"{""Q0"":4}",,,likert_CGRS_Q1
6304,,,survey-likert,410,2068343,0.0-26.0,17304,List2B,black,man,,,,,"{""Q0"":3}",,,likert_CGRS_Q2
3178,,,survey-likert,411,2071533,0.0-27.0,17304,List2B,black,man,,,,,"{""Q0"":3}",,,likert_CGRS_Q3
16810,,,survey-text,412,2088358,0.0-28.0,17304,List2B,black,man,,,,,"{""Q0"":""ccc""}",,,worker_id
22476,,,external-html,413,2111019,0.0-29.0,17304,List2B,black,man,debrief.html,,,,,,,
