rt,stimulus,button_pressed,trial_type,trial_index,time_elapsed,internal_node_id,subject,list,ppt_race,ppt_gender,url,first_guess,correct,key_press,responses,image_type,phrase_type,test_part
3917,Welcome to the experiment. Press Continue to begin.,0,html-button-response,0,3920,0.0-0.0,17975,List2A,white,man,,,,,,,,
43036,,,external-html,1,47991,0.0-1.0,17975,List2A,white,man,consent.html,,,,,,,
15292,"<p>On the next page, you will see portraits of 8 people and their names.</p><p>Your first task is to take a few minutes to memorise the names of these people.</p><p>You will have to recall their names during the rest of the experiment, so it is</p><p>essential that you try to memorise these people and their names as best as you can.</p><br><p><strong>You will then be tested on your memory of these names and portraits.</strong></p><br><p>The experiment will start after you have completed this memory test.</p><br><p>Ready?</p>",0,html-button-response,2,63284,0.0-2.0,17975,List2A,white,man,,,,,,,,
50684,"<img src='img/portrait_matrix_list2.jpg' style='width:900px;height:500px;''></img><p>If you have memorised all the portraits and names and are ready to start, press Continue.</p><p><strong>Please note: Your memory of these faces will be tested 4 times during this experiment.</strong></p>",0,html-button-response,3,114972,0.0-3.0-0.0,17975,List2A,white,man,,,,,,,,
8813,"<img src=""portrait/BM2.jpg""style=""height:400px;""></img>",5,html-button-response,4,124789,0.0-3.0-1.0,17975,List2A,white,man,,TRUE,5,,,,,
null,CORRECT,,html-keyboard-response,5,126293,0.0-3.0-2.0-0.0,17975,List2A,white,man,,,,null,,,,
5225,"<img src=""portrait/WM2.jpg""style=""height:400px;""></img>",7,html-button-response,6,131521,0.0-3.0-4.0,17975,List2A,white,man,,TRUE,7,,,,,
null,CORRECT,,html-keyboard-response,7,133044,0.0-3.0-5.0-0.0,17975,List2A,white,man,,,,null,,,,
9691,"<img src=""portrait/BW1.jpg""style=""height:400px;""></img>",0,html-button-response,8,142736,0.0-3.0-7.0,17975,List2A,white,man,,TRUE,0,,,,,
null,CORRECT,,html-keyboard-response,9,144238,0.0-3.0-8.0-0.0,17975,List2A,white,man,,,,null,,,,
2265,"<img src=""portrait/WM1.jpg""style=""height:400px;""></img>",6,html-button-response,10,146505,0.0-3.0-10.0,17975,List2A,white,man,,TRUE,6,,,,,
null,CORRECT,,html-keyboard-response,11,148009,0.0-3.0-11.0-0.0,17975,List2A,white,man,,,,null,,,,
2984,"<img src=""portrait/WW2.jpg""style=""height:400px;""></img>",1,html-button-response,12,150995,0.0-3.0-13.0,17975,List2A,white,man,,TRUE,3,,,,,
4764,"<img src=""portrait/WW2.jpg""style=""height:400px;""></img>",3,html-button-response,13,156763,0.0-3.0-15.0-0.0,17975,List2A,white,man,,FALSE,3,,,,,
null,CORRECT,,html-keyboard-response,14,158267,0.0-3.0-15.0-1.0-0.0,17975,List2A,white,man,,,,null,,,,
7480,"<img src=""portrait/BW2.jpg""style=""height:400px;""></img>",2,html-button-response,15,165749,0.0-3.0-16.0,17975,List2A,white,man,,TRUE,2,,,,,
null,CORRECT,,html-keyboard-response,16,167253,0.0-3.0-17.0-0.0,17975,List2A,white,man,,,,null,,,,
3013,"<img src=""portrait/WW1.jpg""style=""height:400px;""></img>",1,html-button-response,17,170267,0.0-3.0-19.0,17975,List2A,white,man,,TRUE,1,,,,,
null,CORRECT,,html-keyboard-response,18,171771,0.0-3.0-20.0-0.0,17975,List2A,white,man,,,,null,,,,
5189,"<img src=""portrait/BM1.jpg""style=""height:400px;""></img>",4,html-button-response,19,176962,0.0-3.0-22.0,17975,List2A,white,man,,TRUE,4,,,,,
null,CORRECT,,html-keyboard-response,20,178466,0.0-3.0-23.0-0.0,17975,List2A,white,man,,,,null,,,,
2275,<p>You got 7 out of 8 right first time. Press Continue.</p>,0,html-button-response,21,180743,0.0-3.0-25.0,17975,List2A,white,man,,,,,,,,
2749,"As you did not score 100%, the memory game will repeat. Press Continue.",0,html-button-response,22,184495,0.0-3.0-26.0-0.0,17975,List2A,white,man,,,,,,,,
21759,"<img src='img/portrait_matrix_list2.jpg' style='width:900px;height:500px;''></img><p>If you have memorised all the portraits and names and are ready to start, press Continue.</p><p><strong>Please note: Your memory of these faces will be tested 4 times during this experiment.</strong></p>",0,html-button-response,23,207261,0.0-3.1-0.1,17975,List2A,white,man,,,,,,,,
2201,"<img src=""portrait/BM2.jpg""style=""height:400px;""></img>",5,html-button-response,24,210465,0.0-3.1-1.1,17975,List2A,white,man,,TRUE,5,,,,,
null,CORRECT,,html-keyboard-response,25,211969,0.0-3.1-2.1-0.1,17975,List2A,white,man,,,,null,,,,
1588,"<img src=""portrait/WM2.jpg""style=""height:400px;""></img>",7,html-button-response,26,213559,0.0-3.1-4.1,17975,List2A,white,man,,TRUE,7,,,,,
null,CORRECT,,html-keyboard-response,27,215062,0.0-3.1-5.1-0.1,17975,List2A,white,man,,,,null,,,,
10811,"<img src=""portrait/BW1.jpg""style=""height:400px;""></img>",2,html-button-response,28,225874,0.0-3.1-7.1,17975,List2A,white,man,,TRUE,0,,,,,
4349,"<img src=""portrait/BW1.jpg""style=""height:400px;""></img>",0,html-button-response,29,231227,0.0-3.1-9.1-0.1,17975,List2A,white,man,,FALSE,0,,,,,
null,CORRECT,,html-keyboard-response,30,232729,0.0-3.1-9.1-1.1-0.1,17975,List2A,white,man,,,,null,,,,
2135,"<img src=""portrait/WM1.jpg""style=""height:400px;""></img>",6,html-button-response,31,234866,0.0-3.1-10.1,17975,List2A,white,man,,TRUE,6,,,,,
null,CORRECT,,html-keyboard-response,32,236369,0.0-3.1-11.1-0.1,17975,List2A,white,man,,,,null,,,,
3018,"<img src=""portrait/WW2.jpg""style=""height:400px;""></img>",3,html-button-response,33,239389,0.0-3.1-13.1,17975,List2A,white,man,,TRUE,3,,,,,
null,CORRECT,,html-keyboard-response,34,240892,0.0-3.1-14.1-0.1,17975,List2A,white,man,,,,null,,,,
4099,"<img src=""portrait/BW2.jpg""style=""height:400px;""></img>",2,html-button-response,35,244992,0.0-3.1-16.1,17975,List2A,white,man,,TRUE,2,,,,,
null,CORRECT,,html-keyboard-response,36,246496,0.0-3.1-17.1-0.1,17975,List2A,white,man,,,,null,,,,
2299,"<img src=""portrait/WW1.jpg""style=""height:400px;""></img>",1,html-button-response,37,248796,0.0-3.1-19.1,17975,List2A,white,man,,TRUE,1,,,,,
null,CORRECT,,html-keyboard-response,38,250300,0.0-3.1-20.1-0.1,17975,List2A,white,man,,,,null,,,,
2119,"<img src=""portrait/BM1.jpg""style=""height:400px;""></img>",4,html-button-response,39,252420,0.0-3.1-22.1,17975,List2A,white,man,,TRUE,4,,,,,
null,CORRECT,,html-keyboard-response,40,253923,0.0-3.1-23.1-0.1,17975,List2A,white,man,,,,null,,,,
946,<p>You got 7 out of 8 right first time. Press Continue.</p>,0,html-button-response,41,254870,0.0-3.1-25.1,17975,List2A,white,man,,,,,,,,
1458,"As you did not score 100%, the memory game will repeat. Press Continue.",0,html-button-response,42,257330,0.0-3.1-26.1-0.1,17975,List2A,white,man,,,,,,,,
9504,"<img src='img/portrait_matrix_list2.jpg' style='width:900px;height:500px;''></img><p>If you have memorised all the portraits and names and are ready to start, press Continue.</p><p><strong>Please note: Your memory of these faces will be tested 4 times during this experiment.</strong></p>",0,html-button-response,43,267836,0.0-3.2-0.2,17975,List2A,white,man,,,,,,,,
2231,"<img src=""portrait/BM2.jpg""style=""height:400px;""></img>",5,html-button-response,44,271071,0.0-3.2-1.2,17975,List2A,white,man,,TRUE,5,,,,,
null,CORRECT,,html-keyboard-response,45,272574,0.0-3.2-2.2-0.2,17975,List2A,white,man,,,,null,,,,
1501,"<img src=""portrait/WM2.jpg""style=""height:400px;""></img>",7,html-button-response,46,274076,0.0-3.2-4.2,17975,List2A,white,man,,TRUE,7,,,,,
null,CORRECT,,html-keyboard-response,47,275578,0.0-3.2-5.2-0.2,17975,List2A,white,man,,,,null,,,,
1643,"<img src=""portrait/BW1.jpg""style=""height:400px;""></img>",0,html-button-response,48,277222,0.0-3.2-7.2,17975,List2A,white,man,,TRUE,0,,,,,
null,CORRECT,,html-keyboard-response,49,278726,0.0-3.2-8.2-0.2,17975,List2A,white,man,,,,null,,,,
2628,"<img src=""portrait/WM1.jpg""style=""height:400px;""></img>",6,html-button-response,50,281356,0.0-3.2-10.2,17975,List2A,white,man,,TRUE,6,,,,,
null,CORRECT,,html-keyboard-response,51,282860,0.0-3.2-11.2-0.2,17975,List2A,white,man,,,,null,,,,
13344,"<img src=""portrait/WW2.jpg""style=""height:400px;""></img>",2,html-button-response,52,296205,0.0-3.2-13.2,17975,List2A,white,man,,TRUE,3,,,,,
5915,"<img src=""portrait/WW2.jpg""style=""height:400px;""></img>",3,html-button-response,53,303123,0.0-3.2-15.2-0.2,17975,List2A,white,man,,FALSE,3,,,,,
null,CORRECT,,html-keyboard-response,54,304628,0.0-3.2-15.2-1.2-0.2,17975,List2A,white,man,,,,null,,,,
2579,"<img src=""portrait/BW2.jpg""style=""height:400px;""></img>",2,html-button-response,55,307209,0.0-3.2-16.2,17975,List2A,white,man,,TRUE,2,,,,,
null,CORRECT,,html-keyboard-response,56,308712,0.0-3.2-17.2-0.2,17975,List2A,white,man,,,,null,,,,
10909,"<img src=""portrait/WW1.jpg""style=""height:400px;""></img>",1,html-button-response,57,319623,0.0-3.2-19.2,17975,List2A,white,man,,TRUE,1,,,,,
null,CORRECT,,html-keyboard-response,58,321125,0.0-3.2-20.2-0.2,17975,List2A,white,man,,,,null,,,,
1921,"<img src=""portrait/BM1.jpg""style=""height:400px;""></img>",4,html-button-response,59,323047,0.0-3.2-22.2,17975,List2A,white,man,,TRUE,4,,,,,
null,CORRECT,,html-keyboard-response,60,324552,0.0-3.2-23.2-0.2,17975,List2A,white,man,,,,null,,,,
810,<p>You got 7 out of 8 right first time. Press Continue.</p>,0,html-button-response,61,325365,0.0-3.2-25.2,17975,List2A,white,man,,,,,,,,
1304,"As you did not score 100%, the memory game will repeat. Press Continue.",0,html-button-response,62,327671,0.0-3.2-26.2-0.2,17975,List2A,white,man,,,,,,,,
5184,"<img src='img/portrait_matrix_list2.jpg' style='width:900px;height:500px;''></img><p>If you have memorised all the portraits and names and are ready to start, press Continue.</p><p><strong>Please note: Your memory of these faces will be tested 4 times during this experiment.</strong></p>",0,html-button-response,63,333859,0.0-3.3-0.3,17975,List2A,white,man,,,,,,,,
4296,"<img src=""portrait/BM2.jpg""style=""height:400px;""></img>",5,html-button-response,64,339157,0.0-3.3-1.3,17975,List2A,white,man,,TRUE,5,,,,,
null,CORRECT,,html-keyboard-response,65,340662,0.0-3.3-2.3-0.3,17975,List2A,white,man,,,,null,,,,
990,"<img src=""portrait/WM2.jpg""style=""height:400px;""></img>",7,html-button-response,66,341654,0.0-3.3-4.3,17975,List2A,white,man,,TRUE,7,,,,,
null,CORRECT,,html-keyboard-response,67,343157,0.0-3.3-5.3-0.3,17975,List2A,white,man,,,,null,,,,
1842,"<img src=""portrait/BW1.jpg""style=""height:400px;""></img>",0,html-button-response,68,345001,0.0-3.3-7.3,17975,List2A,white,man,,TRUE,0,,,,,
null,CORRECT,,html-keyboard-response,69,346503,0.0-3.3-8.3-0.3,17975,List2A,white,man,,,,null,,,,
1156,"<img src=""portrait/WM1.jpg""style=""height:400px;""></img>",6,html-button-response,70,347660,0.0-3.3-10.3,17975,List2A,white,man,,TRUE,6,,,,,
null,CORRECT,,html-keyboard-response,71,349163,0.0-3.3-11.3-0.3,17975,List2A,white,man,,,,null,,,,
6110,"<img src=""portrait/WW2.jpg""style=""height:400px;""></img>",3,html-button-response,72,355275,0.0-3.3-13.3,17975,List2A,white,man,,TRUE,3,,,,,
null,CORRECT,,html-keyboard-response,73,356779,0.0-3.3-14.3-0.3,17975,List2A,white,man,,,,null,,,,
2013,"<img src=""portrait/BW2.jpg""style=""height:400px;""></img>",2,html-button-response,74,358795,0.0-3.3-16.3,17975,List2A,white,man,,TRUE,2,,,,,
null,CORRECT,,html-keyboard-response,75,360297,0.0-3.3-17.3-0.3,17975,List2A,white,man,,,,null,,,,
1441,"<img src=""portrait/WW1.jpg""style=""height:400px;""></img>",1,html-button-response,76,361741,0.0-3.3-19.3,17975,List2A,white,man,,TRUE,1,,,,,
null,CORRECT,,html-keyboard-response,77,363243,0.0-3.3-20.3-0.3,17975,List2A,white,man,,,,null,,,,
1400,"<img src=""portrait/BM1.jpg""style=""height:400px;""></img>",4,html-button-response,78,364645,0.0-3.3-22.3,17975,List2A,white,man,,TRUE,4,,,,,
null,CORRECT,,html-keyboard-response,79,366148,0.0-3.3-23.3-0.3,17975,List2A,white,man,,,,null,,,,
1772,<p>You got 8 out of 8 right first time. Press Continue.</p>,0,html-button-response,80,367923,0.0-3.3-25.3,17975,List2A,white,man,,,,,,,,
45961,"<p>In this experiment, you will view photographs of the people from the memory game interacting.</p><p>By using the <strong>exact</strong> phrase given <i>after</i> the photograph appears and recalling the correct names of the people in the photographs, form a sentence describing the interaction. You do not need to capitalise names.</p><p>Type your answer in the space provided. Please complete every sentence before moving onto the next trial.</p><p>You will only have a few seconds to memorise each given photograph and phrase before you can respond, so try your best to focus.</p><p>An example is given below. Press 'Continue' when you are ready.</p><img src='img/speaking_example.jpg' style='width:800px;height:460px;''></img>",0,html-button-response,81,414888,0.0-4.0,17975,List2A,white,man,,,,,,,,
2444,"<p>Before the experiment starts, you will watch two example trials. Press 'Continue'.</p>",0,html-button-response,82,418334,0.0-5.0,17975,List2A,white,man,,,,,,,,
null,<img src='img/meet_eg.gif' style='height:400px;''></img>,,html-keyboard-response,83,421344,0.0-6.0,17975,List2A,white,man,,,,null,,,,
null,<p>is meeting</p>,,html-keyboard-response,84,423345,0.0-7.0,17975,List2A,white,man,,,,null,,,,
2660,<p><b>Answer:</b> jane is meeting ruth</p>,0,html-button-response,85,426006,0.0-8.0,17975,List2A,white,man,,,,,,,,
null,<img src='img/look_eg.gif' style='height:400px;''></img>,,html-keyboard-response,86,429009,0.0-9.0,17975,List2A,white,man,,,,null,,,,
null,<p>are looking at each other</p>,,html-keyboard-response,87,431011,0.0-10.0,17975,List2A,white,man,,,,null,,,,
2359,<p><b>Answer:</b> fred and mike are looking at each other</p>,0,html-button-response,88,433370,0.0-11.0,17975,List2A,white,man,,,,,,,,
7024,"<p>Ready to start the experiment?</p><br><p><strong>Remember to describe the picture using a full sentence,</strong></p><p><strong>that combines the names of the people with the <i>exact</i> phrase given.</strong></p><p><strong>To receive full payment you must do this correctly.</strong></p><p><strong> You do not need to capitalise names or use punctuation.</strong></p><br><p>Press 'Continue' to begin.</p>",0,html-button-response,89,441396,0.0-12.0,17975,List2A,white,man,,,,,,,,
null,"<div style=""font-size:60px;"">+</div>",,html-keyboard-response,90,442898,0.0-13.0-0.0,17975,List2A,white,man,,,,null,,,,
null,"<img src=""stim_listA/flirt1.gif""style=""height:400px;""></stim_listA>",,html-keyboard-response,91,444900,0.0-13.0-1.0,17975,List2A,white,man,,,,null,,,,
null,is flirting with,,html-keyboard-response,92,446902,0.0-13.0-2.0,17975,List2A,white,man,,,,null,,,,
14575,,,survey-text,93,461478,0.0-13.0-3.0,17975,List2A,white,man,,,,,"{""Q0"":""luke is flirting with jane""}","<img src=""stim_listA/flirt1.gif""style=""height:400px;""></stim_listA>",is flirting with,
null,"<div style=""font-size:60px;"">+</div>",,html-keyboard-response,94,461981,0.0-13.0-0.1,17975,List2A,white,man,,,,null,,,,
null,"<img src=""stim_listA/fight7.gif""style=""height:400px;""></stim_listA>",,html-keyboard-response,95,463983,0.0-13.0-1.1,17975,List2A,white,man,,,,null,,,,
null,is fighting,,html-keyboard-response,96,465986,0.0-13.0-2.1,17975,List2A,white,man,,,,null,,,,
30480,,,survey-text,97,496466,0.0-13.0-3.1,17975,List2A,white,man,,,,,"{""Q0"":""jane is fighting beth""}","<img src=""stim_listA/fight7.gif""style=""height:400px;""></stim_listA>",is fighting,
null,"<div style=""font-size:60px;"">+</div>",,html-keyboard-response,98,496967,0.0-13.0-0.2,17975,List2A,white,man,,,,null,,,,
null,"<img src=""stim_listA/dance2.gif""style=""height:400px;""></stim_listA>",,html-keyboard-response,99,498971,0.0-13.0-1.2,17975,List2A,white,man,,,,null,,,,
null,are dancing with each other,,html-keyboard-response,100,500974,0.0-13.0-2.2,17975,List2A,white,man,,,,null,,,,
17569,,,survey-text,101,518545,0.0-13.0-3.2,17975,List2A,white,man,,,,,"{""Q0"":""ruth is dancing with dave""}","<img src=""stim_listA/dance2.gif""style=""height:400px;""></stim_listA>",are dancing with each other,
null,"<div style=""font-size:60px;"">+</div>",,html-keyboard-response,102,519047,0.0-13.0-0.3,17975,List2A,white,man,,,,null,,,,
null,"<img src=""stim_listA/kiss2.gif""style=""height:400px;""></stim_listA>",,html-keyboard-response,103,521049,0.0-13.0-1.3,17975,List2A,white,man,,,,null,,,,
null,are kissing each other,,html-keyboard-response,104,523050,0.0-13.0-2.3,17975,List2A,white,man,,,,null,,,,
10975,,,survey-text,105,534026,0.0-13.0-3.3,17975,List2A,white,man,,,,,"{""Q0"":""ruth are kising dave""}","<img src=""stim_listA/kiss2.gif""style=""height:400px;""></stim_listA>",are kissing each other,
null,"<div style=""font-size:60px;"">+</div>",,html-keyboard-response,106,534528,0.0-13.0-0.4,17975,List2A,white,man,,,,null,,,,
null,"<img src=""stim_listA/talk7.gif""style=""height:400px;""></stim_listA>",,html-keyboard-response,107,536531,0.0-13.0-1.4,17975,List2A,white,man,,,,null,,,,
null,is talking to,,html-keyboard-response,108,538532,0.0-13.0-2.4,17975,List2A,white,man,,,,null,,,,
14887,,,survey-text,109,553420,0.0-13.0-3.4,17975,List2A,white,man,,,,,"{""Q0"":""jane is taking to beth""}","<img src=""stim_listA/talk7.gif""style=""height:400px;""></stim_listA>",is talking to,
null,"<div style=""font-size:60px;"">+</div>",,html-keyboard-response,110,553923,0.0-13.0-0.5,17975,List2A,white,man,,,,null,,,,
null,"<img src=""stim_listA/argue1.gif""style=""height:400px;""></stim_listA>",,html-keyboard-response,111,555926,0.0-13.0-1.5,17975,List2A,white,man,,,,null,,,,
null,is arguing with,,html-keyboard-response,112,557928,0.0-13.0-2.5,17975,List2A,white,man,,,,null,,,,
13599,,,survey-text,113,571528,0.0-13.0-3.5,17975,List2A,white,man,,,,,"{""Q0"":""dave is arguing with jane""}","<img src=""stim_listA/argue1.gif""style=""height:400px;""></stim_listA>",is arguing with,
null,"<div style=""font-size:60px;"">+</div>",,html-keyboard-response,114,572030,0.0-13.0-0.6,17975,List2A,white,man,,,,null,,,,
null,"<img src=""stim_listA/marry5.gif""style=""height:400px;""></stim_listA>",,html-keyboard-response,115,574033,0.0-13.0-1.6,17975,List2A,white,man,,,,null,,,,
null,is marrying,,html-keyboard-response,116,576036,0.0-13.0-2.6,17975,List2A,white,man,,,,null,,,,
4751,,,survey-text,117,580788,0.0-13.0-3.6,17975,List2A,white,man,,,,,"{""Q0"":""dave is marrying fred""}","<img src=""stim_listA/marry5.gif""style=""height:400px;""></stim_listA>",is marrying,
null,"<div style=""font-size:60px;"">+</div>",,html-keyboard-response,118,581290,0.0-13.0-0.7,17975,List2A,white,man,,,,null,,,,
null,"<img src=""stim_listA/shout1.gif""style=""height:400px;""></stim_listA>",,html-keyboard-response,119,583294,0.0-13.0-1.7,17975,List2A,white,man,,,,null,,,,
null,is shouting at,,html-keyboard-response,120,585296,0.0-13.0-2.7,17975,List2A,white,man,,,,null,,,,
6617,,,survey-text,121,591915,0.0-13.0-3.7,17975,List2A,white,man,,,,,"{""Q0"":""luke is arguing with jane""}","<img src=""stim_listA/shout1.gif""style=""height:400px;""></stim_listA>",is shouting at,
null,"<div style=""font-size:60px;"">+</div>",,html-keyboard-response,122,592417,0.0-13.0-0.8,17975,List2A,white,man,,,,null,,,,
null,"<img src=""stim_listA/dance3.gif""style=""height:400px;""></stim_listA>",,html-keyboard-response,123,594420,0.0-13.0-1.8,17975,List2A,white,man,,,,null,,,,
null,is dancing with,,html-keyboard-response,124,596422,0.0-13.0-2.8,17975,List2A,white,man,,,,null,,,,
9538,,,survey-text,125,605961,0.0-13.0-3.8,17975,List2A,white,man,,,,,"{""Q0"":""fred is dancing with beth""}","<img src=""stim_listA/dance3.gif""style=""height:400px;""></stim_listA>",is dancing with,
null,"<div style=""font-size:60px;"">+</div>",,html-keyboard-response,126,606463,0.0-13.0-0.9,17975,List2A,white,man,,,,null,,,,
null,"<img src=""stim_listA/shout5.gif""style=""height:400px;""></stim_listA>",,html-keyboard-response,127,608465,0.0-13.0-1.9,17975,List2A,white,man,,,,null,,,,
null,is shouting at,,html-keyboard-response,128,610468,0.0-13.0-2.9,17975,List2A,white,man,,,,null,,,,
158138,,,survey-text,129,768607,0.0-13.0-3.9,17975,List2A,white,man,,,,,"{""Q0"":""missed the peoples names""}","<img src=""stim_listA/shout5.gif""style=""height:400px;""></stim_listA>",is shouting at,
null,"<div style=""font-size:60px;"">+</div>",,html-keyboard-response,130,769114,0.0-13.0-0.10,17975,List2A,white,man,,,,null,,,,
null,"<img src=""stim_listA/touch7.gif""style=""height:400px;""></stim_listA>",,html-keyboard-response,131,771118,0.0-13.0-1.10,17975,List2A,white,man,,,,null,,,,
null,is touching,,html-keyboard-response,132,773120,0.0-13.0-2.10,17975,List2A,white,man,,,,null,,,,
6429,,,survey-text,133,779550,0.0-13.0-3.10,17975,List2A,white,man,,,,,"{""Q0"":""beth is touching ruth""}","<img src=""stim_listA/touch7.gif""style=""height:400px;""></stim_listA>",is touching,
null,"<div style=""font-size:60px;"">+</div>",,html-keyboard-response,134,780052,0.0-13.0-0.11,17975,List2A,white,man,,,,null,,,,
null,"<img src=""stim_listA/talk5.gif""style=""height:400px;""></stim_listA>",,html-keyboard-response,135,782055,0.0-13.0-1.11,17975,List2A,white,man,,,,null,,,,
null,is talking to,,html-keyboard-response,136,784056,0.0-13.0-2.11,17975,List2A,white,man,,,,null,,,,
5418,,,survey-text,137,789476,0.0-13.0-3.11,17975,List2A,white,man,,,,,"{""Q0"":""mike is talking to luke""}","<img src=""stim_listA/talk5.gif""style=""height:400px;""></stim_listA>",is talking to,
null,"<div style=""font-size:60px;"">+</div>",,html-keyboard-response,138,789978,0.0-13.0-0.12,17975,List2A,white,man,,,,null,,,,
null,"<img src=""stim_listA/touch6.gif""style=""height:400px;""></stim_listA>",,html-keyboard-response,139,791981,0.0-13.0-1.12,17975,List2A,white,man,,,,null,,,,
null,are touching each other,,html-keyboard-response,140,793983,0.0-13.0-2.12,17975,List2A,white,man,,,,null,,,,
9938,,,survey-text,141,803922,0.0-13.0-3.12,17975,List2A,white,man,,,,,"{""Q0"":""luke and fred are touching each other""}","<img src=""stim_listA/touch6.gif""style=""height:400px;""></stim_listA>",are touching each other,
null,"<div style=""font-size:60px;"">+</div>",,html-keyboard-response,142,804424,0.0-13.0-0.13,17975,List2A,white,man,,,,null,,,,
null,"<img src=""stim_listA/shout6.gif""style=""height:400px;""></stim_listA>",,html-keyboard-response,143,806426,0.0-13.0-1.13,17975,List2A,white,man,,,,null,,,,
null,are shouting at each other,,html-keyboard-response,144,808428,0.0-13.0-2.13,17975,List2A,white,man,,,,null,,,,
8480,,,survey-text,145,816912,0.0-13.0-3.13,17975,List2A,white,man,,,,,"{""Q0"":""mike and dave are shouting at each other""}","<img src=""stim_listA/shout6.gif""style=""height:400px;""></stim_listA>",are shouting at each other,
null,"<div style=""font-size:60px;"">+</div>",,html-keyboard-response,146,817414,0.0-13.0-0.14,17975,List2A,white,man,,,,null,,,,
null,"<img src=""stim_listA/touch5.gif""style=""height:400px;""></stim_listA>",,html-keyboard-response,147,819418,0.0-13.0-1.14,17975,List2A,white,man,,,,null,,,,
null,is touching,,html-keyboard-response,148,821421,0.0-13.0-2.14,17975,List2A,white,man,,,,null,,,,
4726,,,survey-text,149,826148,0.0-13.0-3.14,17975,List2A,white,man,,,,,"{""Q0"":""mike is touching dave""}","<img src=""stim_listA/touch5.gif""style=""height:400px;""></stim_listA>",is touching,
null,"<div style=""font-size:60px;"">+</div>",,html-keyboard-response,150,826651,0.0-13.0-0.15,17975,List2A,white,man,,,,null,,,,
null,"<img src=""stim_listA/fight5.gif""style=""height:400px;""></stim_listA>",,html-keyboard-response,151,828653,0.0-13.0-1.15,17975,List2A,white,man,,,,null,,,,
null,is fighting,,html-keyboard-response,152,830656,0.0-13.0-2.15,17975,List2A,white,man,,,,null,,,,
7274,,,survey-text,153,837932,0.0-13.0-3.15,17975,List2A,white,man,,,,,"{""Q0"":""mike is fighting dave""}","<img src=""stim_listA/fight5.gif""style=""height:400px;""></stim_listA>",is fighting,
null,"<div style=""font-size:60px;"">+</div>",,html-keyboard-response,154,838434,0.0-13.0-0.16,17975,List2A,white,man,,,,null,,,,
null,"<img src=""stim_listA/kiss6.gif""style=""height:400px;""></stim_listA>",,html-keyboard-response,155,840436,0.0-13.0-1.16,17975,List2A,white,man,,,,null,,,,
null,are kissing each other,,html-keyboard-response,156,842438,0.0-13.0-2.16,17975,List2A,white,man,,,,null,,,,
8476,,,survey-text,157,850915,0.0-13.0-3.16,17975,List2A,white,man,,,,,"{""Q0"":""mike are dave are kissing each other""}","<img src=""stim_listA/kiss6.gif""style=""height:400px;""></stim_listA>",are kissing each other,
null,"<div style=""font-size:60px;"">+</div>",,html-keyboard-response,158,851417,0.0-13.0-0.17,17975,List2A,white,man,,,,null,,,,
null,"<img src=""stim_listA/talk1.gif""style=""height:400px;""></stim_listA>",,html-keyboard-response,159,853419,0.0-13.0-1.17,17975,List2A,white,man,,,,null,,,,
null,is talking to,,html-keyboard-response,160,855421,0.0-13.0-2.17,17975,List2A,white,man,,,,null,,,,
6083,,,survey-text,161,861505,0.0-13.0-3.17,17975,List2A,white,man,,,,,"{""Q0"":""luke is talking to jane""}","<img src=""stim_listA/talk1.gif""style=""height:400px;""></stim_listA>",is talking to,
null,"<div style=""font-size:60px;"">+</div>",,html-keyboard-response,162,862007,0.0-13.0-0.18,17975,List2A,white,man,,,,null,,,,
null,"<img src=""stim_listA/fight2.gif""style=""height:400px;""></stim_listA>",,html-keyboard-response,163,864010,0.0-13.0-1.18,17975,List2A,white,man,,,,null,,,,
null,are fighting each other,,html-keyboard-response,164,866012,0.0-13.0-2.18,17975,List2A,white,man,,,,null,,,,
10904,,,survey-text,165,876917,0.0-13.0-3.18,17975,List2A,white,man,,,,,"{""Q0"":""luke and jane are fighting each other""}","<img src=""stim_listA/fight2.gif""style=""height:400px;""></stim_listA>",are fighting each other,
null,"<div style=""font-size:60px;"">+</div>",,html-keyboard-response,166,877419,0.0-13.0-0.19,17975,List2A,white,man,,,,null,,,,
null,"<img src=""stim_listA/marry1.gif""style=""height:400px;""></stim_listA>",,html-keyboard-response,167,879423,0.0-13.0-1.19,17975,List2A,white,man,,,,null,,,,
null,is marrying,,html-keyboard-response,168,881426,0.0-13.0-2.19,17975,List2A,white,man,,,,null,,,,
8626,,,survey-text,169,890054,0.0-13.0-3.19,17975,List2A,white,man,,,,,"{""Q0"":""dave is marrying jane""}","<img src=""stim_listA/marry1.gif""style=""height:400px;""></stim_listA>",is marrying,
20724,"<img src='img/portrait_matrix_list2.jpg' style='width:900px;height:500px;''></img><p>If you have memorised all the portraits and names and are ready to start, press Continue.</p><p><strong>Please note: Your memory of these faces will be tested 4 times during this experiment.</strong></p>",0,html-button-response,170,910779,0.0-14.0-0.0,17975,List2A,white,man,,,,,,,,
1516,"<img src=""portrait/BM1.jpg""style=""height:400px;""></img>",4,html-button-response,171,913300,0.0-14.0-1.0,17975,List2A,white,man,,TRUE,4,,,,,
null,CORRECT,,html-keyboard-response,172,914803,0.0-14.0-2.0-0.0,17975,List2A,white,man,,,,null,,,,
3996,"<img src=""portrait/BW1.jpg""style=""height:400px;""></img>",0,html-button-response,173,918801,0.0-14.0-4.0,17975,List2A,white,man,,TRUE,0,,,,,
null,CORRECT,,html-keyboard-response,174,920305,0.0-14.0-5.0-0.0,17975,List2A,white,man,,,,null,,,,
1418,"<img src=""portrait/WM2.jpg""style=""height:400px;""></img>",7,html-button-response,175,921725,0.0-14.0-7.0,17975,List2A,white,man,,TRUE,7,,,,,
null,CORRECT,,html-keyboard-response,176,923229,0.0-14.0-8.0-0.0,17975,List2A,white,man,,,,null,,,,
2526,"<img src=""portrait/BW2.jpg""style=""height:400px;""></img>",2,html-button-response,177,925757,0.0-14.0-10.0,17975,List2A,white,man,,TRUE,2,,,,,
null,CORRECT,,html-keyboard-response,178,927260,0.0-14.0-11.0-0.0,17975,List2A,white,man,,,,null,,,,
4122,"<img src=""portrait/WW2.jpg""style=""height:400px;""></img>",3,html-button-response,179,931383,0.0-14.0-13.0,17975,List2A,white,man,,TRUE,3,,,,,
null,CORRECT,,html-keyboard-response,180,932886,0.0-14.0-14.0-0.0,17975,List2A,white,man,,,,null,,,,
2322,"<img src=""portrait/WW1.jpg""style=""height:400px;""></img>",1,html-button-response,181,935211,0.0-14.0-16.0,17975,List2A,white,man,,TRUE,1,,,,,
null,CORRECT,,html-keyboard-response,182,936714,0.0-14.0-17.0-0.0,17975,List2A,white,man,,,,null,,,,
2303,"<img src=""portrait/WM1.jpg""style=""height:400px;""></img>",6,html-button-response,183,939019,0.0-14.0-19.0,17975,List2A,white,man,,TRUE,6,,,,,
null,CORRECT,,html-keyboard-response,184,940523,0.0-14.0-20.0-0.0,17975,List2A,white,man,,,,null,,,,
2126,"<img src=""portrait/BM2.jpg""style=""height:400px;""></img>",5,html-button-response,185,942651,0.0-14.0-22.0,17975,List2A,white,man,,TRUE,5,,,,,
null,CORRECT,,html-keyboard-response,186,944155,0.0-14.0-23.0-0.0,17975,List2A,white,man,,,,null,,,,
1693,<p>You got 8 out of 8 right first time. Press Continue.</p>,0,html-button-response,187,945849,0.0-14.0-25.0,17975,List2A,white,man,,,,,,,,
null,"<div style=""font-size:60px;"">+</div>",,html-keyboard-response,188,947353,0.0-15.0-0.0,17975,List2A,white,man,,,,null,,,,
null,"<img src=""stim_listA/play8.gif""style=""height:400px;""></stim_listA>",,html-keyboard-response,189,949356,0.0-15.0-1.0,17975,List2A,white,man,,,,null,,,,
null,are playing with each other,,html-keyboard-response,190,951357,0.0-15.0-2.0,17975,List2A,white,man,,,,null,,,,
17434,,,survey-text,191,968792,0.0-15.0-3.0,17975,List2A,white,man,,,,,"{""Q0"":""beth and ruth are playing with each other""}","<img src=""stim_listA/play8.gif""style=""height:400px;""></stim_listA>",are playing with each other,
null,"<div style=""font-size:60px;"">+</div>",,html-keyboard-response,192,969295,0.0-15.0-0.1,17975,List2A,white,man,,,,null,,,,
null,"<img src=""stim_listA/marry8.gif""style=""height:400px;""></stim_listA>",,html-keyboard-response,193,971298,0.0-15.0-1.1,17975,List2A,white,man,,,,null,,,,
null,are marrying each other,,html-keyboard-response,194,973300,0.0-15.0-2.1,17975,List2A,white,man,,,,null,,,,
11136,,,survey-text,195,984436,0.0-15.0-3.1,17975,List2A,white,man,,,,,"{""Q0"":""beth and ruth are marrying each other""}","<img src=""stim_listA/marry8.gif""style=""height:400px;""></stim_listA>",are marrying each other,
null,"<div style=""font-size:60px;"">+</div>",,html-keyboard-response,196,984938,0.0-15.0-0.2,17975,List2A,white,man,,,,null,,,,
null,"<img src=""stim_listA/marry6.gif""style=""height:400px;""></stim_listA>",,html-keyboard-response,197,986940,0.0-15.0-1.2,17975,List2A,white,man,,,,null,,,,
null,are marrying each other,,html-keyboard-response,198,988943,0.0-15.0-2.2,17975,List2A,white,man,,,,null,,,,
10227,,,survey-text,199,999170,0.0-15.0-3.2,17975,List2A,white,man,,,,,"{""Q0"":""mike and luke are marrying each other""}","<img src=""stim_listA/marry6.gif""style=""height:400px;""></stim_listA>",are marrying each other,
null,"<div style=""font-size:60px;"">+</div>",,html-keyboard-response,200,999673,0.0-15.0-0.3,17975,List2A,white,man,,,,null,,,,
null,"<img src=""stim_listA/play2.gif""style=""height:400px;""></stim_listA>",,html-keyboard-response,201,1001677,0.0-15.0-1.3,17975,List2A,white,man,,,,null,,,,
null,are playing with each other,,html-keyboard-response,202,1003678,0.0-15.0-2.3,17975,List2A,white,man,,,,null,,,,
9566,,,survey-text,203,1013246,0.0-15.0-3.3,17975,List2A,white,man,,,,,"{""Q0"":""ruth and luke are playing with each other""}","<img src=""stim_listA/play2.gif""style=""height:400px;""></stim_listA>",are playing with each other,
null,"<div style=""font-size:60px;"">+</div>",,html-keyboard-response,204,1013748,0.0-15.0-0.4,17975,List2A,white,man,,,,null,,,,
null,"<img src=""stim_listA/argue3.gif""style=""height:400px;""></stim_listA>",,html-keyboard-response,205,1015752,0.0-15.0-1.4,17975,List2A,white,man,,,,null,,,,
null,is arguing with,,html-keyboard-response,206,1017754,0.0-15.0-2.4,17975,List2A,white,man,,,,null,,,,
17962,,,survey-text,207,1035718,0.0-15.0-3.4,17975,List2A,white,man,,,,,"{""Q0"":""mike and beth are arguing with each other""}","<img src=""stim_listA/argue3.gif""style=""height:400px;""></stim_listA>",is arguing with,
null,"<div style=""font-size:60px;"">+</div>",,html-keyboard-response,208,1036220,0.0-15.0-0.5,17975,List2A,white,man,,,,null,,,,
null,"<img src=""stim_listA/marry4.gif""style=""height:400px;""></stim_listA>",,html-keyboard-response,209,1038222,0.0-15.0-1.5,17975,List2A,white,man,,,,null,,,,
null,are marrying each other,,html-keyboard-response,210,1040223,0.0-15.0-2.5,17975,List2A,white,man,,,,null,,,,
27655,,,survey-text,211,1067880,0.0-15.0-3.5,17975,List2A,white,man,,,,,"{""Q0"":""fred and beth are marrying each other""}","<img src=""stim_listA/marry4.gif""style=""height:400px;""></stim_listA>",are marrying each other,
null,"<div style=""font-size:60px;"">+</div>",,html-keyboard-response,212,1068382,0.0-15.0-0.6,17975,List2A,white,man,,,,null,,,,
null,"<img src=""stim_listA/dance4.gif""style=""height:400px;""></stim_listA>",,html-keyboard-response,213,1070385,0.0-15.0-1.6,17975,List2A,white,man,,,,null,,,,
null,are dancing with each other,,html-keyboard-response,214,1072388,0.0-15.0-2.6,17975,List2A,white,man,,,,null,,,,
10112,,,survey-text,215,1082501,0.0-15.0-3.6,17975,List2A,white,man,,,,,"{""Q0"":""mike and beth are dancing together""}","<img src=""stim_listA/dance4.gif""style=""height:400px;""></stim_listA>",are dancing with each other,
null,"<div style=""font-size:60px;"">+</div>",,html-keyboard-response,216,1083002,0.0-15.0-0.7,17975,List2A,white,man,,,,null,,,,
null,"<img src=""stim_listA/play5.gif""style=""height:400px;""></stim_listA>",,html-keyboard-response,217,1085005,0.0-15.0-1.7,17975,List2A,white,man,,,,null,,,,
null,is playing with,,html-keyboard-response,218,1087006,0.0-15.0-2.7,17975,List2A,white,man,,,,null,,,,
5726,,,survey-text,219,1092732,0.0-15.0-3.7,17975,List2A,white,man,,,,,"{""Q0"":""dave is playing with mike""}","<img src=""stim_listA/play5.gif""style=""height:400px;""></stim_listA>",is playing with,
null,"<div style=""font-size:60px;"">+</div>",,html-keyboard-response,220,1093235,0.0-15.0-0.8,17975,List2A,white,man,,,,null,,,,
null,"<img src=""stim_listA/touch8.gif""style=""height:400px;""></stim_listA>",,html-keyboard-response,221,1095238,0.0-15.0-1.8,17975,List2A,white,man,,,,null,,,,
null,are touching each other,,html-keyboard-response,222,1097240,0.0-15.0-2.8,17975,List2A,white,man,,,,null,,,,
11581,,,survey-text,223,1108823,0.0-15.0-3.8,17975,List2A,white,man,,,,,"{""Q0"":""beth and ruth are touching each other""}","<img src=""stim_listA/touch8.gif""style=""height:400px;""></stim_listA>",are touching each other,
null,"<div style=""font-size:60px;"">+</div>",,html-keyboard-response,224,1109325,0.0-15.0-0.9,17975,List2A,white,man,,,,null,,,,
null,"<img src=""stim_listA/talk8.gif""style=""height:400px;""></stim_listA>",,html-keyboard-response,225,1111327,0.0-15.0-1.9,17975,List2A,white,man,,,,null,,,,
null,are talking to each other,,html-keyboard-response,226,1113328,0.0-15.0-2.9,17975,List2A,white,man,,,,null,,,,
8991,,,survey-text,227,1122321,0.0-15.0-3.9,17975,List2A,white,man,,,,,"{""Q0"":""beth and jane are talking to each other""}","<img src=""stim_listA/talk8.gif""style=""height:400px;""></stim_listA>",are talking to each other,
null,"<div style=""font-size:60px;"">+</div>",,html-keyboard-response,228,1122822,0.0-15.0-0.10,17975,List2A,white,man,,,,null,,,,
null,"<img src=""stim_listA/touch1.gif""style=""height:400px;""></stim_listA>",,html-keyboard-response,229,1124824,0.0-15.0-1.10,17975,List2A,white,man,,,,null,,,,
null,is touching,,html-keyboard-response,230,1126827,0.0-15.0-2.10,17975,List2A,white,man,,,,null,,,,
6402,,,survey-text,231,1133231,0.0-15.0-3.10,17975,List2A,white,man,,,,,"{""Q0"":""jane is touching dave""}","<img src=""stim_listA/touch1.gif""style=""height:400px;""></stim_listA>",is touching,
null,"<div style=""font-size:60px;"">+</div>",,html-keyboard-response,232,1133732,0.0-15.0-0.11,17975,List2A,white,man,,,,null,,,,
null,"<img src=""stim_listA/talk4.gif""style=""height:400px;""></stim_listA>",,html-keyboard-response,233,1135735,0.0-15.0-1.11,17975,List2A,white,man,,,,null,,,,
null,are talking to each other,,html-keyboard-response,234,1137737,0.0-15.0-2.11,17975,List2A,white,man,,,,null,,,,
8148,,,survey-text,235,1145886,0.0-15.0-3.11,17975,List2A,white,man,,,,,"{""Q0"":""mike and beth are talking to each other""}","<img src=""stim_listA/talk4.gif""style=""height:400px;""></stim_listA>",are talking to each other,
null,"<div style=""font-size:60px;"">+</div>",,html-keyboard-response,236,1146388,0.0-15.0-0.12,17975,List2A,white,man,,,,null,,,,
null,"<img src=""stim_listA/fight4.gif""style=""height:400px;""></stim_listA>",,html-keyboard-response,237,1148391,0.0-15.0-1.12,17975,List2A,white,man,,,,null,,,,
null,are fighting each other,,html-keyboard-response,238,1150392,0.0-15.0-2.12,17975,List2A,white,man,,,,null,,,,
8733,,,survey-text,239,1159126,0.0-15.0-3.12,17975,List2A,white,man,,,,,"{""Q0"":""fred and beth are fighting each other""}","<img src=""stim_listA/fight4.gif""style=""height:400px;""></stim_listA>",are fighting each other,
null,"<div style=""font-size:60px;"">+</div>",,html-keyboard-response,240,1159628,0.0-15.0-0.13,17975,List2A,white,man,,,,null,,,,
null,"<img src=""stim_listA/shout2.gif""style=""height:400px;""></stim_listA>",,html-keyboard-response,241,1161631,0.0-15.0-1.13,17975,List2A,white,man,,,,null,,,,
null,are shouting at each other,,html-keyboard-response,242,1163632,0.0-15.0-2.13,17975,List2A,white,man,,,,null,,,,
11157,,,survey-text,243,1174790,0.0-15.0-3.13,17975,List2A,white,man,,,,,"{""Q0"":""jane and dave are fighting each other""}","<img src=""stim_listA/shout2.gif""style=""height:400px;""></stim_listA>",are shouting at each other,
null,"<div style=""font-size:60px;"">+</div>",,html-keyboard-response,244,1175292,0.0-15.0-0.14,17975,List2A,white,man,,,,null,,,,
null,"<img src=""stim_listA/fight6.gif""style=""height:400px;""></stim_listA>",,html-keyboard-response,245,1177293,0.0-15.0-1.14,17975,List2A,white,man,,,,null,,,,
null,are fighting each other,,html-keyboard-response,246,1179295,0.0-15.0-2.14,17975,List2A,white,man,,,,null,,,,
7462,,,survey-text,247,1186758,0.0-15.0-3.14,17975,List2A,white,man,,,,,"{""Q0"":""luke and fred are fighting each other""}","<img src=""stim_listA/fight6.gif""style=""height:400px;""></stim_listA>",are fighting each other,
null,"<div style=""font-size:60px;"">+</div>",,html-keyboard-response,248,1187261,0.0-15.0-0.15,17975,List2A,white,man,,,,null,,,,
null,"<img src=""stim_listA/kiss1.gif""style=""height:400px;""></stim_listA>",,html-keyboard-response,249,1189264,0.0-15.0-1.15,17975,List2A,white,man,,,,null,,,,
null,is kissing,,html-keyboard-response,250,1191268,0.0-15.0-2.15,17975,List2A,white,man,,,,null,,,,
14530,,,survey-text,251,1205799,0.0-15.0-3.15,17975,List2A,white,man,,,,,"{""Q0"":""luke is kissing ruth""}","<img src=""stim_listA/kiss1.gif""style=""height:400px;""></stim_listA>",is kissing,
null,"<div style=""font-size:60px;"">+</div>",,html-keyboard-response,252,1206302,0.0-15.0-0.16,17975,List2A,white,man,,,,null,,,,
null,"<img src=""stim_listA/marry7.gif""style=""height:400px;""></stim_listA>",,html-keyboard-response,253,1208304,0.0-15.0-1.16,17975,List2A,white,man,,,,null,,,,
null,is marrying,,html-keyboard-response,254,1210305,0.0-15.0-2.16,17975,List2A,white,man,,,,null,,,,
7652,,,survey-text,255,1217959,0.0-15.0-3.16,17975,List2A,white,man,,,,,"{""Q0"":""jane is marrying beth""}","<img src=""stim_listA/marry7.gif""style=""height:400px;""></stim_listA>",is marrying,
null,"<div style=""font-size:60px;"">+</div>",,html-keyboard-response,256,1218471,0.0-15.0-0.17,17975,List2A,white,man,,,,null,,,,
null,"<img src=""stim_listA/dance6.gif""style=""height:400px;""></stim_listA>",,html-keyboard-response,257,1220474,0.0-15.0-1.17,17975,List2A,white,man,,,,null,,,,
null,are dancing with each other,,html-keyboard-response,258,1222477,0.0-15.0-2.17,17975,List2A,white,man,,,,null,,,,
11281,,,survey-text,259,1233759,0.0-15.0-3.17,17975,List2A,white,man,,,,,"{""Q0"":""fred and dave are dancing with each other""}","<img src=""stim_listA/dance6.gif""style=""height:400px;""></stim_listA>",are dancing with each other,
null,"<div style=""font-size:60px;"">+</div>",,html-keyboard-response,260,1234261,0.0-15.0-0.18,17975,List2A,white,man,,,,null,,,,
null,"<img src=""stim_listA/play6.gif""style=""height:400px;""></stim_listA>",,html-keyboard-response,261,1236263,0.0-15.0-1.18,17975,List2A,white,man,,,,null,,,,
null,are playing with each other,,html-keyboard-response,262,1238266,0.0-15.0-2.18,17975,List2A,white,man,,,,null,,,,
7147,,,survey-text,263,1245415,0.0-15.0-3.18,17975,List2A,white,man,,,,,"{""Q0"":""fred and luke are playing with each other""}","<img src=""stim_listA/play6.gif""style=""height:400px;""></stim_listA>",are playing with each other,
null,"<div style=""font-size:60px;"">+</div>",,html-keyboard-response,264,1245916,0.0-15.0-0.19,17975,List2A,white,man,,,,null,,,,
null,"<img src=""stim_listA/marry3.gif""style=""height:400px;""></stim_listA>",,html-keyboard-response,265,1247918,0.0-15.0-1.19,17975,List2A,white,man,,,,null,,,,
null,is marrying,,html-keyboard-response,266,1249919,0.0-15.0-2.19,17975,List2A,white,man,,,,null,,,,
4862,,,survey-text,267,1254783,0.0-15.0-3.19,17975,List2A,white,man,,,,,"{""Q0"":""mike is marrying beth""}","<img src=""stim_listA/marry3.gif""style=""height:400px;""></stim_listA>",is marrying,
9825,"<img src='img/portrait_matrix_list2.jpg' style='width:900px;height:500px;''></img><p>If you have memorised all the portraits and names and are ready to start, press Continue.</p><p><strong>Please note: Your memory of these faces will be tested 4 times during this experiment.</strong></p>",0,html-button-response,268,1264608,0.0-16.0-0.0,17975,List2A,white,man,,,,,,,,
1393,"<img src=""portrait/BM1.jpg""style=""height:400px;""></img>",4,html-button-response,269,1267005,0.0-16.0-1.0,17975,List2A,white,man,,TRUE,4,,,,,
null,CORRECT,,html-keyboard-response,270,1268507,0.0-16.0-2.0-0.0,17975,List2A,white,man,,,,null,,,,
1705,"<img src=""portrait/WW2.jpg""style=""height:400px;""></img>",3,html-button-response,271,1270213,0.0-16.0-4.0,17975,List2A,white,man,,TRUE,3,,,,,
null,CORRECT,,html-keyboard-response,272,1271715,0.0-16.0-5.0-0.0,17975,List2A,white,man,,,,null,,,,
2029,"<img src=""portrait/BW2.jpg""style=""height:400px;""></img>",2,html-button-response,273,1273747,0.0-16.0-7.0,17975,List2A,white,man,,TRUE,2,,,,,
null,CORRECT,,html-keyboard-response,274,1275250,0.0-16.0-8.0-0.0,17975,List2A,white,man,,,,null,,,,
1621,"<img src=""portrait/WM1.jpg""style=""height:400px;""></img>",6,html-button-response,275,1276875,0.0-16.0-10.0,17975,List2A,white,man,,TRUE,6,,,,,
null,CORRECT,,html-keyboard-response,276,1278377,0.0-16.0-11.0-0.0,17975,List2A,white,man,,,,null,,,,
1880,"<img src=""portrait/BM2.jpg""style=""height:400px;""></img>",5,html-button-response,277,1280259,0.0-16.0-13.0,17975,List2A,white,man,,TRUE,5,,,,,
null,CORRECT,,html-keyboard-response,278,1281762,0.0-16.0-14.0-0.0,17975,List2A,white,man,,,,null,,,,
4309,"<img src=""portrait/WW1.jpg""style=""height:400px;""></img>",1,html-button-response,279,1286073,0.0-16.0-16.0,17975,List2A,white,man,,TRUE,1,,,,,
null,CORRECT,,html-keyboard-response,280,1287576,0.0-16.0-17.0-0.0,17975,List2A,white,man,,,,null,,,,
2952,"<img src=""portrait/BW1.jpg""style=""height:400px;""></img>",0,html-button-response,281,1290531,0.0-16.0-19.0,17975,List2A,white,man,,TRUE,0,,,,,
null,CORRECT,,html-keyboard-response,282,1292036,0.0-16.0-20.0-0.0,17975,List2A,white,man,,,,null,,,,
1860,"<img src=""portrait/WM2.jpg""style=""height:400px;""></img>",7,html-button-response,283,1293899,0.0-16.0-22.0,17975,List2A,white,man,,TRUE,7,,,,,
null,CORRECT,,html-keyboard-response,284,1295402,0.0-16.0-23.0-0.0,17975,List2A,white,man,,,,null,,,,
1400,<p>You got 8 out of 8 right first time. Press Continue.</p>,0,html-button-response,285,1296805,0.0-16.0-25.0,17975,List2A,white,man,,,,,,,,
null,"<div style=""font-size:60px;"">+</div>",,html-keyboard-response,286,1298309,0.0-17.0-0.0,17975,List2A,white,man,,,,null,,,,
null,"<img src=""stim_listA/flirt5.gif""style=""height:400px;""></stim_listA>",,html-keyboard-response,287,1300313,0.0-17.0-1.0,17975,List2A,white,man,,,,null,,,,
null,is flirting with,,html-keyboard-response,288,1302315,0.0-17.0-2.0,17975,List2A,white,man,,,,null,,,,
5755,,,survey-text,289,1308071,0.0-17.0-3.0,17975,List2A,white,man,,,,,"{""Q0"":""luke is flirting with mike""}","<img src=""stim_listA/flirt5.gif""style=""height:400px;""></stim_listA>",is flirting with,
null,"<div style=""font-size:60px;"">+</div>",,html-keyboard-response,290,1308572,0.0-17.0-0.1,17975,List2A,white,man,,,,null,,,,
null,"<img src=""stim_listA/fight3.gif""style=""height:400px;""></stim_listA>",,html-keyboard-response,291,1310575,0.0-17.0-1.1,17975,List2A,white,man,,,,null,,,,
null,is fighting,,html-keyboard-response,292,1312578,0.0-17.0-2.1,17975,List2A,white,man,,,,null,,,,
5331,,,survey-text,293,1317910,0.0-17.0-3.1,17975,List2A,white,man,,,,,"{""Q0"":""mike is fighting kate""}","<img src=""stim_listA/fight3.gif""style=""height:400px;""></stim_listA>",is fighting,
null,"<div style=""font-size:60px;"">+</div>",,html-keyboard-response,294,1318412,0.0-17.0-0.2,17975,List2A,white,man,,,,null,,,,
null,"<img src=""stim_listA/shout3.gif""style=""height:400px;""></stim_listA>",,html-keyboard-response,295,1320415,0.0-17.0-1.2,17975,List2A,white,man,,,,null,,,,
null,is shouting at,,html-keyboard-response,296,1322417,0.0-17.0-2.2,17975,List2A,white,man,,,,null,,,,
6004,,,survey-text,297,1328422,0.0-17.0-3.2,17975,List2A,white,man,,,,,"{""Q0"":""beth is shouting at fred""}","<img src=""stim_listA/shout3.gif""style=""height:400px;""></stim_listA>",is shouting at,
null,"<div style=""font-size:60px;"">+</div>",,html-keyboard-response,298,1328924,0.0-17.0-0.3,17975,List2A,white,man,,,,null,,,,
null,"<img src=""stim_listA/flirt2.gif""style=""height:400px;""></stim_listA>",,html-keyboard-response,299,1330927,0.0-17.0-1.3,17975,List2A,white,man,,,,null,,,,
null,are flirting with each other,,html-keyboard-response,300,1332928,0.0-17.0-2.3,17975,List2A,white,man,,,,null,,,,
6716,,,survey-text,301,1339646,0.0-17.0-3.3,17975,List2A,white,man,,,,,"{""Q0"":""ruth and dave are flirting with each other""}","<img src=""stim_listA/flirt2.gif""style=""height:400px;""></stim_listA>",are flirting with each other,
null,"<div style=""font-size:60px;"">+</div>",,html-keyboard-response,302,1340149,0.0-17.0-0.4,17975,List2A,white,man,,,,null,,,,
null,"<img src=""stim_listA/talk6.gif""style=""height:400px;""></stim_listA>",,html-keyboard-response,303,1342152,0.0-17.0-1.4,17975,List2A,white,man,,,,null,,,,
null,are talking to each other,,html-keyboard-response,304,1344155,0.0-17.0-2.4,17975,List2A,white,man,,,,null,,,,
7618,,,survey-text,305,1351774,0.0-17.0-3.4,17975,List2A,white,man,,,,,"{""Q0"":""fred and dave are talking to each other""}","<img src=""stim_listA/talk6.gif""style=""height:400px;""></stim_listA>",are talking to each other,
null,"<div style=""font-size:60px;"">+</div>",,html-keyboard-response,306,1352276,0.0-17.0-0.5,17975,List2A,white,man,,,,null,,,,
null,"<img src=""stim_listA/fight8.gif""style=""height:400px;""></stim_listA>",,html-keyboard-response,307,1354278,0.0-17.0-1.5,17975,List2A,white,man,,,,null,,,,
null,are fighting each other,,html-keyboard-response,308,1356281,0.0-17.0-2.5,17975,List2A,white,man,,,,null,,,,
10141,,,survey-text,309,1366422,0.0-17.0-3.5,17975,List2A,white,man,,,,,"{""Q0"":""beth and ruth are fighting with each other""}","<img src=""stim_listA/fight8.gif""style=""height:400px;""></stim_listA>",are fighting each other,
null,"<div style=""font-size:60px;"">+</div>",,html-keyboard-response,310,1366924,0.0-17.0-0.6,17975,List2A,white,man,,,,null,,,,
null,"<img src=""stim_listA/argue5.gif""style=""height:400px;""></stim_listA>",,html-keyboard-response,311,1368927,0.0-17.0-1.6,17975,List2A,white,man,,,,null,,,,
null,is arguing with,,html-keyboard-response,312,1370928,0.0-17.0-2.6,17975,List2A,white,man,,,,null,,,,
7164,,,survey-text,313,1378093,0.0-17.0-3.6,17975,List2A,white,man,,,,,"{""Q0"":""fred is arguing with dave""}","<img src=""stim_listA/argue5.gif""style=""height:400px;""></stim_listA>",is arguing with,
null,"<div style=""font-size:60px;"">+</div>",,html-keyboard-response,314,1378597,0.0-17.0-0.7,17975,List2A,white,man,,,,null,,,,
null,"<img src=""stim_listA/talk3.gif""style=""height:400px;""></stim_listA>",,html-keyboard-response,315,1380599,0.0-17.0-1.7,17975,List2A,white,man,,,,null,,,,
null,is talking to,,html-keyboard-response,316,1382602,0.0-17.0-2.7,17975,List2A,white,man,,,,null,,,,
5354,,,survey-text,317,1387957,0.0-17.0-3.7,17975,List2A,white,man,,,,,"{""Q0"":""fred is talking to kate""}","<img src=""stim_listA/talk3.gif""style=""height:400px;""></stim_listA>",is talking to,
null,"<div style=""font-size:60px;"">+</div>",,html-keyboard-response,318,1388460,0.0-17.0-0.8,17975,List2A,white,man,,,,null,,,,
null,"<img src=""stim_listA/argue2.gif""style=""height:400px;""></stim_listA>",,html-keyboard-response,319,1390462,0.0-17.0-1.8,17975,List2A,white,man,,,,null,,,,
null,are arguing with each other,,html-keyboard-response,320,1392464,0.0-17.0-2.8,17975,List2A,white,man,,,,null,,,,
10636,,,survey-text,321,1403101,0.0-17.0-3.8,17975,List2A,white,man,,,,,"{""Q0"":""jane are luke are arguing with each other""}","<img src=""stim_listA/argue2.gif""style=""height:400px;""></stim_listA>",are arguing with each other,
null,"<div style=""font-size:60px;"">+</div>",,html-keyboard-response,322,1403604,0.0-17.0-0.9,17975,List2A,white,man,,,,null,,,,
null,"<img src=""stim_listA/play4.gif""style=""height:400px;""></stim_listA>",,html-keyboard-response,323,1405607,0.0-17.0-1.9,17975,List2A,white,man,,,,null,,,,
null,are playing with each other,,html-keyboard-response,324,1407609,0.0-17.0-2.9,17975,List2A,white,man,,,,null,,,,
8987,,,survey-text,325,1416598,0.0-17.0-3.9,17975,List2A,white,man,,,,,"{""Q0"":""beth and fred and playing with each other""}","<img src=""stim_listA/play4.gif""style=""height:400px;""></stim_listA>",are playing with each other,
null,"<div style=""font-size:60px;"">+</div>",,html-keyboard-response,326,1417100,0.0-17.0-0.10,17975,List2A,white,man,,,,null,,,,
null,"<img src=""stim_listA/flirt8.gif""style=""height:400px;""></stim_listA>",,html-keyboard-response,327,1419103,0.0-17.0-1.10,17975,List2A,white,man,,,,null,,,,
null,are flirting with each other,,html-keyboard-response,328,1421105,0.0-17.0-2.10,17975,List2A,white,man,,,,null,,,,
10195,,,survey-text,329,1431301,0.0-17.0-3.10,17975,List2A,white,man,,,,,"{""Q0"":""beth and jane are flirting with each other""}","<img src=""stim_listA/flirt8.gif""style=""height:400px;""></stim_listA>",are flirting with each other,
null,"<div style=""font-size:60px;"">+</div>",,html-keyboard-response,330,1431804,0.0-17.0-0.11,17975,List2A,white,man,,,,null,,,,
null,"<img src=""stim_listA/argue6.gif""style=""height:400px;""></stim_listA>",,html-keyboard-response,331,1433806,0.0-17.0-1.11,17975,List2A,white,man,,,,null,,,,
null,are arguing with each other,,html-keyboard-response,332,1435807,0.0-17.0-2.11,17975,List2A,white,man,,,,null,,,,
10701,,,survey-text,333,1446509,0.0-17.0-3.11,17975,List2A,white,man,,,,,"{""Q0"":""mike are luke are arguing with each other""}","<img src=""stim_listA/argue6.gif""style=""height:400px;""></stim_listA>",are arguing with each other,
null,"<div style=""font-size:60px;"">+</div>",,html-keyboard-response,334,1447011,0.0-17.0-0.12,17975,List2A,white,man,,,,null,,,,
null,"<img src=""stim_listA/fight1.gif""style=""height:400px;""></stim_listA>",,html-keyboard-response,335,1449014,0.0-17.0-1.12,17975,List2A,white,man,,,,null,,,,
null,is fighting,,html-keyboard-response,336,1451016,0.0-17.0-2.12,17975,List2A,white,man,,,,null,,,,
7755,,,survey-text,337,1458773,0.0-17.0-3.12,17975,List2A,white,man,,,,,"{""Q0"":""dave is fighting jane""}","<img src=""stim_listA/fight1.gif""style=""height:400px;""></stim_listA>",is fighting,
null,"<div style=""font-size:60px;"">+</div>",,html-keyboard-response,338,1459276,0.0-17.0-0.13,17975,List2A,white,man,,,,null,,,,
null,"<img src=""stim_listA/dance1.gif""style=""height:400px;""></stim_listA>",,html-keyboard-response,339,1461280,0.0-17.0-1.13,17975,List2A,white,man,,,,null,,,,
null,is dancing with,,html-keyboard-response,340,1463283,0.0-17.0-2.13,17975,List2A,white,man,,,,null,,,,
6560,,,survey-text,341,1469845,0.0-17.0-3.13,17975,List2A,white,man,,,,,"{""Q0"":""luke is dancing with jane""}","<img src=""stim_listA/dance1.gif""style=""height:400px;""></stim_listA>",is dancing with,
null,"<div style=""font-size:60px;"">+</div>",,html-keyboard-response,342,1470348,0.0-17.0-0.14,17975,List2A,white,man,,,,null,,,,
null,"<img src=""stim_listA/shout7.gif""style=""height:400px;""></stim_listA>",,html-keyboard-response,343,1472351,0.0-17.0-1.14,17975,List2A,white,man,,,,null,,,,
null,is shouting at,,html-keyboard-response,344,1474354,0.0-17.0-2.14,17975,List2A,white,man,,,,null,,,,
6617,,,survey-text,345,1480973,0.0-17.0-3.14,17975,List2A,white,man,,,,,"{""Q0"":""ruth is shouting at beth""}","<img src=""stim_listA/shout7.gif""style=""height:400px;""></stim_listA>",is shouting at,
null,"<div style=""font-size:60px;"">+</div>",,html-keyboard-response,346,1481476,0.0-17.0-0.15,17975,List2A,white,man,,,,null,,,,
null,"<img src=""stim_listA/kiss8.gif""style=""height:400px;""></stim_listA>",,html-keyboard-response,347,1483479,0.0-17.0-1.15,17975,List2A,white,man,,,,null,,,,
null,are kissing each other,,html-keyboard-response,348,1485482,0.0-17.0-2.15,17975,List2A,white,man,,,,null,,,,
8186,,,survey-text,349,1493669,0.0-17.0-3.15,17975,List2A,white,man,,,,,"{""Q0"":""kate and jane are kissing each other""}","<img src=""stim_listA/kiss8.gif""style=""height:400px;""></stim_listA>",are kissing each other,
null,"<div style=""font-size:60px;"">+</div>",,html-keyboard-response,350,1494171,0.0-17.0-0.16,17975,List2A,white,man,,,,null,,,,
null,"<img src=""stim_listA/play1.gif""style=""height:400px;""></stim_listA>",,html-keyboard-response,351,1496173,0.0-17.0-1.16,17975,List2A,white,man,,,,null,,,,
null,is playing with,,html-keyboard-response,352,1498175,0.0-17.0-2.16,17975,List2A,white,man,,,,null,,,,
8172,,,survey-text,353,1506349,0.0-17.0-3.16,17975,List2A,white,man,,,,,"{""Q0"":""dave is playing with jane""}","<img src=""stim_listA/play1.gif""style=""height:400px;""></stim_listA>",is playing with,
null,"<div style=""font-size:60px;"">+</div>",,html-keyboard-response,354,1506851,0.0-17.0-0.17,17975,List2A,white,man,,,,null,,,,
null,"<img src=""stim_listA/play3.gif""style=""height:400px;""></stim_listA>",,html-keyboard-response,355,1508855,0.0-17.0-1.17,17975,List2A,white,man,,,,null,,,,
null,is playing with,,html-keyboard-response,356,1510858,0.0-17.0-2.17,17975,List2A,white,man,,,,null,,,,
4889,,,survey-text,357,1515749,0.0-17.0-3.17,17975,List2A,white,man,,,,,"{""Q0"":""mike is playing with kate""}","<img src=""stim_listA/play3.gif""style=""height:400px;""></stim_listA>",is playing with,
null,"<div style=""font-size:60px;"">+</div>",,html-keyboard-response,358,1516252,0.0-17.0-0.18,17975,List2A,white,man,,,,null,,,,
null,"<img src=""stim_listA/dance8.gif""style=""height:400px;""></stim_listA>",,html-keyboard-response,359,1518255,0.0-17.0-1.18,17975,List2A,white,man,,,,null,,,,
null,are dancing with each other,,html-keyboard-response,360,1520258,0.0-17.0-2.18,17975,List2A,white,man,,,,null,,,,
15208,,,survey-text,361,1535469,0.0-17.0-3.18,17975,List2A,white,man,,,,,"{""Q0"":""beth and jane are dancing with each other""}","<img src=""stim_listA/dance8.gif""style=""height:400px;""></stim_listA>",are dancing with each other,
null,"<div style=""font-size:60px;"">+</div>",,html-keyboard-response,362,1535972,0.0-17.0-0.19,17975,List2A,white,man,,,,null,,,,
null,"<img src=""stim_listA/argue8.gif""style=""height:400px;""></stim_listA>",,html-keyboard-response,363,1537974,0.0-17.0-1.19,17975,List2A,white,man,,,,null,,,,
null,are arguing with each other,,html-keyboard-response,364,1539976,0.0-17.0-2.19,17975,List2A,white,man,,,,null,,,,
10419,,,survey-text,365,1550397,0.0-17.0-3.19,17975,List2A,white,man,,,,,"{""Q0"":""kate and ruther are arguing with each other""}","<img src=""stim_listA/argue8.gif""style=""height:400px;""></stim_listA>",are arguing with each other,
2490,"<img src='img/portrait_matrix_list2.jpg' style='width:900px;height:500px;''></img><p>If you have memorised all the portraits and names and are ready to start, press Continue.</p><p><strong>Please note: Your memory of these faces will be tested 4 times during this experiment.</strong></p>",0,html-button-response,366,1552889,0.0-18.0-0.0,17975,List2A,white,man,,,,,,,,
1605,"<img src=""portrait/BW1.jpg""style=""height:400px;""></img>",0,html-button-response,367,1555497,0.0-18.0-1.0,17975,List2A,white,man,,TRUE,0,,,,,
null,CORRECT,,html-keyboard-response,368,1557001,0.0-18.0-2.0-0.0,17975,List2A,white,man,,,,null,,,,
1990,"<img src=""portrait/BM1.jpg""style=""height:400px;""></img>",4,html-button-response,369,1558993,0.0-18.0-4.0,17975,List2A,white,man,,TRUE,4,,,,,
null,CORRECT,,html-keyboard-response,370,1560495,0.0-18.0-5.0-0.0,17975,List2A,white,man,,,,null,,,,
1613,"<img src=""portrait/WW2.jpg""style=""height:400px;""></img>",3,html-button-response,371,1562109,0.0-18.0-7.0,17975,List2A,white,man,,TRUE,3,,,,,
null,CORRECT,,html-keyboard-response,372,1563613,0.0-18.0-8.0-0.0,17975,List2A,white,man,,,,null,,,,
1368,"<img src=""portrait/WM2.jpg""style=""height:400px;""></img>",7,html-button-response,373,1564983,0.0-18.0-10.0,17975,List2A,white,man,,TRUE,7,,,,,
null,CORRECT,,html-keyboard-response,374,1566488,0.0-18.0-11.0-0.0,17975,List2A,white,man,,,,null,,,,
2085,"<img src=""portrait/BM2.jpg""style=""height:400px;""></img>",5,html-button-response,375,1568575,0.0-18.0-13.0,17975,List2A,white,man,,TRUE,5,,,,,
null,CORRECT,,html-keyboard-response,376,1570078,0.0-18.0-14.0-0.0,17975,List2A,white,man,,,,null,,,,
1595,"<img src=""portrait/WM1.jpg""style=""height:400px;""></img>",6,html-button-response,377,1571675,0.0-18.0-16.0,17975,List2A,white,man,,TRUE,6,,,,,
null,CORRECT,,html-keyboard-response,378,1573178,0.0-18.0-17.0-0.0,17975,List2A,white,man,,,,null,,,,
2158,"<img src=""portrait/BW2.jpg""style=""height:400px;""></img>",2,html-button-response,379,1575339,0.0-18.0-19.0,17975,List2A,white,man,,TRUE,2,,,,,
null,CORRECT,,html-keyboard-response,380,1576843,0.0-18.0-20.0-0.0,17975,List2A,white,man,,,,null,,,,
2537,"<img src=""portrait/WW1.jpg""style=""height:400px;""></img>",1,html-button-response,381,1579383,0.0-18.0-22.0,17975,List2A,white,man,,TRUE,1,,,,,
null,CORRECT,,html-keyboard-response,382,1580886,0.0-18.0-23.0-0.0,17975,List2A,white,man,,,,null,,,,
1923,<p>You got 8 out of 8 right first time. Press Continue.</p>,0,html-button-response,383,1582813,0.0-18.0-25.0,17975,List2A,white,man,,,,,,,,
null,"<div style=""font-size:60px;"">+</div>",,html-keyboard-response,384,1584317,0.0-19.0-0.0,17975,List2A,white,man,,,,null,,,,
null,"<img src=""stim_listA/kiss4.gif""style=""height:400px;""></stim_listA>",,html-keyboard-response,385,1586320,0.0-19.0-1.0,17975,List2A,white,man,,,,null,,,,
null,are kissing each other,,html-keyboard-response,386,1588322,0.0-19.0-2.0,17975,List2A,white,man,,,,null,,,,
10041,,,survey-text,387,1598365,0.0-19.0-3.0,17975,List2A,white,man,,,,,"{""Q0"":""kate and mike are kissing each other""}","<img src=""stim_listA/kiss4.gif""style=""height:400px;""></stim_listA>",are kissing each other,
null,"<div style=""font-size:60px;"">+</div>",,html-keyboard-response,388,1598867,0.0-19.0-0.1,17975,List2A,white,man,,,,null,,,,
null,"<img src=""stim_listA/shout8.gif""style=""height:400px;""></stim_listA>",,html-keyboard-response,389,1600870,0.0-19.0-1.1,17975,List2A,white,man,,,,null,,,,
null,are shouting at each other,,html-keyboard-response,390,1602872,0.0-19.0-2.1,17975,List2A,white,man,,,,null,,,,
9051,,,survey-text,391,1611925,0.0-19.0-3.1,17975,List2A,white,man,,,,,"{""Q0"":""kate and jane are shouting at each other""}","<img src=""stim_listA/shout8.gif""style=""height:400px;""></stim_listA>",are shouting at each other,
null,"<div style=""font-size:60px;"">+</div>",,html-keyboard-response,392,1612428,0.0-19.0-0.2,17975,List2A,white,man,,,,null,,,,
null,"<img src=""stim_listA/shout4.gif""style=""height:400px;""></stim_listA>",,html-keyboard-response,393,1614431,0.0-19.0-1.2,17975,List2A,white,man,,,,null,,,,
null,are shouting at each other,,html-keyboard-response,394,1616434,0.0-19.0-2.2,17975,List2A,white,man,,,,null,,,,
8233,,,survey-text,395,1624669,0.0-19.0-3.2,17975,List2A,white,man,,,,,"{""Q0"":""kate and mike are shouting at each other""}","<img src=""stim_listA/shout4.gif""style=""height:400px;""></stim_listA>",are shouting at each other,
null,"<div style=""font-size:60px;"">+</div>",,html-keyboard-response,396,1625171,0.0-19.0-0.3,17975,List2A,white,man,,,,null,,,,
null,"<img src=""stim_listA/kiss3.gif""style=""height:400px;""></stim_listA>",,html-keyboard-response,397,1627173,0.0-19.0-1.3,17975,List2A,white,man,,,,null,,,,
null,is kissing,,html-keyboard-response,398,1629175,0.0-19.0-2.3,17975,List2A,white,man,,,,null,,,,
4724,,,survey-text,399,1633901,0.0-19.0-3.3,17975,List2A,white,man,,,,,"{""Q0"":""beth is kissing fred""}","<img src=""stim_listA/kiss3.gif""style=""height:400px;""></stim_listA>",is kissing,
null,"<div style=""font-size:60px;"">+</div>",,html-keyboard-response,400,1634403,0.0-19.0-0.4,17975,List2A,white,man,,,,null,,,,
null,"<img src=""stim_listA/touch2.gif""style=""height:400px;""></stim_listA>",,html-keyboard-response,401,1636407,0.0-19.0-1.4,17975,List2A,white,man,,,,null,,,,
null,are touching each other,,html-keyboard-response,402,1638409,0.0-19.0-2.4,17975,List2A,white,man,,,,null,,,,
35707,,,survey-text,403,1674117,0.0-19.0-3.4,17975,List2A,white,man,,,,,"{""Q0"":""ruth and luke are touching each other""}","<img src=""stim_listA/touch2.gif""style=""height:400px;""></stim_listA>",are touching each other,
null,"<div style=""font-size:60px;"">+</div>",,html-keyboard-response,404,1674620,0.0-19.0-0.5,17975,List2A,white,man,,,,null,,,,
null,"<img src=""stim_listA/talk2.gif""style=""height:400px;""></stim_listA>",,html-keyboard-response,405,1676622,0.0-19.0-1.5,17975,List2A,white,man,,,,null,,,,
null,are talking to each other,,html-keyboard-response,406,1678624,0.0-19.0-2.5,17975,List2A,white,man,,,,null,,,,
7195,,,survey-text,407,1685820,0.0-19.0-3.5,17975,List2A,white,man,,,,,"{""Q0"":""ruth and dave are talking to each other""}","<img src=""stim_listA/talk2.gif""style=""height:400px;""></stim_listA>",are talking to each other,
null,"<div style=""font-size:60px;"">+</div>",,html-keyboard-response,408,1686324,0.0-19.0-0.6,17975,List2A,white,man,,,,null,,,,
null,"<img src=""stim_listA/flirt6.gif""style=""height:400px;""></stim_listA>",,html-keyboard-response,409,1688326,0.0-19.0-1.6,17975,List2A,white,man,,,,null,,,,
null,are flirting with each other,,html-keyboard-response,410,1690328,0.0-19.0-2.6,17975,List2A,white,man,,,,null,,,,
16940,,,survey-text,411,1707269,0.0-19.0-3.6,17975,List2A,white,man,,,,,"{""Q0"":""fred and dave are flirting with each other""}","<img src=""stim_listA/flirt6.gif""style=""height:400px;""></stim_listA>",are flirting with each other,
null,"<div style=""font-size:60px;"">+</div>",,html-keyboard-response,412,1707773,0.0-19.0-0.7,17975,List2A,white,man,,,,null,,,,
null,"<img src=""stim_listA/argue4.gif""style=""height:400px;""></stim_listA>",,html-keyboard-response,413,1709777,0.0-19.0-1.7,17975,List2A,white,man,,,,null,,,,
null,are arguing with each other,,html-keyboard-response,414,1711780,0.0-19.0-2.7,17975,List2A,white,man,,,,null,,,,
44888,,,survey-text,415,1756670,0.0-19.0-3.7,17975,List2A,white,man,,,,,"{""Q0"":""mike and fred are arguing with each other""}","<img src=""stim_listA/argue4.gif""style=""height:400px;""></stim_listA>",are arguing with each other,
null,"<div style=""font-size:60px;"">+</div>",,html-keyboard-response,416,1757172,0.0-19.0-0.8,17975,List2A,white,man,,,,null,,,,
null,"<img src=""stim_listA/touch3.gif""style=""height:400px;""></stim_listA>",,html-keyboard-response,417,1759175,0.0-19.0-1.8,17975,List2A,white,man,,,,null,,,,
null,is touching,,html-keyboard-response,418,1761179,0.0-19.0-2.8,17975,List2A,white,man,,,,null,,,,
9385,,,survey-text,419,1770565,0.0-19.0-3.8,17975,List2A,white,man,,,,,"{""Q0"":""fred is touching kate""}","<img src=""stim_listA/touch3.gif""style=""height:400px;""></stim_listA>",is touching,
null,"<div style=""font-size:60px;"">+</div>",,html-keyboard-response,420,1771067,0.0-19.0-0.9,17975,List2A,white,man,,,,null,,,,
null,"<img src=""stim_listA/touch4.gif""style=""height:400px;""></stim_listA>",,html-keyboard-response,421,1773071,0.0-19.0-1.9,17975,List2A,white,man,,,,null,,,,
null,are touching each other,,html-keyboard-response,422,1775074,0.0-19.0-2.9,17975,List2A,white,man,,,,null,,,,
6842,,,survey-text,423,1781917,0.0-19.0-3.9,17975,List2A,white,man,,,,,"{""Q0"":""fred and beth are touching each other""}","<img src=""stim_listA/touch4.gif""style=""height:400px;""></stim_listA>",are touching each other,
null,"<div style=""font-size:60px;"">+</div>",,html-keyboard-response,424,1782420,0.0-19.0-0.10,17975,List2A,white,man,,,,null,,,,
null,"<img src=""stim_listA/dance5.gif""style=""height:400px;""></stim_listA>",,html-keyboard-response,425,1784423,0.0-19.0-1.10,17975,List2A,white,man,,,,null,,,,
null,is dancing with,,html-keyboard-response,426,1786425,0.0-19.0-2.10,17975,List2A,white,man,,,,null,,,,
4563,,,survey-text,427,1790989,0.0-19.0-3.10,17975,List2A,white,man,,,,,"{""Q0"":""mike is dancing with luke""}","<img src=""stim_listA/dance5.gif""style=""height:400px;""></stim_listA>",is dancing with,
null,"<div style=""font-size:60px;"">+</div>",,html-keyboard-response,428,1791492,0.0-19.0-0.11,17975,List2A,white,man,,,,null,,,,
null,"<img src=""stim_listA/marry2.gif""style=""height:400px;""></stim_listA>",,html-keyboard-response,429,1793495,0.0-19.0-1.11,17975,List2A,white,man,,,,null,,,,
null,are marrying each other,,html-keyboard-response,430,1795498,0.0-19.0-2.11,17975,List2A,white,man,,,,null,,,,
10904,,,survey-text,431,1806405,0.0-19.0-3.11,17975,List2A,white,man,,,,,"{""Q0"":""jane and luke are marrying each other""}","<img src=""stim_listA/marry2.gif""style=""height:400px;""></stim_listA>",are marrying each other,
null,"<div style=""font-size:60px;"">+</div>",,html-keyboard-response,432,1806907,0.0-19.0-0.12,17975,List2A,white,man,,,,null,,,,
null,"<img src=""stim_listA/kiss7.gif""style=""height:400px;""></stim_listA>",,html-keyboard-response,433,1808910,0.0-19.0-1.12,17975,List2A,white,man,,,,null,,,,
null,is kissing,,html-keyboard-response,434,1810912,0.0-19.0-2.12,17975,List2A,white,man,,,,null,,,,
6963,,,survey-text,435,1817876,0.0-19.0-3.12,17975,List2A,white,man,,,,,"{""Q0"":""ruth and beth are kissing each other""}","<img src=""stim_listA/kiss7.gif""style=""height:400px;""></stim_listA>",is kissing,
null,"<div style=""font-size:60px;"">+</div>",,html-keyboard-response,436,1818378,0.0-19.0-0.13,17975,List2A,white,man,,,,null,,,,
null,"<img src=""stim_listA/kiss5.gif""style=""height:400px;""></stim_listA>",,html-keyboard-response,437,1820380,0.0-19.0-1.13,17975,List2A,white,man,,,,null,,,,
null,is kissing,,html-keyboard-response,438,1822382,0.0-19.0-2.13,17975,List2A,white,man,,,,null,,,,
6270,,,survey-text,439,1828653,0.0-19.0-3.13,17975,List2A,white,man,,,,,"{""Q0"":""luke is kissing fred""}","<img src=""stim_listA/kiss5.gif""style=""height:400px;""></stim_listA>",is kissing,
null,"<div style=""font-size:60px;"">+</div>",,html-keyboard-response,440,1829155,0.0-19.0-0.14,17975,List2A,white,man,,,,null,,,,
null,"<img src=""stim_listA/argue7.gif""style=""height:400px;""></stim_listA>",,html-keyboard-response,441,1831158,0.0-19.0-1.14,17975,List2A,white,man,,,,null,,,,
null,is arguing with,,html-keyboard-response,442,1833161,0.0-19.0-2.14,17975,List2A,white,man,,,,null,,,,
8618,,,survey-text,443,1841781,0.0-19.0-3.14,17975,List2A,white,man,,,,,"{""Q0"":""jane is arguing with beth""}","<img src=""stim_listA/argue7.gif""style=""height:400px;""></stim_listA>",is arguing with,
null,"<div style=""font-size:60px;"">+</div>",,html-keyboard-response,444,1842284,0.0-19.0-0.15,17975,List2A,white,man,,,,null,,,,
null,"<img src=""stim_listA/play7.gif""style=""height:400px;""></stim_listA>",,html-keyboard-response,445,1844286,0.0-19.0-1.15,17975,List2A,white,man,,,,null,,,,
null,is playing with,,html-keyboard-response,446,1846289,0.0-19.0-2.15,17975,List2A,white,man,,,,null,,,,
7842,,,survey-text,447,1854133,0.0-19.0-3.15,17975,List2A,white,man,,,,,"{""Q0"":""jane is playing with kate""}","<img src=""stim_listA/play7.gif""style=""height:400px;""></stim_listA>",is playing with,
null,"<div style=""font-size:60px;"">+</div>",,html-keyboard-response,448,1854636,0.0-19.0-0.16,17975,List2A,white,man,,,,null,,,,
null,"<img src=""stim_listA/flirt7.gif""style=""height:400px;""></stim_listA>",,html-keyboard-response,449,1856639,0.0-19.0-1.16,17975,List2A,white,man,,,,null,,,,
null,is flirting with,,html-keyboard-response,450,1858642,0.0-19.0-2.16,17975,List2A,white,man,,,,null,,,,
5817,,,survey-text,451,1864461,0.0-19.0-3.16,17975,List2A,white,man,,,,,"{""Q0"":""ruth is flirting with kate""}","<img src=""stim_listA/flirt7.gif""style=""height:400px;""></stim_listA>",is flirting with,
null,"<div style=""font-size:60px;"">+</div>",,html-keyboard-response,452,1864965,0.0-19.0-0.17,17975,List2A,white,man,,,,null,,,,
null,"<img src=""stim_listA/dance7.gif""style=""height:400px;""></stim_listA>",,html-keyboard-response,453,1866967,0.0-19.0-1.17,17975,List2A,white,man,,,,null,,,,
null,is dancing with,,html-keyboard-response,454,1868970,0.0-19.0-2.17,17975,List2A,white,man,,,,null,,,,
4720,,,survey-text,455,1873692,0.0-19.0-3.17,17975,List2A,white,man,,,,,"{""Q0"":""ruth is dancing with kate""}","<img src=""stim_listA/dance7.gif""style=""height:400px;""></stim_listA>",is dancing with,
null,"<div style=""font-size:60px;"">+</div>",,html-keyboard-response,456,1874195,0.0-19.0-0.18,17975,List2A,white,man,,,,null,,,,
null,"<img src=""stim_listA/flirt4.gif""style=""height:400px;""></stim_listA>",,html-keyboard-response,457,1876199,0.0-19.0-1.18,17975,List2A,white,man,,,,null,,,,
null,are flirting with each other,,html-keyboard-response,458,1878201,0.0-19.0-2.18,17975,List2A,white,man,,,,null,,,,
8458,,,survey-text,459,1886661,0.0-19.0-3.18,17975,List2A,white,man,,,,,"{""Q0"":""mike and beth are flirting with each other""}","<img src=""stim_listA/flirt4.gif""style=""height:400px;""></stim_listA>",are flirting with each other,
null,"<div style=""font-size:60px;"">+</div>",,html-keyboard-response,460,1887162,0.0-19.0-0.19,17975,List2A,white,man,,,,null,,,,
null,"<img src=""stim_listA/flirt3.gif""style=""height:400px;""></stim_listA>",,html-keyboard-response,461,1889166,0.0-19.0-1.19,17975,List2A,white,man,,,,null,,,,
null,is flirting with,,html-keyboard-response,462,1891168,0.0-19.0-2.19,17975,List2A,white,man,,,,null,,,,
6531,,,survey-text,463,1897701,0.0-19.0-3.19,17975,List2A,white,man,,,,,"{""Q0"":""fred is flirting with kate""}","<img src=""stim_listA/flirt3.gif""style=""height:400px;""></stim_listA>",is flirting with,
3006,<p>Thank you for completing that task.</p><p>The final part of this session is a short questionnaire.</p><p>Press Continue.</p>,0,html-button-response,464,1900709,0.0-20.0,17975,List2A,white,man,,,,,,,,
103292,,,survey-text,465,2005004,0.0-21.0,17975,List2A,white,man,,,,,"{""Q0"":""24"",""Q1"":""English"",""Q2"":""English"",""Q3"":""England"",""Q4"":""White British"",""Q5"":""Male""}",,,demographics
7421,,,survey-likert,466,2012429,0.0-22.0,17975,List2A,white,man,,,,,"{""Q0"":4}",,,likert_ESS
5453,,,survey-likert,467,2017902,0.0-23.0,17975,List2A,white,man,,,,,"{""Q0"":4}",,,likert_NSSAL_Q1
3338,,,survey-likert,468,2021259,0.0-24.0,17975,List2A,white,man,,,,,"{""Q0"":4}",,,likert_NSSAL_Q2
3922,,,survey-likert,469,2025202,0.0-25.0,17975,List2A,white,man,,,,,"{""Q0"":4}",,,likert_CGRS_Q1
3481,,,survey-likert,470,2028700,0.0-26.0,17975,List2A,white,man,,,,,"{""Q0"":4}",,,likert_CGRS_Q2
2957,,,survey-likert,471,2031678,0.0-27.0,17975,List2A,white,man,,,,,"{""Q0"":4}",,,likert_CGRS_Q3
6442,,,survey-text,472,2038141,0.0-28.0,17975,List2A,white,man,,,,,"{""Q0"":""ccc""}",,,worker_id
5721,,,external-html,473,2043919,0.0-29.0,17975,List2A,white,man,debrief.html,,,,,,,
