rt,stimulus,button_pressed,trial_type,trial_index,time_elapsed,internal_node_id,subject,list,ppt_race,ppt_gender,url,first_guess,correct,key_press,responses,image_type,phrase_type,test_part
1781,Welcome to the experiment. Press Continue to begin.,0,html-button-response,0,1781,0.0-0.0,18345,List2B,white,woman,,,,,,,,
45929,,,external-html,1,49009,0.0-1.0,18345,List2B,white,woman,consent.html,,,,,,,
13859,"<p>On the next page, you will see portraits of 8 people and their names.</p><p>Your first task is to take a few minutes to memorise the names of these people.</p><p>You will have to recall their names during the rest of the experiment, so it is</p><p>essential that you try to memorise these people and their names as best as you can.</p><br><p><strong>You will then be tested on your memory of these names and portraits.</strong></p><br><p>The experiment will start after you have completed this memory test.</p><br><p>Ready?</p>",0,html-button-response,2,62869,0.0-2.0,18345,List2B,white,woman,,,,,,,,
55776,"<img src='img/portrait_matrix_list2.jpg' style='width:900px;height:500px;''></img><p>If you have memorised all the portraits and names and are ready to start, press Continue.</p><p><strong>Please note: Your memory of these faces will be tested 4 times during this experiment.</strong></p>",0,html-button-response,3,119649,0.0-3.0-0.0,18345,List2B,white,woman,,,,,,,,
2642,"<img src=""portrait/BM1.jpg""style=""height:400px;""></img>",4,html-button-response,4,123295,0.0-3.0-1.0,18345,List2B,white,woman,,TRUE,4,,,,,
null,CORRECT,,html-keyboard-response,5,124801,0.0-3.0-2.0-0.0,18345,List2B,white,woman,,,,null,,,,
2415,"<img src=""portrait/BM2.jpg""style=""height:400px;""></img>",5,html-button-response,6,127219,0.0-3.0-4.0,18345,List2B,white,woman,,TRUE,5,,,,,
null,CORRECT,,html-keyboard-response,7,128726,0.0-3.0-5.0-0.0,18345,List2B,white,woman,,,,null,,,,
2320,"<img src=""portrait/BW1.jpg""style=""height:400px;""></img>",0,html-button-response,8,131049,0.0-3.0-7.0,18345,List2B,white,woman,,TRUE,0,,,,,
null,CORRECT,,html-keyboard-response,9,132551,0.0-3.0-8.0-0.0,18345,List2B,white,woman,,,,null,,,,
1774,"<img src=""portrait/WW2.jpg""style=""height:400px;""></img>",3,html-button-response,10,134326,0.0-3.0-10.0,18345,List2B,white,woman,,TRUE,3,,,,,
null,CORRECT,,html-keyboard-response,11,135830,0.0-3.0-11.0-0.0,18345,List2B,white,woman,,,,null,,,,
2302,"<img src=""portrait/WM1.jpg""style=""height:400px;""></img>",6,html-button-response,12,138135,0.0-3.0-13.0,18345,List2B,white,woman,,TRUE,6,,,,,
null,CORRECT,,html-keyboard-response,13,139639,0.0-3.0-14.0-0.0,18345,List2B,white,woman,,,,null,,,,
1430,"<img src=""portrait/WM2.jpg""style=""height:400px;""></img>",7,html-button-response,14,141071,0.0-3.0-16.0,18345,List2B,white,woman,,TRUE,7,,,,,
null,CORRECT,,html-keyboard-response,15,142574,0.0-3.0-17.0-0.0,18345,List2B,white,woman,,,,null,,,,
2412,"<img src=""portrait/WW1.jpg""style=""height:400px;""></img>",1,html-button-response,16,144987,0.0-3.0-19.0,18345,List2B,white,woman,,TRUE,1,,,,,
null,CORRECT,,html-keyboard-response,17,146489,0.0-3.0-20.0-0.0,18345,List2B,white,woman,,,,null,,,,
2294,"<img src=""portrait/BW2.jpg""style=""height:400px;""></img>",2,html-button-response,18,148785,0.0-3.0-22.0,18345,List2B,white,woman,,TRUE,2,,,,,
null,CORRECT,,html-keyboard-response,19,150289,0.0-3.0-23.0-0.0,18345,List2B,white,woman,,,,null,,,,
2356,<p>You got 8 out of 8 right first time. Press Continue.</p>,0,html-button-response,20,152647,0.0-3.0-25.0,18345,List2B,white,woman,,,,,,,,
34358,"<p>In this experiment, you will view photographs of the people from the memory game interacting.</p><p>By using the <strong>exact</strong> phrase given <i>after</i> the photograph appears and recalling the correct names of the people in the photographs, form a sentence describing the interaction. You do not need to capitalise names.</p><p>Type your answer in the space provided. Please complete every sentence before moving onto the next trial.</p><p>You will only have a few seconds to memorise each given photograph and phrase before you can respond, so try your best to focus.</p><p>An example is given below. Press 'Continue' when you are ready.</p><img src='img/speaking_example.jpg' style='width:800px;height:460px;''></img>",0,html-button-response,21,188008,0.0-4.0,18345,List2B,white,woman,,,,,,,,
2914,"<p>Before the experiment starts, you will watch two example trials. Press 'Continue'.</p>",0,html-button-response,22,191924,0.0-5.0,18345,List2B,white,woman,,,,,,,,
null,<img src='img/meet_eg.gif' style='height:400px;''></img>,,html-keyboard-response,23,194928,0.0-6.0,18345,List2B,white,woman,,,,null,,,,
null,<p>is meeting</p>,,html-keyboard-response,24,196930,0.0-7.0,18345,List2B,white,woman,,,,null,,,,
6361,<p><b>Answer:</b> jane is meeting ruth</p>,0,html-button-response,25,203292,0.0-8.0,18345,List2B,white,woman,,,,,,,,
null,<img src='img/look_eg.gif' style='height:400px;''></img>,,html-keyboard-response,26,206296,0.0-9.0,18345,List2B,white,woman,,,,null,,,,
null,<p>are looking at each other</p>,,html-keyboard-response,27,208298,0.0-10.0,18345,List2B,white,woman,,,,null,,,,
4735,<p><b>Answer:</b> fred and mike are looking at each other</p>,0,html-button-response,28,213034,0.0-11.0,18345,List2B,white,woman,,,,,,,,
5166,"<p>Ready to start the experiment?</p><br><p><strong>Remember to describe the picture using a full sentence,</strong></p><p><strong>that combines the names of the people with the <i>exact</i> phrase given.</strong></p><p><strong>To receive full payment you must do this correctly.</strong></p><p><strong> You do not need to capitalise names or use punctuation.</strong></p><br><p>Press 'Continue' to begin.</p>",0,html-button-response,29,219202,0.0-12.0,18345,List2B,white,woman,,,,,,,,
null,"<div style=""font-size:60px;"">+</div>",,html-keyboard-response,30,220707,0.0-13.0-0.0,18345,List2B,white,woman,,,,null,,,,
null,"<img src=""stim_listB/fight6.gif""style=""height:400px;""></stim_listB>",,html-keyboard-response,31,222710,0.0-13.0-1.0,18345,List2B,white,woman,,,,null,,,,
null,are fighting each other,,html-keyboard-response,32,224711,0.0-13.0-2.0,18345,List2B,white,woman,,,,null,,,,
10476,,,survey-text,33,235189,0.0-13.0-3.0,18345,List2B,white,woman,,,,,"{""Q0"":""Luke and Fred are fighting each other""}","<img src=""stim_listB/fight6.gif""style=""height:400px;""></stim_listB>",are fighting each other,
null,"<div style=""font-size:60px;"">+</div>",,html-keyboard-response,34,235690,0.0-13.0-0.1,18345,List2B,white,woman,,,,null,,,,
null,"<img src=""stim_listB/fight3.gif""style=""height:400px;""></stim_listB>",,html-keyboard-response,35,237692,0.0-13.0-1.1,18345,List2B,white,woman,,,,null,,,,
null,is fighting,,html-keyboard-response,36,239696,0.0-13.0-2.1,18345,List2B,white,woman,,,,null,,,,
17989,,,survey-text,37,257687,0.0-13.0-3.1,18345,List2B,white,woman,,,,,"{""Q0"":""Kate is fighting Mike""}","<img src=""stim_listB/fight3.gif""style=""height:400px;""></stim_listB>",is fighting,
null,"<div style=""font-size:60px;"">+</div>",,html-keyboard-response,38,258188,0.0-13.0-0.2,18345,List2B,white,woman,,,,null,,,,
null,"<img src=""stim_listB/argue7.gif""style=""height:400px;""></stim_listB>",,html-keyboard-response,39,260192,0.0-13.0-1.2,18345,List2B,white,woman,,,,null,,,,
null,is arguing with,,html-keyboard-response,40,262195,0.0-13.0-2.2,18345,List2B,white,woman,,,,null,,,,
18518,,,survey-text,41,280715,0.0-13.0-3.2,18345,List2B,white,woman,,,,,"{""Q0"":""Beth is arguing with Jane""}","<img src=""stim_listB/argue7.gif""style=""height:400px;""></stim_listB>",is arguing with,
null,"<div style=""font-size:60px;"">+</div>",,html-keyboard-response,42,281216,0.0-13.0-0.3,18345,List2B,white,woman,,,,null,,,,
null,"<img src=""stim_listB/talk8.gif""style=""height:400px;""></stim_listB>",,html-keyboard-response,43,283221,0.0-13.0-1.3,18345,List2B,white,woman,,,,null,,,,
null,are talking to each other,,html-keyboard-response,44,285223,0.0-13.0-2.3,18345,List2B,white,woman,,,,null,,,,
12225,,,survey-text,45,297451,0.0-13.0-3.3,18345,List2B,white,woman,,,,,"{""Q0"":""Jane and Beth are talking to each other""}","<img src=""stim_listB/talk8.gif""style=""height:400px;""></stim_listB>",are talking to each other,
null,"<div style=""font-size:60px;"">+</div>",,html-keyboard-response,46,297953,0.0-13.0-0.4,18345,List2B,white,woman,,,,null,,,,
null,"<img src=""stim_listB/play6.gif""style=""height:400px;""></stim_listB>",,html-keyboard-response,47,299957,0.0-13.0-1.4,18345,List2B,white,woman,,,,null,,,,
null,are playing with each other,,html-keyboard-response,48,301959,0.0-13.0-2.4,18345,List2B,white,woman,,,,null,,,,
10932,,,survey-text,49,312893,0.0-13.0-3.4,18345,List2B,white,woman,,,,,"{""Q0"":""Luke and Fred are playing with each other""}","<img src=""stim_listB/play6.gif""style=""height:400px;""></stim_listB>",are playing with each other,
null,"<div style=""font-size:60px;"">+</div>",,html-keyboard-response,50,313393,0.0-13.0-0.5,18345,List2B,white,woman,,,,null,,,,
null,"<img src=""stim_listB/argue6.gif""style=""height:400px;""></stim_listB>",,html-keyboard-response,51,315396,0.0-13.0-1.5,18345,List2B,white,woman,,,,null,,,,
null,are arguing with each other,,html-keyboard-response,52,317399,0.0-13.0-2.5,18345,List2B,white,woman,,,,null,,,,
12022,,,survey-text,53,329423,0.0-13.0-3.5,18345,List2B,white,woman,,,,,"{""Q0"":""Luke and Mike are arguing with each other""}","<img src=""stim_listB/argue6.gif""style=""height:400px;""></stim_listB>",are arguing with each other,
null,"<div style=""font-size:60px;"">+</div>",,html-keyboard-response,54,329923,0.0-13.0-0.6,18345,List2B,white,woman,,,,null,,,,
null,"<img src=""stim_listB/flirt4.gif""style=""height:400px;""></stim_listB>",,html-keyboard-response,55,331925,0.0-13.0-1.6,18345,List2B,white,woman,,,,null,,,,
null,are flirting with each other,,html-keyboard-response,56,333927,0.0-13.0-2.6,18345,List2B,white,woman,,,,null,,,,
10477,,,survey-text,57,344405,0.0-13.0-3.6,18345,List2B,white,woman,,,,,"{""Q0"":""Mike and Beth are flirting with each other""}","<img src=""stim_listB/flirt4.gif""style=""height:400px;""></stim_listB>",are flirting with each other,
null,"<div style=""font-size:60px;"">+</div>",,html-keyboard-response,58,344906,0.0-13.0-0.7,18345,List2B,white,woman,,,,null,,,,
null,"<img src=""stim_listB/play5.gif""style=""height:400px;""></stim_listB>",,html-keyboard-response,59,346909,0.0-13.0-1.7,18345,List2B,white,woman,,,,null,,,,
null,is playing with,,html-keyboard-response,60,348912,0.0-13.0-2.7,18345,List2B,white,woman,,,,null,,,,
7979,,,survey-text,61,356892,0.0-13.0-3.7,18345,List2B,white,woman,,,,,"{""Q0"":""Mike is playing with Dave""}","<img src=""stim_listB/play5.gif""style=""height:400px;""></stim_listB>",is playing with,
null,"<div style=""font-size:60px;"">+</div>",,html-keyboard-response,62,357393,0.0-13.0-0.8,18345,List2B,white,woman,,,,null,,,,
null,"<img src=""stim_listB/marry5.gif""style=""height:400px;""></stim_listB>",,html-keyboard-response,63,359398,0.0-13.0-1.8,18345,List2B,white,woman,,,,null,,,,
null,is marrying,,html-keyboard-response,64,361400,0.0-13.0-2.8,18345,List2B,white,woman,,,,null,,,,
7545,,,survey-text,65,368946,0.0-13.0-3.8,18345,List2B,white,woman,,,,,"{""Q0"":""Fred is marrying Dave""}","<img src=""stim_listB/marry5.gif""style=""height:400px;""></stim_listB>",is marrying,
null,"<div style=""font-size:60px;"">+</div>",,html-keyboard-response,66,369450,0.0-13.0-0.9,18345,List2B,white,woman,,,,null,,,,
null,"<img src=""stim_listB/talk4.gif""style=""height:400px;""></stim_listB>",,html-keyboard-response,67,371453,0.0-13.0-1.9,18345,List2B,white,woman,,,,null,,,,
null,are talking to each other,,html-keyboard-response,68,373454,0.0-13.0-2.9,18345,List2B,white,woman,,,,null,,,,
11636,,,survey-text,69,385091,0.0-13.0-3.9,18345,List2B,white,woman,,,,,"{""Q0"":""Mike and Beth are talking to each other""}","<img src=""stim_listB/talk4.gif""style=""height:400px;""></stim_listB>",are talking to each other,
null,"<div style=""font-size:60px;"">+</div>",,html-keyboard-response,70,385593,0.0-13.0-0.10,18345,List2B,white,woman,,,,null,,,,
null,"<img src=""stim_listB/talk6.gif""style=""height:400px;""></stim_listB>",,html-keyboard-response,71,387595,0.0-13.0-1.10,18345,List2B,white,woman,,,,null,,,,
null,are talking to each other,,html-keyboard-response,72,389598,0.0-13.0-2.10,18345,List2B,white,woman,,,,null,,,,
9101,,,survey-text,73,398701,0.0-13.0-3.10,18345,List2B,white,woman,,,,,"{""Q0"":""Dave and Fred are talking to each other""}","<img src=""stim_listB/talk6.gif""style=""height:400px;""></stim_listB>",are talking to each other,
null,"<div style=""font-size:60px;"">+</div>",,html-keyboard-response,74,399202,0.0-13.0-0.11,18345,List2B,white,woman,,,,null,,,,
null,"<img src=""stim_listB/touch2.gif""style=""height:400px;""></stim_listB>",,html-keyboard-response,75,401206,0.0-13.0-1.11,18345,List2B,white,woman,,,,null,,,,
null,are touching each other,,html-keyboard-response,76,403208,0.0-13.0-2.11,18345,List2B,white,woman,,,,null,,,,
12401,,,survey-text,77,415610,0.0-13.0-3.11,18345,List2B,white,woman,,,,,"{""Q0"":""Luke and Ruth are touching each other""}","<img src=""stim_listB/touch2.gif""style=""height:400px;""></stim_listB>",are touching each other,
null,"<div style=""font-size:60px;"">+</div>",,html-keyboard-response,78,416113,0.0-13.0-0.12,18345,List2B,white,woman,,,,null,,,,
null,"<img src=""stim_listB/marry2.gif""style=""height:400px;""></stim_listB>",,html-keyboard-response,79,418115,0.0-13.0-1.12,18345,List2B,white,woman,,,,null,,,,
null,are marrying each other,,html-keyboard-response,80,420118,0.0-13.0-2.12,18345,List2B,white,woman,,,,null,,,,
8403,,,survey-text,81,428522,0.0-13.0-3.12,18345,List2B,white,woman,,,,,"{""Q0"":""Luke and Jane are marrying each other""}","<img src=""stim_listB/marry2.gif""style=""height:400px;""></stim_listB>",are marrying each other,
null,"<div style=""font-size:60px;"">+</div>",,html-keyboard-response,82,429023,0.0-13.0-0.13,18345,List2B,white,woman,,,,null,,,,
null,"<img src=""stim_listB/kiss3.gif""style=""height:400px;""></stim_listB>",,html-keyboard-response,83,431026,0.0-13.0-1.13,18345,List2B,white,woman,,,,null,,,,
null,is kissing,,html-keyboard-response,84,433028,0.0-13.0-2.13,18345,List2B,white,woman,,,,null,,,,
7837,,,survey-text,85,440866,0.0-13.0-3.13,18345,List2B,white,woman,,,,,"{""Q0"":""Beth is kissing Fred""}","<img src=""stim_listB/kiss3.gif""style=""height:400px;""></stim_listB>",is kissing,
null,"<div style=""font-size:60px;"">+</div>",,html-keyboard-response,86,441368,0.0-13.0-0.14,18345,List2B,white,woman,,,,null,,,,
null,"<img src=""stim_listB/kiss8.gif""style=""height:400px;""></stim_listB>",,html-keyboard-response,87,443370,0.0-13.0-1.14,18345,List2B,white,woman,,,,null,,,,
null,are kissing each other,,html-keyboard-response,88,445373,0.0-13.0-2.14,18345,List2B,white,woman,,,,null,,,,
10388,,,survey-text,89,455762,0.0-13.0-3.14,18345,List2B,white,woman,,,,,"{""Q0"":""Jane and Kate are kissing each other""}","<img src=""stim_listB/kiss8.gif""style=""height:400px;""></stim_listB>",are kissing each other,
null,"<div style=""font-size:60px;"">+</div>",,html-keyboard-response,90,456264,0.0-13.0-0.15,18345,List2B,white,woman,,,,null,,,,
null,"<img src=""stim_listB/shout2.gif""style=""height:400px;""></stim_listB>",,html-keyboard-response,91,458267,0.0-13.0-1.15,18345,List2B,white,woman,,,,null,,,,
null,are shouting at each other,,html-keyboard-response,92,460270,0.0-13.0-2.15,18345,List2B,white,woman,,,,null,,,,
11037,,,survey-text,93,471308,0.0-13.0-3.15,18345,List2B,white,woman,,,,,"{""Q0"":""Dave and Jane are shouting at each other""}","<img src=""stim_listB/shout2.gif""style=""height:400px;""></stim_listB>",are shouting at each other,
null,"<div style=""font-size:60px;"">+</div>",,html-keyboard-response,94,471809,0.0-13.0-0.16,18345,List2B,white,woman,,,,null,,,,
null,"<img src=""stim_listB/argue5.gif""style=""height:400px;""></stim_listB>",,html-keyboard-response,95,473812,0.0-13.0-1.16,18345,List2B,white,woman,,,,null,,,,
null,is arguing with,,html-keyboard-response,96,475813,0.0-13.0-2.16,18345,List2B,white,woman,,,,null,,,,
7610,,,survey-text,97,483424,0.0-13.0-3.16,18345,List2B,white,woman,,,,,"{""Q0"":""Fred is arguing with Dave""}","<img src=""stim_listB/argue5.gif""style=""height:400px;""></stim_listB>",is arguing with,
null,"<div style=""font-size:60px;"">+</div>",,html-keyboard-response,98,483926,0.0-13.0-0.17,18345,List2B,white,woman,,,,null,,,,
null,"<img src=""stim_listB/play2.gif""style=""height:400px;""></stim_listB>",,html-keyboard-response,99,485929,0.0-13.0-1.17,18345,List2B,white,woman,,,,null,,,,
null,are playing with each other,,html-keyboard-response,100,487932,0.0-13.0-2.17,18345,List2B,white,woman,,,,null,,,,
9811,,,survey-text,101,497744,0.0-13.0-3.17,18345,List2B,white,woman,,,,,"{""Q0"":""Luke and Ruth are playing with each other""}","<img src=""stim_listB/play2.gif""style=""height:400px;""></stim_listB>",are playing with each other,
null,"<div style=""font-size:60px;"">+</div>",,html-keyboard-response,102,498246,0.0-13.0-0.18,18345,List2B,white,woman,,,,null,,,,
null,"<img src=""stim_listB/marry1.gif""style=""height:400px;""></stim_listB>",,html-keyboard-response,103,500250,0.0-13.0-1.18,18345,List2B,white,woman,,,,null,,,,
null,is marrying,,html-keyboard-response,104,502253,0.0-13.0-2.18,18345,List2B,white,woman,,,,null,,,,
6190,,,survey-text,105,508444,0.0-13.0-3.18,18345,List2B,white,woman,,,,,"{""Q0"":""Ruth is marrying Dave""}","<img src=""stim_listB/marry1.gif""style=""height:400px;""></stim_listB>",is marrying,
null,"<div style=""font-size:60px;"">+</div>",,html-keyboard-response,106,508947,0.0-13.0-0.19,18345,List2B,white,woman,,,,null,,,,
null,"<img src=""stim_listB/argue2.gif""style=""height:400px;""></stim_listB>",,html-keyboard-response,107,510950,0.0-13.0-1.19,18345,List2B,white,woman,,,,null,,,,
null,are arguing with each other,,html-keyboard-response,108,512952,0.0-13.0-2.19,18345,List2B,white,woman,,,,null,,,,
11309,,,survey-text,109,524262,0.0-13.0-3.19,18345,List2B,white,woman,,,,,"{""Q0"":""Luke and Jane are arguing with each other""}","<img src=""stim_listB/argue2.gif""style=""height:400px;""></stim_listB>",are arguing with each other,
334604,"<img src='img/portrait_matrix_list2.jpg' style='width:900px;height:500px;''></img><p>If you have memorised all the portraits and names and are ready to start, press Continue.</p><p><strong>Please note: Your memory of these faces will be tested 4 times during this experiment.</strong></p>",0,html-button-response,110,858867,0.0-14.0-0.0,18345,List2B,white,woman,,,,,,,,
2224,"<img src=""portrait/WW1.jpg""style=""height:400px;""></img>",1,html-button-response,111,862093,0.0-14.0-1.0,18345,List2B,white,woman,,TRUE,1,,,,,
null,CORRECT,,html-keyboard-response,112,863600,0.0-14.0-2.0-0.0,18345,List2B,white,woman,,,,null,,,,
2044,"<img src=""portrait/BW2.jpg""style=""height:400px;""></img>",2,html-button-response,113,865645,0.0-14.0-4.0,18345,List2B,white,woman,,TRUE,2,,,,,
null,CORRECT,,html-keyboard-response,114,867150,0.0-14.0-5.0-0.0,18345,List2B,white,woman,,,,null,,,,
1556,"<img src=""portrait/WM1.jpg""style=""height:400px;""></img>",6,html-button-response,115,868707,0.0-14.0-7.0,18345,List2B,white,woman,,TRUE,6,,,,,
null,CORRECT,,html-keyboard-response,116,870211,0.0-14.0-8.0-0.0,18345,List2B,white,woman,,,,null,,,,
2716,"<img src=""portrait/BW1.jpg""style=""height:400px;""></img>",0,html-button-response,117,872929,0.0-14.0-10.0,18345,List2B,white,woman,,TRUE,0,,,,,
null,CORRECT,,html-keyboard-response,118,874433,0.0-14.0-11.0-0.0,18345,List2B,white,woman,,,,null,,,,
1353,"<img src=""portrait/BM2.jpg""style=""height:400px;""></img>",5,html-button-response,119,875787,0.0-14.0-13.0,18345,List2B,white,woman,,TRUE,5,,,,,
null,CORRECT,,html-keyboard-response,120,877291,0.0-14.0-14.0-0.0,18345,List2B,white,woman,,,,null,,,,
1589,"<img src=""portrait/WW2.jpg""style=""height:400px;""></img>",3,html-button-response,121,878881,0.0-14.0-16.0,18345,List2B,white,woman,,TRUE,3,,,,,
null,CORRECT,,html-keyboard-response,122,880385,0.0-14.0-17.0-0.0,18345,List2B,white,woman,,,,null,,,,
1774,"<img src=""portrait/BM1.jpg""style=""height:400px;""></img>",4,html-button-response,123,882159,0.0-14.0-19.0,18345,List2B,white,woman,,TRUE,4,,,,,
null,CORRECT,,html-keyboard-response,124,883663,0.0-14.0-20.0-0.0,18345,List2B,white,woman,,,,null,,,,
1269,"<img src=""portrait/WM2.jpg""style=""height:400px;""></img>",7,html-button-response,125,884933,0.0-14.0-22.0,18345,List2B,white,woman,,TRUE,7,,,,,
null,CORRECT,,html-keyboard-response,126,886437,0.0-14.0-23.0-0.0,18345,List2B,white,woman,,,,null,,,,
1188,<p>You got 8 out of 8 right first time. Press Continue.</p>,0,html-button-response,127,887627,0.0-14.0-25.0,18345,List2B,white,woman,,,,,,,,
null,"<div style=""font-size:60px;"">+</div>",,html-keyboard-response,128,889132,0.0-15.0-0.0,18345,List2B,white,woman,,,,null,,,,
null,"<img src=""stim_listB/marry6.gif""style=""height:400px;""></stim_listB>",,html-keyboard-response,129,891134,0.0-15.0-1.0,18345,List2B,white,woman,,,,null,,,,
null,are marrying each other,,html-keyboard-response,130,893137,0.0-15.0-2.0,18345,List2B,white,woman,,,,null,,,,
11945,,,survey-text,131,905083,0.0-15.0-3.0,18345,List2B,white,woman,,,,,"{""Q0"":""Luke and Mike are marrying each other""}","<img src=""stim_listB/marry6.gif""style=""height:400px;""></stim_listB>",are marrying each other,
null,"<div style=""font-size:60px;"">+</div>",,html-keyboard-response,132,905585,0.0-15.0-0.1,18345,List2B,white,woman,,,,null,,,,
null,"<img src=""stim_listB/flirt5.gif""style=""height:400px;""></stim_listB>",,html-keyboard-response,133,907588,0.0-15.0-1.1,18345,List2B,white,woman,,,,null,,,,
null,is flirting with,,html-keyboard-response,134,909591,0.0-15.0-2.1,18345,List2B,white,woman,,,,null,,,,
11932,,,survey-text,135,921524,0.0-15.0-3.1,18345,List2B,white,woman,,,,,"{""Q0"":""Mike is flirting with Luke""}","<img src=""stim_listB/flirt5.gif""style=""height:400px;""></stim_listB>",is flirting with,
null,"<div style=""font-size:60px;"">+</div>",,html-keyboard-response,136,922026,0.0-15.0-0.2,18345,List2B,white,woman,,,,null,,,,
null,"<img src=""stim_listB/fight4.gif""style=""height:400px;""></stim_listB>",,html-keyboard-response,137,924029,0.0-15.0-1.2,18345,List2B,white,woman,,,,null,,,,
null,are fighting each other,,html-keyboard-response,138,926031,0.0-15.0-2.2,18345,List2B,white,woman,,,,null,,,,
8232,,,survey-text,139,934265,0.0-15.0-3.2,18345,List2B,white,woman,,,,,"{""Q0"":""Fred and Beth are fighting each other""}","<img src=""stim_listB/fight4.gif""style=""height:400px;""></stim_listB>",are fighting each other,
null,"<div style=""font-size:60px;"">+</div>",,html-keyboard-response,140,934766,0.0-15.0-0.3,18345,List2B,white,woman,,,,null,,,,
null,"<img src=""stim_listB/marry4.gif""style=""height:400px;""></stim_listB>",,html-keyboard-response,141,936767,0.0-15.0-1.3,18345,List2B,white,woman,,,,null,,,,
null,are marrying each other,,html-keyboard-response,142,938770,0.0-15.0-2.3,18345,List2B,white,woman,,,,null,,,,
7009,,,survey-text,143,945781,0.0-15.0-3.3,18345,List2B,white,woman,,,,,"{""Q0"":""Fred and Kate are marrying each other""}","<img src=""stim_listB/marry4.gif""style=""height:400px;""></stim_listB>",are marrying each other,
null,"<div style=""font-size:60px;"">+</div>",,html-keyboard-response,144,946282,0.0-15.0-0.4,18345,List2B,white,woman,,,,null,,,,
null,"<img src=""stim_listB/kiss4.gif""style=""height:400px;""></stim_listB>",,html-keyboard-response,145,948286,0.0-15.0-1.4,18345,List2B,white,woman,,,,null,,,,
null,are kissing each other,,html-keyboard-response,146,950290,0.0-15.0-2.4,18345,List2B,white,woman,,,,null,,,,
10283,,,survey-text,147,960575,0.0-15.0-3.4,18345,List2B,white,woman,,,,,"{""Q0"":""Mike and Kate are kissing each other""}","<img src=""stim_listB/kiss4.gif""style=""height:400px;""></stim_listB>",are kissing each other,
null,"<div style=""font-size:60px;"">+</div>",,html-keyboard-response,148,961076,0.0-15.0-0.5,18345,List2B,white,woman,,,,null,,,,
null,"<img src=""stim_listB/shout1.gif""style=""height:400px;""></stim_listB>",,html-keyboard-response,149,963081,0.0-15.0-1.5,18345,List2B,white,woman,,,,null,,,,
null,is shouting at,,html-keyboard-response,150,965083,0.0-15.0-2.5,18345,List2B,white,woman,,,,null,,,,
8135,,,survey-text,151,973219,0.0-15.0-3.5,18345,List2B,white,woman,,,,,"{""Q0"":""Ruth is shouting at Luke""}","<img src=""stim_listB/shout1.gif""style=""height:400px;""></stim_listB>",is shouting at,
null,"<div style=""font-size:60px;"">+</div>",,html-keyboard-response,152,973720,0.0-15.0-0.6,18345,List2B,white,woman,,,,null,,,,
null,"<img src=""stim_listB/dance3.gif""style=""height:400px;""></stim_listB>",,html-keyboard-response,153,975724,0.0-15.0-1.6,18345,List2B,white,woman,,,,null,,,,
null,is dancing with,,html-keyboard-response,154,977726,0.0-15.0-2.6,18345,List2B,white,woman,,,,null,,,,
5924,,,survey-text,155,983651,0.0-15.0-3.6,18345,List2B,white,woman,,,,,"{""Q0"":""Kate is dancing with Fred""}","<img src=""stim_listB/dance3.gif""style=""height:400px;""></stim_listB>",is dancing with,
null,"<div style=""font-size:60px;"">+</div>",,html-keyboard-response,156,984152,0.0-15.0-0.7,18345,List2B,white,woman,,,,null,,,,
null,"<img src=""stim_listB/talk5.gif""style=""height:400px;""></stim_listB>",,html-keyboard-response,157,986156,0.0-15.0-1.7,18345,List2B,white,woman,,,,null,,,,
null,is talking to,,html-keyboard-response,158,988159,0.0-15.0-2.7,18345,List2B,white,woman,,,,null,,,,
5516,,,survey-text,159,993677,0.0-15.0-3.7,18345,List2B,white,woman,,,,,"{""Q0"":""Mike is talking to Luke""}","<img src=""stim_listB/talk5.gif""style=""height:400px;""></stim_listB>",is talking to,
null,"<div style=""font-size:60px;"">+</div>",,html-keyboard-response,160,994178,0.0-15.0-0.8,18345,List2B,white,woman,,,,null,,,,
null,"<img src=""stim_listB/shout8.gif""style=""height:400px;""></stim_listB>",,html-keyboard-response,161,996180,0.0-15.0-1.8,18345,List2B,white,woman,,,,null,,,,
null,are shouting at each other,,html-keyboard-response,162,998181,0.0-15.0-2.8,18345,List2B,white,woman,,,,null,,,,
10445,,,survey-text,163,1008627,0.0-15.0-3.8,18345,List2B,white,woman,,,,,"{""Q0"":""Jane and Kate are shouting at each other""}","<img src=""stim_listB/shout8.gif""style=""height:400px;""></stim_listB>",are shouting at each other,
null,"<div style=""font-size:60px;"">+</div>",,html-keyboard-response,164,1009128,0.0-15.0-0.9,18345,List2B,white,woman,,,,null,,,,
null,"<img src=""stim_listB/touch7.gif""style=""height:400px;""></stim_listB>",,html-keyboard-response,165,1011132,0.0-15.0-1.9,18345,List2B,white,woman,,,,null,,,,
null,is touching,,html-keyboard-response,166,1013134,0.0-15.0-2.9,18345,List2B,white,woman,,,,null,,,,
5682,,,survey-text,167,1018817,0.0-15.0-3.9,18345,List2B,white,woman,,,,,"{""Q0"":""Kate is touching Jane""}","<img src=""stim_listB/touch7.gif""style=""height:400px;""></stim_listB>",is touching,
null,"<div style=""font-size:60px;"">+</div>",,html-keyboard-response,168,1019319,0.0-15.0-0.10,18345,List2B,white,woman,,,,null,,,,
null,"<img src=""stim_listB/play3.gif""style=""height:400px;""></stim_listB>",,html-keyboard-response,169,1021323,0.0-15.0-1.10,18345,List2B,white,woman,,,,null,,,,
null,is playing with,,html-keyboard-response,170,1023325,0.0-15.0-2.10,18345,List2B,white,woman,,,,null,,,,
9127,,,survey-text,171,1032453,0.0-15.0-3.10,18345,List2B,white,woman,,,,,"{""Q0"":""Kate is playing with Mike""}","<img src=""stim_listB/play3.gif""style=""height:400px;""></stim_listB>",is playing with,
null,"<div style=""font-size:60px;"">+</div>",,html-keyboard-response,172,1032955,0.0-15.0-0.11,18345,List2B,white,woman,,,,null,,,,
null,"<img src=""stim_listB/play8.gif""style=""height:400px;""></stim_listB>",,html-keyboard-response,173,1034958,0.0-15.0-1.11,18345,List2B,white,woman,,,,null,,,,
null,are playing with each other,,html-keyboard-response,174,1036960,0.0-15.0-2.11,18345,List2B,white,woman,,,,null,,,,
11605,,,survey-text,175,1048567,0.0-15.0-3.11,18345,List2B,white,woman,,,,,"{""Q0"":""Ruth and Beth are playing with each other""}","<img src=""stim_listB/play8.gif""style=""height:400px;""></stim_listB>",are playing with each other,
null,"<div style=""font-size:60px;"">+</div>",,html-keyboard-response,176,1049068,0.0-15.0-0.12,18345,List2B,white,woman,,,,null,,,,
null,"<img src=""stim_listB/touch8.gif""style=""height:400px;""></stim_listB>",,html-keyboard-response,177,1051073,0.0-15.0-1.12,18345,List2B,white,woman,,,,null,,,,
null,are touching each other,,html-keyboard-response,178,1053075,0.0-15.0-2.12,18345,List2B,white,woman,,,,null,,,,
7964,,,survey-text,179,1061040,0.0-15.0-3.12,18345,List2B,white,woman,,,,,"{""Q0"":""Ruth and Beth are touching each other""}","<img src=""stim_listB/touch8.gif""style=""height:400px;""></stim_listB>",are touching each other,
null,"<div style=""font-size:60px;"">+</div>",,html-keyboard-response,180,1061543,0.0-15.0-0.13,18345,List2B,white,woman,,,,null,,,,
null,"<img src=""stim_listB/dance7.gif""style=""height:400px;""></stim_listB>",,html-keyboard-response,181,1063547,0.0-15.0-1.13,18345,List2B,white,woman,,,,null,,,,
null,is dancing with,,html-keyboard-response,182,1065549,0.0-15.0-2.13,18345,List2B,white,woman,,,,null,,,,
8502,,,survey-text,183,1074053,0.0-15.0-3.13,18345,List2B,white,woman,,,,,"{""Q0"":""Kate is dancing with Ruth""}","<img src=""stim_listB/dance7.gif""style=""height:400px;""></stim_listB>",is dancing with,
null,"<div style=""font-size:60px;"">+</div>",,html-keyboard-response,184,1074555,0.0-15.0-0.14,18345,List2B,white,woman,,,,null,,,,
null,"<img src=""stim_listB/argue1.gif""style=""height:400px;""></stim_listB>",,html-keyboard-response,185,1076559,0.0-15.0-1.14,18345,List2B,white,woman,,,,null,,,,
null,is arguing with,,html-keyboard-response,186,1078561,0.0-15.0-2.14,18345,List2B,white,woman,,,,null,,,,
7240,,,survey-text,187,1085803,0.0-15.0-3.14,18345,List2B,white,woman,,,,,"{""Q0"":""Ruth is arguing with Dave""}","<img src=""stim_listB/argue1.gif""style=""height:400px;""></stim_listB>",is arguing with,
null,"<div style=""font-size:60px;"">+</div>",,html-keyboard-response,188,1086304,0.0-15.0-0.15,18345,List2B,white,woman,,,,null,,,,
null,"<img src=""stim_listB/shout5.gif""style=""height:400px;""></stim_listB>",,html-keyboard-response,189,1088308,0.0-15.0-1.15,18345,List2B,white,woman,,,,null,,,,
null,is shouting at,,html-keyboard-response,190,1090311,0.0-15.0-2.15,18345,List2B,white,woman,,,,null,,,,
6928,,,survey-text,191,1097241,0.0-15.0-3.15,18345,List2B,white,woman,,,,,"{""Q0"":""Fred is shouting at Luke""}","<img src=""stim_listB/shout5.gif""style=""height:400px;""></stim_listB>",is shouting at,
null,"<div style=""font-size:60px;"">+</div>",,html-keyboard-response,192,1097743,0.0-15.0-0.16,18345,List2B,white,woman,,,,null,,,,
null,"<img src=""stim_listB/marry7.gif""style=""height:400px;""></stim_listB>",,html-keyboard-response,193,1099746,0.0-15.0-1.16,18345,List2B,white,woman,,,,null,,,,
null,is marrying,,html-keyboard-response,194,1101748,0.0-15.0-2.16,18345,List2B,white,woman,,,,null,,,,
5042,,,survey-text,195,1106793,0.0-15.0-3.16,18345,List2B,white,woman,,,,,"{""Q0"":""Beth is marrying Jane""}","<img src=""stim_listB/marry7.gif""style=""height:400px;""></stim_listB>",is marrying,
null,"<div style=""font-size:60px;"">+</div>",,html-keyboard-response,196,1107296,0.0-15.0-0.17,18345,List2B,white,woman,,,,null,,,,
null,"<img src=""stim_listB/touch4.gif""style=""height:400px;""></stim_listB>",,html-keyboard-response,197,1109300,0.0-15.0-1.17,18345,List2B,white,woman,,,,null,,,,
null,are touching each other,,html-keyboard-response,198,1111302,0.0-15.0-2.17,18345,List2B,white,woman,,,,null,,,,
9310,,,survey-text,199,1120613,0.0-15.0-3.17,18345,List2B,white,woman,,,,,"{""Q0"":""Fred and Beth are touching each other""}","<img src=""stim_listB/touch4.gif""style=""height:400px;""></stim_listB>",are touching each other,
null,"<div style=""font-size:60px;"">+</div>",,html-keyboard-response,200,1121114,0.0-15.0-0.18,18345,List2B,white,woman,,,,null,,,,
null,"<img src=""stim_listB/shout7.gif""style=""height:400px;""></stim_listB>",,html-keyboard-response,201,1123117,0.0-15.0-1.18,18345,List2B,white,woman,,,,null,,,,
null,is shouting at,,html-keyboard-response,202,1125120,0.0-15.0-2.18,18345,List2B,white,woman,,,,null,,,,
8027,,,survey-text,203,1133149,0.0-15.0-3.18,18345,List2B,white,woman,,,,,"{""Q0"":""Beth is shouting at Ruth""}","<img src=""stim_listB/shout7.gif""style=""height:400px;""></stim_listB>",is shouting at,
null,"<div style=""font-size:60px;"">+</div>",,html-keyboard-response,204,1133650,0.0-15.0-0.19,18345,List2B,white,woman,,,,null,,,,
null,"<img src=""stim_listB/touch5.gif""style=""height:400px;""></stim_listB>",,html-keyboard-response,205,1135654,0.0-15.0-1.19,18345,List2B,white,woman,,,,null,,,,
null,is touching,,html-keyboard-response,206,1137656,0.0-15.0-2.19,18345,List2B,white,woman,,,,null,,,,
4965,,,survey-text,207,1142623,0.0-15.0-3.19,18345,List2B,white,woman,,,,,"{""Q0"":""Mike is touching Dave""}","<img src=""stim_listB/touch5.gif""style=""height:400px;""></stim_listB>",is touching,
4003,"<img src='img/portrait_matrix_list2.jpg' style='width:900px;height:500px;''></img><p>If you have memorised all the portraits and names and are ready to start, press Continue.</p><p><strong>Please note: Your memory of these faces will be tested 4 times during this experiment.</strong></p>",0,html-button-response,208,1146627,0.0-16.0-0.0,18345,List2B,white,woman,,,,,,,,
1575,"<img src=""portrait/WM1.jpg""style=""height:400px;""></img>",6,html-button-response,209,1149205,0.0-16.0-1.0,18345,List2B,white,woman,,TRUE,6,,,,,
null,CORRECT,,html-keyboard-response,210,1150710,0.0-16.0-2.0-0.0,18345,List2B,white,woman,,,,null,,,,
2068,"<img src=""portrait/BW2.jpg""style=""height:400px;""></img>",2,html-button-response,211,1152781,0.0-16.0-4.0,18345,List2B,white,woman,,TRUE,2,,,,,
null,CORRECT,,html-keyboard-response,212,1154286,0.0-16.0-5.0-0.0,18345,List2B,white,woman,,,,null,,,,
1268,"<img src=""portrait/WW2.jpg""style=""height:400px;""></img>",3,html-button-response,213,1155555,0.0-16.0-7.0,18345,List2B,white,woman,,TRUE,3,,,,,
null,CORRECT,,html-keyboard-response,214,1157059,0.0-16.0-8.0-0.0,18345,List2B,white,woman,,,,null,,,,
1096,"<img src=""portrait/WM2.jpg""style=""height:400px;""></img>",7,html-button-response,215,1158157,0.0-16.0-10.0,18345,List2B,white,woman,,TRUE,7,,,,,
null,CORRECT,,html-keyboard-response,216,1159661,0.0-16.0-11.0-0.0,18345,List2B,white,woman,,,,null,,,,
1438,"<img src=""portrait/BW1.jpg""style=""height:400px;""></img>",0,html-button-response,217,1161101,0.0-16.0-13.0,18345,List2B,white,woman,,TRUE,0,,,,,
null,CORRECT,,html-keyboard-response,218,1162607,0.0-16.0-14.0-0.0,18345,List2B,white,woman,,,,null,,,,
1491,"<img src=""portrait/BM2.jpg""style=""height:400px;""></img>",5,html-button-response,219,1164101,0.0-16.0-16.0,18345,List2B,white,woman,,TRUE,5,,,,,
null,CORRECT,,html-keyboard-response,220,1165606,0.0-16.0-17.0-0.0,18345,List2B,white,woman,,,,null,,,,
1560,"<img src=""portrait/BM1.jpg""style=""height:400px;""></img>",4,html-button-response,221,1167169,0.0-16.0-19.0,18345,List2B,white,woman,,TRUE,4,,,,,
null,CORRECT,,html-keyboard-response,222,1168671,0.0-16.0-20.0-0.0,18345,List2B,white,woman,,,,null,,,,
2103,"<img src=""portrait/WW1.jpg""style=""height:400px;""></img>",1,html-button-response,223,1170777,0.0-16.0-22.0,18345,List2B,white,woman,,TRUE,1,,,,,
null,CORRECT,,html-keyboard-response,224,1172280,0.0-16.0-23.0-0.0,18345,List2B,white,woman,,,,null,,,,
1430,<p>You got 8 out of 8 right first time. Press Continue.</p>,0,html-button-response,225,1173713,0.0-16.0-25.0,18345,List2B,white,woman,,,,,,,,
null,"<div style=""font-size:60px;"">+</div>",,html-keyboard-response,226,1175217,0.0-17.0-0.0,18345,List2B,white,woman,,,,null,,,,
null,"<img src=""stim_listB/flirt7.gif""style=""height:400px;""></stim_listB>",,html-keyboard-response,227,1177220,0.0-17.0-1.0,18345,List2B,white,woman,,,,null,,,,
null,is flirting with,,html-keyboard-response,228,1179223,0.0-17.0-2.0,18345,List2B,white,woman,,,,null,,,,
7405,,,survey-text,229,1186629,0.0-17.0-3.0,18345,List2B,white,woman,,,,,"{""Q0"":""Kate is flirting with Ruth""}","<img src=""stim_listB/flirt7.gif""style=""height:400px;""></stim_listB>",is flirting with,
null,"<div style=""font-size:60px;"">+</div>",,html-keyboard-response,230,1187131,0.0-17.0-0.1,18345,List2B,white,woman,,,,null,,,,
null,"<img src=""stim_listB/fight8.gif""style=""height:400px;""></stim_listB>",,html-keyboard-response,231,1189134,0.0-17.0-1.1,18345,List2B,white,woman,,,,null,,,,
null,are fighting each other,,html-keyboard-response,232,1191136,0.0-17.0-2.1,18345,List2B,white,woman,,,,null,,,,
12075,,,survey-text,233,1203213,0.0-17.0-3.1,18345,List2B,white,woman,,,,,"{""Q0"":""Ruth and Beth are fighting each other""}","<img src=""stim_listB/fight8.gif""style=""height:400px;""></stim_listB>",are fighting each other,
null,"<div style=""font-size:60px;"">+</div>",,html-keyboard-response,234,1203714,0.0-17.0-0.2,18345,List2B,white,woman,,,,null,,,,
null,"<img src=""stim_listB/talk7.gif""style=""height:400px;""></stim_listB>",,html-keyboard-response,235,1205718,0.0-17.0-1.2,18345,List2B,white,woman,,,,null,,,,
null,is talking to,,html-keyboard-response,236,1207719,0.0-17.0-2.2,18345,List2B,white,woman,,,,null,,,,
6066,,,survey-text,237,1213787,0.0-17.0-3.2,18345,List2B,white,woman,,,,,"{""Q0"":""Kate is talking to Ruth""}","<img src=""stim_listB/talk7.gif""style=""height:400px;""></stim_listB>",is talking to,
null,"<div style=""font-size:60px;"">+</div>",,html-keyboard-response,238,1214290,0.0-17.0-0.3,18345,List2B,white,woman,,,,null,,,,
null,"<img src=""stim_listB/flirt1.gif""style=""height:400px;""></stim_listB>",,html-keyboard-response,239,1216294,0.0-17.0-1.3,18345,List2B,white,woman,,,,null,,,,
null,is flirting with,,html-keyboard-response,240,1218297,0.0-17.0-2.3,18345,List2B,white,woman,,,,null,,,,
9730,,,survey-text,241,1228029,0.0-17.0-3.3,18345,List2B,white,woman,,,,,"{""Q0"":""jane is flirting with Luke""}","<img src=""stim_listB/flirt1.gif""style=""height:400px;""></stim_listB>",is flirting with,
null,"<div style=""font-size:60px;"">+</div>",,html-keyboard-response,242,1228531,0.0-17.0-0.4,18345,List2B,white,woman,,,,null,,,,
null,"<img src=""stim_listB/touch6.gif""style=""height:400px;""></stim_listB>",,html-keyboard-response,243,1230534,0.0-17.0-1.4,18345,List2B,white,woman,,,,null,,,,
null,are touching each other,,html-keyboard-response,244,1232535,0.0-17.0-2.4,18345,List2B,white,woman,,,,null,,,,
11203,,,survey-text,245,1243739,0.0-17.0-3.4,18345,List2B,white,woman,,,,,"{""Q0"":""Luke and Fred are touching each other""}","<img src=""stim_listB/touch6.gif""style=""height:400px;""></stim_listB>",are touching each other,
null,"<div style=""font-size:60px;"">+</div>",,html-keyboard-response,246,1244240,0.0-17.0-0.5,18345,List2B,white,woman,,,,null,,,,
null,"<img src=""stim_listB/touch3.gif""style=""height:400px;""></stim_listB>",,html-keyboard-response,247,1246244,0.0-17.0-1.5,18345,List2B,white,woman,,,,null,,,,
null,is touching,,html-keyboard-response,248,1248246,0.0-17.0-2.5,18345,List2B,white,woman,,,,null,,,,
6820,,,survey-text,249,1255067,0.0-17.0-3.5,18345,List2B,white,woman,,,,,"{""Q0"":""Kate is touching Mike""}","<img src=""stim_listB/touch3.gif""style=""height:400px;""></stim_listB>",is touching,
null,"<div style=""font-size:60px;"">+</div>",,html-keyboard-response,250,1255568,0.0-17.0-0.6,18345,List2B,white,woman,,,,null,,,,
null,"<img src=""stim_listB/kiss1.gif""style=""height:400px;""></stim_listB>",,html-keyboard-response,251,1257572,0.0-17.0-1.6,18345,List2B,white,woman,,,,null,,,,
null,is kissing,,html-keyboard-response,252,1259574,0.0-17.0-2.6,18345,List2B,white,woman,,,,null,,,,
5496,,,survey-text,253,1265071,0.0-17.0-3.6,18345,List2B,white,woman,,,,,"{""Q0"":""Ruth is kissing Luke""}","<img src=""stim_listB/kiss1.gif""style=""height:400px;""></stim_listB>",is kissing,
null,"<div style=""font-size:60px;"">+</div>",,html-keyboard-response,254,1265573,0.0-17.0-0.7,18345,List2B,white,woman,,,,null,,,,
null,"<img src=""stim_listB/marry8.gif""style=""height:400px;""></stim_listB>",,html-keyboard-response,255,1267576,0.0-17.0-1.7,18345,List2B,white,woman,,,,null,,,,
null,are marrying each other,,html-keyboard-response,256,1269578,0.0-17.0-2.7,18345,List2B,white,woman,,,,null,,,,
7818,,,survey-text,257,1277397,0.0-17.0-3.7,18345,List2B,white,woman,,,,,"{""Q0"":""Ruth and Kate are marrying each other""}","<img src=""stim_listB/marry8.gif""style=""height:400px;""></stim_listB>",are marrying each other,
null,"<div style=""font-size:60px;"">+</div>",,html-keyboard-response,258,1277899,0.0-17.0-0.8,18345,List2B,white,woman,,,,null,,,,
null,"<img src=""stim_listB/play1.gif""style=""height:400px;""></stim_listB>",,html-keyboard-response,259,1279903,0.0-17.0-1.8,18345,List2B,white,woman,,,,null,,,,
null,is playing with,,html-keyboard-response,260,1281907,0.0-17.0-2.8,18345,List2B,white,woman,,,,null,,,,
8149,,,survey-text,261,1290057,0.0-17.0-3.8,18345,List2B,white,woman,,,,,"{""Q0"":""Jane is playing with Dave""}","<img src=""stim_listB/play1.gif""style=""height:400px;""></stim_listB>",is playing with,
null,"<div style=""font-size:60px;"">+</div>",,html-keyboard-response,262,1290559,0.0-17.0-0.9,18345,List2B,white,woman,,,,null,,,,
null,"<img src=""stim_listB/argue3.gif""style=""height:400px;""></stim_listB>",,html-keyboard-response,263,1292562,0.0-17.0-1.9,18345,List2B,white,woman,,,,null,,,,
null,is arguing with,,html-keyboard-response,264,1294563,0.0-17.0-2.9,18345,List2B,white,woman,,,,null,,,,
6807,,,survey-text,265,1301371,0.0-17.0-3.9,18345,List2B,white,woman,,,,,"{""Q0"":""Beth is arguing with Mike""}","<img src=""stim_listB/argue3.gif""style=""height:400px;""></stim_listB>",is arguing with,
null,"<div style=""font-size:60px;"">+</div>",,html-keyboard-response,266,1301874,0.0-17.0-0.10,18345,List2B,white,woman,,,,null,,,,
null,"<img src=""stim_listB/marry3.gif""style=""height:400px;""></stim_listB>",,html-keyboard-response,267,1303876,0.0-17.0-1.10,18345,List2B,white,woman,,,,null,,,,
null,is marrying,,html-keyboard-response,268,1305878,0.0-17.0-2.10,18345,List2B,white,woman,,,,null,,,,
5622,,,survey-text,269,1311501,0.0-17.0-3.10,18345,List2B,white,woman,,,,,"{""Q0"":""Beth is marrying Mike""}","<img src=""stim_listB/marry3.gif""style=""height:400px;""></stim_listB>",is marrying,
null,"<div style=""font-size:60px;"">+</div>",,html-keyboard-response,270,1312003,0.0-17.0-0.11,18345,List2B,white,woman,,,,null,,,,
null,"<img src=""stim_listB/flirt6.gif""style=""height:400px;""></stim_listB>",,html-keyboard-response,271,1314005,0.0-17.0-1.11,18345,List2B,white,woman,,,,null,,,,
null,are flirting with each other,,html-keyboard-response,272,1316007,0.0-17.0-2.11,18345,List2B,white,woman,,,,null,,,,
8574,,,survey-text,273,1324584,0.0-17.0-3.11,18345,List2B,white,woman,,,,,"{""Q0"":""Dave and Fred are flirting with each other""}","<img src=""stim_listB/flirt6.gif""style=""height:400px;""></stim_listB>",are flirting with each other,
null,"<div style=""font-size:60px;"">+</div>",,html-keyboard-response,274,1325085,0.0-17.0-0.12,18345,List2B,white,woman,,,,null,,,,
null,"<img src=""stim_listB/kiss6.gif""style=""height:400px;""></stim_listB>",,html-keyboard-response,275,1327088,0.0-17.0-1.12,18345,List2B,white,woman,,,,null,,,,
null,are kissing each other,,html-keyboard-response,276,1329090,0.0-17.0-2.12,18345,List2B,white,woman,,,,null,,,,
12478,,,survey-text,277,1341569,0.0-17.0-3.12,18345,List2B,white,woman,,,,,"{""Q0"":""Dave and Mike are kissing each other""}","<img src=""stim_listB/kiss6.gif""style=""height:400px;""></stim_listB>",are kissing each other,
null,"<div style=""font-size:60px;"">+</div>",,html-keyboard-response,278,1342072,0.0-17.0-0.13,18345,List2B,white,woman,,,,null,,,,
null,"<img src=""stim_listB/kiss7.gif""style=""height:400px;""></stim_listB>",,html-keyboard-response,279,1344076,0.0-17.0-1.13,18345,List2B,white,woman,,,,null,,,,
null,is kissing,,html-keyboard-response,280,1346079,0.0-17.0-2.13,18345,List2B,white,woman,,,,null,,,,
7027,,,survey-text,281,1353107,0.0-17.0-3.13,18345,List2B,white,woman,,,,,"{""Q0"":""Beth is kissing Ruth""}","<img src=""stim_listB/kiss7.gif""style=""height:400px;""></stim_listB>",is kissing,
null,"<div style=""font-size:60px;"">+</div>",,html-keyboard-response,282,1353609,0.0-17.0-0.14,18345,List2B,white,woman,,,,null,,,,
null,"<img src=""stim_listB/shout4.gif""style=""height:400px;""></stim_listB>",,html-keyboard-response,283,1355612,0.0-17.0-1.14,18345,List2B,white,woman,,,,null,,,,
null,are shouting at each other,,html-keyboard-response,284,1357613,0.0-17.0-2.14,18345,List2B,white,woman,,,,null,,,,
8831,,,survey-text,285,1366445,0.0-17.0-3.14,18345,List2B,white,woman,,,,,"{""Q0"":""Mike and Kate are shouting at each other""}","<img src=""stim_listB/shout4.gif""style=""height:400px;""></stim_listB>",are shouting at each other,
null,"<div style=""font-size:60px;"">+</div>",,html-keyboard-response,286,1366947,0.0-17.0-0.15,18345,List2B,white,woman,,,,null,,,,
null,"<img src=""stim_listB/touch1.gif""style=""height:400px;""></stim_listB>",,html-keyboard-response,287,1368950,0.0-17.0-1.15,18345,List2B,white,woman,,,,null,,,,
null,is touching,,html-keyboard-response,288,1370952,0.0-17.0-2.15,18345,List2B,white,woman,,,,null,,,,
9126,,,survey-text,289,1380079,0.0-17.0-3.15,18345,List2B,white,woman,,,,,"{""Q0"":""Jane is touching Dave""}","<img src=""stim_listB/touch1.gif""style=""height:400px;""></stim_listB>",is touching,
null,"<div style=""font-size:60px;"">+</div>",,html-keyboard-response,290,1380581,0.0-17.0-0.16,18345,List2B,white,woman,,,,null,,,,
null,"<img src=""stim_listB/fight5.gif""style=""height:400px;""></stim_listB>",,html-keyboard-response,291,1382585,0.0-17.0-1.16,18345,List2B,white,woman,,,,null,,,,
null,is fighting,,html-keyboard-response,292,1384588,0.0-17.0-2.16,18345,List2B,white,woman,,,,null,,,,
5168,,,survey-text,293,1389757,0.0-17.0-3.16,18345,List2B,white,woman,,,,,"{""Q0"":""Mike is fighting Dave""}","<img src=""stim_listB/fight5.gif""style=""height:400px;""></stim_listB>",is fighting,
null,"<div style=""font-size:60px;"">+</div>",,html-keyboard-response,294,1390258,0.0-17.0-0.17,18345,List2B,white,woman,,,,null,,,,
null,"<img src=""stim_listB/talk3.gif""style=""height:400px;""></stim_listB>",,html-keyboard-response,295,1392262,0.0-17.0-1.17,18345,List2B,white,woman,,,,null,,,,
null,is talking to,,html-keyboard-response,296,1394265,0.0-17.0-2.17,18345,List2B,white,woman,,,,null,,,,
6196,,,survey-text,297,1400461,0.0-17.0-3.17,18345,List2B,white,woman,,,,,"{""Q0"":""Kate is talking to Fred""}","<img src=""stim_listB/talk3.gif""style=""height:400px;""></stim_listB>",is talking to,
null,"<div style=""font-size:60px;"">+</div>",,html-keyboard-response,298,1400963,0.0-17.0-0.18,18345,List2B,white,woman,,,,null,,,,
null,"<img src=""stim_listB/dance5.gif""style=""height:400px;""></stim_listB>",,html-keyboard-response,299,1402967,0.0-17.0-1.18,18345,List2B,white,woman,,,,null,,,,
null,is dancing with,,html-keyboard-response,300,1404968,0.0-17.0-2.18,18345,List2B,white,woman,,,,null,,,,
5506,,,survey-text,301,1410475,0.0-17.0-3.18,18345,List2B,white,woman,,,,,"{""Q0"":""Mike is dancing with Luke""}","<img src=""stim_listB/dance5.gif""style=""height:400px;""></stim_listB>",is dancing with,
null,"<div style=""font-size:60px;"">+</div>",,html-keyboard-response,302,1410977,0.0-17.0-0.19,18345,List2B,white,woman,,,,null,,,,
null,"<img src=""stim_listB/talk2.gif""style=""height:400px;""></stim_listB>",,html-keyboard-response,303,1412979,0.0-17.0-1.19,18345,List2B,white,woman,,,,null,,,,
null,are talking to each other,,html-keyboard-response,304,1414981,0.0-17.0-2.19,18345,List2B,white,woman,,,,null,,,,
7779,,,survey-text,305,1422761,0.0-17.0-3.19,18345,List2B,white,woman,,,,,"{""Q0"":""Dave and Ruth are talking to each other""}","<img src=""stim_listB/talk2.gif""style=""height:400px;""></stim_listB>",are talking to each other,
1885,"<img src='img/portrait_matrix_list2.jpg' style='width:900px;height:500px;''></img><p>If you have memorised all the portraits and names and are ready to start, press Continue.</p><p><strong>Please note: Your memory of these faces will be tested 4 times during this experiment.</strong></p>",0,html-button-response,306,1424647,0.0-18.0-0.0,18345,List2B,white,woman,,,,,,,,
2463,"<img src=""portrait/WW2.jpg""style=""height:400px;""></img>",3,html-button-response,307,1428113,0.0-18.0-1.0,18345,List2B,white,woman,,TRUE,3,,,,,
null,CORRECT,,html-keyboard-response,308,1429618,0.0-18.0-2.0-0.0,18345,List2B,white,woman,,,,null,,,,
1416,"<img src=""portrait/WW1.jpg""style=""height:400px;""></img>",1,html-button-response,309,1431035,0.0-18.0-4.0,18345,List2B,white,woman,,TRUE,1,,,,,
null,CORRECT,,html-keyboard-response,310,1432541,0.0-18.0-5.0-0.0,18345,List2B,white,woman,,,,null,,,,
1197,"<img src=""portrait/BM1.jpg""style=""height:400px;""></img>",4,html-button-response,311,1433739,0.0-18.0-7.0,18345,List2B,white,woman,,TRUE,4,,,,,
null,CORRECT,,html-keyboard-response,312,1435243,0.0-18.0-8.0-0.0,18345,List2B,white,woman,,,,null,,,,
948,"<img src=""portrait/WM2.jpg""style=""height:400px;""></img>",7,html-button-response,313,1436193,0.0-18.0-10.0,18345,List2B,white,woman,,TRUE,7,,,,,
null,CORRECT,,html-keyboard-response,314,1437697,0.0-18.0-11.0-0.0,18345,List2B,white,woman,,,,null,,,,
1550,"<img src=""portrait/BW2.jpg""style=""height:400px;""></img>",2,html-button-response,315,1439250,0.0-18.0-13.0,18345,List2B,white,woman,,TRUE,2,,,,,
null,CORRECT,,html-keyboard-response,316,1440753,0.0-18.0-14.0-0.0,18345,List2B,white,woman,,,,null,,,,
1338,"<img src=""portrait/BW1.jpg""style=""height:400px;""></img>",0,html-button-response,317,1442093,0.0-18.0-16.0,18345,List2B,white,woman,,TRUE,0,,,,,
null,CORRECT,,html-keyboard-response,318,1443597,0.0-18.0-17.0-0.0,18345,List2B,white,woman,,,,null,,,,
1159,"<img src=""portrait/WM1.jpg""style=""height:400px;""></img>",6,html-button-response,319,1444758,0.0-18.0-19.0,18345,List2B,white,woman,,TRUE,6,,,,,
null,CORRECT,,html-keyboard-response,320,1446260,0.0-18.0-20.0-0.0,18345,List2B,white,woman,,,,null,,,,
1589,"<img src=""portrait/BM2.jpg""style=""height:400px;""></img>",5,html-button-response,321,1447851,0.0-18.0-22.0,18345,List2B,white,woman,,TRUE,5,,,,,
null,CORRECT,,html-keyboard-response,322,1449354,0.0-18.0-23.0-0.0,18345,List2B,white,woman,,,,null,,,,
1159,<p>You got 8 out of 8 right first time. Press Continue.</p>,0,html-button-response,323,1450515,0.0-18.0-25.0,18345,List2B,white,woman,,,,,,,,
null,"<div style=""font-size:60px;"">+</div>",,html-keyboard-response,324,1452020,0.0-19.0-0.0,18345,List2B,white,woman,,,,null,,,,
null,"<img src=""stim_listB/play4.gif""style=""height:400px;""></stim_listB>",,html-keyboard-response,325,1454024,0.0-19.0-1.0,18345,List2B,white,woman,,,,null,,,,
null,are playing with each other,,html-keyboard-response,326,1456026,0.0-19.0-2.0,18345,List2B,white,woman,,,,null,,,,
8026,,,survey-text,327,1464053,0.0-19.0-3.0,18345,List2B,white,woman,,,,,"{""Q0"":""Fred and Beth are playing with each other""}","<img src=""stim_listB/play4.gif""style=""height:400px;""></stim_listB>",are playing with each other,
null,"<div style=""font-size:60px;"">+</div>",,html-keyboard-response,328,1464556,0.0-19.0-0.1,18345,List2B,white,woman,,,,null,,,,
null,"<img src=""stim_listB/flirt8.gif""style=""height:400px;""></stim_listB>",,html-keyboard-response,329,1466562,0.0-19.0-1.1,18345,List2B,white,woman,,,,null,,,,
null,are flirting with each other,,html-keyboard-response,330,1468565,0.0-19.0-2.1,18345,List2B,white,woman,,,,null,,,,
15491,,,survey-text,331,1484057,0.0-19.0-3.1,18345,List2B,white,woman,,,,,"{""Q0"":""Jane and Beth are flirting with each other""}","<img src=""stim_listB/flirt8.gif""style=""height:400px;""></stim_listB>",are flirting with each other,
null,"<div style=""font-size:60px;"">+</div>",,html-keyboard-response,332,1484560,0.0-19.0-0.2,18345,List2B,white,woman,,,,null,,,,
null,"<img src=""stim_listB/flirt2.gif""style=""height:400px;""></stim_listB>",,html-keyboard-response,333,1486564,0.0-19.0-1.2,18345,List2B,white,woman,,,,null,,,,
null,are flirting with each other,,html-keyboard-response,334,1488566,0.0-19.0-2.2,18345,List2B,white,woman,,,,null,,,,
12504,,,survey-text,335,1501071,0.0-19.0-3.2,18345,List2B,white,woman,,,,,"{""Q0"":""Dave and Ruth are flirting with each other""}","<img src=""stim_listB/flirt2.gif""style=""height:400px;""></stim_listB>",are flirting with each other,
null,"<div style=""font-size:60px;"">+</div>",,html-keyboard-response,336,1501573,0.0-19.0-0.3,18345,List2B,white,woman,,,,null,,,,
null,"<img src=""stim_listB/dance2.gif""style=""height:400px;""></stim_listB>",,html-keyboard-response,337,1503577,0.0-19.0-1.3,18345,List2B,white,woman,,,,null,,,,
null,are dancing with each other,,html-keyboard-response,338,1505580,0.0-19.0-2.3,18345,List2B,white,woman,,,,null,,,,
13646,,,survey-text,339,1519227,0.0-19.0-3.3,18345,List2B,white,woman,,,,,"{""Q0"":""Dave and Ruth are dancing with each other""}","<img src=""stim_listB/dance2.gif""style=""height:400px;""></stim_listB>",are dancing with each other,
null,"<div style=""font-size:60px;"">+</div>",,html-keyboard-response,340,1519729,0.0-19.0-0.4,18345,List2B,white,woman,,,,null,,,,
null,"<img src=""stim_listB/fight1.gif""style=""height:400px;""></stim_listB>",,html-keyboard-response,341,1521732,0.0-19.0-1.4,18345,List2B,white,woman,,,,null,,,,
null,is fighting,,html-keyboard-response,342,1523735,0.0-19.0-2.4,18345,List2B,white,woman,,,,null,,,,
6543,,,survey-text,343,1530280,0.0-19.0-3.4,18345,List2B,white,woman,,,,,"{""Q0"":""Jane is fighting Dave""}","<img src=""stim_listB/fight1.gif""style=""height:400px;""></stim_listB>",is fighting,
null,"<div style=""font-size:60px;"">+</div>",,html-keyboard-response,344,1530782,0.0-19.0-0.5,18345,List2B,white,woman,,,,null,,,,
null,"<img src=""stim_listB/argue4.gif""style=""height:400px;""></stim_listB>",,html-keyboard-response,345,1532786,0.0-19.0-1.5,18345,List2B,white,woman,,,,null,,,,
null,are arguing with each other,,html-keyboard-response,346,1534788,0.0-19.0-2.5,18345,List2B,white,woman,,,,null,,,,
16850,,,survey-text,347,1551639,0.0-19.0-3.5,18345,List2B,white,woman,,,,,"{""Q0"":""Fred and Kate are arguing with each other""}","<img src=""stim_listB/argue4.gif""style=""height:400px;""></stim_listB>",are arguing with each other,
null,"<div style=""font-size:60px;"">+</div>",,html-keyboard-response,348,1552140,0.0-19.0-0.6,18345,List2B,white,woman,,,,null,,,,
null,"<img src=""stim_listB/flirt3.gif""style=""height:400px;""></stim_listB>",,html-keyboard-response,349,1554144,0.0-19.0-1.6,18345,List2B,white,woman,,,,null,,,,
null,is flirting with,,html-keyboard-response,350,1556147,0.0-19.0-2.6,18345,List2B,white,woman,,,,null,,,,
8647,,,survey-text,351,1564795,0.0-19.0-3.6,18345,List2B,white,woman,,,,,"{""Q0"":""Kate is flirting with Fred""}","<img src=""stim_listB/flirt3.gif""style=""height:400px;""></stim_listB>",is flirting with,
null,"<div style=""font-size:60px;"">+</div>",,html-keyboard-response,352,1565296,0.0-19.0-0.7,18345,List2B,white,woman,,,,null,,,,
null,"<img src=""stim_listB/dance6.gif""style=""height:400px;""></stim_listB>",,html-keyboard-response,353,1567299,0.0-19.0-1.7,18345,List2B,white,woman,,,,null,,,,
null,are dancing with each other,,html-keyboard-response,354,1569300,0.0-19.0-2.7,18345,List2B,white,woman,,,,null,,,,
8922,,,survey-text,355,1578223,0.0-19.0-3.7,18345,List2B,white,woman,,,,,"{""Q0"":""Dave and Fred are dancing with each other""}","<img src=""stim_listB/dance6.gif""style=""height:400px;""></stim_listB>",are dancing with each other,
null,"<div style=""font-size:60px;"">+</div>",,html-keyboard-response,356,1578724,0.0-19.0-0.8,18345,List2B,white,woman,,,,null,,,,
null,"<img src=""stim_listB/argue8.gif""style=""height:400px;""></stim_listB>",,html-keyboard-response,357,1580728,0.0-19.0-1.8,18345,List2B,white,woman,,,,null,,,,
null,are arguing with each other,,html-keyboard-response,358,1582730,0.0-19.0-2.8,18345,List2B,white,woman,,,,null,,,,
19665,,,survey-text,359,1602397,0.0-19.0-3.8,18345,List2B,white,woman,,,,,"{""Q0"":""Ruth and Kate are arguing with each other""}","<img src=""stim_listB/argue8.gif""style=""height:400px;""></stim_listB>",are arguing with each other,
null,"<div style=""font-size:60px;"">+</div>",,html-keyboard-response,360,1602898,0.0-19.0-0.9,18345,List2B,white,woman,,,,null,,,,
null,"<img src=""stim_listB/shout3.gif""style=""height:400px;""></stim_listB>",,html-keyboard-response,361,1604900,0.0-19.0-1.9,18345,List2B,white,woman,,,,null,,,,
null,is shouting at,,html-keyboard-response,362,1606902,0.0-19.0-2.9,18345,List2B,white,woman,,,,null,,,,
5875,,,survey-text,363,1612778,0.0-19.0-3.9,18345,List2B,white,woman,,,,,"{""Q0"":""Beth is shouting at Fred""}","<img src=""stim_listB/shout3.gif""style=""height:400px;""></stim_listB>",is shouting at,
null,"<div style=""font-size:60px;"">+</div>",,html-keyboard-response,364,1613279,0.0-19.0-0.10,18345,List2B,white,woman,,,,null,,,,
null,"<img src=""stim_listB/dance4.gif""style=""height:400px;""></stim_listB>",,html-keyboard-response,365,1615282,0.0-19.0-1.10,18345,List2B,white,woman,,,,null,,,,
null,are dancing with each other,,html-keyboard-response,366,1617284,0.0-19.0-2.10,18345,List2B,white,woman,,,,null,,,,
10668,,,survey-text,367,1627954,0.0-19.0-3.10,18345,List2B,white,woman,,,,,"{""Q0"":""Mike and Beth are dancing with each other""}","<img src=""stim_listB/dance4.gif""style=""height:400px;""></stim_listB>",are dancing with each other,
null,"<div style=""font-size:60px;"">+</div>",,html-keyboard-response,368,1628456,0.0-19.0-0.11,18345,List2B,white,woman,,,,null,,,,
null,"<img src=""stim_listB/dance8.gif""style=""height:400px;""></stim_listB>",,html-keyboard-response,369,1630459,0.0-19.0-1.11,18345,List2B,white,woman,,,,null,,,,
null,are dancing with each other,,html-keyboard-response,370,1632463,0.0-19.0-2.11,18345,List2B,white,woman,,,,null,,,,
9331,,,survey-text,371,1641795,0.0-19.0-3.11,18345,List2B,white,woman,,,,,"{""Q0"":""Jane and Beth are dancing with each other""}","<img src=""stim_listB/dance8.gif""style=""height:400px;""></stim_listB>",are dancing with each other,
null,"<div style=""font-size:60px;"">+</div>",,html-keyboard-response,372,1642297,0.0-19.0-0.12,18345,List2B,white,woman,,,,null,,,,
null,"<img src=""stim_listB/kiss5.gif""style=""height:400px;""></stim_listB>",,html-keyboard-response,373,1644300,0.0-19.0-1.12,18345,List2B,white,woman,,,,null,,,,
null,is kissing,,html-keyboard-response,374,1646303,0.0-19.0-2.12,18345,List2B,white,woman,,,,null,,,,
5593,,,survey-text,375,1651898,0.0-19.0-3.12,18345,List2B,white,woman,,,,,"{""Q0"":""Fred is kissing Luke""}","<img src=""stim_listB/kiss5.gif""style=""height:400px;""></stim_listB>",is kissing,
null,"<div style=""font-size:60px;"">+</div>",,html-keyboard-response,376,1652399,0.0-19.0-0.13,18345,List2B,white,woman,,,,null,,,,
null,"<img src=""stim_listB/dance1.gif""style=""height:400px;""></stim_listB>",,html-keyboard-response,377,1654401,0.0-19.0-1.13,18345,List2B,white,woman,,,,null,,,,
null,is dancing with,,html-keyboard-response,378,1656404,0.0-19.0-2.13,18345,List2B,white,woman,,,,null,,,,
8745,,,survey-text,379,1665150,0.0-19.0-3.13,18345,List2B,white,woman,,,,,"{""Q0"":""Jane is dancing with Luke""}","<img src=""stim_listB/dance1.gif""style=""height:400px;""></stim_listB>",is dancing with,
null,"<div style=""font-size:60px;"">+</div>",,html-keyboard-response,380,1665652,0.0-19.0-0.14,18345,List2B,white,woman,,,,null,,,,
null,"<img src=""stim_listB/play7.gif""style=""height:400px;""></stim_listB>",,html-keyboard-response,381,1667654,0.0-19.0-1.14,18345,List2B,white,woman,,,,null,,,,
null,is playing with,,html-keyboard-response,382,1669658,0.0-19.0-2.14,18345,List2B,white,woman,,,,null,,,,
6411,,,survey-text,383,1676070,0.0-19.0-3.14,18345,List2B,white,woman,,,,,"{""Q0"":""Kate is playing with Jane""}","<img src=""stim_listB/play7.gif""style=""height:400px;""></stim_listB>",is playing with,
null,"<div style=""font-size:60px;"">+</div>",,html-keyboard-response,384,1676571,0.0-19.0-0.15,18345,List2B,white,woman,,,,null,,,,
null,"<img src=""stim_listB/talk1.gif""style=""height:400px;""></stim_listB>",,html-keyboard-response,385,1678575,0.0-19.0-1.15,18345,List2B,white,woman,,,,null,,,,
null,is talking to,,html-keyboard-response,386,1680578,0.0-19.0-2.15,18345,List2B,white,woman,,,,null,,,,
7540,,,survey-text,387,1688119,0.0-19.0-3.15,18345,List2B,white,woman,,,,,"{""Q0"":""Jane is talking to Luke""}","<img src=""stim_listB/talk1.gif""style=""height:400px;""></stim_listB>",is talking to,
null,"<div style=""font-size:60px;"">+</div>",,html-keyboard-response,388,1688622,0.0-19.0-0.16,18345,List2B,white,woman,,,,null,,,,
null,"<img src=""stim_listB/shout6.gif""style=""height:400px;""></stim_listB>",,html-keyboard-response,389,1690623,0.0-19.0-1.16,18345,List2B,white,woman,,,,null,,,,
null,are shouting at each other,,html-keyboard-response,390,1692625,0.0-19.0-2.16,18345,List2B,white,woman,,,,null,,,,
9673,,,survey-text,391,1702298,0.0-19.0-3.16,18345,List2B,white,woman,,,,,"{""Q0"":""Dave and Mike are shouting at each other""}","<img src=""stim_listB/shout6.gif""style=""height:400px;""></stim_listB>",are shouting at each other,
null,"<div style=""font-size:60px;"">+</div>",,html-keyboard-response,392,1702799,0.0-19.0-0.17,18345,List2B,white,woman,,,,null,,,,
null,"<img src=""stim_listB/fight7.gif""style=""height:400px;""></stim_listB>",,html-keyboard-response,393,1704802,0.0-19.0-1.17,18345,List2B,white,woman,,,,null,,,,
null,is fighting,,html-keyboard-response,394,1706804,0.0-19.0-2.17,18345,List2B,white,woman,,,,null,,,,
7395,,,survey-text,395,1714200,0.0-19.0-3.17,18345,List2B,white,woman,,,,,"{""Q0"":""Kate is fighting Jane""}","<img src=""stim_listB/fight7.gif""style=""height:400px;""></stim_listB>",is fighting,
null,"<div style=""font-size:60px;"">+</div>",,html-keyboard-response,396,1714702,0.0-19.0-0.18,18345,List2B,white,woman,,,,null,,,,
null,"<img src=""stim_listB/fight2.gif""style=""height:400px;""></stim_listB>",,html-keyboard-response,397,1716705,0.0-19.0-1.18,18345,List2B,white,woman,,,,null,,,,
null,are fighting each other,,html-keyboard-response,398,1718707,0.0-19.0-2.18,18345,List2B,white,woman,,,,null,,,,
7769,,,survey-text,399,1726476,0.0-19.0-3.18,18345,List2B,white,woman,,,,,"{""Q0"":""Luke and Ruth are fighting each other""}","<img src=""stim_listB/fight2.gif""style=""height:400px;""></stim_listB>",are fighting each other,
null,"<div style=""font-size:60px;"">+</div>",,html-keyboard-response,400,1726977,0.0-19.0-0.19,18345,List2B,white,woman,,,,null,,,,
null,"<img src=""stim_listB/kiss2.gif""style=""height:400px;""></stim_listB>",,html-keyboard-response,401,1728980,0.0-19.0-1.19,18345,List2B,white,woman,,,,null,,,,
null,are kissing each other,,html-keyboard-response,402,1730982,0.0-19.0-2.19,18345,List2B,white,woman,,,,null,,,,
8676,,,survey-text,403,1739659,0.0-19.0-3.19,18345,List2B,white,woman,,,,,"{""Q0"":""Dave and Jane are kissing each other""}","<img src=""stim_listB/kiss2.gif""style=""height:400px;""></stim_listB>",are kissing each other,
2383,<p>Thank you for completing that task.</p><p>The final part of this session is a short questionnaire.</p><p>Press Continue.</p>,0,html-button-response,404,1742043,0.0-20.0,18345,List2B,white,woman,,,,,,,,
23386,,,survey-text,405,1766433,0.0-21.0,18345,List2B,white,woman,,,,,"{""Q0"":""41"",""Q1"":""English"",""Q2"":""English"",""Q3"":""United Kingdom"",""Q4"":""White"",""Q5"":""Female""}",,,demographics
5952,,,survey-likert,406,1772388,0.0-22.0,18345,List2B,white,woman,,,,,"{""Q0"":4}",,,likert_ESS
4698,,,survey-likert,407,1777088,0.0-23.0,18345,List2B,white,woman,,,,,"{""Q0"":4}",,,likert_NSSAL_Q1
2407,,,survey-likert,408,1779496,0.0-24.0,18345,List2B,white,woman,,,,,"{""Q0"":4}",,,likert_NSSAL_Q2
2985,,,survey-likert,409,1782482,0.0-25.0,18345,List2B,white,woman,,,,,"{""Q0"":4}",,,likert_CGRS_Q1
3031,,,survey-likert,410,1785514,0.0-26.0,18345,List2B,white,woman,,,,,"{""Q0"":4}",,,likert_CGRS_Q2
2493,,,survey-likert,411,1788007,0.0-27.0,18345,List2B,white,woman,,,,,"{""Q0"":4}",,,likert_CGRS_Q3
3607,,,survey-text,412,1791615,0.0-28.0,18345,List2B,white,woman,,,,,"{""Q0"":""ccc""}",,,worker_id
27859,,,external-html,413,1819775,0.0-29.0,18345,List2B,white,woman,debrief.html,,,,,,,
