rt,stimulus,button_pressed,trial_type,trial_index,time_elapsed,internal_node_id,subject,list,ppt_race,ppt_gender,url,first_guess,correct,key_press,responses,image_type,phrase_type,test_part
527743,Welcome to the experiment. Press Continue to begin.,0,html-button-response,0,527746,0.0-0.0,18391,List2A,black,woman,,,,,,,,
18273,,,external-html,1,547138,0.0-1.0,18391,List2A,black,woman,consent.html,,,,,,,
4565,"<p>On the next page, you will see portraits of 8 people and their names.</p><p>Your first task is to take a few minutes to memorise the names of these people.</p><p>You will have to recall their names during the rest of the experiment, so it is</p><p>essential that you try to memorise these people and their names as best as you can.</p><br><p><strong>You will then be tested on your memory of these names and portraits.</strong></p><br><p>The experiment will start after you have completed this memory test.</p><br><p>Ready?</p>",0,html-button-response,2,551704,0.0-2.0,18391,List2A,black,woman,,,,,,,,
42259,"<img src='img/portrait_matrix_list2.jpg' style='width:900px;height:500px;''></img><p>If you have memorised all the portraits and names and are ready to start, press Continue.</p><p><strong>Please note: Your memory of these faces will be tested 4 times during this experiment.</strong></p>",0,html-button-response,3,594972,0.0-3.0-0.0,18391,List2A,black,woman,,,,,,,,
4296,"<img src=""portrait/BW1.jpg""style=""height:400px;""></img>",0,html-button-response,4,600273,0.0-3.0-1.0,18391,List2A,black,woman,,TRUE,0,,,,,
null,CORRECT,,html-keyboard-response,5,601794,0.0-3.0-2.0-0.0,18391,List2A,black,woman,,,,null,,,,
4448,"<img src=""portrait/WM2.jpg""style=""height:400px;""></img>",7,html-button-response,6,606245,0.0-3.0-4.0,18391,List2A,black,woman,,TRUE,7,,,,,
null,CORRECT,,html-keyboard-response,7,607761,0.0-3.0-5.0-0.0,18391,List2A,black,woman,,,,null,,,,
10102,"<img src=""portrait/BM1.jpg""style=""height:400px;""></img>",4,html-button-response,8,617865,0.0-3.0-7.0,18391,List2A,black,woman,,TRUE,4,,,,,
null,CORRECT,,html-keyboard-response,9,619380,0.0-3.0-8.0-0.0,18391,List2A,black,woman,,,,null,,,,
3923,"<img src=""portrait/BW2.jpg""style=""height:400px;""></img>",3,html-button-response,10,623305,0.0-3.0-10.0,18391,List2A,black,woman,,TRUE,2,,,,,
6464,"<img src=""portrait/BW2.jpg""style=""height:400px;""></img>",2,html-button-response,11,630773,0.0-3.0-12.0-0.0,18391,List2A,black,woman,,FALSE,2,,,,,
null,CORRECT,,html-keyboard-response,12,632281,0.0-3.0-12.0-1.0-0.0,18391,List2A,black,woman,,,,null,,,,
2766,"<img src=""portrait/WW2.jpg""style=""height:400px;""></img>",3,html-button-response,13,635049,0.0-3.0-13.0,18391,List2A,black,woman,,TRUE,3,,,,,
null,CORRECT,,html-keyboard-response,14,636579,0.0-3.0-14.0-0.0,18391,List2A,black,woman,,,,null,,,,
3356,"<img src=""portrait/WM1.jpg""style=""height:400px;""></img>",6,html-button-response,15,639936,0.0-3.0-16.0,18391,List2A,black,woman,,TRUE,6,,,,,
null,CORRECT,,html-keyboard-response,16,641461,0.0-3.0-17.0-0.0,18391,List2A,black,woman,,,,null,,,,
72693,"<img src=""portrait/WW1.jpg""style=""height:400px;""></img>",1,html-button-response,17,714157,0.0-3.0-19.0,18391,List2A,black,woman,,TRUE,1,,,,,
null,CORRECT,,html-keyboard-response,18,715663,0.0-3.0-20.0-0.0,18391,List2A,black,woman,,,,null,,,,
1955,"<img src=""portrait/BM2.jpg""style=""height:400px;""></img>",5,html-button-response,19,717621,0.0-3.0-22.0,18391,List2A,black,woman,,TRUE,5,,,,,
null,CORRECT,,html-keyboard-response,20,719131,0.0-3.0-23.0-0.0,18391,List2A,black,woman,,,,null,,,,
12991,<p>You got 7 out of 8 right first time. Press Continue.</p>,0,html-button-response,21,732125,0.0-3.0-25.0,18391,List2A,black,woman,,,,,,,,
25792,"As you did not score 100%, the memory game will repeat. Press Continue.",0,html-button-response,22,758928,0.0-3.0-26.0-0.0,18391,List2A,black,woman,,,,,,,,
3504,"<img src='img/portrait_matrix_list2.jpg' style='width:900px;height:500px;''></img><p>If you have memorised all the portraits and names and are ready to start, press Continue.</p><p><strong>Please note: Your memory of these faces will be tested 4 times during this experiment.</strong></p>",0,html-button-response,23,763440,0.0-3.1-0.1,18391,List2A,black,woman,,,,,,,,
2294,"<img src=""portrait/BW1.jpg""style=""height:400px;""></img>",0,html-button-response,24,766748,0.0-3.1-1.1,18391,List2A,black,woman,,TRUE,0,,,,,
null,CORRECT,,html-keyboard-response,25,768263,0.0-3.1-2.1-0.1,18391,List2A,black,woman,,,,null,,,,
4279,"<img src=""portrait/WM2.jpg""style=""height:400px;""></img>",7,html-button-response,26,772544,0.0-3.1-4.1,18391,List2A,black,woman,,TRUE,7,,,,,
null,CORRECT,,html-keyboard-response,27,774073,0.0-3.1-5.1-0.1,18391,List2A,black,woman,,,,null,,,,
40217,"<img src=""portrait/BM1.jpg""style=""height:400px;""></img>",4,html-button-response,28,814293,0.0-3.1-7.1,18391,List2A,black,woman,,TRUE,4,,,,,
null,CORRECT,,html-keyboard-response,29,815804,0.0-3.1-8.1-0.1,18391,List2A,black,woman,,,,null,,,,
2767,"<img src=""portrait/BW2.jpg""style=""height:400px;""></img>",2,html-button-response,30,818573,0.0-3.1-10.1,18391,List2A,black,woman,,TRUE,2,,,,,
null,CORRECT,,html-keyboard-response,31,820087,0.0-3.1-11.1-0.1,18391,List2A,black,woman,,,,null,,,,
119716,"<img src=""portrait/WW2.jpg""style=""height:400px;""></img>",3,html-button-response,32,939804,0.0-3.1-13.1,18391,List2A,black,woman,,TRUE,3,,,,,
null,CORRECT,,html-keyboard-response,33,941320,0.0-3.1-14.1-0.1,18391,List2A,black,woman,,,,null,,,,
4845,"<img src=""portrait/WM1.jpg""style=""height:400px;""></img>",6,html-button-response,34,946168,0.0-3.1-16.1,18391,List2A,black,woman,,TRUE,6,,,,,
null,CORRECT,,html-keyboard-response,35,947683,0.0-3.1-17.1-0.1,18391,List2A,black,woman,,,,null,,,,
10730,"<img src=""portrait/WW1.jpg""style=""height:400px;""></img>",1,html-button-response,36,958416,0.0-3.1-19.1,18391,List2A,black,woman,,TRUE,1,,,,,
null,CORRECT,,html-keyboard-response,37,959938,0.0-3.1-20.1-0.1,18391,List2A,black,woman,,,,null,,,,
3392,"<img src=""portrait/BM2.jpg""style=""height:400px;""></img>",5,html-button-response,38,963332,0.0-3.1-22.1,18391,List2A,black,woman,,TRUE,5,,,,,
null,CORRECT,,html-keyboard-response,39,964837,0.0-3.1-23.1-0.1,18391,List2A,black,woman,,,,null,,,,
44987,<p>You got 8 out of 8 right first time. Press Continue.</p>,0,html-button-response,40,1009826,0.0-3.1-25.1,18391,List2A,black,woman,,,,,,,,
12976,"<p>In this experiment, you will view photographs of the people from the memory game interacting.</p><p>By using the <strong>exact</strong> phrase given <i>after</i> the photograph appears and recalling the correct names of the people in the photographs, form a sentence describing the interaction. You do not need to capitalise names.</p><p>Type your answer in the space provided. Please complete every sentence before moving onto the next trial.</p><p>You will only have a few seconds to memorise each given photograph and phrase before you can respond, so try your best to focus.</p><p>An example is given below. Press 'Continue' when you are ready.</p><img src='img/speaking_example.jpg' style='width:800px;height:460px;''></img>",0,html-button-response,41,1023814,0.0-4.0,18391,List2A,black,woman,,,,,,,,
1556,"<p>Before the experiment starts, you will watch two example trials. Press 'Continue'.</p>",0,html-button-response,42,1026386,0.0-5.0,18391,List2A,black,woman,,,,,,,,
null,<img src='img/meet_eg.gif' style='height:400px;''></img>,,html-keyboard-response,43,1029401,0.0-6.0,18391,List2A,black,woman,,,,null,,,,
null,<p>is meeting</p>,,html-keyboard-response,44,1031410,0.0-7.0,18391,List2A,black,woman,,,,null,,,,
10234,<p><b>Answer:</b> jane is meeting ruth</p>,0,html-button-response,45,1041646,0.0-8.0,18391,List2A,black,woman,,,,,,,,
null,<img src='img/look_eg.gif' style='height:400px;''></img>,,html-keyboard-response,46,1044652,0.0-9.0,18391,List2A,black,woman,,,,null,,,,
null,<p>are looking at each other</p>,,html-keyboard-response,47,1046655,0.0-10.0,18391,List2A,black,woman,,,,null,,,,
1581,<p><b>Answer:</b> fred and mike are looking at each other</p>,0,html-button-response,48,1048238,0.0-11.0,18391,List2A,black,woman,,,,,,,,
5575,"<p>Ready to start the experiment?</p><br><p><strong>Remember to describe the picture using a full sentence,</strong></p><p><strong>that combines the names of the people with the <i>exact</i> phrase given.</strong></p><p><strong>To receive full payment you must do this correctly.</strong></p><p><strong> You do not need to capitalise names or use punctuation.</strong></p><br><p>Press 'Continue' to begin.</p>",0,html-button-response,49,1054822,0.0-12.0,18391,List2A,black,woman,,,,,,,,
null,"<div style=""font-size:60px;"">+</div>",,html-keyboard-response,50,1056337,0.0-13.0-0.0,18391,List2A,black,woman,,,,null,,,,
null,"<img src=""stim_listA/flirt8.gif""style=""height:400px;""></stim_listA>",,html-keyboard-response,51,1058344,0.0-13.0-1.0,18391,List2A,black,woman,,,,null,,,,
null,are flirting with each other,,html-keyboard-response,52,1060360,0.0-13.0-2.0,18391,List2A,black,woman,,,,null,,,,
22510,,,survey-text,53,1082872,0.0-13.0-3.0,18391,List2A,black,woman,,,,,"{""Q0"":""beth and jane are looking at each other""}","<img src=""stim_listA/flirt8.gif""style=""height:400px;""></stim_listA>",are flirting with each other,
null,"<div style=""font-size:60px;"">+</div>",,html-keyboard-response,54,1083385,0.0-13.0-0.1,18391,List2A,black,woman,,,,null,,,,
null,"<img src=""stim_listA/fight8.gif""style=""height:400px;""></stim_listA>",,html-keyboard-response,55,1085390,0.0-13.0-1.1,18391,List2A,black,woman,,,,null,,,,
null,are fighting each other,,html-keyboard-response,56,1087396,0.0-13.0-2.1,18391,List2A,black,woman,,,,null,,,,
15490,,,survey-text,57,1102888,0.0-13.0-3.1,18391,List2A,black,woman,,,,,"{""Q0"":""beth and ruth are fighting each other""}","<img src=""stim_listA/fight8.gif""style=""height:400px;""></stim_listA>",are fighting each other,
null,"<div style=""font-size:60px;"">+</div>",,html-keyboard-response,58,1103396,0.0-13.0-0.2,18391,List2A,black,woman,,,,null,,,,
null,"<img src=""stim_listA/kiss6.gif""style=""height:400px;""></stim_listA>",,html-keyboard-response,59,1105405,0.0-13.0-1.2,18391,List2A,black,woman,,,,null,,,,
null,are kissing each other,,html-keyboard-response,60,1107413,0.0-13.0-2.2,18391,List2A,black,woman,,,,null,,,,
22901,,,survey-text,61,1130316,0.0-13.0-3.2,18391,List2A,black,woman,,,,,"{""Q0"":""dave and mike are kissing each other""}","<img src=""stim_listA/kiss6.gif""style=""height:400px;""></stim_listA>",are kissing each other,
null,"<div style=""font-size:60px;"">+</div>",,html-keyboard-response,62,1130831,0.0-13.0-0.3,18391,List2A,black,woman,,,,null,,,,
null,"<img src=""stim_listA/kiss3.gif""style=""height:400px;""></stim_listA>",,html-keyboard-response,63,1132836,0.0-13.0-1.3,18391,List2A,black,woman,,,,null,,,,
null,is kissing,,html-keyboard-response,64,1134839,0.0-13.0-2.3,18391,List2A,black,woman,,,,null,,,,
9669,,,survey-text,65,1144510,0.0-13.0-3.3,18391,List2A,black,woman,,,,,"{""Q0"":""beth and fred are kissing""}","<img src=""stim_listA/kiss3.gif""style=""height:400px;""></stim_listA>",is kissing,
null,"<div style=""font-size:60px;"">+</div>",,html-keyboard-response,66,1145023,0.0-13.0-0.4,18391,List2A,black,woman,,,,null,,,,
null,"<img src=""stim_listA/flirt6.gif""style=""height:400px;""></stim_listA>",,html-keyboard-response,67,1147029,0.0-13.0-1.4,18391,List2A,black,woman,,,,null,,,,
null,are flirting with each other,,html-keyboard-response,68,1149035,0.0-13.0-2.4,18391,List2A,black,woman,,,,null,,,,
45069,,,survey-text,69,1194105,0.0-13.0-3.4,18391,List2A,black,woman,,,,,"{""Q0"":""dave and fred are flirting""}","<img src=""stim_listA/flirt6.gif""style=""height:400px;""></stim_listA>",are flirting with each other,
null,"<div style=""font-size:60px;"">+</div>",,html-keyboard-response,70,1194608,0.0-13.0-0.5,18391,List2A,black,woman,,,,null,,,,
null,"<img src=""stim_listA/shout5.gif""style=""height:400px;""></stim_listA>",,html-keyboard-response,71,1196614,0.0-13.0-1.5,18391,List2A,black,woman,,,,null,,,,
null,is shouting at,,html-keyboard-response,72,1198617,0.0-13.0-2.5,18391,List2A,black,woman,,,,null,,,,
23186,,,survey-text,73,1221805,0.0-13.0-3.5,18391,List2A,black,woman,,,,,"{""Q0"":""fred and luke are shouting at each other""}","<img src=""stim_listA/shout5.gif""style=""height:400px;""></stim_listA>",is shouting at,
null,"<div style=""font-size:60px;"">+</div>",,html-keyboard-response,74,1222307,0.0-13.0-0.6,18391,List2A,black,woman,,,,null,,,,
null,"<img src=""stim_listA/marry8.gif""style=""height:400px;""></stim_listA>",,html-keyboard-response,75,1224316,0.0-13.0-1.6,18391,List2A,black,woman,,,,null,,,,
null,are marrying each other,,html-keyboard-response,76,1226318,0.0-13.0-2.6,18391,List2A,black,woman,,,,null,,,,
23185,,,survey-text,77,1249504,0.0-13.0-3.6,18391,List2A,black,woman,,,,,"{""Q0"":""ruth and kate are marrying each other""}","<img src=""stim_listA/marry8.gif""style=""height:400px;""></stim_listA>",are marrying each other,
null,"<div style=""font-size:60px;"">+</div>",,html-keyboard-response,78,1250017,0.0-13.0-0.7,18391,List2A,black,woman,,,,null,,,,
null,"<img src=""stim_listA/play3.gif""style=""height:400px;""></stim_listA>",,html-keyboard-response,79,1252020,0.0-13.0-1.7,18391,List2A,black,woman,,,,null,,,,
null,is playing with,,html-keyboard-response,80,1254026,0.0-13.0-2.7,18391,List2A,black,woman,,,,null,,,,
11521,,,survey-text,81,1265548,0.0-13.0-3.7,18391,List2A,black,woman,,,,,"{""Q0"":""kate is playing with mike""}","<img src=""stim_listA/play3.gif""style=""height:400px;""></stim_listA>",is playing with,
null,"<div style=""font-size:60px;"">+</div>",,html-keyboard-response,82,1266060,0.0-13.0-0.8,18391,List2A,black,woman,,,,null,,,,
null,"<img src=""stim_listA/shout3.gif""style=""height:400px;""></stim_listA>",,html-keyboard-response,83,1268065,0.0-13.0-1.8,18391,List2A,black,woman,,,,null,,,,
null,is shouting at,,html-keyboard-response,84,1270075,0.0-13.0-2.8,18391,List2A,black,woman,,,,null,,,,
20188,,,survey-text,85,1290264,0.0-13.0-3.8,18391,List2A,black,woman,,,,,"{""Q0"":""beth is shouting at fred""}","<img src=""stim_listA/shout3.gif""style=""height:400px;""></stim_listA>",is shouting at,
null,"<div style=""font-size:60px;"">+</div>",,html-keyboard-response,86,1290777,0.0-13.0-0.9,18391,List2A,black,woman,,,,null,,,,
null,"<img src=""stim_listA/dance4.gif""style=""height:400px;""></stim_listA>",,html-keyboard-response,87,1292781,0.0-13.0-1.9,18391,List2A,black,woman,,,,null,,,,
null,are dancing with each other,,html-keyboard-response,88,1294792,0.0-13.0-2.9,18391,List2A,black,woman,,,,null,,,,
11548,,,survey-text,89,1306341,0.0-13.0-3.9,18391,List2A,black,woman,,,,,"{""Q0"":""mike is dancing with beth""}","<img src=""stim_listA/dance4.gif""style=""height:400px;""></stim_listA>",are dancing with each other,
null,"<div style=""font-size:60px;"">+</div>",,html-keyboard-response,90,1306849,0.0-13.0-0.10,18391,List2A,black,woman,,,,null,,,,
null,"<img src=""stim_listA/touch3.gif""style=""height:400px;""></stim_listA>",,html-keyboard-response,91,1308856,0.0-13.0-1.10,18391,List2A,black,woman,,,,null,,,,
null,is touching,,html-keyboard-response,92,1310858,0.0-13.0-2.10,18391,List2A,black,woman,,,,null,,,,
12429,,,survey-text,93,1323289,0.0-13.0-3.10,18391,List2A,black,woman,,,,,"{""Q0"":""kate is touching mike""}","<img src=""stim_listA/touch3.gif""style=""height:400px;""></stim_listA>",is touching,
null,"<div style=""font-size:60px;"">+</div>",,html-keyboard-response,94,1323796,0.0-13.0-0.11,18391,List2A,black,woman,,,,null,,,,
null,"<img src=""stim_listA/kiss1.gif""style=""height:400px;""></stim_listA>",,html-keyboard-response,95,1325800,0.0-13.0-1.11,18391,List2A,black,woman,,,,null,,,,
null,is kissing,,html-keyboard-response,96,1327811,0.0-13.0-2.11,18391,List2A,black,woman,,,,null,,,,
10935,,,survey-text,97,1338748,0.0-13.0-3.11,18391,List2A,black,woman,,,,,"{""Q0"":""ruth and luke are kissing""}","<img src=""stim_listA/kiss1.gif""style=""height:400px;""></stim_listA>",is kissing,
null,"<div style=""font-size:60px;"">+</div>",,html-keyboard-response,98,1339260,0.0-13.0-0.12,18391,List2A,black,woman,,,,null,,,,
null,"<img src=""stim_listA/flirt7.gif""style=""height:400px;""></stim_listA>",,html-keyboard-response,99,1341264,0.0-13.0-1.12,18391,List2A,black,woman,,,,null,,,,
null,is flirting with,,html-keyboard-response,100,1343275,0.0-13.0-2.12,18391,List2A,black,woman,,,,null,,,,
17750,,,survey-text,101,1361026,0.0-13.0-3.12,18391,List2A,black,woman,,,,,"{""Q0"":""ruth and kate are flirting""}","<img src=""stim_listA/flirt7.gif""style=""height:400px;""></stim_listA>",is flirting with,
null,"<div style=""font-size:60px;"">+</div>",,html-keyboard-response,102,1361535,0.0-13.0-0.13,18391,List2A,black,woman,,,,null,,,,
null,"<img src=""stim_listA/dance2.gif""style=""height:400px;""></stim_listA>",,html-keyboard-response,103,1363540,0.0-13.0-1.13,18391,List2A,black,woman,,,,null,,,,
null,are dancing with each other,,html-keyboard-response,104,1365554,0.0-13.0-2.13,18391,List2A,black,woman,,,,null,,,,
29923,,,survey-text,105,1395478,0.0-13.0-3.13,18391,List2A,black,woman,,,,,"{""Q0"":""dave and ruth are dancing""}","<img src=""stim_listA/dance2.gif""style=""height:400px;""></stim_listA>",are dancing with each other,
null,"<div style=""font-size:60px;"">+</div>",,html-keyboard-response,106,1395987,0.0-13.0-0.14,18391,List2A,black,woman,,,,null,,,,
null,"<img src=""stim_listA/talk1.gif""style=""height:400px;""></stim_listA>",,html-keyboard-response,107,1397990,0.0-13.0-1.14,18391,List2A,black,woman,,,,null,,,,
null,is talking to,,html-keyboard-response,108,1400001,0.0-13.0-2.14,18391,List2A,black,woman,,,,null,,,,
12782,,,survey-text,109,1412786,0.0-13.0-3.14,18391,List2A,black,woman,,,,,"{""Q0"":""jane vand luke are talking""}","<img src=""stim_listA/talk1.gif""style=""height:400px;""></stim_listA>",is talking to,
null,"<div style=""font-size:60px;"">+</div>",,html-keyboard-response,110,1413290,0.0-13.0-0.15,18391,List2A,black,woman,,,,null,,,,
null,"<img src=""stim_listA/shout7.gif""style=""height:400px;""></stim_listA>",,html-keyboard-response,111,1415295,0.0-13.0-1.15,18391,List2A,black,woman,,,,null,,,,
null,is shouting at,,html-keyboard-response,112,1417299,0.0-13.0-2.15,18391,List2A,black,woman,,,,null,,,,
34834,,,survey-text,113,1452134,0.0-13.0-3.15,18391,List2A,black,woman,,,,,"{""Q0"":""beth and ruth are shouting""}","<img src=""stim_listA/shout7.gif""style=""height:400px;""></stim_listA>",is shouting at,
null,"<div style=""font-size:60px;"">+</div>",,html-keyboard-response,114,1452641,0.0-13.0-0.16,18391,List2A,black,woman,,,,null,,,,
null,"<img src=""stim_listA/marry4.gif""style=""height:400px;""></stim_listA>",,html-keyboard-response,115,1454645,0.0-13.0-1.16,18391,List2A,black,woman,,,,null,,,,
null,are marrying each other,,html-keyboard-response,116,1456661,0.0-13.0-2.16,18391,List2A,black,woman,,,,null,,,,
13856,,,survey-text,117,1470518,0.0-13.0-3.16,18391,List2A,black,woman,,,,,"{""Q0"":""ruth and fred are marrying each other""}","<img src=""stim_listA/marry4.gif""style=""height:400px;""></stim_listA>",are marrying each other,
null,"<div style=""font-size:60px;"">+</div>",,html-keyboard-response,118,1471030,0.0-13.0-0.17,18391,List2A,black,woman,,,,null,,,,
null,"<img src=""stim_listA/flirt1.gif""style=""height:400px;""></stim_listA>",,html-keyboard-response,119,1473034,0.0-13.0-1.17,18391,List2A,black,woman,,,,null,,,,
null,is flirting with,,html-keyboard-response,120,1475037,0.0-13.0-2.17,18391,List2A,black,woman,,,,null,,,,
17156,,,survey-text,121,1492195,0.0-13.0-3.17,18391,List2A,black,woman,,,,,"{""Q0"":""dave and jane are flirting""}","<img src=""stim_listA/flirt1.gif""style=""height:400px;""></stim_listA>",is flirting with,
null,"<div style=""font-size:60px;"">+</div>",,html-keyboard-response,122,1492697,0.0-13.0-0.18,18391,List2A,black,woman,,,,null,,,,
null,"<img src=""stim_listA/dance8.gif""style=""height:400px;""></stim_listA>",,html-keyboard-response,123,1494702,0.0-13.0-1.18,18391,List2A,black,woman,,,,null,,,,
null,are dancing with each other,,html-keyboard-response,124,1496718,0.0-13.0-2.18,18391,List2A,black,woman,,,,null,,,,
18354,,,survey-text,125,1515073,0.0-13.0-3.18,18391,List2A,black,woman,,,,,"{""Q0"":""jane and beth are dancing together""}","<img src=""stim_listA/dance8.gif""style=""height:400px;""></stim_listA>",are dancing with each other,
null,"<div style=""font-size:60px;"">+</div>",,html-keyboard-response,126,1515577,0.0-13.0-0.19,18391,List2A,black,woman,,,,null,,,,
null,"<img src=""stim_listA/play6.gif""style=""height:400px;""></stim_listA>",,html-keyboard-response,127,1517583,0.0-13.0-1.19,18391,List2A,black,woman,,,,null,,,,
null,are playing with each other,,html-keyboard-response,128,1519586,0.0-13.0-2.19,18391,List2A,black,woman,,,,null,,,,
12275,,,survey-text,129,1531862,0.0-13.0-3.19,18391,List2A,black,woman,,,,,"{""Q0"":""luke and fred are playing together""}","<img src=""stim_listA/play6.gif""style=""height:400px;""></stim_listA>",are playing with each other,
11365,"<img src='img/portrait_matrix_list2.jpg' style='width:900px;height:500px;''></img><p>If you have memorised all the portraits and names and are ready to start, press Continue.</p><p><strong>Please note: Your memory of these faces will be tested 4 times during this experiment.</strong></p>",0,html-button-response,130,1543229,0.0-14.0-0.0,18391,List2A,black,woman,,,,,,,,
4221,"<img src=""portrait/WM1.jpg""style=""height:400px;""></img>",6,html-button-response,131,1548453,0.0-14.0-1.0,18391,List2A,black,woman,,TRUE,6,,,,,
null,CORRECT,,html-keyboard-response,132,1549964,0.0-14.0-2.0-0.0,18391,List2A,black,woman,,,,null,,,,
9487,"<img src=""portrait/WM2.jpg""style=""height:400px;""></img>",7,html-button-response,133,1559453,0.0-14.0-4.0,18391,List2A,black,woman,,TRUE,7,,,,,
null,CORRECT,,html-keyboard-response,134,1560967,0.0-14.0-5.0-0.0,18391,List2A,black,woman,,,,null,,,,
2185,"<img src=""portrait/BM1.jpg""style=""height:400px;""></img>",4,html-button-response,135,1563153,0.0-14.0-7.0,18391,List2A,black,woman,,TRUE,4,,,,,
null,CORRECT,,html-keyboard-response,136,1564662,0.0-14.0-8.0-0.0,18391,List2A,black,woman,,,,null,,,,
2961,"<img src=""portrait/BW2.jpg""style=""height:400px;""></img>",2,html-button-response,137,1567625,0.0-14.0-10.0,18391,List2A,black,woman,,TRUE,2,,,,,
null,CORRECT,,html-keyboard-response,138,1569146,0.0-14.0-11.0-0.0,18391,List2A,black,woman,,,,null,,,,
2825,"<img src=""portrait/BW1.jpg""style=""height:400px;""></img>",0,html-button-response,139,1571973,0.0-14.0-13.0,18391,List2A,black,woman,,TRUE,0,,,,,
null,CORRECT,,html-keyboard-response,140,1573493,0.0-14.0-14.0-0.0,18391,List2A,black,woman,,,,null,,,,
2905,"<img src=""portrait/WW1.jpg""style=""height:400px;""></img>",1,html-button-response,141,1576400,0.0-14.0-16.0,18391,List2A,black,woman,,TRUE,1,,,,,
null,CORRECT,,html-keyboard-response,142,1577907,0.0-14.0-17.0-0.0,18391,List2A,black,woman,,,,null,,,,
2503,"<img src=""portrait/BM2.jpg""style=""height:400px;""></img>",5,html-button-response,143,1580412,0.0-14.0-19.0,18391,List2A,black,woman,,TRUE,5,,,,,
null,CORRECT,,html-keyboard-response,144,1581920,0.0-14.0-20.0-0.0,18391,List2A,black,woman,,,,null,,,,
2045,"<img src=""portrait/WW2.jpg""style=""height:400px;""></img>",3,html-button-response,145,1583967,0.0-14.0-22.0,18391,List2A,black,woman,,TRUE,3,,,,,
null,CORRECT,,html-keyboard-response,146,1585480,0.0-14.0-23.0-0.0,18391,List2A,black,woman,,,,null,,,,
1090,<p>You got 8 out of 8 right first time. Press Continue.</p>,0,html-button-response,147,1586572,0.0-14.0-25.0,18391,List2A,black,woman,,,,,,,,
null,"<div style=""font-size:60px;"">+</div>",,html-keyboard-response,148,1588087,0.0-15.0-0.0,18391,List2A,black,woman,,,,null,,,,
null,"<img src=""stim_listA/talk6.gif""style=""height:400px;""></stim_listA>",,html-keyboard-response,149,1590090,0.0-15.0-1.0,18391,List2A,black,woman,,,,null,,,,
null,are talking to each other,,html-keyboard-response,150,1592092,0.0-15.0-2.0,18391,List2A,black,woman,,,,null,,,,
12310,,,survey-text,151,1604404,0.0-15.0-3.0,18391,List2A,black,woman,,,,,"{""Q0"":""fred and dave are talking""}","<img src=""stim_listA/talk6.gif""style=""height:400px;""></stim_listA>",are talking to each other,
null,"<div style=""font-size:60px;"">+</div>",,html-keyboard-response,152,1604910,0.0-15.0-0.1,18391,List2A,black,woman,,,,null,,,,
null,"<img src=""stim_listA/play7.gif""style=""height:400px;""></stim_listA>",,html-keyboard-response,153,1606916,0.0-15.0-1.1,18391,List2A,black,woman,,,,null,,,,
null,is playing with,,html-keyboard-response,154,1608920,0.0-15.0-2.1,18391,List2A,black,woman,,,,null,,,,
12838,,,survey-text,155,1621759,0.0-15.0-3.1,18391,List2A,black,woman,,,,,"{""Q0"":""kate and jane are playing""}","<img src=""stim_listA/play7.gif""style=""height:400px;""></stim_listA>",is playing with,
null,"<div style=""font-size:60px;"">+</div>",,html-keyboard-response,156,1622267,0.0-15.0-0.2,18391,List2A,black,woman,,,,null,,,,
null,"<img src=""stim_listA/flirt2.gif""style=""height:400px;""></stim_listA>",,html-keyboard-response,157,1624271,0.0-15.0-1.2,18391,List2A,black,woman,,,,null,,,,
null,are flirting with each other,,html-keyboard-response,158,1626285,0.0-15.0-2.2,18391,List2A,black,woman,,,,null,,,,
12088,,,survey-text,159,1638375,0.0-15.0-3.2,18391,List2A,black,woman,,,,,"{""Q0"":""ruth and dave are flirting""}","<img src=""stim_listA/flirt2.gif""style=""height:400px;""></stim_listA>",are flirting with each other,
null,"<div style=""font-size:60px;"">+</div>",,html-keyboard-response,160,1638876,0.0-15.0-0.3,18391,List2A,black,woman,,,,null,,,,
null,"<img src=""stim_listA/fight2.gif""style=""height:400px;""></stim_listA>",,html-keyboard-response,161,1640880,0.0-15.0-1.3,18391,List2A,black,woman,,,,null,,,,
null,are fighting each other,,html-keyboard-response,162,1642884,0.0-15.0-2.3,18391,List2A,black,woman,,,,null,,,,
10140,,,survey-text,163,1653025,0.0-15.0-3.3,18391,List2A,black,woman,,,,,"{""Q0"":""luke and ruth are fighting""}","<img src=""stim_listA/fight2.gif""style=""height:400px;""></stim_listA>",are fighting each other,
null,"<div style=""font-size:60px;"">+</div>",,html-keyboard-response,164,1653527,0.0-15.0-0.4,18391,List2A,black,woman,,,,null,,,,
null,"<img src=""stim_listA/talk8.gif""style=""height:400px;""></stim_listA>",,html-keyboard-response,165,1655530,0.0-15.0-1.4,18391,List2A,black,woman,,,,null,,,,
null,are talking to each other,,html-keyboard-response,166,1657531,0.0-15.0-2.4,18391,List2A,black,woman,,,,null,,,,
15018,,,survey-text,167,1672550,0.0-15.0-3.4,18391,List2A,black,woman,,,,,"{""Q0"":""beth and jane are talking""}","<img src=""stim_listA/talk8.gif""style=""height:400px;""></stim_listA>",are talking to each other,
null,"<div style=""font-size:60px;"">+</div>",,html-keyboard-response,168,1673064,0.0-15.0-0.5,18391,List2A,black,woman,,,,null,,,,
null,"<img src=""stim_listA/dance7.gif""style=""height:400px;""></stim_listA>",,html-keyboard-response,169,1675069,0.0-15.0-1.5,18391,List2A,black,woman,,,,null,,,,
null,is dancing with,,html-keyboard-response,170,1677075,0.0-15.0-2.5,18391,List2A,black,woman,,,,null,,,,
20933,,,survey-text,171,1698010,0.0-15.0-3.5,18391,List2A,black,woman,,,,,"{""Q0"":""ruth and kate are talking""}","<img src=""stim_listA/dance7.gif""style=""height:400px;""></stim_listA>",is dancing with,
null,"<div style=""font-size:60px;"">+</div>",,html-keyboard-response,172,1698532,0.0-15.0-0.6,18391,List2A,black,woman,,,,null,,,,
null,"<img src=""stim_listA/flirt4.gif""style=""height:400px;""></stim_listA>",,html-keyboard-response,173,1700538,0.0-15.0-1.6,18391,List2A,black,woman,,,,null,,,,
null,are flirting with each other,,html-keyboard-response,174,1702548,0.0-15.0-2.6,18391,List2A,black,woman,,,,null,,,,
17438,,,survey-text,175,1719987,0.0-15.0-3.6,18391,List2A,black,woman,,,,,"{""Q0"":""mike and beth are flirting""}","<img src=""stim_listA/flirt4.gif""style=""height:400px;""></stim_listA>",are flirting with each other,
null,"<div style=""font-size:60px;"">+</div>",,html-keyboard-response,176,1720501,0.0-15.0-0.7,18391,List2A,black,woman,,,,null,,,,
null,"<img src=""stim_listA/fight3.gif""style=""height:400px;""></stim_listA>",,html-keyboard-response,177,1722505,0.0-15.0-1.7,18391,List2A,black,woman,,,,null,,,,
null,is fighting,,html-keyboard-response,178,1724519,0.0-15.0-2.7,18391,List2A,black,woman,,,,null,,,,
17718,,,survey-text,179,1742239,0.0-15.0-3.7,18391,List2A,black,woman,,,,,"{""Q0"":""kate and mike are fighting""}","<img src=""stim_listA/fight3.gif""style=""height:400px;""></stim_listA>",is fighting,
null,"<div style=""font-size:60px;"">+</div>",,html-keyboard-response,180,1742750,0.0-15.0-0.8,18391,List2A,black,woman,,,,null,,,,
null,"<img src=""stim_listA/argue8.gif""style=""height:400px;""></stim_listA>",,html-keyboard-response,181,1744756,0.0-15.0-1.8,18391,List2A,black,woman,,,,null,,,,
null,are arguing with each other,,html-keyboard-response,182,1746767,0.0-15.0-2.8,18391,List2A,black,woman,,,,null,,,,
9834,,,survey-text,183,1756603,0.0-15.0-3.8,18391,List2A,black,woman,,,,,"{""Q0"":""kate and ruth are arguing""}","<img src=""stim_listA/argue8.gif""style=""height:400px;""></stim_listA>",are arguing with each other,
null,"<div style=""font-size:60px;"">+</div>",,html-keyboard-response,184,1757106,0.0-15.0-0.9,18391,List2A,black,woman,,,,null,,,,
null,"<img src=""stim_listA/shout1.gif""style=""height:400px;""></stim_listA>",,html-keyboard-response,185,1759112,0.0-15.0-1.9,18391,List2A,black,woman,,,,null,,,,
null,is shouting at,,html-keyboard-response,186,1761126,0.0-15.0-2.9,18391,List2A,black,woman,,,,null,,,,
8042,,,survey-text,187,1769170,0.0-15.0-3.9,18391,List2A,black,woman,,,,,"{""Q0"":""ruth is shouting at luke""}","<img src=""stim_listA/shout1.gif""style=""height:400px;""></stim_listA>",is shouting at,
null,"<div style=""font-size:60px;"">+</div>",,html-keyboard-response,188,1769677,0.0-15.0-0.10,18391,List2A,black,woman,,,,null,,,,
null,"<img src=""stim_listA/flirt5.gif""style=""height:400px;""></stim_listA>",,html-keyboard-response,189,1771682,0.0-15.0-1.10,18391,List2A,black,woman,,,,null,,,,
null,is flirting with,,html-keyboard-response,190,1773685,0.0-15.0-2.10,18391,List2A,black,woman,,,,null,,,,
5959,,,survey-text,191,1779646,0.0-15.0-3.10,18391,List2A,black,woman,,,,,"{""Q0"":""luke is flirting with mike""}","<img src=""stim_listA/flirt5.gif""style=""height:400px;""></stim_listA>",is flirting with,
null,"<div style=""font-size:60px;"">+</div>",,html-keyboard-response,192,1780151,0.0-15.0-0.11,18391,List2A,black,woman,,,,null,,,,
null,"<img src=""stim_listA/talk5.gif""style=""height:400px;""></stim_listA>",,html-keyboard-response,193,1782156,0.0-15.0-1.11,18391,List2A,black,woman,,,,null,,,,
null,is talking to,,html-keyboard-response,194,1784161,0.0-15.0-2.11,18391,List2A,black,woman,,,,null,,,,
6687,,,survey-text,195,1790850,0.0-15.0-3.11,18391,List2A,black,woman,,,,,"{""Q0"":""luke and mike are talking""}","<img src=""stim_listA/talk5.gif""style=""height:400px;""></stim_listA>",is talking to,
null,"<div style=""font-size:60px;"">+</div>",,html-keyboard-response,196,1791363,0.0-15.0-0.12,18391,List2A,black,woman,,,,null,,,,
null,"<img src=""stim_listA/argue4.gif""style=""height:400px;""></stim_listA>",,html-keyboard-response,197,1793369,0.0-15.0-1.12,18391,List2A,black,woman,,,,null,,,,
null,are arguing with each other,,html-keyboard-response,198,1795380,0.0-15.0-2.12,18391,List2A,black,woman,,,,null,,,,
6641,,,survey-text,199,1802022,0.0-15.0-3.12,18391,List2A,black,woman,,,,,"{""Q0"":""fred and kate are arguing""}","<img src=""stim_listA/argue4.gif""style=""height:400px;""></stim_listA>",are arguing with each other,
null,"<div style=""font-size:60px;"">+</div>",,html-keyboard-response,200,1802530,0.0-15.0-0.13,18391,List2A,black,woman,,,,null,,,,
null,"<img src=""stim_listA/shout8.gif""style=""height:400px;""></stim_listA>",,html-keyboard-response,201,1804536,0.0-15.0-1.13,18391,List2A,black,woman,,,,null,,,,
null,are shouting at each other,,html-keyboard-response,202,1806543,0.0-15.0-2.13,18391,List2A,black,woman,,,,null,,,,
8109,,,survey-text,203,1814653,0.0-15.0-3.13,18391,List2A,black,woman,,,,,"{""Q0"":""kate and jne are arguing""}","<img src=""stim_listA/shout8.gif""style=""height:400px;""></stim_listA>",are shouting at each other,
null,"<div style=""font-size:60px;"">+</div>",,html-keyboard-response,204,1815163,0.0-15.0-0.14,18391,List2A,black,woman,,,,null,,,,
null,"<img src=""stim_listA/kiss7.gif""style=""height:400px;""></stim_listA>",,html-keyboard-response,205,1817168,0.0-15.0-1.14,18391,List2A,black,woman,,,,null,,,,
null,is kissing,,html-keyboard-response,206,1819184,0.0-15.0-2.14,18391,List2A,black,woman,,,,null,,,,
19785,,,survey-text,207,1838970,0.0-15.0-3.14,18391,List2A,black,woman,,,,,"{""Q0"":""ruth and beth are kissing""}","<img src=""stim_listA/kiss7.gif""style=""height:400px;""></stim_listA>",is kissing,
null,"<div style=""font-size:60px;"">+</div>",,html-keyboard-response,208,1839486,0.0-15.0-0.15,18391,List2A,black,woman,,,,null,,,,
null,"<img src=""stim_listA/flirt3.gif""style=""height:400px;""></stim_listA>",,html-keyboard-response,209,1841492,0.0-15.0-1.15,18391,List2A,black,woman,,,,null,,,,
null,is flirting with,,html-keyboard-response,210,1843494,0.0-15.0-2.15,18391,List2A,black,woman,,,,null,,,,
20651,,,survey-text,211,1864147,0.0-15.0-3.15,18391,List2A,black,woman,,,,,"{""Q0"":""kate and fred are flirting""}","<img src=""stim_listA/flirt3.gif""style=""height:400px;""></stim_listA>",is flirting with,
null,"<div style=""font-size:60px;"">+</div>",,html-keyboard-response,212,1864652,0.0-15.0-0.16,18391,List2A,black,woman,,,,null,,,,
null,"<img src=""stim_listA/fight4.gif""style=""height:400px;""></stim_listA>",,html-keyboard-response,213,1866658,0.0-15.0-1.16,18391,List2A,black,woman,,,,null,,,,
null,are fighting each other,,html-keyboard-response,214,1868671,0.0-15.0-2.16,18391,List2A,black,woman,,,,null,,,,
9202,,,survey-text,215,1877875,0.0-15.0-3.16,18391,List2A,black,woman,,,,,"{""Q0"":""fred and beth are fighting""}","<img src=""stim_listA/fight4.gif""style=""height:400px;""></stim_listA>",are fighting each other,
null,"<div style=""font-size:60px;"">+</div>",,html-keyboard-response,216,1878378,0.0-15.0-0.17,18391,List2A,black,woman,,,,null,,,,
null,"<img src=""stim_listA/dance6.gif""style=""height:400px;""></stim_listA>",,html-keyboard-response,217,1880388,0.0-15.0-1.17,18391,List2A,black,woman,,,,null,,,,
null,are dancing with each other,,html-keyboard-response,218,1882390,0.0-15.0-2.17,18391,List2A,black,woman,,,,null,,,,
6975,,,survey-text,219,1889367,0.0-15.0-3.17,18391,List2A,black,woman,,,,,"{""Q0"":""fred and dave are dancing""}","<img src=""stim_listA/dance6.gif""style=""height:400px;""></stim_listA>",are dancing with each other,
null,"<div style=""font-size:60px;"">+</div>",,html-keyboard-response,220,1889882,0.0-15.0-0.18,18391,List2A,black,woman,,,,null,,,,
null,"<img src=""stim_listA/argue1.gif""style=""height:400px;""></stim_listA>",,html-keyboard-response,221,1891887,0.0-15.0-1.18,18391,List2A,black,woman,,,,null,,,,
null,is arguing with,,html-keyboard-response,222,1893891,0.0-15.0-2.18,18391,List2A,black,woman,,,,null,,,,
5846,,,survey-text,223,1899738,0.0-15.0-3.18,18391,List2A,black,woman,,,,,"{""Q0"":""dave and ruth are arguing""}","<img src=""stim_listA/argue1.gif""style=""height:400px;""></stim_listA>",is arguing with,
null,"<div style=""font-size:60px;"">+</div>",,html-keyboard-response,224,1900242,0.0-15.0-0.19,18391,List2A,black,woman,,,,null,,,,
null,"<img src=""stim_listA/argue2.gif""style=""height:400px;""></stim_listA>",,html-keyboard-response,225,1902246,0.0-15.0-1.19,18391,List2A,black,woman,,,,null,,,,
null,are arguing with each other,,html-keyboard-response,226,1904248,0.0-15.0-2.19,18391,List2A,black,woman,,,,null,,,,
8645,,,survey-text,227,1912895,0.0-15.0-3.19,18391,List2A,black,woman,,,,,"{""Q0"":""jane and luke are arguing""}","<img src=""stim_listA/argue2.gif""style=""height:400px;""></stim_listA>",are arguing with each other,
3523,"<img src='img/portrait_matrix_list2.jpg' style='width:900px;height:500px;''></img><p>If you have memorised all the portraits and names and are ready to start, press Continue.</p><p><strong>Please note: Your memory of these faces will be tested 4 times during this experiment.</strong></p>",0,html-button-response,228,1916419,0.0-16.0-0.0,18391,List2A,black,woman,,,,,,,,
1938,"<img src=""portrait/BM2.jpg""style=""height:400px;""></img>",5,html-button-response,229,1919375,0.0-16.0-1.0,18391,List2A,black,woman,,TRUE,5,,,,,
null,CORRECT,,html-keyboard-response,230,1920900,0.0-16.0-2.0-0.0,18391,List2A,black,woman,,,,null,,,,
3128,"<img src=""portrait/BW1.jpg""style=""height:400px;""></img>",0,html-button-response,231,1924031,0.0-16.0-4.0,18391,List2A,black,woman,,TRUE,0,,,,,
null,CORRECT,,html-keyboard-response,232,1925559,0.0-16.0-5.0-0.0,18391,List2A,black,woman,,,,null,,,,
3909,"<img src=""portrait/WW1.jpg""style=""height:400px;""></img>",1,html-button-response,233,1929470,0.0-16.0-7.0,18391,List2A,black,woman,,TRUE,1,,,,,
null,CORRECT,,html-keyboard-response,234,1930983,0.0-16.0-8.0-0.0,18391,List2A,black,woman,,,,null,,,,
1626,"<img src=""portrait/WM1.jpg""style=""height:400px;""></img>",6,html-button-response,235,1932611,0.0-16.0-10.0,18391,List2A,black,woman,,TRUE,6,,,,,
null,CORRECT,,html-keyboard-response,236,1934138,0.0-16.0-11.0-0.0,18391,List2A,black,woman,,,,null,,,,
1347,"<img src=""portrait/WM2.jpg""style=""height:400px;""></img>",7,html-button-response,237,1935487,0.0-16.0-13.0,18391,List2A,black,woman,,TRUE,7,,,,,
null,CORRECT,,html-keyboard-response,238,1937004,0.0-16.0-14.0-0.0,18391,List2A,black,woman,,,,null,,,,
2757,"<img src=""portrait/WW2.jpg""style=""height:400px;""></img>",3,html-button-response,239,1939763,0.0-16.0-16.0,18391,List2A,black,woman,,TRUE,3,,,,,
null,CORRECT,,html-keyboard-response,240,1941286,0.0-16.0-17.0-0.0,18391,List2A,black,woman,,,,null,,,,
5138,"<img src=""portrait/BW2.jpg""style=""height:400px;""></img>",2,html-button-response,241,1946427,0.0-16.0-19.0,18391,List2A,black,woman,,TRUE,2,,,,,
null,CORRECT,,html-keyboard-response,242,1947944,0.0-16.0-20.0-0.0,18391,List2A,black,woman,,,,null,,,,
5029,"<img src=""portrait/BM1.jpg""style=""height:400px;""></img>",4,html-button-response,243,1952975,0.0-16.0-22.0,18391,List2A,black,woman,,TRUE,4,,,,,
null,CORRECT,,html-keyboard-response,244,1954485,0.0-16.0-23.0-0.0,18391,List2A,black,woman,,,,null,,,,
1091,<p>You got 8 out of 8 right first time. Press Continue.</p>,0,html-button-response,245,1955579,0.0-16.0-25.0,18391,List2A,black,woman,,,,,,,,
null,"<div style=""font-size:60px;"">+</div>",,html-keyboard-response,246,1957098,0.0-17.0-0.0,18391,List2A,black,woman,,,,null,,,,
null,"<img src=""stim_listA/talk3.gif""style=""height:400px;""></stim_listA>",,html-keyboard-response,247,1959101,0.0-17.0-1.0,18391,List2A,black,woman,,,,null,,,,
null,is talking to,,html-keyboard-response,248,1961106,0.0-17.0-2.0,18391,List2A,black,woman,,,,null,,,,
5171,,,survey-text,249,1966279,0.0-17.0-3.0,18391,List2A,black,woman,,,,,"{""Q0"":""kate is talking to fred""}","<img src=""stim_listA/talk3.gif""style=""height:400px;""></stim_listA>",is talking to,
null,"<div style=""font-size:60px;"">+</div>",,html-keyboard-response,250,1966789,0.0-17.0-0.1,18391,List2A,black,woman,,,,null,,,,
null,"<img src=""stim_listA/play5.gif""style=""height:400px;""></stim_listA>",,html-keyboard-response,251,1968791,0.0-17.0-1.1,18391,List2A,black,woman,,,,null,,,,
null,is playing with,,html-keyboard-response,252,1970795,0.0-17.0-2.1,18391,List2A,black,woman,,,,null,,,,
14037,,,survey-text,253,1984834,0.0-17.0-3.1,18391,List2A,black,woman,,,,,"{""Q0"":""mike and luke are playing""}","<img src=""stim_listA/play5.gif""style=""height:400px;""></stim_listA>",is playing with,
null,"<div style=""font-size:60px;"">+</div>",,html-keyboard-response,254,1985349,0.0-17.0-0.2,18391,List2A,black,woman,,,,null,,,,
null,"<img src=""stim_listA/shout6.gif""style=""height:400px;""></stim_listA>",,html-keyboard-response,255,1987353,0.0-17.0-1.2,18391,List2A,black,woman,,,,null,,,,
null,are shouting at each other,,html-keyboard-response,256,1989365,0.0-17.0-2.2,18391,List2A,black,woman,,,,null,,,,
7771,,,survey-text,257,1997138,0.0-17.0-3.2,18391,List2A,black,woman,,,,,"{""Q0"":""dave and mike are shouting""}","<img src=""stim_listA/shout6.gif""style=""height:400px;""></stim_listA>",are shouting at each other,
null,"<div style=""font-size:60px;"">+</div>",,html-keyboard-response,258,1997653,0.0-17.0-0.3,18391,List2A,black,woman,,,,null,,,,
null,"<img src=""stim_listA/play1.gif""style=""height:400px;""></stim_listA>",,html-keyboard-response,259,1999656,0.0-17.0-1.3,18391,List2A,black,woman,,,,null,,,,
null,is playing with,,html-keyboard-response,260,2001666,0.0-17.0-2.3,18391,List2A,black,woman,,,,null,,,,
5970,,,survey-text,261,2007637,0.0-17.0-3.3,18391,List2A,black,woman,,,,,"{""Q0"":""jane and dave are playing""}","<img src=""stim_listA/play1.gif""style=""height:400px;""></stim_listA>",is playing with,
null,"<div style=""font-size:60px;"">+</div>",,html-keyboard-response,262,2008151,0.0-17.0-0.4,18391,List2A,black,woman,,,,null,,,,
null,"<img src=""stim_listA/kiss2.gif""style=""height:400px;""></stim_listA>",,html-keyboard-response,263,2010155,0.0-17.0-1.4,18391,List2A,black,woman,,,,null,,,,
null,are kissing each other,,html-keyboard-response,264,2012157,0.0-17.0-2.4,18391,List2A,black,woman,,,,null,,,,
7098,,,survey-text,265,2019257,0.0-17.0-3.4,18391,List2A,black,woman,,,,,"{""Q0"":""dave and jane are kissing""}","<img src=""stim_listA/kiss2.gif""style=""height:400px;""></stim_listA>",are kissing each other,
null,"<div style=""font-size:60px;"">+</div>",,html-keyboard-response,266,2019761,0.0-17.0-0.5,18391,List2A,black,woman,,,,null,,,,
null,"<img src=""stim_listA/dance5.gif""style=""height:400px;""></stim_listA>",,html-keyboard-response,267,2021765,0.0-17.0-1.5,18391,List2A,black,woman,,,,null,,,,
null,is dancing with,,html-keyboard-response,268,2023780,0.0-17.0-2.5,18391,List2A,black,woman,,,,null,,,,
5696,,,survey-text,269,2029477,0.0-17.0-3.5,18391,List2A,black,woman,,,,,"{""Q0"":""mike and luke are dancing""}","<img src=""stim_listA/dance5.gif""style=""height:400px;""></stim_listA>",is dancing with,
null,"<div style=""font-size:60px;"">+</div>",,html-keyboard-response,270,2029979,0.0-17.0-0.6,18391,List2A,black,woman,,,,null,,,,
null,"<img src=""stim_listA/touch7.gif""style=""height:400px;""></stim_listA>",,html-keyboard-response,271,2031993,0.0-17.0-1.6,18391,List2A,black,woman,,,,null,,,,
null,is touching,,html-keyboard-response,272,2033995,0.0-17.0-2.6,18391,List2A,black,woman,,,,null,,,,
6149,,,survey-text,273,2040145,0.0-17.0-3.6,18391,List2A,black,woman,,,,,"{""Q0"":""kate is touching jane""}","<img src=""stim_listA/touch7.gif""style=""height:400px;""></stim_listA>",is touching,
null,"<div style=""font-size:60px;"">+</div>",,html-keyboard-response,274,2040647,0.0-17.0-0.7,18391,List2A,black,woman,,,,null,,,,
null,"<img src=""stim_listA/argue6.gif""style=""height:400px;""></stim_listA>",,html-keyboard-response,275,2042653,0.0-17.0-1.7,18391,List2A,black,woman,,,,null,,,,
null,are arguing with each other,,html-keyboard-response,276,2044655,0.0-17.0-2.7,18391,List2A,black,woman,,,,null,,,,
10109,,,survey-text,277,2054766,0.0-17.0-3.7,18391,List2A,black,woman,,,,,"{""Q0"":""luke and mike are arguing""}","<img src=""stim_listA/argue6.gif""style=""height:400px;""></stim_listA>",are arguing with each other,
null,"<div style=""font-size:60px;"">+</div>",,html-keyboard-response,278,2055270,0.0-17.0-0.8,18391,List2A,black,woman,,,,null,,,,
null,"<img src=""stim_listA/marry5.gif""style=""height:400px;""></stim_listA>",,html-keyboard-response,279,2057275,0.0-17.0-1.8,18391,List2A,black,woman,,,,null,,,,
null,is marrying,,html-keyboard-response,280,2059278,0.0-17.0-2.8,18391,List2A,black,woman,,,,null,,,,
7600,,,survey-text,281,2066880,0.0-17.0-3.8,18391,List2A,black,woman,,,,,"{""Q0"":""fred and dave are arguing""}","<img src=""stim_listA/marry5.gif""style=""height:400px;""></stim_listA>",is marrying,
null,"<div style=""font-size:60px;"">+</div>",,html-keyboard-response,282,2067397,0.0-17.0-0.9,18391,List2A,black,woman,,,,null,,,,
null,"<img src=""stim_listA/argue5.gif""style=""height:400px;""></stim_listA>",,html-keyboard-response,283,2069400,0.0-17.0-1.9,18391,List2A,black,woman,,,,null,,,,
null,is arguing with,,html-keyboard-response,284,2071402,0.0-17.0-2.9,18391,List2A,black,woman,,,,null,,,,
14148,,,survey-text,285,2085552,0.0-17.0-3.9,18391,List2A,black,woman,,,,,"{""Q0"":""dave and fred are arguing""}","<img src=""stim_listA/argue5.gif""style=""height:400px;""></stim_listA>",is arguing with,
null,"<div style=""font-size:60px;"">+</div>",,html-keyboard-response,286,2086059,0.0-17.0-0.10,18391,List2A,black,woman,,,,null,,,,
null,"<img src=""stim_listA/talk2.gif""style=""height:400px;""></stim_listA>",,html-keyboard-response,287,2088065,0.0-17.0-1.10,18391,List2A,black,woman,,,,null,,,,
null,are talking to each other,,html-keyboard-response,288,2090082,0.0-17.0-2.10,18391,List2A,black,woman,,,,null,,,,
20704,,,survey-text,289,2110787,0.0-17.0-3.10,18391,List2A,black,woman,,,,,"{""Q0"":""dave and fred are dsncing""}","<img src=""stim_listA/talk2.gif""style=""height:400px;""></stim_listA>",are talking to each other,
null,"<div style=""font-size:60px;"">+</div>",,html-keyboard-response,290,2111295,0.0-17.0-0.11,18391,List2A,black,woman,,,,null,,,,
null,"<img src=""stim_listA/touch1.gif""style=""height:400px;""></stim_listA>",,html-keyboard-response,291,2113302,0.0-17.0-1.11,18391,List2A,black,woman,,,,null,,,,
null,is touching,,html-keyboard-response,292,2115305,0.0-17.0-2.11,18391,List2A,black,woman,,,,null,,,,
37624,,,survey-text,293,2152930,0.0-17.0-3.11,18391,List2A,black,woman,,,,,"{""Q0"":""dave and jane are touching each others hands""}","<img src=""stim_listA/touch1.gif""style=""height:400px;""></stim_listA>",is touching,
null,"<div style=""font-size:60px;"">+</div>",,html-keyboard-response,294,2153444,0.0-17.0-0.12,18391,List2A,black,woman,,,,null,,,,
null,"<img src=""stim_listA/kiss4.gif""style=""height:400px;""></stim_listA>",,html-keyboard-response,295,2155449,0.0-17.0-1.12,18391,List2A,black,woman,,,,null,,,,
null,are kissing each other,,html-keyboard-response,296,2157462,0.0-17.0-2.12,18391,List2A,black,woman,,,,null,,,,
5903,,,survey-text,297,2163366,0.0-17.0-3.12,18391,List2A,black,woman,,,,,"{""Q0"":""mike and kate are kissing""}","<img src=""stim_listA/kiss4.gif""style=""height:400px;""></stim_listA>",are kissing each other,
null,"<div style=""font-size:60px;"">+</div>",,html-keyboard-response,298,2163868,0.0-17.0-0.13,18391,List2A,black,woman,,,,null,,,,
null,"<img src=""stim_listA/touch5.gif""style=""height:400px;""></stim_listA>",,html-keyboard-response,299,2165874,0.0-17.0-1.13,18391,List2A,black,woman,,,,null,,,,
null,is touching,,html-keyboard-response,300,2167876,0.0-17.0-2.13,18391,List2A,black,woman,,,,null,,,,
6741,,,survey-text,301,2174618,0.0-17.0-3.13,18391,List2A,black,woman,,,,,"{""Q0"":""mike is touching dave""}","<img src=""stim_listA/touch5.gif""style=""height:400px;""></stim_listA>",is touching,
null,"<div style=""font-size:60px;"">+</div>",,html-keyboard-response,302,2175126,0.0-17.0-0.14,18391,List2A,black,woman,,,,null,,,,
null,"<img src=""stim_listA/marry6.gif""style=""height:400px;""></stim_listA>",,html-keyboard-response,303,2177129,0.0-17.0-1.14,18391,List2A,black,woman,,,,null,,,,
null,are marrying each other,,html-keyboard-response,304,2179134,0.0-17.0-2.14,18391,List2A,black,woman,,,,null,,,,
10857,,,survey-text,305,2189994,0.0-17.0-3.14,18391,List2A,black,woman,,,,,"{""Q0"":""luke and mike are marrying each other""}","<img src=""stim_listA/marry6.gif""style=""height:400px;""></stim_listA>",are marrying each other,
null,"<div style=""font-size:60px;"">+</div>",,html-keyboard-response,306,2190496,0.0-17.0-0.15,18391,List2A,black,woman,,,,null,,,,
null,"<img src=""stim_listA/fight1.gif""style=""height:400px;""></stim_listA>",,html-keyboard-response,307,2192500,0.0-17.0-1.15,18391,List2A,black,woman,,,,null,,,,
null,is fighting,,html-keyboard-response,308,2194506,0.0-17.0-2.15,18391,List2A,black,woman,,,,null,,,,
6359,,,survey-text,309,2200866,0.0-17.0-3.15,18391,List2A,black,woman,,,,,"{""Q0"":""jane and dave are fighting""}","<img src=""stim_listA/fight1.gif""style=""height:400px;""></stim_listA>",is fighting,
null,"<div style=""font-size:60px;"">+</div>",,html-keyboard-response,310,2201376,0.0-17.0-0.16,18391,List2A,black,woman,,,,null,,,,
null,"<img src=""stim_listA/play2.gif""style=""height:400px;""></stim_listA>",,html-keyboard-response,311,2203381,0.0-17.0-1.16,18391,List2A,black,woman,,,,null,,,,
null,are playing with each other,,html-keyboard-response,312,2205384,0.0-17.0-2.16,18391,List2A,black,woman,,,,null,,,,
79512,,,survey-text,313,2284897,0.0-17.0-3.16,18391,List2A,black,woman,,,,,"{""Q0"":""ruth and luke are playing""}","<img src=""stim_listA/play2.gif""style=""height:400px;""></stim_listA>",are playing with each other,
null,"<div style=""font-size:60px;"">+</div>",,html-keyboard-response,314,2285414,0.0-17.0-0.17,18391,List2A,black,woman,,,,null,,,,
null,"<img src=""stim_listA/dance3.gif""style=""height:400px;""></stim_listA>",,html-keyboard-response,315,2287417,0.0-17.0-1.17,18391,List2A,black,woman,,,,null,,,,
null,is dancing with,,html-keyboard-response,316,2289426,0.0-17.0-2.17,18391,List2A,black,woman,,,,null,,,,
16109,,,survey-text,317,2305537,0.0-17.0-3.17,18391,List2A,black,woman,,,,,"{""Q0"":""kate and fred are dancing""}","<img src=""stim_listA/dance3.gif""style=""height:400px;""></stim_listA>",is dancing with,
null,"<div style=""font-size:60px;"">+</div>",,html-keyboard-response,318,2306042,0.0-17.0-0.18,18391,List2A,black,woman,,,,null,,,,
null,"<img src=""stim_listA/argue3.gif""style=""height:400px;""></stim_listA>",,html-keyboard-response,319,2308051,0.0-17.0-1.18,18391,List2A,black,woman,,,,null,,,,
null,is arguing with,,html-keyboard-response,320,2310054,0.0-17.0-2.18,18391,List2A,black,woman,,,,null,,,,
15777,,,survey-text,321,2325832,0.0-17.0-3.18,18391,List2A,black,woman,,,,,"{""Q0"":""mike and beth are arguing""}","<img src=""stim_listA/argue3.gif""style=""height:400px;""></stim_listA>",is arguing with,
null,"<div style=""font-size:60px;"">+</div>",,html-keyboard-response,322,2326347,0.0-17.0-0.19,18391,List2A,black,woman,,,,null,,,,
null,"<img src=""stim_listA/fight7.gif""style=""height:400px;""></stim_listA>",,html-keyboard-response,323,2328355,0.0-17.0-1.19,18391,List2A,black,woman,,,,null,,,,
null,is fighting,,html-keyboard-response,324,2330358,0.0-17.0-2.19,18391,List2A,black,woman,,,,null,,,,
276059,,,survey-text,325,2606419,0.0-17.0-3.19,18391,List2A,black,woman,,,,,"{""Q0"":""jane and kate are fighting""}","<img src=""stim_listA/fight7.gif""style=""height:400px;""></stim_listA>",is fighting,
3057,"<img src='img/portrait_matrix_list2.jpg' style='width:900px;height:500px;''></img><p>If you have memorised all the portraits and names and are ready to start, press Continue.</p><p><strong>Please note: Your memory of these faces will be tested 4 times during this experiment.</strong></p>",0,html-button-response,326,2609477,0.0-18.0-0.0,18391,List2A,black,woman,,,,,,,,
2688,"<img src=""portrait/WW2.jpg""style=""height:400px;""></img>",3,html-button-response,327,2613169,0.0-18.0-1.0,18391,List2A,black,woman,,TRUE,3,,,,,
null,CORRECT,,html-keyboard-response,328,2614695,0.0-18.0-2.0-0.0,18391,List2A,black,woman,,,,null,,,,
1661,"<img src=""portrait/WM2.jpg""style=""height:400px;""></img>",7,html-button-response,329,2616357,0.0-18.0-4.0,18391,List2A,black,woman,,TRUE,7,,,,,
null,CORRECT,,html-keyboard-response,330,2617885,0.0-18.0-5.0-0.0,18391,List2A,black,woman,,,,null,,,,
1652,"<img src=""portrait/BM2.jpg""style=""height:400px;""></img>",5,html-button-response,331,2619539,0.0-18.0-7.0,18391,List2A,black,woman,,TRUE,5,,,,,
null,CORRECT,,html-keyboard-response,332,2621063,0.0-18.0-8.0-0.0,18391,List2A,black,woman,,,,null,,,,
3783,"<img src=""portrait/BW2.jpg""style=""height:400px;""></img>",2,html-button-response,333,2624849,0.0-18.0-10.0,18391,List2A,black,woman,,TRUE,2,,,,,
null,CORRECT,,html-keyboard-response,334,2626353,0.0-18.0-11.0-0.0,18391,List2A,black,woman,,,,null,,,,
1556,"<img src=""portrait/WM1.jpg""style=""height:400px;""></img>",6,html-button-response,335,2627910,0.0-18.0-13.0,18391,List2A,black,woman,,TRUE,6,,,,,
null,CORRECT,,html-keyboard-response,336,2629425,0.0-18.0-14.0-0.0,18391,List2A,black,woman,,,,null,,,,
1454,"<img src=""portrait/BM1.jpg""style=""height:400px;""></img>",4,html-button-response,337,2630882,0.0-18.0-16.0,18391,List2A,black,woman,,TRUE,4,,,,,
null,CORRECT,,html-keyboard-response,338,2632408,0.0-18.0-17.0-0.0,18391,List2A,black,woman,,,,null,,,,
3296,"<img src=""portrait/WW1.jpg""style=""height:400px;""></img>",1,html-button-response,339,2635705,0.0-18.0-19.0,18391,List2A,black,woman,,TRUE,1,,,,,
null,CORRECT,,html-keyboard-response,340,2637218,0.0-18.0-20.0-0.0,18391,List2A,black,woman,,,,null,,,,
1193,"<img src=""portrait/BW1.jpg""style=""height:400px;""></img>",0,html-button-response,341,2638414,0.0-18.0-22.0,18391,List2A,black,woman,,TRUE,0,,,,,
null,CORRECT,,html-keyboard-response,342,2639937,0.0-18.0-23.0-0.0,18391,List2A,black,woman,,,,null,,,,
1574,<p>You got 8 out of 8 right first time. Press Continue.</p>,0,html-button-response,343,2641514,0.0-18.0-25.0,18391,List2A,black,woman,,,,,,,,
null,"<div style=""font-size:60px;"">+</div>",,html-keyboard-response,344,2643034,0.0-19.0-0.0,18391,List2A,black,woman,,,,null,,,,
null,"<img src=""stim_listA/marry1.gif""style=""height:400px;""></stim_listA>",,html-keyboard-response,345,2645038,0.0-19.0-1.0,18391,List2A,black,woman,,,,null,,,,
null,is marrying,,html-keyboard-response,346,2647039,0.0-19.0-2.0,18391,List2A,black,woman,,,,null,,,,
9196,,,survey-text,347,2656238,0.0-19.0-3.0,18391,List2A,black,woman,,,,,"{""Q0"":""dave and ruth are marring""}","<img src=""stim_listA/marry1.gif""style=""height:400px;""></stim_listA>",is marrying,
null,"<div style=""font-size:60px;"">+</div>",,html-keyboard-response,348,2656743,0.0-19.0-0.1,18391,List2A,black,woman,,,,null,,,,
null,"<img src=""stim_listA/marry7.gif""style=""height:400px;""></stim_listA>",,html-keyboard-response,349,2658746,0.0-19.0-1.1,18391,List2A,black,woman,,,,null,,,,
null,is marrying,,html-keyboard-response,350,2660750,0.0-19.0-2.1,18391,List2A,black,woman,,,,null,,,,
16113,,,survey-text,351,2676864,0.0-19.0-3.1,18391,List2A,black,woman,,,,,"{""Q0"":""dave and jane are marrying""}","<img src=""stim_listA/marry7.gif""style=""height:400px;""></stim_listA>",is marrying,
null,"<div style=""font-size:60px;"">+</div>",,html-keyboard-response,352,2677374,0.0-19.0-0.2,18391,List2A,black,woman,,,,null,,,,
null,"<img src=""stim_listA/touch4.gif""style=""height:400px;""></stim_listA>",,html-keyboard-response,353,2679378,0.0-19.0-1.2,18391,List2A,black,woman,,,,null,,,,
null,are touching each other,,html-keyboard-response,354,2681382,0.0-19.0-2.2,18391,List2A,black,woman,,,,null,,,,
7928,,,survey-text,355,2689312,0.0-19.0-3.2,18391,List2A,black,woman,,,,,"{""Q0"":""beth and fred are touching""}","<img src=""stim_listA/touch4.gif""style=""height:400px;""></stim_listA>",are touching each other,
null,"<div style=""font-size:60px;"">+</div>",,html-keyboard-response,356,2689823,0.0-19.0-0.3,18391,List2A,black,woman,,,,null,,,,
null,"<img src=""stim_listA/kiss8.gif""style=""height:400px;""></stim_listA>",,html-keyboard-response,357,2691827,0.0-19.0-1.3,18391,List2A,black,woman,,,,null,,,,
null,are kissing each other,,html-keyboard-response,358,2693845,0.0-19.0-2.3,18391,List2A,black,woman,,,,null,,,,
6318,,,survey-text,359,2700165,0.0-19.0-3.3,18391,List2A,black,woman,,,,,"{""Q0"":""kate and jane are kissing""}","<img src=""stim_listA/kiss8.gif""style=""height:400px;""></stim_listA>",are kissing each other,
null,"<div style=""font-size:60px;"">+</div>",,html-keyboard-response,360,2700666,0.0-19.0-0.4,18391,List2A,black,woman,,,,null,,,,
null,"<img src=""stim_listA/kiss5.gif""style=""height:400px;""></stim_listA>",,html-keyboard-response,361,2702669,0.0-19.0-1.4,18391,List2A,black,woman,,,,null,,,,
null,is kissing,,html-keyboard-response,362,2704670,0.0-19.0-2.4,18391,List2A,black,woman,,,,null,,,,
6697,,,survey-text,363,2711368,0.0-19.0-3.4,18391,List2A,black,woman,,,,,"{""Q0"":""luke and fred are kissing""}","<img src=""stim_listA/kiss5.gif""style=""height:400px;""></stim_listA>",is kissing,
null,"<div style=""font-size:60px;"">+</div>",,html-keyboard-response,364,2711880,0.0-19.0-0.5,18391,List2A,black,woman,,,,null,,,,
null,"<img src=""stim_listA/fight6.gif""style=""height:400px;""></stim_listA>",,html-keyboard-response,365,2713883,0.0-19.0-1.5,18391,List2A,black,woman,,,,null,,,,
null,are fighting each other,,html-keyboard-response,366,2715894,0.0-19.0-2.5,18391,List2A,black,woman,,,,null,,,,
8169,,,survey-text,367,2724064,0.0-19.0-3.5,18391,List2A,black,woman,,,,,"{""Q0"":""luke and fred are fighting""}","<img src=""stim_listA/fight6.gif""style=""height:400px;""></stim_listA>",are fighting each other,
null,"<div style=""font-size:60px;"">+</div>",,html-keyboard-response,368,2724568,0.0-19.0-0.6,18391,List2A,black,woman,,,,null,,,,
null,"<img src=""stim_listA/talk4.gif""style=""height:400px;""></stim_listA>",,html-keyboard-response,369,2726571,0.0-19.0-1.6,18391,List2A,black,woman,,,,null,,,,
null,are talking to each other,,html-keyboard-response,370,2728574,0.0-19.0-2.6,18391,List2A,black,woman,,,,null,,,,
15038,,,survey-text,371,2743614,0.0-19.0-3.6,18391,List2A,black,woman,,,,,"{""Q0"":""mike and beth are talking""}","<img src=""stim_listA/talk4.gif""style=""height:400px;""></stim_listA>",are talking to each other,
null,"<div style=""font-size:60px;"">+</div>",,html-keyboard-response,372,2744120,0.0-19.0-0.7,18391,List2A,black,woman,,,,null,,,,
null,"<img src=""stim_listA/marry2.gif""style=""height:400px;""></stim_listA>",,html-keyboard-response,373,2746123,0.0-19.0-1.7,18391,List2A,black,woman,,,,null,,,,
null,are marrying each other,,html-keyboard-response,374,2748133,0.0-19.0-2.7,18391,List2A,black,woman,,,,null,,,,
7754,,,survey-text,375,2755889,0.0-19.0-3.7,18391,List2A,black,woman,,,,,"{""Q0"":""luke and jane are marrying""}","<img src=""stim_listA/marry2.gif""style=""height:400px;""></stim_listA>",are marrying each other,
null,"<div style=""font-size:60px;"">+</div>",,html-keyboard-response,376,2756399,0.0-19.0-0.8,18391,List2A,black,woman,,,,null,,,,
null,"<img src=""stim_listA/talk7.gif""style=""height:400px;""></stim_listA>",,html-keyboard-response,377,2758403,0.0-19.0-1.8,18391,List2A,black,woman,,,,null,,,,
null,is talking to,,html-keyboard-response,378,2760409,0.0-19.0-2.8,18391,List2A,black,woman,,,,null,,,,
5187,,,survey-text,379,2765598,0.0-19.0-3.8,18391,List2A,black,woman,,,,,"{""Q0"":""ruth and kate are talking""}","<img src=""stim_listA/talk7.gif""style=""height:400px;""></stim_listA>",is talking to,
null,"<div style=""font-size:60px;"">+</div>",,html-keyboard-response,380,2766105,0.0-19.0-0.9,18391,List2A,black,woman,,,,null,,,,
null,"<img src=""stim_listA/marry3.gif""style=""height:400px;""></stim_listA>",,html-keyboard-response,381,2768108,0.0-19.0-1.9,18391,List2A,black,woman,,,,null,,,,
null,is marrying,,html-keyboard-response,382,2770116,0.0-19.0-2.9,18391,List2A,black,woman,,,,null,,,,
5276,,,survey-text,383,2775393,0.0-19.0-3.9,18391,List2A,black,woman,,,,,"{""Q0"":""beth and mike are marrying""}","<img src=""stim_listA/marry3.gif""style=""height:400px;""></stim_listA>",is marrying,
null,"<div style=""font-size:60px;"">+</div>",,html-keyboard-response,384,2775904,0.0-19.0-0.10,18391,List2A,black,woman,,,,null,,,,
null,"<img src=""stim_listA/shout4.gif""style=""height:400px;""></stim_listA>",,html-keyboard-response,385,2777908,0.0-19.0-1.10,18391,List2A,black,woman,,,,null,,,,
null,are shouting at each other,,html-keyboard-response,386,2779910,0.0-19.0-2.10,18391,List2A,black,woman,,,,null,,,,
9115,,,survey-text,387,2789026,0.0-19.0-3.10,18391,List2A,black,woman,,,,,"{""Q0"":""mike and kate are shouting""}","<img src=""stim_listA/shout4.gif""style=""height:400px;""></stim_listA>",are shouting at each other,
null,"<div style=""font-size:60px;"">+</div>",,html-keyboard-response,388,2789531,0.0-19.0-0.11,18391,List2A,black,woman,,,,null,,,,
null,"<img src=""stim_listA/touch6.gif""style=""height:400px;""></stim_listA>",,html-keyboard-response,389,2791534,0.0-19.0-1.11,18391,List2A,black,woman,,,,null,,,,
null,are touching each other,,html-keyboard-response,390,2793535,0.0-19.0-2.11,18391,List2A,black,woman,,,,null,,,,
10126,,,survey-text,391,2803662,0.0-19.0-3.11,18391,List2A,black,woman,,,,,"{""Q0"":""luke and fred are touching each other""}","<img src=""stim_listA/touch6.gif""style=""height:400px;""></stim_listA>",are touching each other,
null,"<div style=""font-size:60px;"">+</div>",,html-keyboard-response,392,2804174,0.0-19.0-0.12,18391,List2A,black,woman,,,,null,,,,
null,"<img src=""stim_listA/dance1.gif""style=""height:400px;""></stim_listA>",,html-keyboard-response,393,2806177,0.0-19.0-1.12,18391,List2A,black,woman,,,,null,,,,
null,is dancing with,,html-keyboard-response,394,2808180,0.0-19.0-2.12,18391,List2A,black,woman,,,,null,,,,
8641,,,survey-text,395,2816822,0.0-19.0-3.12,18391,List2A,black,woman,,,,,"{""Q0"":""luke and jane are dancing""}","<img src=""stim_listA/dance1.gif""style=""height:400px;""></stim_listA>",is dancing with,
null,"<div style=""font-size:60px;"">+</div>",,html-keyboard-response,396,2817340,0.0-19.0-0.13,18391,List2A,black,woman,,,,null,,,,
null,"<img src=""stim_listA/play8.gif""style=""height:400px;""></stim_listA>",,html-keyboard-response,397,2819344,0.0-19.0-1.13,18391,List2A,black,woman,,,,null,,,,
null,are playing with each other,,html-keyboard-response,398,2821346,0.0-19.0-2.13,18391,List2A,black,woman,,,,null,,,,
10467,,,survey-text,399,2831814,0.0-19.0-3.13,18391,List2A,black,woman,,,,,"{""Q0"":""ruth and beth are playing""}","<img src=""stim_listA/play8.gif""style=""height:400px;""></stim_listA>",are playing with each other,
null,"<div style=""font-size:60px;"">+</div>",,html-keyboard-response,400,2832316,0.0-19.0-0.14,18391,List2A,black,woman,,,,null,,,,
null,"<img src=""stim_listA/touch8.gif""style=""height:400px;""></stim_listA>",,html-keyboard-response,401,2834319,0.0-19.0-1.14,18391,List2A,black,woman,,,,null,,,,
null,are touching each other,,html-keyboard-response,402,2836331,0.0-19.0-2.14,18391,List2A,black,woman,,,,null,,,,
28901,,,survey-text,403,2865233,0.0-19.0-3.14,18391,List2A,black,woman,,,,,"{""Q0"":""ruth and fred sre kissing""}","<img src=""stim_listA/touch8.gif""style=""height:400px;""></stim_listA>",are touching each other,
null,"<div style=""font-size:60px;"">+</div>",,html-keyboard-response,404,2865747,0.0-19.0-0.15,18391,List2A,black,woman,,,,null,,,,
null,"<img src=""stim_listA/fight5.gif""style=""height:400px;""></stim_listA>",,html-keyboard-response,405,2867752,0.0-19.0-1.15,18391,List2A,black,woman,,,,null,,,,
null,is fighting,,html-keyboard-response,406,2869753,0.0-19.0-2.15,18391,List2A,black,woman,,,,null,,,,
6322,,,survey-text,407,2876077,0.0-19.0-3.15,18391,List2A,black,woman,,,,,"{""Q0"":""mike and dave are fighting""}","<img src=""stim_listA/fight5.gif""style=""height:400px;""></stim_listA>",is fighting,
null,"<div style=""font-size:60px;"">+</div>",,html-keyboard-response,408,2876586,0.0-19.0-0.16,18391,List2A,black,woman,,,,null,,,,
null,"<img src=""stim_listA/play4.gif""style=""height:400px;""></stim_listA>",,html-keyboard-response,409,2878589,0.0-19.0-1.16,18391,List2A,black,woman,,,,null,,,,
null,are playing with each other,,html-keyboard-response,410,2880598,0.0-19.0-2.16,18391,List2A,black,woman,,,,null,,,,
7829,,,survey-text,411,2888429,0.0-19.0-3.16,18391,List2A,black,woman,,,,,"{""Q0"":""fred and beth are playing""}","<img src=""stim_listA/play4.gif""style=""height:400px;""></stim_listA>",are playing with each other,
null,"<div style=""font-size:60px;"">+</div>",,html-keyboard-response,412,2888942,0.0-19.0-0.17,18391,List2A,black,woman,,,,null,,,,
null,"<img src=""stim_listA/shout2.gif""style=""height:400px;""></stim_listA>",,html-keyboard-response,413,2890945,0.0-19.0-1.17,18391,List2A,black,woman,,,,null,,,,
null,are shouting at each other,,html-keyboard-response,414,2892948,0.0-19.0-2.17,18391,List2A,black,woman,,,,null,,,,
6330,,,survey-text,415,2899281,0.0-19.0-3.17,18391,List2A,black,woman,,,,,"{""Q0"":""dave and jane are shouting""}","<img src=""stim_listA/shout2.gif""style=""height:400px;""></stim_listA>",are shouting at each other,
null,"<div style=""font-size:60px;"">+</div>",,html-keyboard-response,416,2899795,0.0-19.0-0.18,18391,List2A,black,woman,,,,null,,,,
null,"<img src=""stim_listA/touch2.gif""style=""height:400px;""></stim_listA>",,html-keyboard-response,417,2901797,0.0-19.0-1.18,18391,List2A,black,woman,,,,null,,,,
null,are touching each other,,html-keyboard-response,418,2903802,0.0-19.0-2.18,18391,List2A,black,woman,,,,null,,,,
10485,,,survey-text,419,2914289,0.0-19.0-3.18,18391,List2A,black,woman,,,,,"{""Q0"":""luke and ruth are touching""}","<img src=""stim_listA/touch2.gif""style=""height:400px;""></stim_listA>",are touching each other,
null,"<div style=""font-size:60px;"">+</div>",,html-keyboard-response,420,2914797,0.0-19.0-0.19,18391,List2A,black,woman,,,,null,,,,
null,"<img src=""stim_listA/argue7.gif""style=""height:400px;""></stim_listA>",,html-keyboard-response,421,2916801,0.0-19.0-1.19,18391,List2A,black,woman,,,,null,,,,
null,is arguing with,,html-keyboard-response,422,2918803,0.0-19.0-2.19,18391,List2A,black,woman,,,,null,,,,
6929,,,survey-text,423,2925734,0.0-19.0-3.19,18391,List2A,black,woman,,,,,"{""Q0"":""beth and jane are touching""}","<img src=""stim_listA/argue7.gif""style=""height:400px;""></stim_listA>",is arguing with,
1722,<p>Thank you for completing that task.</p><p>The final part of this session is a short questionnaire.</p><p>Press Continue.</p>,0,html-button-response,424,2927458,0.0-20.0,18391,List2A,black,woman,,,,,,,,
29426,,,survey-text,425,2957903,0.0-21.0,18391,List2A,black,woman,,,,,"{""Q0"":""31"",""Q1"":""english"",""Q2"":""english"",""Q3"":""uk"",""Q4"":""carribean"",""Q5"":""female""}",,,demographics
10514,,,survey-likert,426,2968419,0.0-22.0,18391,List2A,black,woman,,,,,"{""Q0"":5}",,,likert_ESS
5358,,,survey-likert,427,2973779,0.0-23.0,18391,List2A,black,woman,,,,,"{""Q0"":5}",,,likert_NSSAL_Q1
3738,,,survey-likert,428,2977519,0.0-24.0,18391,List2A,black,woman,,,,,"{""Q0"":5}",,,likert_NSSAL_Q2
3330,,,survey-likert,429,2980851,0.0-25.0,18391,List2A,black,woman,,,,,"{""Q0"":3}",,,likert_CGRS_Q1
2947,,,survey-likert,430,2983799,0.0-26.0,18391,List2A,black,woman,,,,,"{""Q0"":5}",,,likert_CGRS_Q2
4445,,,survey-likert,431,2988246,0.0-27.0,18391,List2A,black,woman,,,,,"{""Q0"":2}",,,likert_CGRS_Q3
3704,,,survey-text,432,2991953,0.0-28.0,18391,List2A,black,woman,,,,,"{""Q0"":""ccc""}",,,worker_id
14913,,,external-html,433,3007053,0.0-29.0,18391,List2A,black,woman,debrief.html,,,,,,,
