rt,stimulus,button_pressed,trial_type,trial_index,time_elapsed,internal_node_id,subject,list,ppt_race,ppt_gender,url,first_guess,correct,key_press,responses,image_type,phrase_type,test_part
3096,Welcome to the experiment. Press Continue to begin.,0,html-button-response,0,3111,0.0-0.0,18591,List1B,white,woman,,,,,,,,
53506,,,external-html,1,57710,0.0-1.0,18591,List1B,white,woman,consent.html,,,,,,,
10846,"<p>On the next page, you will see portraits of 8 people and their names.</p><p>Your first task is to take a few minutes to memorise the names of these people.</p><p>You will have to recall their names during the rest of the experiment, so it is</p><p>essential that you try to memorise these people and their names as best as you can.</p><br><p><strong>You will then be tested on your memory of these names and portraits.</strong></p><br><p>The experiment will start after you have completed this memory test.</p><br><p>Ready?</p>",0,html-button-response,2,68563,0.0-2.0,18591,List1B,white,woman,,,,,,,,
34189,"<img src='img/portrait_matrix_list1.jpg' style='width:900px;height:500px;''></img><p>If you have memorised all the portraits and names and are ready to start, press Continue.</p><p><strong>Please note: Your memory of these faces will be tested 4 times during this experiment.</strong></p>",0,html-button-response,3,103764,0.0-3.0-0.0,18591,List1B,white,woman,,,,,,,,
5210,"<img src=""portrait/WM2.jpg""style=""height:400px;""></img>",7,html-button-response,4,109995,0.0-3.0-1.0,18591,List1B,white,woman,,TRUE,7,,,,,
null,CORRECT,,html-keyboard-response,5,111530,0.0-3.0-2.0-0.0,18591,List1B,white,woman,,,,null,,,,
6120,"<img src=""portrait/WW2.jpg""style=""height:400px;""></img>",3,html-button-response,6,117656,0.0-3.0-4.0,18591,List1B,white,woman,,TRUE,3,,,,,
null,CORRECT,,html-keyboard-response,7,119180,0.0-3.0-5.0-0.0,18591,List1B,white,woman,,,,null,,,,
2878,"<img src=""portrait/WW1.jpg""style=""height:400px;""></img>",1,html-button-response,8,122066,0.0-3.0-7.0,18591,List1B,white,woman,,TRUE,1,,,,,
null,CORRECT,,html-keyboard-response,9,123589,0.0-3.0-8.0-0.0,18591,List1B,white,woman,,,,null,,,,
9611,"<img src=""portrait/BM2.jpg""style=""height:400px;""></img>",5,html-button-response,10,133208,0.0-3.0-10.0,18591,List1B,white,woman,,TRUE,5,,,,,
null,CORRECT,,html-keyboard-response,11,134728,0.0-3.0-11.0-0.0,18591,List1B,white,woman,,,,null,,,,
5790,"<img src=""portrait/WM1.jpg""style=""height:400px;""></img>",6,html-button-response,12,140524,0.0-3.0-13.0,18591,List1B,white,woman,,TRUE,6,,,,,
null,CORRECT,,html-keyboard-response,13,142052,0.0-3.0-14.0-0.0,18591,List1B,white,woman,,,,null,,,,
6919,"<img src=""portrait/BM1.jpg""style=""height:400px;""></img>",4,html-button-response,14,148979,0.0-3.0-16.0,18591,List1B,white,woman,,TRUE,4,,,,,
null,CORRECT,,html-keyboard-response,15,150490,0.0-3.0-17.0-0.0,18591,List1B,white,woman,,,,null,,,,
11744,"<img src=""portrait/BW2.jpg""style=""height:400px;""></img>",2,html-button-response,16,162241,0.0-3.0-19.0,18591,List1B,white,woman,,TRUE,2,,,,,
null,CORRECT,,html-keyboard-response,17,163769,0.0-3.0-20.0-0.0,18591,List1B,white,woman,,,,null,,,,
7674,"<img src=""portrait/BW1.jpg""style=""height:400px;""></img>",0,html-button-response,18,171448,0.0-3.0-22.0,18591,List1B,white,woman,,TRUE,0,,,,,
null,CORRECT,,html-keyboard-response,19,172962,0.0-3.0-23.0-0.0,18591,List1B,white,woman,,,,null,,,,
2045,<p>You got 8 out of 8 right first time. Press Continue.</p>,0,html-button-response,20,175010,0.0-3.0-25.0,18591,List1B,white,woman,,,,,,,,
50350,"<p>In this experiment, you will view photographs of the people from the memory game interacting.</p><p>By using the <strong>exact</strong> phrase given <i>after</i> the photograph appears and recalling the correct names of the people in the photographs, form a sentence describing the interaction. You do not need to capitalise names.</p><p>Type your answer in the space provided. Please complete every sentence before moving onto the next trial.</p><p>You will only have a few seconds to memorise each given photograph and phrase before you can respond, so try your best to focus.</p><p>An example is given below. Press 'Continue' when you are ready.</p><img src='img/speaking_example.jpg' style='width:800px;height:460px;''></img>",0,html-button-response,21,226368,0.0-4.0,18591,List1B,white,woman,,,,,,,,
4416,"<p>Before the experiment starts, you will watch two example trials. Press 'Continue'.</p>",0,html-button-response,22,231797,0.0-5.0,18591,List1B,white,woman,,,,,,,,
null,<img src='img/meet_eg.gif' style='height:400px;''></img>,,html-keyboard-response,23,234823,0.0-6.0,18591,List1B,white,woman,,,,null,,,,
null,<p>is meeting</p>,,html-keyboard-response,24,236848,0.0-7.0,18591,List1B,white,woman,,,,null,,,,
3312,<p><b>Answer:</b> kate is meeting beth</p>,0,html-button-response,25,240162,0.0-8.0,18591,List1B,white,woman,,,,,,,,
null,<img src='img/look_eg.gif' style='height:400px;''></img>,,html-keyboard-response,26,243184,0.0-9.0,18591,List1B,white,woman,,,,null,,,,
null,<p>are looking at each other</p>,,html-keyboard-response,27,245199,0.0-10.0,18591,List1B,white,woman,,,,null,,,,
2157,<p><b>Answer:</b> luke and dave are looking at each other</p>,0,html-button-response,28,247358,0.0-11.0,18591,List1B,white,woman,,,,,,,,
5612,"<p>Ready to start the experiment?</p><br><p><strong>Remember to describe the picture using a full sentence,</strong></p><p><strong>that combines the names of the people with the <i>exact</i> phrase given.</strong></p><p><strong>To receive full payment you must do this correctly.</strong></p><p><strong> You do not need to capitalise names or use punctuation.</strong></p><br><p>Press 'Continue' to begin.</p>",0,html-button-response,29,253987,0.0-12.0,18591,List1B,white,woman,,,,,,,,
null,"<div style=""font-size:60px;"">+</div>",,html-keyboard-response,30,255504,0.0-13.0-0.0,18591,List1B,white,woman,,,,null,,,,
null,"<img src=""stim_listB/argue5.gif""style=""height:400px;""></stim_listB>",,html-keyboard-response,31,257512,0.0-13.0-1.0,18591,List1B,white,woman,,,,null,,,,
null,is arguing with,,html-keyboard-response,32,259518,0.0-13.0-2.0,18591,List1B,white,woman,,,,null,,,,
27438,,,survey-text,33,286961,0.0-13.0-3.0,18591,List1B,white,woman,,,,,"{""Q0"":""luke is arguing with mike""}","<img src=""stim_listB/argue5.gif""style=""height:400px;""></stim_listB>",is arguing with,
null,"<div style=""font-size:60px;"">+</div>",,html-keyboard-response,34,287468,0.0-13.0-0.1,18591,List1B,white,woman,,,,null,,,,
null,"<img src=""stim_listB/kiss6.gif""style=""height:400px;""></stim_listB>",,html-keyboard-response,35,289471,0.0-13.0-1.1,18591,List1B,white,woman,,,,null,,,,
null,are kissing each other,,html-keyboard-response,36,291489,0.0-13.0-2.1,18591,List1B,white,woman,,,,null,,,,
21145,,,survey-text,37,312638,0.0-13.0-3.1,18591,List1B,white,woman,,,,,"{""Q0"":""dave and fred are kissing each other ""}","<img src=""stim_listB/kiss6.gif""style=""height:400px;""></stim_listB>",are kissing each other,
null,"<div style=""font-size:60px;"">+</div>",,html-keyboard-response,38,313149,0.0-13.0-0.2,18591,List1B,white,woman,,,,null,,,,
null,"<img src=""stim_listB/kiss1.gif""style=""height:400px;""></stim_listB>",,html-keyboard-response,39,315154,0.0-13.0-1.2,18591,List1B,white,woman,,,,null,,,,
null,is kissing,,html-keyboard-response,40,317158,0.0-13.0-2.2,18591,List1B,white,woman,,,,null,,,,
9593,,,survey-text,41,326753,0.0-13.0-3.2,18591,List1B,white,woman,,,,,"{""Q0"":""fred is kissing beth""}","<img src=""stim_listB/kiss1.gif""style=""height:400px;""></stim_listB>",is kissing,
null,"<div style=""font-size:60px;"">+</div>",,html-keyboard-response,42,327263,0.0-13.0-0.3,18591,List1B,white,woman,,,,null,,,,
null,"<img src=""stim_listB/dance1.gif""style=""height:400px;""></stim_listB>",,html-keyboard-response,43,329272,0.0-13.0-1.3,18591,List1B,white,woman,,,,null,,,,
null,is dancing with,,html-keyboard-response,44,331286,0.0-13.0-2.3,18591,List1B,white,woman,,,,null,,,,
16205,,,survey-text,45,347494,0.0-13.0-3.3,18591,List1B,white,woman,,,,,"{""Q0"":""fred is dancing with kate""}","<img src=""stim_listB/dance1.gif""style=""height:400px;""></stim_listB>",is dancing with,
null,"<div style=""font-size:60px;"">+</div>",,html-keyboard-response,46,347997,0.0-13.0-0.4,18591,List1B,white,woman,,,,null,,,,
null,"<img src=""stim_listB/argue3.gif""style=""height:400px;""></stim_listB>",,html-keyboard-response,47,350004,0.0-13.0-1.4,18591,List1B,white,woman,,,,null,,,,
null,is arguing with,,html-keyboard-response,48,352015,0.0-13.0-2.4,18591,List1B,white,woman,,,,null,,,,
14530,,,survey-text,49,366548,0.0-13.0-3.4,18591,List1B,white,woman,,,,,"{""Q0"":""ruth is arguing with dave""}","<img src=""stim_listB/argue3.gif""style=""height:400px;""></stim_listB>",is arguing with,
null,"<div style=""font-size:60px;"">+</div>",,html-keyboard-response,50,367065,0.0-13.0-0.5,18591,List1B,white,woman,,,,null,,,,
null,"<img src=""stim_listB/dance8.gif""style=""height:400px;""></stim_listB>",,html-keyboard-response,51,369071,0.0-13.0-1.5,18591,List1B,white,woman,,,,null,,,,
null,are dancing with each other,,html-keyboard-response,52,371086,0.0-13.0-2.5,18591,List1B,white,woman,,,,null,,,,
18956,,,survey-text,53,390044,0.0-13.0-3.5,18591,List1B,white,woman,,,,,"{""Q0"":""ruth and kate are dancing with eachother""}","<img src=""stim_listB/dance8.gif""style=""height:400px;""></stim_listB>",are dancing with each other,
null,"<div style=""font-size:60px;"">+</div>",,html-keyboard-response,54,390556,0.0-13.0-0.6,18591,List1B,white,woman,,,,null,,,,
null,"<img src=""stim_listB/fight2.gif""style=""height:400px;""></stim_listB>",,html-keyboard-response,55,392563,0.0-13.0-1.6,18591,List1B,white,woman,,,,null,,,,
null,are fighting each other,,html-keyboard-response,56,394566,0.0-13.0-2.6,18591,List1B,white,woman,,,,null,,,,
13501,,,survey-text,57,408072,0.0-13.0-3.6,18591,List1B,white,woman,,,,,"{""Q0"":""fred and beth are fighting each other ""}","<img src=""stim_listB/fight2.gif""style=""height:400px;""></stim_listB>",are fighting each other,
null,"<div style=""font-size:60px;"">+</div>",,html-keyboard-response,58,408586,0.0-13.0-0.7,18591,List1B,white,woman,,,,null,,,,
null,"<img src=""stim_listB/dance5.gif""style=""height:400px;""></stim_listB>",,html-keyboard-response,59,410604,0.0-13.0-1.7,18591,List1B,white,woman,,,,null,,,,
null,is dancing with,,html-keyboard-response,60,412616,0.0-13.0-2.7,18591,List1B,white,woman,,,,null,,,,
17140,,,survey-text,61,429762,0.0-13.0-3.7,18591,List1B,white,woman,,,,,"{""Q0"":""fred is dancing with dave""}","<img src=""stim_listB/dance5.gif""style=""height:400px;""></stim_listB>",is dancing with,
null,"<div style=""font-size:60px;"">+</div>",,html-keyboard-response,62,430280,0.0-13.0-0.8,18591,List1B,white,woman,,,,null,,,,
null,"<img src=""stim_listB/talk4.gif""style=""height:400px;""></stim_listB>",,html-keyboard-response,63,432285,0.0-13.0-1.8,18591,List1B,white,woman,,,,null,,,,
null,are talking to each other,,html-keyboard-response,64,434291,0.0-13.0-2.8,18591,List1B,white,woman,,,,null,,,,
25289,,,survey-text,65,459583,0.0-13.0-3.8,18591,List1B,white,woman,,,,,"{""Q0"":""ruth and dave are talking to each other""}","<img src=""stim_listB/talk4.gif""style=""height:400px;""></stim_listB>",are talking to each other,
null,"<div style=""font-size:60px;"">+</div>",,html-keyboard-response,66,460098,0.0-13.0-0.9,18591,List1B,white,woman,,,,null,,,,
null,"<img src=""stim_listB/flirt8.gif""style=""height:400px;""></stim_listB>",,html-keyboard-response,67,462115,0.0-13.0-1.9,18591,List1B,white,woman,,,,null,,,,
null,are flirting with each other,,html-keyboard-response,68,464120,0.0-13.0-2.9,18591,List1B,white,woman,,,,null,,,,
17825,,,survey-text,69,481949,0.0-13.0-3.9,18591,List1B,white,woman,,,,,"{""Q0"":""ruth and kate are flirting with eachother""}","<img src=""stim_listB/flirt8.gif""style=""height:400px;""></stim_listB>",are flirting with each other,
null,"<div style=""font-size:60px;"">+</div>",,html-keyboard-response,70,482466,0.0-13.0-0.10,18591,List1B,white,woman,,,,null,,,,
null,"<img src=""stim_listB/kiss2.gif""style=""height:400px;""></stim_listB>",,html-keyboard-response,71,484473,0.0-13.0-1.10,18591,List1B,white,woman,,,,null,,,,
null,are kissing each other,,html-keyboard-response,72,486477,0.0-13.0-2.10,18591,List1B,white,woman,,,,null,,,,
13355,,,survey-text,73,499835,0.0-13.0-3.10,18591,List1B,white,woman,,,,,"{""Q0"":""kate and mike are kissing eachother""}","<img src=""stim_listB/kiss2.gif""style=""height:400px;""></stim_listB>",are kissing each other,
null,"<div style=""font-size:60px;"">+</div>",,html-keyboard-response,74,500346,0.0-13.0-0.11,18591,List1B,white,woman,,,,null,,,,
null,"<img src=""stim_listB/touch4.gif""style=""height:400px;""></stim_listB>",,html-keyboard-response,75,502351,0.0-13.0-1.11,18591,List1B,white,woman,,,,null,,,,
null,are touching each other,,html-keyboard-response,76,504359,0.0-13.0-2.11,18591,List1B,white,woman,,,,null,,,,
18841,,,survey-text,77,523206,0.0-13.0-3.11,18591,List1B,white,woman,,,,,"{""Q0"":""ruth and luke are touching eachother""}","<img src=""stim_listB/touch4.gif""style=""height:400px;""></stim_listB>",are touching each other,
null,"<div style=""font-size:60px;"">+</div>",,html-keyboard-response,78,523713,0.0-13.0-0.12,18591,List1B,white,woman,,,,null,,,,
null,"<img src=""stim_listB/kiss3.gif""style=""height:400px;""></stim_listB>",,html-keyboard-response,79,525732,0.0-13.0-1.12,18591,List1B,white,woman,,,,null,,,,
null,is kissing,,html-keyboard-response,80,527740,0.0-13.0-2.12,18591,List1B,white,woman,,,,null,,,,
7265,,,survey-text,81,535008,0.0-13.0-3.12,18591,List1B,white,woman,,,,,"{""Q0"":""ruth is kissing luke""}","<img src=""stim_listB/kiss3.gif""style=""height:400px;""></stim_listB>",is kissing,
null,"<div style=""font-size:60px;"">+</div>",,html-keyboard-response,82,535520,0.0-13.0-0.13,18591,List1B,white,woman,,,,null,,,,
null,"<img src=""stim_listB/fight8.gif""style=""height:400px;""></stim_listB>",,html-keyboard-response,83,537528,0.0-13.0-1.13,18591,List1B,white,woman,,,,null,,,,
null,are fighting each other,,html-keyboard-response,84,539544,0.0-13.0-2.13,18591,List1B,white,woman,,,,null,,,,
11019,,,survey-text,85,550567,0.0-13.0-3.13,18591,List1B,white,woman,,,,,"{""Q0"":""ruth and beth are fighting eachother""}","<img src=""stim_listB/fight8.gif""style=""height:400px;""></stim_listB>",are fighting each other,
null,"<div style=""font-size:60px;"">+</div>",,html-keyboard-response,86,551082,0.0-13.0-0.14,18591,List1B,white,woman,,,,null,,,,
null,"<img src=""stim_listB/marry4.gif""style=""height:400px;""></stim_listB>",,html-keyboard-response,87,553088,0.0-13.0-1.14,18591,List1B,white,woman,,,,null,,,,
null,are marrying each other,,html-keyboard-response,88,555105,0.0-13.0-2.14,18591,List1B,white,woman,,,,null,,,,
13565,,,survey-text,89,568673,0.0-13.0-3.14,18591,List1B,white,woman,,,,,"{""Q0"":""jane and luke are marrying each other""}","<img src=""stim_listB/marry4.gif""style=""height:400px;""></stim_listB>",are marrying each other,
null,"<div style=""font-size:60px;"">+</div>",,html-keyboard-response,90,569184,0.0-13.0-0.15,18591,List1B,white,woman,,,,null,,,,
null,"<img src=""stim_listB/play4.gif""style=""height:400px;""></stim_listB>",,html-keyboard-response,91,571192,0.0-13.0-1.15,18591,List1B,white,woman,,,,null,,,,
null,are playing with each other,,html-keyboard-response,92,573197,0.0-13.0-2.15,18591,List1B,white,woman,,,,null,,,,
11952,,,survey-text,93,585155,0.0-13.0-3.15,18591,List1B,white,woman,,,,,"{""Q0"":""ruth and luke are playing with each other ""}","<img src=""stim_listB/play4.gif""style=""height:400px;""></stim_listB>",are playing with each other,
null,"<div style=""font-size:60px;"">+</div>",,html-keyboard-response,94,585677,0.0-13.0-0.16,18591,List1B,white,woman,,,,null,,,,
null,"<img src=""stim_listB/dance3.gif""style=""height:400px;""></stim_listB>",,html-keyboard-response,95,587692,0.0-13.0-1.16,18591,List1B,white,woman,,,,null,,,,
null,is dancing with,,html-keyboard-response,96,589696,0.0-13.0-2.16,18591,List1B,white,woman,,,,null,,,,
6758,,,survey-text,97,596457,0.0-13.0-3.16,18591,List1B,white,woman,,,,,"{""Q0"":""jane is dancing with luke""}","<img src=""stim_listB/dance3.gif""style=""height:400px;""></stim_listB>",is dancing with,
null,"<div style=""font-size:60px;"">+</div>",,html-keyboard-response,98,596970,0.0-13.0-0.17,18591,List1B,white,woman,,,,null,,,,
null,"<img src=""stim_listB/marry6.gif""style=""height:400px;""></stim_listB>",,html-keyboard-response,99,598982,0.0-13.0-1.17,18591,List1B,white,woman,,,,null,,,,
null,are marrying each other,,html-keyboard-response,100,600995,0.0-13.0-2.17,18591,List1B,white,woman,,,,null,,,,
13819,,,survey-text,101,614818,0.0-13.0-3.17,18591,List1B,white,woman,,,,,"{""Q0"":""fred and dave is marrying each other ""}","<img src=""stim_listB/marry6.gif""style=""height:400px;""></stim_listB>",are marrying each other,
null,"<div style=""font-size:60px;"">+</div>",,html-keyboard-response,102,615336,0.0-13.0-0.18,18591,List1B,white,woman,,,,null,,,,
null,"<img src=""stim_listB/fight7.gif""style=""height:400px;""></stim_listB>",,html-keyboard-response,103,617356,0.0-13.0-1.18,18591,List1B,white,woman,,,,null,,,,
null,is fighting,,html-keyboard-response,104,619361,0.0-13.0-2.18,18591,List1B,white,woman,,,,null,,,,
8490,,,survey-text,105,627854,0.0-13.0-3.18,18591,List1B,white,woman,,,,,"{""Q0"":""jane is fighting with kate""}","<img src=""stim_listB/fight7.gif""style=""height:400px;""></stim_listB>",is fighting,
null,"<div style=""font-size:60px;"">+</div>",,html-keyboard-response,106,628367,0.0-13.0-0.19,18591,List1B,white,woman,,,,null,,,,
null,"<img src=""stim_listB/shout2.gif""style=""height:400px;""></stim_listB>",,html-keyboard-response,107,630374,0.0-13.0-1.19,18591,List1B,white,woman,,,,null,,,,
null,are shouting at each other,,html-keyboard-response,108,632391,0.0-13.0-2.19,18591,List1B,white,woman,,,,null,,,,
10699,,,survey-text,109,643094,0.0-13.0-3.19,18591,List1B,white,woman,,,,,"{""Q0"":""kate and mike are shouting at each other""}","<img src=""stim_listB/shout2.gif""style=""height:400px;""></stim_listB>",are shouting at each other,
32476,"<img src='img/portrait_matrix_list1.jpg' style='width:900px;height:500px;''></img><p>If you have memorised all the portraits and names and are ready to start, press Continue.</p><p><strong>Please note: Your memory of these faces will be tested 4 times during this experiment.</strong></p>",0,html-button-response,110,675575,0.0-14.0-0.0,18591,List1B,white,woman,,,,,,,,
6826,"<img src=""portrait/WW2.jpg""style=""height:400px;""></img>",3,html-button-response,111,683411,0.0-14.0-1.0,18591,List1B,white,woman,,TRUE,3,,,,,
null,CORRECT,,html-keyboard-response,112,684920,0.0-14.0-2.0-0.0,18591,List1B,white,woman,,,,null,,,,
3428,"<img src=""portrait/WM2.jpg""style=""height:400px;""></img>",7,html-button-response,113,688354,0.0-14.0-4.0,18591,List1B,white,woman,,TRUE,7,,,,,
null,CORRECT,,html-keyboard-response,114,689890,0.0-14.0-5.0-0.0,18591,List1B,white,woman,,,,null,,,,
3710,"<img src=""portrait/BM2.jpg""style=""height:400px;""></img>",5,html-button-response,115,693605,0.0-14.0-7.0,18591,List1B,white,woman,,TRUE,5,,,,,
null,CORRECT,,html-keyboard-response,116,695113,0.0-14.0-8.0-0.0,18591,List1B,white,woman,,,,null,,,,
4335,"<img src=""portrait/BW1.jpg""style=""height:400px;""></img>",0,html-button-response,117,699455,0.0-14.0-10.0,18591,List1B,white,woman,,TRUE,0,,,,,
null,CORRECT,,html-keyboard-response,118,700973,0.0-14.0-11.0-0.0,18591,List1B,white,woman,,,,null,,,,
3693,"<img src=""portrait/WM1.jpg""style=""height:400px;""></img>",6,html-button-response,119,704670,0.0-14.0-13.0,18591,List1B,white,woman,,TRUE,6,,,,,
null,CORRECT,,html-keyboard-response,120,706197,0.0-14.0-14.0-0.0,18591,List1B,white,woman,,,,null,,,,
2932,"<img src=""portrait/BM1.jpg""style=""height:400px;""></img>",4,html-button-response,121,709135,0.0-14.0-16.0,18591,List1B,white,woman,,TRUE,4,,,,,
null,CORRECT,,html-keyboard-response,122,710649,0.0-14.0-17.0-0.0,18591,List1B,white,woman,,,,null,,,,
3913,"<img src=""portrait/BW2.jpg""style=""height:400px;""></img>",2,html-button-response,123,714567,0.0-14.0-19.0,18591,List1B,white,woman,,TRUE,2,,,,,
null,CORRECT,,html-keyboard-response,124,716094,0.0-14.0-20.0-0.0,18591,List1B,white,woman,,,,null,,,,
2261,"<img src=""portrait/WW1.jpg""style=""height:400px;""></img>",1,html-button-response,125,718359,0.0-14.0-22.0,18591,List1B,white,woman,,TRUE,1,,,,,
null,CORRECT,,html-keyboard-response,126,719887,0.0-14.0-23.0-0.0,18591,List1B,white,woman,,,,null,,,,
1651,<p>You got 8 out of 8 right first time. Press Continue.</p>,0,html-button-response,127,721542,0.0-14.0-25.0,18591,List1B,white,woman,,,,,,,,
null,"<div style=""font-size:60px;"">+</div>",,html-keyboard-response,128,723062,0.0-15.0-0.0,18591,List1B,white,woman,,,,null,,,,
null,"<img src=""stim_listB/fight4.gif""style=""height:400px;""></stim_listB>",,html-keyboard-response,129,725070,0.0-15.0-1.0,18591,List1B,white,woman,,,,null,,,,
null,are fighting each other,,html-keyboard-response,130,727075,0.0-15.0-2.0,18591,List1B,white,woman,,,,null,,,,
9576,,,survey-text,131,736653,0.0-15.0-3.0,18591,List1B,white,woman,,,,,"{""Q0"":""ruth and luke are fighting each other""}","<img src=""stim_listB/fight4.gif""style=""height:400px;""></stim_listB>",are fighting each other,
null,"<div style=""font-size:60px;"">+</div>",,html-keyboard-response,132,737162,0.0-15.0-0.1,18591,List1B,white,woman,,,,null,,,,
null,"<img src=""stim_listB/kiss5.gif""style=""height:400px;""></stim_listB>",,html-keyboard-response,133,739168,0.0-15.0-1.1,18591,List1B,white,woman,,,,null,,,,
null,is kissing,,html-keyboard-response,134,741176,0.0-15.0-2.1,18591,List1B,white,woman,,,,null,,,,
5830,,,survey-text,135,747008,0.0-15.0-3.1,18591,List1B,white,woman,,,,,"{""Q0"":""luke is kissing fred""}","<img src=""stim_listB/kiss5.gif""style=""height:400px;""></stim_listB>",is kissing,
null,"<div style=""font-size:60px;"">+</div>",,html-keyboard-response,136,747522,0.0-15.0-0.2,18591,List1B,white,woman,,,,null,,,,
null,"<img src=""stim_listB/touch8.gif""style=""height:400px;""></stim_listB>",,html-keyboard-response,137,749528,0.0-15.0-1.2,18591,List1B,white,woman,,,,null,,,,
null,are touching each other,,html-keyboard-response,138,751540,0.0-15.0-2.2,18591,List1B,white,woman,,,,null,,,,
12222,,,survey-text,139,763765,0.0-15.0-3.2,18591,List1B,white,woman,,,,,"{""Q0"":""ruth and beth are touching each other ""}","<img src=""stim_listB/touch8.gif""style=""height:400px;""></stim_listB>",are touching each other,
null,"<div style=""font-size:60px;"">+</div>",,html-keyboard-response,140,764284,0.0-15.0-0.3,18591,List1B,white,woman,,,,null,,,,
null,"<img src=""stim_listB/touch3.gif""style=""height:400px;""></stim_listB>",,html-keyboard-response,141,766300,0.0-15.0-1.3,18591,List1B,white,woman,,,,null,,,,
null,is touching,,html-keyboard-response,142,768306,0.0-15.0-2.3,18591,List1B,white,woman,,,,null,,,,
9038,,,survey-text,143,777348,0.0-15.0-3.3,18591,List1B,white,woman,,,,,"{""Q0"":""jane is touching dave""}","<img src=""stim_listB/touch3.gif""style=""height:400px;""></stim_listB>",is touching,
null,"<div style=""font-size:60px;"">+</div>",,html-keyboard-response,144,777858,0.0-15.0-0.4,18591,List1B,white,woman,,,,null,,,,
null,"<img src=""stim_listB/marry2.gif""style=""height:400px;""></stim_listB>",,html-keyboard-response,145,779879,0.0-15.0-1.4,18591,List1B,white,woman,,,,null,,,,
null,are marrying each other,,html-keyboard-response,146,781882,0.0-15.0-2.4,18591,List1B,white,woman,,,,null,,,,
9903,,,survey-text,147,791787,0.0-15.0-3.4,18591,List1B,white,woman,,,,,"{""Q0"":""kate and fred are marrying each other ""}","<img src=""stim_listB/marry2.gif""style=""height:400px;""></stim_listB>",are marrying each other,
null,"<div style=""font-size:60px;"">+</div>",,html-keyboard-response,148,792291,0.0-15.0-0.5,18591,List1B,white,woman,,,,null,,,,
null,"<img src=""stim_listB/play6.gif""style=""height:400px;""></stim_listB>",,html-keyboard-response,149,794311,0.0-15.0-1.5,18591,List1B,white,woman,,,,null,,,,
null,are playing with each other,,html-keyboard-response,150,796316,0.0-15.0-2.5,18591,List1B,white,woman,,,,null,,,,
12397,,,survey-text,151,808716,0.0-15.0-3.5,18591,List1B,white,woman,,,,,"{""Q0"":""fred and luke are playing with eachother""}","<img src=""stim_listB/play6.gif""style=""height:400px;""></stim_listB>",are playing with each other,
null,"<div style=""font-size:60px;"">+</div>",,html-keyboard-response,152,809225,0.0-15.0-0.6,18591,List1B,white,woman,,,,null,,,,
null,"<img src=""stim_listB/shout3.gif""style=""height:400px;""></stim_listB>",,html-keyboard-response,153,811245,0.0-15.0-1.6,18591,List1B,white,woman,,,,null,,,,
null,is shouting at,,html-keyboard-response,154,813249,0.0-15.0-2.6,18591,List1B,white,woman,,,,null,,,,
7115,,,survey-text,155,820368,0.0-15.0-3.6,18591,List1B,white,woman,,,,,"{""Q0"":""luke is shouting at ruth""}","<img src=""stim_listB/shout3.gif""style=""height:400px;""></stim_listB>",is shouting at,
null,"<div style=""font-size:60px;"">+</div>",,html-keyboard-response,156,820883,0.0-15.0-0.7,18591,List1B,white,woman,,,,null,,,,
null,"<img src=""stim_listB/dance2.gif""style=""height:400px;""></stim_listB>",,html-keyboard-response,157,822890,0.0-15.0-1.7,18591,List1B,white,woman,,,,null,,,,
null,are dancing with each other,,html-keyboard-response,158,824900,0.0-15.0-2.7,18591,List1B,white,woman,,,,null,,,,
14403,,,survey-text,159,839313,0.0-15.0-3.7,18591,List1B,white,woman,,,,,"{""Q0"":""beth and mike are dancing with each other ""}","<img src=""stim_listB/dance2.gif""style=""height:400px;""></stim_listB>",are dancing with each other,
null,"<div style=""font-size:60px;"">+</div>",,html-keyboard-response,160,839831,0.0-15.0-0.8,18591,List1B,white,woman,,,,null,,,,
null,"<img src=""stim_listB/fight1.gif""style=""height:400px;""></stim_listB>",,html-keyboard-response,161,841839,0.0-15.0-1.8,18591,List1B,white,woman,,,,null,,,,
null,is fighting,,html-keyboard-response,162,843848,0.0-15.0-2.8,18591,List1B,white,woman,,,,null,,,,
8561,,,survey-text,163,852415,0.0-15.0-3.8,18591,List1B,white,woman,,,,,"{""Q0"":""kate is fighting mike ""}","<img src=""stim_listB/fight1.gif""style=""height:400px;""></stim_listB>",is fighting,
null,"<div style=""font-size:60px;"">+</div>",,html-keyboard-response,164,852934,0.0-15.0-0.9,18591,List1B,white,woman,,,,null,,,,
null,"<img src=""stim_listB/marry8.gif""style=""height:400px;""></stim_listB>",,html-keyboard-response,165,854940,0.0-15.0-1.9,18591,List1B,white,woman,,,,null,,,,
null,are marrying each other,,html-keyboard-response,166,856953,0.0-15.0-2.9,18591,List1B,white,woman,,,,null,,,,
12573,,,survey-text,167,869530,0.0-15.0-3.9,18591,List1B,white,woman,,,,,"{""Q0"":""beth and jane are marrying each other ""}","<img src=""stim_listB/marry8.gif""style=""height:400px;""></stim_listB>",are marrying each other,
null,"<div style=""font-size:60px;"">+</div>",,html-keyboard-response,168,870047,0.0-15.0-0.10,18591,List1B,white,woman,,,,null,,,,
null,"<img src=""stim_listB/marry1.gif""style=""height:400px;""></stim_listB>",,html-keyboard-response,169,872057,0.0-15.0-1.10,18591,List1B,white,woman,,,,null,,,,
null,is marrying,,html-keyboard-response,170,874062,0.0-15.0-2.10,18591,List1B,white,woman,,,,null,,,,
9494,,,survey-text,171,883559,0.0-15.0-3.10,18591,List1B,white,woman,,,,,"{""Q0"":""mike is marrying beth ""}","<img src=""stim_listB/marry1.gif""style=""height:400px;""></stim_listB>",is marrying,
null,"<div style=""font-size:60px;"">+</div>",,html-keyboard-response,172,884076,0.0-15.0-0.11,18591,List1B,white,woman,,,,null,,,,
null,"<img src=""stim_listB/flirt1.gif""style=""height:400px;""></stim_listB>",,html-keyboard-response,173,886084,0.0-15.0-1.11,18591,List1B,white,woman,,,,null,,,,
null,is flirting with,,html-keyboard-response,174,888087,0.0-15.0-2.11,18591,List1B,white,woman,,,,null,,,,
7241,,,survey-text,175,895331,0.0-15.0-3.11,18591,List1B,white,woman,,,,,"{""Q0"":""fred is flirting with kate""}","<img src=""stim_listB/flirt1.gif""style=""height:400px;""></stim_listB>",is flirting with,
null,"<div style=""font-size:60px;"">+</div>",,html-keyboard-response,176,895839,0.0-15.0-0.12,18591,List1B,white,woman,,,,null,,,,
null,"<img src=""stim_listB/marry5.gif""style=""height:400px;""></stim_listB>",,html-keyboard-response,177,897844,0.0-15.0-1.12,18591,List1B,white,woman,,,,null,,,,
null,is marrying,,html-keyboard-response,178,899852,0.0-15.0-2.12,18591,List1B,white,woman,,,,null,,,,
6123,,,survey-text,179,905978,0.0-15.0-3.12,18591,List1B,white,woman,,,,,"{""Q0"":""luke is marrying mike""}","<img src=""stim_listB/marry5.gif""style=""height:400px;""></stim_listB>",is marrying,
null,"<div style=""font-size:60px;"">+</div>",,html-keyboard-response,180,906500,0.0-15.0-0.13,18591,List1B,white,woman,,,,null,,,,
null,"<img src=""stim_listB/shout1.gif""style=""height:400px;""></stim_listB>",,html-keyboard-response,181,908505,0.0-15.0-1.13,18591,List1B,white,woman,,,,null,,,,
null,is shouting at,,html-keyboard-response,182,910520,0.0-15.0-2.13,18591,List1B,white,woman,,,,null,,,,
6578,,,survey-text,183,917102,0.0-15.0-3.13,18591,List1B,white,woman,,,,,"{""Q0"":""beth is shouting at fred""}","<img src=""stim_listB/shout1.gif""style=""height:400px;""></stim_listB>",is shouting at,
null,"<div style=""font-size:60px;"">+</div>",,html-keyboard-response,184,917614,0.0-15.0-0.14,18591,List1B,white,woman,,,,null,,,,
null,"<img src=""stim_listB/fight6.gif""style=""height:400px;""></stim_listB>",,html-keyboard-response,185,919635,0.0-15.0-1.14,18591,List1B,white,woman,,,,null,,,,
null,are fighting each other,,html-keyboard-response,186,921639,0.0-15.0-2.14,18591,List1B,white,woman,,,,null,,,,
9301,,,survey-text,187,930943,0.0-15.0-3.14,18591,List1B,white,woman,,,,,"{""Q0"":""fred and luke are fighting each other ""}","<img src=""stim_listB/fight6.gif""style=""height:400px;""></stim_listB>",are fighting each other,
null,"<div style=""font-size:60px;"">+</div>",,html-keyboard-response,188,931462,0.0-15.0-0.15,18591,List1B,white,woman,,,,null,,,,
null,"<img src=""stim_listB/talk3.gif""style=""height:400px;""></stim_listB>",,html-keyboard-response,189,933473,0.0-15.0-1.15,18591,List1B,white,woman,,,,null,,,,
null,is talking to,,html-keyboard-response,190,935481,0.0-15.0-2.15,18591,List1B,white,woman,,,,null,,,,
6083,,,survey-text,191,941569,0.0-15.0-3.15,18591,List1B,white,woman,,,,,"{""Q0"":""jane is talking to luke""}","<img src=""stim_listB/talk3.gif""style=""height:400px;""></stim_listB>",is talking to,
null,"<div style=""font-size:60px;"">+</div>",,html-keyboard-response,192,942078,0.0-15.0-0.16,18591,List1B,white,woman,,,,null,,,,
null,"<img src=""stim_listB/talk7.gif""style=""height:400px;""></stim_listB>",,html-keyboard-response,193,944085,0.0-15.0-1.16,18591,List1B,white,woman,,,,null,,,,
null,is talking to,,html-keyboard-response,194,946092,0.0-15.0-2.16,18591,List1B,white,woman,,,,null,,,,
9513,,,survey-text,195,955608,0.0-15.0-3.16,18591,List1B,white,woman,,,,,"{""Q0"":""jane is talking to beth ""}","<img src=""stim_listB/talk7.gif""style=""height:400px;""></stim_listB>",is talking to,
null,"<div style=""font-size:60px;"">+</div>",,html-keyboard-response,196,956123,0.0-15.0-0.17,18591,List1B,white,woman,,,,null,,,,
null,"<img src=""stim_listB/play7.gif""style=""height:400px;""></stim_listB>",,html-keyboard-response,197,958128,0.0-15.0-1.17,18591,List1B,white,woman,,,,null,,,,
null,is playing with,,html-keyboard-response,198,960135,0.0-15.0-2.17,18591,List1B,white,woman,,,,null,,,,
10100,,,survey-text,199,970238,0.0-15.0-3.17,18591,List1B,white,woman,,,,,"{""Q0"":""jane is playing with kate ""}","<img src=""stim_listB/play7.gif""style=""height:400px;""></stim_listB>",is playing with,
null,"<div style=""font-size:60px;"">+</div>",,html-keyboard-response,200,970754,0.0-15.0-0.18,18591,List1B,white,woman,,,,null,,,,
null,"<img src=""stim_listB/touch2.gif""style=""height:400px;""></stim_listB>",,html-keyboard-response,201,972768,0.0-15.0-1.18,18591,List1B,white,woman,,,,null,,,,
null,are touching each other,,html-keyboard-response,202,974780,0.0-15.0-2.18,18591,List1B,white,woman,,,,null,,,,
10966,,,survey-text,203,985750,0.0-15.0-3.18,18591,List1B,white,woman,,,,,"{""Q0"":""beth and fred are touching each other ""}","<img src=""stim_listB/touch2.gif""style=""height:400px;""></stim_listB>",are touching each other,
null,"<div style=""font-size:60px;"">+</div>",,html-keyboard-response,204,986261,0.0-15.0-0.19,18591,List1B,white,woman,,,,null,,,,
null,"<img src=""stim_listB/kiss4.gif""style=""height:400px;""></stim_listB>",,html-keyboard-response,205,988273,0.0-15.0-1.19,18591,List1B,white,woman,,,,null,,,,
null,are kissing each other,,html-keyboard-response,206,990287,0.0-15.0-2.19,18591,List1B,white,woman,,,,null,,,,
8876,,,survey-text,207,999169,0.0-15.0-3.19,18591,List1B,white,woman,,,,,"{""Q0"":""jane and dave are kissing each other ""}","<img src=""stim_listB/kiss4.gif""style=""height:400px;""></stim_listB>",are kissing each other,
4211,"<img src='img/portrait_matrix_list1.jpg' style='width:900px;height:500px;''></img><p>If you have memorised all the portraits and names and are ready to start, press Continue.</p><p><strong>Please note: Your memory of these faces will be tested 4 times during this experiment.</strong></p>",0,html-button-response,208,1003385,0.0-16.0-0.0,18591,List1B,white,woman,,,,,,,,
2670,"<img src=""portrait/BW1.jpg""style=""height:400px;""></img>",2,html-button-response,209,1007077,0.0-16.0-1.0,18591,List1B,white,woman,,TRUE,0,,,,,
3956,"<img src=""portrait/BW1.jpg""style=""height:400px;""></img>",0,html-button-response,210,1012047,0.0-16.0-3.0-0.0,18591,List1B,white,woman,,FALSE,0,,,,,
null,CORRECT,,html-keyboard-response,211,1013579,0.0-16.0-3.0-1.0-0.0,18591,List1B,white,woman,,,,null,,,,
3129,"<img src=""portrait/WW1.jpg""style=""height:400px;""></img>",1,html-button-response,212,1016712,0.0-16.0-4.0,18591,List1B,white,woman,,TRUE,1,,,,,
null,CORRECT,,html-keyboard-response,213,1018230,0.0-16.0-5.0-0.0,18591,List1B,white,woman,,,,null,,,,
4006,"<img src=""portrait/WM1.jpg""style=""height:400px;""></img>",6,html-button-response,214,1022243,0.0-16.0-7.0,18591,List1B,white,woman,,TRUE,6,,,,,
null,CORRECT,,html-keyboard-response,215,1023759,0.0-16.0-8.0-0.0,18591,List1B,white,woman,,,,null,,,,
3154,"<img src=""portrait/WW2.jpg""style=""height:400px;""></img>",3,html-button-response,216,1026918,0.0-16.0-10.0,18591,List1B,white,woman,,TRUE,3,,,,,
null,CORRECT,,html-keyboard-response,217,1028451,0.0-16.0-11.0-0.0,18591,List1B,white,woman,,,,null,,,,
4981,"<img src=""portrait/BM1.jpg""style=""height:400px;""></img>",4,html-button-response,218,1033438,0.0-16.0-13.0,18591,List1B,white,woman,,TRUE,4,,,,,
null,CORRECT,,html-keyboard-response,219,1034960,0.0-16.0-14.0-0.0,18591,List1B,white,woman,,,,null,,,,
4105,"<img src=""portrait/WM2.jpg""style=""height:400px;""></img>",7,html-button-response,220,1039070,0.0-16.0-16.0,18591,List1B,white,woman,,TRUE,7,,,,,
null,CORRECT,,html-keyboard-response,221,1040576,0.0-16.0-17.0-0.0,18591,List1B,white,woman,,,,null,,,,
2777,"<img src=""portrait/BM2.jpg""style=""height:400px;""></img>",5,html-button-response,222,1043359,0.0-16.0-19.0,18591,List1B,white,woman,,TRUE,5,,,,,
null,CORRECT,,html-keyboard-response,223,1044875,0.0-16.0-20.0-0.0,18591,List1B,white,woman,,,,null,,,,
4010,"<img src=""portrait/BW2.jpg""style=""height:400px;""></img>",2,html-button-response,224,1048890,0.0-16.0-22.0,18591,List1B,white,woman,,TRUE,2,,,,,
null,CORRECT,,html-keyboard-response,225,1050399,0.0-16.0-23.0-0.0,18591,List1B,white,woman,,,,null,,,,
2497,<p>You got 7 out of 8 right first time. Press Continue.</p>,0,html-button-response,226,1052899,0.0-16.0-25.0,18591,List1B,white,woman,,,,,,,,
9357,"As you did not score 100%, the memory game will repeat. Press Continue.",0,html-button-response,227,1063259,0.0-16.0-26.0-0.0,18591,List1B,white,woman,,,,,,,,
5479,"<img src='img/portrait_matrix_list1.jpg' style='width:900px;height:500px;''></img><p>If you have memorised all the portraits and names and are ready to start, press Continue.</p><p><strong>Please note: Your memory of these faces will be tested 4 times during this experiment.</strong></p>",0,html-button-response,228,1069745,0.0-16.1-0.1,18591,List1B,white,woman,,,,,,,,
3579,"<img src=""portrait/BW1.jpg""style=""height:400px;""></img>",0,html-button-response,229,1074333,0.0-16.1-1.1,18591,List1B,white,woman,,TRUE,0,,,,,
null,CORRECT,,html-keyboard-response,230,1075859,0.0-16.1-2.1-0.1,18591,List1B,white,woman,,,,null,,,,
2249,"<img src=""portrait/WW1.jpg""style=""height:400px;""></img>",1,html-button-response,231,1078113,0.0-16.1-4.1,18591,List1B,white,woman,,TRUE,1,,,,,
null,CORRECT,,html-keyboard-response,232,1079633,0.0-16.1-5.1-0.1,18591,List1B,white,woman,,,,null,,,,
1374,"<img src=""portrait/WM1.jpg""style=""height:400px;""></img>",2,html-button-response,233,1081013,0.0-16.1-7.1,18591,List1B,white,woman,,TRUE,6,,,,,
3437,"<img src=""portrait/WM1.jpg""style=""height:400px;""></img>",6,html-button-response,234,1085471,0.0-16.1-9.1-0.1,18591,List1B,white,woman,,FALSE,6,,,,,
null,CORRECT,,html-keyboard-response,235,1087005,0.0-16.1-9.1-1.1-0.1,18591,List1B,white,woman,,,,null,,,,
2671,"<img src=""portrait/WW2.jpg""style=""height:400px;""></img>",3,html-button-response,236,1089684,0.0-16.1-10.1,18591,List1B,white,woman,,TRUE,3,,,,,
null,CORRECT,,html-keyboard-response,237,1091196,0.0-16.1-11.1-0.1,18591,List1B,white,woman,,,,null,,,,
3165,"<img src=""portrait/BM1.jpg""style=""height:400px;""></img>",4,html-button-response,238,1094366,0.0-16.1-13.1,18591,List1B,white,woman,,TRUE,4,,,,,
null,CORRECT,,html-keyboard-response,239,1095890,0.0-16.1-14.1-0.1,18591,List1B,white,woman,,,,null,,,,
3687,"<img src=""portrait/WM2.jpg""style=""height:400px;""></img>",7,html-button-response,240,1099583,0.0-16.1-16.1,18591,List1B,white,woman,,TRUE,7,,,,,
null,CORRECT,,html-keyboard-response,241,1101103,0.0-16.1-17.1-0.1,18591,List1B,white,woman,,,,null,,,,
4929,"<img src=""portrait/BM2.jpg""style=""height:400px;""></img>",5,html-button-response,242,1106041,0.0-16.1-19.1,18591,List1B,white,woman,,TRUE,5,,,,,
null,CORRECT,,html-keyboard-response,243,1107557,0.0-16.1-20.1-0.1,18591,List1B,white,woman,,,,null,,,,
3974,"<img src=""portrait/BW2.jpg""style=""height:400px;""></img>",2,html-button-response,244,1111534,0.0-16.1-22.1,18591,List1B,white,woman,,TRUE,2,,,,,
null,CORRECT,,html-keyboard-response,245,1113053,0.0-16.1-23.1-0.1,18591,List1B,white,woman,,,,null,,,,
1674,<p>You got 7 out of 8 right first time. Press Continue.</p>,0,html-button-response,246,1114731,0.0-16.1-25.1,18591,List1B,white,woman,,,,,,,,
1241,"As you did not score 100%, the memory game will repeat. Press Continue.",0,html-button-response,247,1116984,0.0-16.1-26.1-0.1,18591,List1B,white,woman,,,,,,,,
2922,"<img src='img/portrait_matrix_list1.jpg' style='width:900px;height:500px;''></img><p>If you have memorised all the portraits and names and are ready to start, press Continue.</p><p><strong>Please note: Your memory of these faces will be tested 4 times during this experiment.</strong></p>",0,html-button-response,248,1120921,0.0-16.2-0.2,18591,List1B,white,woman,,,,,,,,
5265,"<img src=""portrait/BW1.jpg""style=""height:400px;""></img>",0,html-button-response,249,1127209,0.0-16.2-1.2,18591,List1B,white,woman,,TRUE,0,,,,,
null,CORRECT,,html-keyboard-response,250,1128741,0.0-16.2-2.2-0.2,18591,List1B,white,woman,,,,null,,,,
2305,"<img src=""portrait/WW1.jpg""style=""height:400px;""></img>",1,html-button-response,251,1131050,0.0-16.2-4.2,18591,List1B,white,woman,,TRUE,1,,,,,
null,CORRECT,,html-keyboard-response,252,1132563,0.0-16.2-5.2-0.2,18591,List1B,white,woman,,,,null,,,,
4030,"<img src=""portrait/WM1.jpg""style=""height:400px;""></img>",6,html-button-response,253,1136598,0.0-16.2-7.2,18591,List1B,white,woman,,TRUE,6,,,,,
null,CORRECT,,html-keyboard-response,254,1138128,0.0-16.2-8.2-0.2,18591,List1B,white,woman,,,,null,,,,
2758,"<img src=""portrait/WW2.jpg""style=""height:400px;""></img>",3,html-button-response,255,1140891,0.0-16.2-10.2,18591,List1B,white,woman,,TRUE,3,,,,,
null,CORRECT,,html-keyboard-response,256,1142418,0.0-16.2-11.2-0.2,18591,List1B,white,woman,,,,null,,,,
4920,"<img src=""portrait/BM1.jpg""style=""height:400px;""></img>",4,html-button-response,257,1147345,0.0-16.2-13.2,18591,List1B,white,woman,,TRUE,4,,,,,
null,CORRECT,,html-keyboard-response,258,1148875,0.0-16.2-14.2-0.2,18591,List1B,white,woman,,,,null,,,,
3755,"<img src=""portrait/WM2.jpg""style=""height:400px;""></img>",7,html-button-response,259,1152639,0.0-16.2-16.2,18591,List1B,white,woman,,TRUE,7,,,,,
null,CORRECT,,html-keyboard-response,260,1154150,0.0-16.2-17.2-0.2,18591,List1B,white,woman,,,,null,,,,
3883,"<img src=""portrait/BM2.jpg""style=""height:400px;""></img>",5,html-button-response,261,1158039,0.0-16.2-19.2,18591,List1B,white,woman,,TRUE,5,,,,,
null,CORRECT,,html-keyboard-response,262,1159546,0.0-16.2-20.2-0.2,18591,List1B,white,woman,,,,null,,,,
3151,"<img src=""portrait/BW2.jpg""style=""height:400px;""></img>",2,html-button-response,263,1162702,0.0-16.2-22.2,18591,List1B,white,woman,,TRUE,2,,,,,
null,CORRECT,,html-keyboard-response,264,1164217,0.0-16.2-23.2-0.2,18591,List1B,white,woman,,,,null,,,,
1651,<p>You got 8 out of 8 right first time. Press Continue.</p>,0,html-button-response,265,1165871,0.0-16.2-25.2,18591,List1B,white,woman,,,,,,,,
null,"<div style=""font-size:60px;"">+</div>",,html-keyboard-response,266,1167389,0.0-17.0-0.0,18591,List1B,white,woman,,,,null,,,,
null,"<img src=""stim_listB/flirt4.gif""style=""height:400px;""></stim_listB>",,html-keyboard-response,267,1169403,0.0-17.0-1.0,18591,List1B,white,woman,,,,null,,,,
null,are flirting with each other,,html-keyboard-response,268,1171413,0.0-17.0-2.0,18591,List1B,white,woman,,,,null,,,,
12099,,,survey-text,269,1183516,0.0-17.0-3.0,18591,List1B,white,woman,,,,,"{""Q0"":""ruth and dave are flirting with each other ""}","<img src=""stim_listB/flirt4.gif""style=""height:400px;""></stim_listB>",are flirting with each other,
null,"<div style=""font-size:60px;"">+</div>",,html-keyboard-response,270,1184033,0.0-17.0-0.1,18591,List1B,white,woman,,,,null,,,,
null,"<img src=""stim_listB/talk1.gif""style=""height:400px;""></stim_listB>",,html-keyboard-response,271,1186038,0.0-17.0-1.1,18591,List1B,white,woman,,,,null,,,,
null,is talking to,,html-keyboard-response,272,1188046,0.0-17.0-2.1,18591,List1B,white,woman,,,,null,,,,
7575,,,survey-text,273,1195624,0.0-17.0-3.1,18591,List1B,white,woman,,,,,"{""Q0"":""kate is talking to fred ""}","<img src=""stim_listB/talk1.gif""style=""height:400px;""></stim_listB>",is talking to,
null,"<div style=""font-size:60px;"">+</div>",,html-keyboard-response,274,1196129,0.0-17.0-0.2,18591,List1B,white,woman,,,,null,,,,
null,"<img src=""stim_listB/flirt3.gif""style=""height:400px;""></stim_listB>",,html-keyboard-response,275,1198147,0.0-17.0-1.2,18591,List1B,white,woman,,,,null,,,,
null,is flirting with,,html-keyboard-response,276,1200160,0.0-17.0-2.2,18591,List1B,white,woman,,,,null,,,,
41984,,,survey-text,277,1242147,0.0-17.0-3.2,18591,List1B,white,woman,,,,,"{""Q0"":""luke is flirting with jane ""}","<img src=""stim_listB/flirt3.gif""style=""height:400px;""></stim_listB>",is flirting with,
null,"<div style=""font-size:60px;"">+</div>",,html-keyboard-response,278,1242655,0.0-17.0-0.3,18591,List1B,white,woman,,,,null,,,,
null,"<img src=""stim_listB/shout4.gif""style=""height:400px;""></stim_listB>",,html-keyboard-response,279,1244663,0.0-17.0-1.3,18591,List1B,white,woman,,,,null,,,,
null,are shouting at each other,,html-keyboard-response,280,1246678,0.0-17.0-2.3,18591,List1B,white,woman,,,,null,,,,
12839,,,survey-text,281,1259520,0.0-17.0-3.3,18591,List1B,white,woman,,,,,"{""Q0"":""jane and dave are shouting at each other ""}","<img src=""stim_listB/shout4.gif""style=""height:400px;""></stim_listB>",are shouting at each other,
null,"<div style=""font-size:60px;"">+</div>",,html-keyboard-response,282,1260029,0.0-17.0-0.4,18591,List1B,white,woman,,,,null,,,,
null,"<img src=""stim_listB/play1.gif""style=""height:400px;""></stim_listB>",,html-keyboard-response,283,1262036,0.0-17.0-1.4,18591,List1B,white,woman,,,,null,,,,
null,is playing with,,html-keyboard-response,284,1264041,0.0-17.0-2.4,18591,List1B,white,woman,,,,null,,,,
9022,,,survey-text,285,1273066,0.0-17.0-3.4,18591,List1B,white,woman,,,,,"{""Q0"":""kate is playing with mike""}","<img src=""stim_listB/play1.gif""style=""height:400px;""></stim_listB>",is playing with,
null,"<div style=""font-size:60px;"">+</div>",,html-keyboard-response,286,1273586,0.0-17.0-0.5,18591,List1B,white,woman,,,,null,,,,
null,"<img src=""stim_listB/marry3.gif""style=""height:400px;""></stim_listB>",,html-keyboard-response,287,1275593,0.0-17.0-1.5,18591,List1B,white,woman,,,,null,,,,
null,is marrying,,html-keyboard-response,288,1277612,0.0-17.0-2.5,18591,List1B,white,woman,,,,null,,,,
24533,,,survey-text,289,1302149,0.0-17.0-3.5,18591,List1B,white,woman,,,,,"{""Q0"":""dave is marrying ruth ""}","<img src=""stim_listB/marry3.gif""style=""height:400px;""></stim_listB>",is marrying,
null,"<div style=""font-size:60px;"">+</div>",,html-keyboard-response,290,1302654,0.0-17.0-0.6,18591,List1B,white,woman,,,,null,,,,
null,"<img src=""stim_listB/argue2.gif""style=""height:400px;""></stim_listB>",,html-keyboard-response,291,1304663,0.0-17.0-1.6,18591,List1B,white,woman,,,,null,,,,
null,are arguing with each other,,html-keyboard-response,292,1306670,0.0-17.0-2.6,18591,List1B,white,woman,,,,null,,,,
12435,,,survey-text,293,1319109,0.0-17.0-3.6,18591,List1B,white,woman,,,,,"{""Q0"":""fred and kate are arguing with each other ""}","<img src=""stim_listB/argue2.gif""style=""height:400px;""></stim_listB>",are arguing with each other,
null,"<div style=""font-size:60px;"">+</div>",,html-keyboard-response,294,1319624,0.0-17.0-0.7,18591,List1B,white,woman,,,,null,,,,
null,"<img src=""stim_listB/talk2.gif""style=""height:400px;""></stim_listB>",,html-keyboard-response,295,1321631,0.0-17.0-1.7,18591,List1B,white,woman,,,,null,,,,
null,are talking to each other,,html-keyboard-response,296,1323643,0.0-17.0-2.7,18591,List1B,white,woman,,,,null,,,,
15788,,,survey-text,297,1339434,0.0-17.0-3.7,18591,List1B,white,woman,,,,,"{""Q0"":""beth and mike are talking to each other ""}","<img src=""stim_listB/talk2.gif""style=""height:400px;""></stim_listB>",are talking to each other,
null,"<div style=""font-size:60px;"">+</div>",,html-keyboard-response,298,1339947,0.0-17.0-0.8,18591,List1B,white,woman,,,,null,,,,
null,"<img src=""stim_listB/touch6.gif""style=""height:400px;""></stim_listB>",,html-keyboard-response,299,1341957,0.0-17.0-1.8,18591,List1B,white,woman,,,,null,,,,
null,are touching each other,,html-keyboard-response,300,1343978,0.0-17.0-2.8,18591,List1B,white,woman,,,,null,,,,
10241,,,survey-text,301,1354222,0.0-17.0-3.8,18591,List1B,white,woman,,,,,"{""Q0"":""fred and luke are touching each other ""}","<img src=""stim_listB/touch6.gif""style=""height:400px;""></stim_listB>",are touching each other,
null,"<div style=""font-size:60px;"">+</div>",,html-keyboard-response,302,1354726,0.0-17.0-0.9,18591,List1B,white,woman,,,,null,,,,
null,"<img src=""stim_listB/flirt6.gif""style=""height:400px;""></stim_listB>",,html-keyboard-response,303,1356755,0.0-17.0-1.9,18591,List1B,white,woman,,,,null,,,,
null,are flirting with each other,,html-keyboard-response,304,1358761,0.0-17.0-2.9,18591,List1B,white,woman,,,,null,,,,
9188,,,survey-text,305,1367953,0.0-17.0-3.9,18591,List1B,white,woman,,,,,"{""Q0"":""mike and luke are flirting with each other""}","<img src=""stim_listB/flirt6.gif""style=""height:400px;""></stim_listB>",are flirting with each other,
null,"<div style=""font-size:60px;"">+</div>",,html-keyboard-response,306,1368461,0.0-17.0-0.10,18591,List1B,white,woman,,,,null,,,,
null,"<img src=""stim_listB/touch7.gif""style=""height:400px;""></stim_listB>",,html-keyboard-response,307,1370473,0.0-17.0-1.10,18591,List1B,white,woman,,,,null,,,,
null,is touching,,html-keyboard-response,308,1372489,0.0-17.0-2.10,18591,List1B,white,woman,,,,null,,,,
15435,,,survey-text,309,1387928,0.0-17.0-3.10,18591,List1B,white,woman,,,,,"{""Q0"":""jane is touching kate ""}","<img src=""stim_listB/touch7.gif""style=""height:400px;""></stim_listB>",is touching,
null,"<div style=""font-size:60px;"">+</div>",,html-keyboard-response,310,1388433,0.0-17.0-0.11,18591,List1B,white,woman,,,,null,,,,
null,"<img src=""stim_listB/shout6.gif""style=""height:400px;""></stim_listB>",,html-keyboard-response,311,1390441,0.0-17.0-1.11,18591,List1B,white,woman,,,,null,,,,
null,are shouting at each other,,html-keyboard-response,312,1392459,0.0-17.0-2.11,18591,List1B,white,woman,,,,null,,,,
12846,,,survey-text,313,1405308,0.0-17.0-3.11,18591,List1B,white,woman,,,,,"{""Q0"":""mike and dave are shouting at each other ""}","<img src=""stim_listB/shout6.gif""style=""height:400px;""></stim_listB>",are shouting at each other,
null,"<div style=""font-size:60px;"">+</div>",,html-keyboard-response,314,1405828,0.0-17.0-0.12,18591,List1B,white,woman,,,,null,,,,
null,"<img src=""stim_listB/play8.gif""style=""height:400px;""></stim_listB>",,html-keyboard-response,315,1407832,0.0-17.0-1.12,18591,List1B,white,woman,,,,null,,,,
null,are playing with each other,,html-keyboard-response,316,1409837,0.0-17.0-2.12,18591,List1B,white,woman,,,,null,,,,
11001,,,survey-text,317,1420844,0.0-17.0-3.12,18591,List1B,white,woman,,,,,"{""Q0"":""beth and ruth are playing with each other ""}","<img src=""stim_listB/play8.gif""style=""height:400px;""></stim_listB>",are playing with each other,
null,"<div style=""font-size:60px;"">+</div>",,html-keyboard-response,318,1421353,0.0-17.0-0.13,18591,List1B,white,woman,,,,null,,,,
null,"<img src=""stim_listB/argue7.gif""style=""height:400px;""></stim_listB>",,html-keyboard-response,319,1423364,0.0-17.0-1.13,18591,List1B,white,woman,,,,null,,,,
null,is arguing with,,html-keyboard-response,320,1425367,0.0-17.0-2.13,18591,List1B,white,woman,,,,null,,,,
8307,,,survey-text,321,1433680,0.0-17.0-3.13,18591,List1B,white,woman,,,,,"{""Q0"":""ruth is arguing with kate ""}","<img src=""stim_listB/argue7.gif""style=""height:400px;""></stim_listB>",is arguing with,
null,"<div style=""font-size:60px;"">+</div>",,html-keyboard-response,322,1434188,0.0-17.0-0.14,18591,List1B,white,woman,,,,null,,,,
null,"<img src=""stim_listB/dance6.gif""style=""height:400px;""></stim_listB>",,html-keyboard-response,323,1436197,0.0-17.0-1.14,18591,List1B,white,woman,,,,null,,,,
null,are dancing with each other,,html-keyboard-response,324,1438207,0.0-17.0-2.14,18591,List1B,white,woman,,,,null,,,,
12539,,,survey-text,325,1450750,0.0-17.0-3.14,18591,List1B,white,woman,,,,,"{""Q0"":""luke and mike are dancing with each other""}","<img src=""stim_listB/dance6.gif""style=""height:400px;""></stim_listB>",are dancing with each other,
null,"<div style=""font-size:60px;"">+</div>",,html-keyboard-response,326,1451269,0.0-17.0-0.15,18591,List1B,white,woman,,,,null,,,,
null,"<img src=""stim_listB/dance4.gif""style=""height:400px;""></stim_listB>",,html-keyboard-response,327,1453285,0.0-17.0-1.15,18591,List1B,white,woman,,,,null,,,,
null,are dancing with each other,,html-keyboard-response,328,1455297,0.0-17.0-2.15,18591,List1B,white,woman,,,,null,,,,
8000,,,survey-text,329,1463300,0.0-17.0-3.15,18591,List1B,white,woman,,,,,"{""Q0"":""ruth and dave are dancing with each other ""}","<img src=""stim_listB/dance4.gif""style=""height:400px;""></stim_listB>",are dancing with each other,
null,"<div style=""font-size:60px;"">+</div>",,html-keyboard-response,330,1463809,0.0-17.0-0.16,18591,List1B,white,woman,,,,null,,,,
null,"<img src=""stim_listB/argue6.gif""style=""height:400px;""></stim_listB>",,html-keyboard-response,331,1465816,0.0-17.0-1.16,18591,List1B,white,woman,,,,null,,,,
null,are arguing with each other,,html-keyboard-response,332,1467819,0.0-17.0-2.16,18591,List1B,white,woman,,,,null,,,,
10518,,,survey-text,333,1478339,0.0-17.0-3.16,18591,List1B,white,woman,,,,,"{""Q0"":""dave and fred are arguing with each other""}","<img src=""stim_listB/argue6.gif""style=""height:400px;""></stim_listB>",are arguing with each other,
null,"<div style=""font-size:60px;"">+</div>",,html-keyboard-response,334,1478856,0.0-17.0-0.17,18591,List1B,white,woman,,,,null,,,,
null,"<img src=""stim_listB/argue1.gif""style=""height:400px;""></stim_listB>",,html-keyboard-response,335,1480867,0.0-17.0-1.17,18591,List1B,white,woman,,,,null,,,,
null,is arguing with,,html-keyboard-response,336,1482871,0.0-17.0-2.17,18591,List1B,white,woman,,,,null,,,,
7145,,,survey-text,337,1490019,0.0-17.0-3.17,18591,List1B,white,woman,,,,,"{""Q0"":""beth is arguing with mike""}","<img src=""stim_listB/argue1.gif""style=""height:400px;""></stim_listB>",is arguing with,
null,"<div style=""font-size:60px;"">+</div>",,html-keyboard-response,338,1490535,0.0-17.0-0.18,18591,List1B,white,woman,,,,null,,,,
null,"<img src=""stim_listB/shout5.gif""style=""height:400px;""></stim_listB>",,html-keyboard-response,339,1492542,0.0-17.0-1.18,18591,List1B,white,woman,,,,null,,,,
null,is shouting at,,html-keyboard-response,340,1494559,0.0-17.0-2.18,18591,List1B,white,woman,,,,null,,,,
7128,,,survey-text,341,1501690,0.0-17.0-3.18,18591,List1B,white,woman,,,,,"{""Q0"":""fred is shouting at luke""}","<img src=""stim_listB/shout5.gif""style=""height:400px;""></stim_listB>",is shouting at,
null,"<div style=""font-size:60px;"">+</div>",,html-keyboard-response,342,1502200,0.0-17.0-0.19,18591,List1B,white,woman,,,,null,,,,
null,"<img src=""stim_listB/play3.gif""style=""height:400px;""></stim_listB>",,html-keyboard-response,343,1504208,0.0-17.0-1.19,18591,List1B,white,woman,,,,null,,,,
null,is playing with,,html-keyboard-response,344,1506220,0.0-17.0-2.19,18591,List1B,white,woman,,,,null,,,,
7607,,,survey-text,345,1513830,0.0-17.0-3.19,18591,List1B,white,woman,,,,,"{""Q0"":""dave is playing with jane""}","<img src=""stim_listB/play3.gif""style=""height:400px;""></stim_listB>",is playing with,
3364,"<img src='img/portrait_matrix_list1.jpg' style='width:900px;height:500px;''></img><p>If you have memorised all the portraits and names and are ready to start, press Continue.</p><p><strong>Please note: Your memory of these faces will be tested 4 times during this experiment.</strong></p>",0,html-button-response,346,1517198,0.0-18.0-0.0,18591,List1B,white,woman,,,,,,,,
3153,"<img src=""portrait/WW2.jpg""style=""height:400px;""></img>",3,html-button-response,347,1521374,0.0-18.0-1.0,18591,List1B,white,woman,,TRUE,3,,,,,
null,CORRECT,,html-keyboard-response,348,1522897,0.0-18.0-2.0-0.0,18591,List1B,white,woman,,,,null,,,,
4042,"<img src=""portrait/BM2.jpg""style=""height:400px;""></img>",5,html-button-response,349,1526944,0.0-18.0-4.0,18591,List1B,white,woman,,TRUE,5,,,,,
null,CORRECT,,html-keyboard-response,350,1528464,0.0-18.0-5.0-0.0,18591,List1B,white,woman,,,,null,,,,
5170,"<img src=""portrait/WM2.jpg""style=""height:400px;""></img>",7,html-button-response,351,1533640,0.0-18.0-7.0,18591,List1B,white,woman,,TRUE,7,,,,,
null,CORRECT,,html-keyboard-response,352,1535147,0.0-18.0-8.0-0.0,18591,List1B,white,woman,,,,null,,,,
2032,"<img src=""portrait/WW1.jpg""style=""height:400px;""></img>",1,html-button-response,353,1537185,0.0-18.0-10.0,18591,List1B,white,woman,,TRUE,1,,,,,
null,CORRECT,,html-keyboard-response,354,1538701,0.0-18.0-11.0-0.0,18591,List1B,white,woman,,,,null,,,,
4176,"<img src=""portrait/BW2.jpg""style=""height:400px;""></img>",2,html-button-response,355,1542883,0.0-18.0-13.0,18591,List1B,white,woman,,TRUE,2,,,,,
null,CORRECT,,html-keyboard-response,356,1544404,0.0-18.0-14.0-0.0,18591,List1B,white,woman,,,,null,,,,
4857,"<img src=""portrait/BW1.jpg""style=""height:400px;""></img>",0,html-button-response,357,1549269,0.0-18.0-16.0,18591,List1B,white,woman,,TRUE,0,,,,,
null,CORRECT,,html-keyboard-response,358,1550785,0.0-18.0-17.0-0.0,18591,List1B,white,woman,,,,null,,,,
2536,"<img src=""portrait/BM1.jpg""style=""height:400px;""></img>",4,html-button-response,359,1553327,0.0-18.0-19.0,18591,List1B,white,woman,,TRUE,4,,,,,
null,CORRECT,,html-keyboard-response,360,1554849,0.0-18.0-20.0-0.0,18591,List1B,white,woman,,,,null,,,,
3249,"<img src=""portrait/WM1.jpg""style=""height:400px;""></img>",6,html-button-response,361,1558103,0.0-18.0-22.0,18591,List1B,white,woman,,TRUE,6,,,,,
null,CORRECT,,html-keyboard-response,362,1559624,0.0-18.0-23.0-0.0,18591,List1B,white,woman,,,,null,,,,
1250,<p>You got 8 out of 8 right first time. Press Continue.</p>,0,html-button-response,363,1560878,0.0-18.0-25.0,18591,List1B,white,woman,,,,,,,,
null,"<div style=""font-size:60px;"">+</div>",,html-keyboard-response,364,1562404,0.0-19.0-0.0,18591,List1B,white,woman,,,,null,,,,
null,"<img src=""stim_listB/flirt2.gif""style=""height:400px;""></stim_listB>",,html-keyboard-response,365,1564412,0.0-19.0-1.0,18591,List1B,white,woman,,,,null,,,,
null,are flirting with each other,,html-keyboard-response,366,1566426,0.0-19.0-2.0,18591,List1B,white,woman,,,,null,,,,
28993,,,survey-text,367,1595423,0.0-19.0-3.0,18591,List1B,white,woman,,,,,"{""Q0"":""beth and mike are flirting with each other ""}","<img src=""stim_listB/flirt2.gif""style=""height:400px;""></stim_listB>",are flirting with each other,
null,"<div style=""font-size:60px;"">+</div>",,html-keyboard-response,368,1595939,0.0-19.0-0.1,18591,List1B,white,woman,,,,null,,,,
null,"<img src=""stim_listB/flirt7.gif""style=""height:400px;""></stim_listB>",,html-keyboard-response,369,1597947,0.0-19.0-1.1,18591,List1B,white,woman,,,,null,,,,
null,is flirting with,,html-keyboard-response,370,1599953,0.0-19.0-2.1,18591,List1B,white,woman,,,,null,,,,
5961,,,survey-text,371,1605916,0.0-19.0-3.1,18591,List1B,white,woman,,,,,"{""Q0"":""jane is flirting with beth ""}","<img src=""stim_listB/flirt7.gif""style=""height:400px;""></stim_listB>",is flirting with,
null,"<div style=""font-size:60px;"">+</div>",,html-keyboard-response,372,1606437,0.0-19.0-0.2,18591,List1B,white,woman,,,,null,,,,
null,"<img src=""stim_listB/kiss8.gif""style=""height:400px;""></stim_listB>",,html-keyboard-response,373,1608452,0.0-19.0-1.2,18591,List1B,white,woman,,,,null,,,,
null,are kissing each other,,html-keyboard-response,374,1610466,0.0-19.0-2.2,18591,List1B,white,woman,,,,null,,,,
15121,,,survey-text,375,1625592,0.0-19.0-3.2,18591,List1B,white,woman,,,,,"{""Q0"":""jane and kate are kissing each other ""}","<img src=""stim_listB/kiss8.gif""style=""height:400px;""></stim_listB>",are kissing each other,
null,"<div style=""font-size:60px;"">+</div>",,html-keyboard-response,376,1626099,0.0-19.0-0.3,18591,List1B,white,woman,,,,null,,,,
null,"<img src=""stim_listB/touch1.gif""style=""height:400px;""></stim_listB>",,html-keyboard-response,377,1628115,0.0-19.0-1.3,18591,List1B,white,woman,,,,null,,,,
null,is touching,,html-keyboard-response,378,1630121,0.0-19.0-2.3,18591,List1B,white,woman,,,,null,,,,
5260,,,survey-text,379,1635384,0.0-19.0-3.3,18591,List1B,white,woman,,,,,"{""Q0"":""kate is touching mike""}","<img src=""stim_listB/touch1.gif""style=""height:400px;""></stim_listB>",is touching,
null,"<div style=""font-size:60px;"">+</div>",,html-keyboard-response,380,1635902,0.0-19.0-0.4,18591,List1B,white,woman,,,,null,,,,
null,"<img src=""stim_listB/touch5.gif""style=""height:400px;""></stim_listB>",,html-keyboard-response,381,1637907,0.0-19.0-1.4,18591,List1B,white,woman,,,,null,,,,
null,is touching,,html-keyboard-response,382,1639913,0.0-19.0-2.4,18591,List1B,white,woman,,,,null,,,,
6026,,,survey-text,383,1645943,0.0-19.0-3.4,18591,List1B,white,woman,,,,,"{""Q0"":""mike is touching dave""}","<img src=""stim_listB/touch5.gif""style=""height:400px;""></stim_listB>",is touching,
null,"<div style=""font-size:60px;"">+</div>",,html-keyboard-response,384,1646463,0.0-19.0-0.5,18591,List1B,white,woman,,,,null,,,,
null,"<img src=""stim_listB/kiss7.gif""style=""height:400px;""></stim_listB>",,html-keyboard-response,385,1648473,0.0-19.0-1.5,18591,List1B,white,woman,,,,null,,,,
null,is kissing,,html-keyboard-response,386,1650481,0.0-19.0-2.5,18591,List1B,white,woman,,,,null,,,,
5310,,,survey-text,387,1655795,0.0-19.0-3.5,18591,List1B,white,woman,,,,,"{""Q0"":""beth is kissing ruth""}","<img src=""stim_listB/kiss7.gif""style=""height:400px;""></stim_listB>",is kissing,
null,"<div style=""font-size:60px;"">+</div>",,html-keyboard-response,388,1656304,0.0-19.0-0.6,18591,List1B,white,woman,,,,null,,,,
null,"<img src=""stim_listB/fight5.gif""style=""height:400px;""></stim_listB>",,html-keyboard-response,389,1658312,0.0-19.0-1.6,18591,List1B,white,woman,,,,null,,,,
null,is fighting,,html-keyboard-response,390,1660317,0.0-19.0-2.6,18591,List1B,white,woman,,,,null,,,,
7087,,,survey-text,391,1667407,0.0-19.0-3.6,18591,List1B,white,woman,,,,,"{""Q0"":""dave is fighting mike ""}","<img src=""stim_listB/fight5.gif""style=""height:400px;""></stim_listB>",is fighting,
null,"<div style=""font-size:60px;"">+</div>",,html-keyboard-response,392,1667925,0.0-19.0-0.7,18591,List1B,white,woman,,,,null,,,,
null,"<img src=""stim_listB/talk8.gif""style=""height:400px;""></stim_listB>",,html-keyboard-response,393,1669935,0.0-19.0-1.7,18591,List1B,white,woman,,,,null,,,,
null,are talking to each other,,html-keyboard-response,394,1671941,0.0-19.0-2.7,18591,List1B,white,woman,,,,null,,,,
10585,,,survey-text,395,1682530,0.0-19.0-3.7,18591,List1B,white,woman,,,,,"{""Q0"":""ruth and kate are talking to each other ""}","<img src=""stim_listB/talk8.gif""style=""height:400px;""></stim_listB>",are talking to each other,
null,"<div style=""font-size:60px;"">+</div>",,html-keyboard-response,396,1683047,0.0-19.0-0.8,18591,List1B,white,woman,,,,null,,,,
null,"<img src=""stim_listB/dance7.gif""style=""height:400px;""></stim_listB>",,html-keyboard-response,397,1685059,0.0-19.0-1.8,18591,List1B,white,woman,,,,null,,,,
null,is dancing with,,html-keyboard-response,398,1687074,0.0-19.0-2.8,18591,List1B,white,woman,,,,null,,,,
6016,,,survey-text,399,1693093,0.0-19.0-3.8,18591,List1B,white,woman,,,,,"{""Q0"":""beth is dancing with jane""}","<img src=""stim_listB/dance7.gif""style=""height:400px;""></stim_listB>",is dancing with,
null,"<div style=""font-size:60px;"">+</div>",,html-keyboard-response,400,1693598,0.0-19.0-0.9,18591,List1B,white,woman,,,,null,,,,
null,"<img src=""stim_listB/argue8.gif""style=""height:400px;""></stim_listB>",,html-keyboard-response,401,1695607,0.0-19.0-1.9,18591,List1B,white,woman,,,,null,,,,
null,are arguing with each other,,html-keyboard-response,402,1697613,0.0-19.0-2.9,18591,List1B,white,woman,,,,null,,,,
14462,,,survey-text,403,1712079,0.0-19.0-3.9,18591,List1B,white,woman,,,,,"{""Q0"":""jane and beth are arguing with each other ""}","<img src=""stim_listB/argue8.gif""style=""height:400px;""></stim_listB>",are arguing with each other,
null,"<div style=""font-size:60px;"">+</div>",,html-keyboard-response,404,1712589,0.0-19.0-0.10,18591,List1B,white,woman,,,,null,,,,
null,"<img src=""stim_listB/play2.gif""style=""height:400px;""></stim_listB>",,html-keyboard-response,405,1714596,0.0-19.0-1.10,18591,List1B,white,woman,,,,null,,,,
null,are playing with each other,,html-keyboard-response,406,1716600,0.0-19.0-2.10,18591,List1B,white,woman,,,,null,,,,
11020,,,survey-text,407,1727624,0.0-19.0-3.10,18591,List1B,white,woman,,,,,"{""Q0"":""beth and fred are playing with each other""}","<img src=""stim_listB/play2.gif""style=""height:400px;""></stim_listB>",are playing with each other,
null,"<div style=""font-size:60px;"">+</div>",,html-keyboard-response,408,1728144,0.0-19.0-0.11,18591,List1B,white,woman,,,,null,,,,
null,"<img src=""stim_listB/fight3.gif""style=""height:400px;""></stim_listB>",,html-keyboard-response,409,1730150,0.0-19.0-1.11,18591,List1B,white,woman,,,,null,,,,
null,is fighting,,html-keyboard-response,410,1732167,0.0-19.0-2.11,18591,List1B,white,woman,,,,null,,,,
6148,,,survey-text,411,1738319,0.0-19.0-3.11,18591,List1B,white,woman,,,,,"{""Q0"":""dave is fighting jane""}","<img src=""stim_listB/fight3.gif""style=""height:400px;""></stim_listB>",is fighting,
null,"<div style=""font-size:60px;"">+</div>",,html-keyboard-response,412,1738829,0.0-19.0-0.12,18591,List1B,white,woman,,,,null,,,,
null,"<img src=""stim_listB/argue4.gif""style=""height:400px;""></stim_listB>",,html-keyboard-response,413,1740839,0.0-19.0-1.12,18591,List1B,white,woman,,,,null,,,,
null,are arguing with each other,,html-keyboard-response,414,1742845,0.0-19.0-2.12,18591,List1B,white,woman,,,,null,,,,
9248,,,survey-text,415,1752099,0.0-19.0-3.12,18591,List1B,white,woman,,,,,"{""Q0"":""jane and luke are arguing with each other ""}","<img src=""stim_listB/argue4.gif""style=""height:400px;""></stim_listB>",are arguing with each other,
null,"<div style=""font-size:60px;"">+</div>",,html-keyboard-response,416,1752610,0.0-19.0-0.13,18591,List1B,white,woman,,,,null,,,,
null,"<img src=""stim_listB/shout7.gif""style=""height:400px;""></stim_listB>",,html-keyboard-response,417,1754624,0.0-19.0-1.13,18591,List1B,white,woman,,,,null,,,,
null,is shouting at,,html-keyboard-response,418,1756629,0.0-19.0-2.13,18591,List1B,white,woman,,,,null,,,,
7187,,,survey-text,419,1763819,0.0-19.0-3.13,18591,List1B,white,woman,,,,,"{""Q0"":""ruth is shouting at beth ""}","<img src=""stim_listB/shout7.gif""style=""height:400px;""></stim_listB>",is shouting at,
null,"<div style=""font-size:60px;"">+</div>",,html-keyboard-response,420,1764327,0.0-19.0-0.14,18591,List1B,white,woman,,,,null,,,,
null,"<img src=""stim_listB/play5.gif""style=""height:400px;""></stim_listB>",,html-keyboard-response,421,1766336,0.0-19.0-1.14,18591,List1B,white,woman,,,,null,,,,
null,is playing with,,html-keyboard-response,422,1768345,0.0-19.0-2.14,18591,List1B,white,woman,,,,null,,,,
9502,,,survey-text,423,1777851,0.0-19.0-3.14,18591,List1B,white,woman,,,,,"{""Q0"":""dave is playing with mike""}","<img src=""stim_listB/play5.gif""style=""height:400px;""></stim_listB>",is playing with,
null,"<div style=""font-size:60px;"">+</div>",,html-keyboard-response,424,1778356,0.0-19.0-0.15,18591,List1B,white,woman,,,,null,,,,
null,"<img src=""stim_listB/shout8.gif""style=""height:400px;""></stim_listB>",,html-keyboard-response,425,1780376,0.0-19.0-1.15,18591,List1B,white,woman,,,,null,,,,
null,are shouting at each other,,html-keyboard-response,426,1782381,0.0-19.0-2.15,18591,List1B,white,woman,,,,null,,,,
11439,,,survey-text,427,1793822,0.0-19.0-3.15,18591,List1B,white,woman,,,,,"{""Q0"":""kate and jane are shouting at each other""}","<img src=""stim_listB/shout8.gif""style=""height:400px;""></stim_listB>",are shouting at each other,
null,"<div style=""font-size:60px;"">+</div>",,html-keyboard-response,428,1794340,0.0-19.0-0.16,18591,List1B,white,woman,,,,null,,,,
null,"<img src=""stim_listB/talk6.gif""style=""height:400px;""></stim_listB>",,html-keyboard-response,429,1796346,0.0-19.0-1.16,18591,List1B,white,woman,,,,null,,,,
null,are talking to each other,,html-keyboard-response,430,1798350,0.0-19.0-2.16,18591,List1B,white,woman,,,,null,,,,
9477,,,survey-text,431,1807833,0.0-19.0-3.16,18591,List1B,white,woman,,,,,"{""Q0"":""luke and mike are talking to each other ""}","<img src=""stim_listB/talk6.gif""style=""height:400px;""></stim_listB>",are talking to each other,
null,"<div style=""font-size:60px;"">+</div>",,html-keyboard-response,432,1808350,0.0-19.0-0.17,18591,List1B,white,woman,,,,null,,,,
null,"<img src=""stim_listB/talk5.gif""style=""height:400px;""></stim_listB>",,html-keyboard-response,433,1810354,0.0-19.0-1.17,18591,List1B,white,woman,,,,null,,,,
null,is talking to,,html-keyboard-response,434,1812363,0.0-19.0-2.17,18591,List1B,white,woman,,,,null,,,,
6457,,,survey-text,435,1818825,0.0-19.0-3.17,18591,List1B,white,woman,,,,,"{""Q0"":""dave is talking to fred""}","<img src=""stim_listB/talk5.gif""style=""height:400px;""></stim_listB>",is talking to,
null,"<div style=""font-size:60px;"">+</div>",,html-keyboard-response,436,1819332,0.0-19.0-0.18,18591,List1B,white,woman,,,,null,,,,
null,"<img src=""stim_listB/marry7.gif""style=""height:400px;""></stim_listB>",,html-keyboard-response,437,1821340,0.0-19.0-1.18,18591,List1B,white,woman,,,,null,,,,
null,is marrying,,html-keyboard-response,438,1823348,0.0-19.0-2.18,18591,List1B,white,woman,,,,null,,,,
7788,,,survey-text,439,1831139,0.0-19.0-3.18,18591,List1B,white,woman,,,,,"{""Q0"":""ruth is marrying kate""}","<img src=""stim_listB/marry7.gif""style=""height:400px;""></stim_listB>",is marrying,
null,"<div style=""font-size:60px;"">+</div>",,html-keyboard-response,440,1831650,0.0-19.0-0.19,18591,List1B,white,woman,,,,null,,,,
null,"<img src=""stim_listB/flirt5.gif""style=""height:400px;""></stim_listB>",,html-keyboard-response,441,1833653,0.0-19.0-1.19,18591,List1B,white,woman,,,,null,,,,
null,is flirting with,,html-keyboard-response,442,1835658,0.0-19.0-2.19,18591,List1B,white,woman,,,,null,,,,
9964,,,survey-text,443,1845625,0.0-19.0-3.19,18591,List1B,white,woman,,,,,"{""Q0"":""dave is flirting with fred ""}","<img src=""stim_listB/flirt5.gif""style=""height:400px;""></stim_listB>",is flirting with,
2326,<p>Thank you for completing that task.</p><p>The final part of this session is a short questionnaire.</p><p>Press Continue.</p>,0,html-button-response,444,1847960,0.0-20.0,18591,List1B,white,woman,,,,,,,,
28088,,,survey-text,445,1877059,0.0-21.0,18591,List1B,white,woman,,,,,"{""Q0"":""23"",""Q1"":""English"",""Q2"":""English"",""Q3"":""England"",""Q4"":""White British "",""Q5"":""Female ""}",,,demographics
9770,,,survey-likert,446,1886844,0.0-22.0,18591,List1B,white,woman,,,,,"{""Q0"":4}",,,likert_ESS
5753,,,survey-likert,447,1892605,0.0-23.0,18591,List1B,white,woman,,,,,"{""Q0"":4}",,,likert_NSSAL_Q1
4864,,,survey-likert,448,1897477,0.0-24.0,18591,List1B,white,woman,,,,,"{""Q0"":4}",,,likert_NSSAL_Q2
3499,,,survey-likert,449,1900986,0.0-25.0,18591,List1B,white,woman,,,,,"{""Q0"":4}",,,likert_CGRS_Q1
3428,,,survey-likert,450,1904421,0.0-26.0,18591,List1B,white,woman,,,,,"{""Q0"":4}",,,likert_CGRS_Q2
3175,,,survey-likert,451,1907612,0.0-27.0,18591,List1B,white,woman,,,,,"{""Q0"":4}",,,likert_CGRS_Q3
5511,,,survey-text,452,1913129,0.0-28.0,18591,List1B,white,woman,,,,,"{""Q0"":""ccc""}",,,worker_id
20945,,,external-html,453,1934232,0.0-29.0,18591,List1B,white,woman,debrief.html,,,,,,,
