rt,stimulus,button_pressed,trial_type,trial_index,time_elapsed,internal_node_id,subject,list,ppt_race,ppt_gender,url,first_guess,correct,key_press,responses,image_type,phrase_type,test_part
1599,Welcome to the experiment. Press Continue to begin.,0,html-button-response,0,1613,0.0-0.0,18833,List1A,white,man,,,,,,,,
26328,,,external-html,1,29021,0.0-1.0,18833,List1A,white,man,consent.html,,,,,,,
6552,"<p>On the next page, you will see portraits of 8 people and their names.</p><p>Your first task is to take a few minutes to memorise the names of these people.</p><p>You will have to recall their names during the rest of the experiment, so it is</p><p>essential that you try to memorise these people and their names as best as you can.</p><br><p><strong>You will then be tested on your memory of these names and portraits.</strong></p><br><p>The experiment will start after you have completed this memory test.</p><br><p>Ready?</p>",0,html-button-response,2,35587,0.0-2.0,18833,List1A,white,man,,,,,,,,
36102,"<img src='img/portrait_matrix_list1.jpg' style='width:900px;height:500px;''></img><p>If you have memorised all the portraits and names and are ready to start, press Continue.</p><p><strong>Please note: Your memory of these faces will be tested 4 times during this experiment.</strong></p>",0,html-button-response,3,72713,0.0-3.0-0.0,18833,List1A,white,man,,,,,,,,
2406,"<img src=""portrait/WW2.jpg""style=""height:400px;""></img>",3,html-button-response,4,76140,0.0-3.0-1.0,18833,List1A,white,man,,TRUE,3,,,,,
null,CORRECT,,html-keyboard-response,5,77666,0.0-3.0-2.0-0.0,18833,List1A,white,man,,,,null,,,,
3742,"<img src=""portrait/BW1.jpg""style=""height:400px;""></img>",0,html-button-response,6,81426,0.0-3.0-4.0,18833,List1A,white,man,,TRUE,0,,,,,
null,CORRECT,,html-keyboard-response,7,82948,0.0-3.0-5.0-0.0,18833,List1A,white,man,,,,null,,,,
1974,"<img src=""portrait/BM1.jpg""style=""height:400px;""></img>",4,html-button-response,8,84935,0.0-3.0-7.0,18833,List1A,white,man,,TRUE,4,,,,,
null,CORRECT,,html-keyboard-response,9,86445,0.0-3.0-8.0-0.0,18833,List1A,white,man,,,,null,,,,
4498,"<img src=""portrait/BM2.jpg""style=""height:400px;""></img>",6,html-button-response,10,90956,0.0-3.0-10.0,18833,List1A,white,man,,TRUE,5,,,,,
4389,"<img src=""portrait/BM2.jpg""style=""height:400px;""></img>",5,html-button-response,11,96361,0.0-3.0-12.0-0.0,18833,List1A,white,man,,FALSE,5,,,,,
null,CORRECT,,html-keyboard-response,12,97871,0.0-3.0-12.0-1.0-0.0,18833,List1A,white,man,,,,null,,,,
4533,"<img src=""portrait/BW2.jpg""style=""height:400px;""></img>",1,html-button-response,13,102420,0.0-3.0-13.0,18833,List1A,white,man,,TRUE,2,,,,,
2590,"<img src=""portrait/BW2.jpg""style=""height:400px;""></img>",2,html-button-response,14,106020,0.0-3.0-15.0-0.0,18833,List1A,white,man,,FALSE,2,,,,,
null,CORRECT,,html-keyboard-response,15,107529,0.0-3.0-15.0-1.0-0.0,18833,List1A,white,man,,,,null,,,,
2130,"<img src=""portrait/WW1.jpg""style=""height:400px;""></img>",3,html-button-response,16,109672,0.0-3.0-16.0,18833,List1A,white,man,,TRUE,1,,,,,
2964,"<img src=""portrait/WW1.jpg""style=""height:400px;""></img>",1,html-button-response,17,113647,0.0-3.0-18.0-0.0,18833,List1A,white,man,,FALSE,1,,,,,
null,CORRECT,,html-keyboard-response,18,115155,0.0-3.0-18.0-1.0-0.0,18833,List1A,white,man,,,,null,,,,
2517,"<img src=""portrait/WM2.jpg""style=""height:400px;""></img>",6,html-button-response,19,117685,0.0-3.0-19.0,18833,List1A,white,man,,TRUE,7,,,,,
2671,"<img src=""portrait/WM2.jpg""style=""height:400px;""></img>",7,html-button-response,20,121372,0.0-3.0-21.0-0.0,18833,List1A,white,man,,FALSE,7,,,,,
null,CORRECT,,html-keyboard-response,21,122879,0.0-3.0-21.0-1.0-0.0,18833,List1A,white,man,,,,null,,,,
2446,"<img src=""portrait/WM1.jpg""style=""height:400px;""></img>",6,html-button-response,22,125338,0.0-3.0-22.0,18833,List1A,white,man,,TRUE,6,,,,,
null,CORRECT,,html-keyboard-response,23,126849,0.0-3.0-23.0-0.0,18833,List1A,white,man,,,,null,,,,
1488,<p>You got 4 out of 8 right first time. Press Continue.</p>,0,html-button-response,24,128349,0.0-3.0-25.0,18833,List1A,white,man,,,,,,,,
3020,"As you did not score 100%, the memory game will repeat. Press Continue.",0,html-button-response,25,132380,0.0-3.0-26.0-0.0,18833,List1A,white,man,,,,,,,,
9214,"<img src='img/portrait_matrix_list1.jpg' style='width:900px;height:500px;''></img><p>If you have memorised all the portraits and names and are ready to start, press Continue.</p><p><strong>Please note: Your memory of these faces will be tested 4 times during this experiment.</strong></p>",0,html-button-response,26,142616,0.0-3.1-0.1,18833,List1A,white,man,,,,,,,,
2212,"<img src=""portrait/WW2.jpg""style=""height:400px;""></img>",3,html-button-response,27,145843,0.0-3.1-1.1,18833,List1A,white,man,,TRUE,3,,,,,
null,CORRECT,,html-keyboard-response,28,147353,0.0-3.1-2.1-0.1,18833,List1A,white,man,,,,null,,,,
2759,"<img src=""portrait/BW1.jpg""style=""height:400px;""></img>",0,html-button-response,29,150124,0.0-3.1-4.1,18833,List1A,white,man,,TRUE,0,,,,,
null,CORRECT,,html-keyboard-response,30,151633,0.0-3.1-5.1-0.1,18833,List1A,white,man,,,,null,,,,
2513,"<img src=""portrait/BM1.jpg""style=""height:400px;""></img>",4,html-button-response,31,154160,0.0-3.1-7.1,18833,List1A,white,man,,TRUE,4,,,,,
null,CORRECT,,html-keyboard-response,32,155669,0.0-3.1-8.1-0.1,18833,List1A,white,man,,,,null,,,,
8339,"<img src=""portrait/BM2.jpg""style=""height:400px;""></img>",5,html-button-response,33,164024,0.0-3.1-10.1,18833,List1A,white,man,,TRUE,5,,,,,
null,CORRECT,,html-keyboard-response,34,165532,0.0-3.1-11.1-0.1,18833,List1A,white,man,,,,null,,,,
6358,"<img src=""portrait/BW2.jpg""style=""height:400px;""></img>",0,html-button-response,35,171903,0.0-3.1-13.1,18833,List1A,white,man,,TRUE,2,,,,,
2084,"<img src=""portrait/BW2.jpg""style=""height:400px;""></img>",2,html-button-response,36,175003,0.0-3.1-15.1-0.1,18833,List1A,white,man,,FALSE,2,,,,,
null,CORRECT,,html-keyboard-response,37,176512,0.0-3.1-15.1-1.1-0.1,18833,List1A,white,man,,,,null,,,,
1600,"<img src=""portrait/WW1.jpg""style=""height:400px;""></img>",0,html-button-response,38,178126,0.0-3.1-16.1,18833,List1A,white,man,,TRUE,1,,,,,
2390,"<img src=""portrait/WW1.jpg""style=""height:400px;""></img>",1,html-button-response,39,181533,0.0-3.1-18.1-0.1,18833,List1A,white,man,,FALSE,1,,,,,
null,CORRECT,,html-keyboard-response,40,183041,0.0-3.1-18.1-1.1-0.1,18833,List1A,white,man,,,,null,,,,
4560,"<img src=""portrait/WM2.jpg""style=""height:400px;""></img>",7,html-button-response,41,187616,0.0-3.1-19.1,18833,List1A,white,man,,TRUE,7,,,,,
null,CORRECT,,html-keyboard-response,42,189123,0.0-3.1-20.1-0.1,18833,List1A,white,man,,,,null,,,,
3232,"<img src=""portrait/WM1.jpg""style=""height:400px;""></img>",6,html-button-response,43,192369,0.0-3.1-22.1,18833,List1A,white,man,,TRUE,6,,,,,
null,CORRECT,,html-keyboard-response,44,193877,0.0-3.1-23.1-0.1,18833,List1A,white,man,,,,null,,,,
2611,<p>You got 6 out of 8 right first time. Press Continue.</p>,0,html-button-response,45,196498,0.0-3.1-25.1,18833,List1A,white,man,,,,,,,,
2520,"As you did not score 100%, the memory game will repeat. Press Continue.",0,html-button-response,46,200049,0.0-3.1-26.1-0.1,18833,List1A,white,man,,,,,,,,
1735,"<img src='img/portrait_matrix_list1.jpg' style='width:900px;height:500px;''></img><p>If you have memorised all the portraits and names and are ready to start, press Continue.</p><p><strong>Please note: Your memory of these faces will be tested 4 times during this experiment.</strong></p>",0,html-button-response,47,202799,0.0-3.2-0.2,18833,List1A,white,man,,,,,,,,
2305,"<img src=""portrait/WW2.jpg""style=""height:400px;""></img>",3,html-button-response,48,206118,0.0-3.2-1.2,18833,List1A,white,man,,TRUE,3,,,,,
null,CORRECT,,html-keyboard-response,49,207627,0.0-3.2-2.2-0.2,18833,List1A,white,man,,,,null,,,,
2508,"<img src=""portrait/BW1.jpg""style=""height:400px;""></img>",0,html-button-response,50,210151,0.0-3.2-4.2,18833,List1A,white,man,,TRUE,0,,,,,
null,CORRECT,,html-keyboard-response,51,211659,0.0-3.2-5.2-0.2,18833,List1A,white,man,,,,null,,,,
2093,"<img src=""portrait/BM1.jpg""style=""height:400px;""></img>",4,html-button-response,52,213778,0.0-3.2-7.2,18833,List1A,white,man,,TRUE,4,,,,,
null,CORRECT,,html-keyboard-response,53,215287,0.0-3.2-8.2-0.2,18833,List1A,white,man,,,,null,,,,
9417,"<img src=""portrait/BM2.jpg""style=""height:400px;""></img>",6,html-button-response,54,224718,0.0-3.2-10.2,18833,List1A,white,man,,TRUE,5,,,,,
2323,"<img src=""portrait/BM2.jpg""style=""height:400px;""></img>",5,html-button-response,55,228060,0.0-3.2-12.2-0.2,18833,List1A,white,man,,FALSE,5,,,,,
null,CORRECT,,html-keyboard-response,56,229568,0.0-3.2-12.2-1.2-0.2,18833,List1A,white,man,,,,null,,,,
7007,"<img src=""portrait/BW2.jpg""style=""height:400px;""></img>",3,html-button-response,57,236592,0.0-3.2-13.2,18833,List1A,white,man,,TRUE,2,,,,,
2530,"<img src=""portrait/BW2.jpg""style=""height:400px;""></img>",2,html-button-response,58,240137,0.0-3.2-15.2-0.2,18833,List1A,white,man,,FALSE,2,,,,,
null,CORRECT,,html-keyboard-response,59,241646,0.0-3.2-15.2-1.2-0.2,18833,List1A,white,man,,,,null,,,,
9747,"<img src=""portrait/WW1.jpg""style=""height:400px;""></img>",1,html-button-response,60,251405,0.0-3.2-16.2,18833,List1A,white,man,,TRUE,1,,,,,
null,CORRECT,,html-keyboard-response,61,252911,0.0-3.2-17.2-0.2,18833,List1A,white,man,,,,null,,,,
3739,"<img src=""portrait/WM2.jpg""style=""height:400px;""></img>",7,html-button-response,62,256664,0.0-3.2-19.2,18833,List1A,white,man,,TRUE,7,,,,,
null,CORRECT,,html-keyboard-response,63,258171,0.0-3.2-20.2-0.2,18833,List1A,white,man,,,,null,,,,
3215,"<img src=""portrait/WM1.jpg""style=""height:400px;""></img>",6,html-button-response,64,261400,0.0-3.2-22.2,18833,List1A,white,man,,TRUE,6,,,,,
null,CORRECT,,html-keyboard-response,65,262905,0.0-3.2-23.2-0.2,18833,List1A,white,man,,,,null,,,,
1630,<p>You got 6 out of 8 right first time. Press Continue.</p>,0,html-button-response,66,264542,0.0-3.2-25.2,18833,List1A,white,man,,,,,,,,
1678,"As you did not score 100%, the memory game will repeat. Press Continue.",0,html-button-response,67,267229,0.0-3.2-26.2-0.2,18833,List1A,white,man,,,,,,,,
1774,"<img src='img/portrait_matrix_list1.jpg' style='width:900px;height:500px;''></img><p>If you have memorised all the portraits and names and are ready to start, press Continue.</p><p><strong>Please note: Your memory of these faces will be tested 4 times during this experiment.</strong></p>",0,html-button-response,68,270016,0.0-3.3-0.3,18833,List1A,white,man,,,,,,,,
5483,"<img src=""portrait/WW2.jpg""style=""height:400px;""></img>",3,html-button-response,69,276518,0.0-3.3-1.3,18833,List1A,white,man,,TRUE,3,,,,,
null,CORRECT,,html-keyboard-response,70,278025,0.0-3.3-2.3-0.3,18833,List1A,white,man,,,,null,,,,
2047,"<img src=""portrait/BW1.jpg""style=""height:400px;""></img>",1,html-button-response,71,280085,0.0-3.3-4.3,18833,List1A,white,man,,TRUE,0,,,,,
4012,"<img src=""portrait/BW1.jpg""style=""height:400px;""></img>",0,html-button-response,72,285112,0.0-3.3-6.3-0.3,18833,List1A,white,man,,FALSE,0,,,,,
null,CORRECT,,html-keyboard-response,73,286620,0.0-3.3-6.3-1.3-0.3,18833,List1A,white,man,,,,null,,,,
2406,"<img src=""portrait/BM1.jpg""style=""height:400px;""></img>",4,html-button-response,74,289044,0.0-3.3-7.3,18833,List1A,white,man,,TRUE,4,,,,,
null,CORRECT,,html-keyboard-response,75,290552,0.0-3.3-8.3-0.3,18833,List1A,white,man,,,,null,,,,
3746,"<img src=""portrait/BM2.jpg""style=""height:400px;""></img>",5,html-button-response,76,294314,0.0-3.3-10.3,18833,List1A,white,man,,TRUE,5,,,,,
null,CORRECT,,html-keyboard-response,77,295821,0.0-3.3-11.3-0.3,18833,List1A,white,man,,,,null,,,,
4386,"<img src=""portrait/BW2.jpg""style=""height:400px;""></img>",2,html-button-response,78,300223,0.0-3.3-13.3,18833,List1A,white,man,,TRUE,2,,,,,
null,CORRECT,,html-keyboard-response,79,301733,0.0-3.3-14.3-0.3,18833,List1A,white,man,,,,null,,,,
7707,"<img src=""portrait/WW1.jpg""style=""height:400px;""></img>",0,html-button-response,80,309453,0.0-3.3-16.3,18833,List1A,white,man,,TRUE,1,,,,,
2080,"<img src=""portrait/WW1.jpg""style=""height:400px;""></img>",1,html-button-response,81,312549,0.0-3.3-18.3-0.3,18833,List1A,white,man,,FALSE,1,,,,,
null,CORRECT,,html-keyboard-response,82,314057,0.0-3.3-18.3-1.3-0.3,18833,List1A,white,man,,,,null,,,,
2316,"<img src=""portrait/WM2.jpg""style=""height:400px;""></img>",6,html-button-response,83,316395,0.0-3.3-19.3,18833,List1A,white,man,,TRUE,7,,,,,
1392,"<img src=""portrait/WM2.jpg""style=""height:400px;""></img>",7,html-button-response,84,318803,0.0-3.3-21.3-0.3,18833,List1A,white,man,,FALSE,7,,,,,
null,CORRECT,,html-keyboard-response,85,320311,0.0-3.3-21.3-1.3-0.3,18833,List1A,white,man,,,,null,,,,
1785,"<img src=""portrait/WM1.jpg""style=""height:400px;""></img>",6,html-button-response,86,322112,0.0-3.3-22.3,18833,List1A,white,man,,TRUE,6,,,,,
null,CORRECT,,html-keyboard-response,87,323619,0.0-3.3-23.3-0.3,18833,List1A,white,man,,,,null,,,,
1378,<p>You got 5 out of 8 right first time. Press Continue.</p>,0,html-button-response,88,325007,0.0-3.3-25.3,18833,List1A,white,man,,,,,,,,
2597,"As you did not score 100%, the memory game will repeat. Press Continue.",0,html-button-response,89,328614,0.0-3.3-26.3-0.3,18833,List1A,white,man,,,,,,,,
1691,"<img src='img/portrait_matrix_list1.jpg' style='width:900px;height:500px;''></img><p>If you have memorised all the portraits and names and are ready to start, press Continue.</p><p><strong>Please note: Your memory of these faces will be tested 4 times during this experiment.</strong></p>",0,html-button-response,90,331319,0.0-3.4-0.4,18833,List1A,white,man,,,,,,,,
3953,"<img src=""portrait/WW2.jpg""style=""height:400px;""></img>",3,html-button-response,91,336290,0.0-3.4-1.4,18833,List1A,white,man,,TRUE,3,,,,,
null,CORRECT,,html-keyboard-response,92,337797,0.0-3.4-2.4-0.4,18833,List1A,white,man,,,,null,,,,
2057,"<img src=""portrait/BW1.jpg""style=""height:400px;""></img>",1,html-button-response,93,339867,0.0-3.4-4.4,18833,List1A,white,man,,TRUE,0,,,,,
1705,"<img src=""portrait/BW1.jpg""style=""height:400px;""></img>",0,html-button-response,94,342591,0.0-3.4-6.4-0.4,18833,List1A,white,man,,FALSE,0,,,,,
null,CORRECT,,html-keyboard-response,95,344099,0.0-3.4-6.4-1.4-0.4,18833,List1A,white,man,,,,null,,,,
2288,"<img src=""portrait/BM1.jpg""style=""height:400px;""></img>",4,html-button-response,96,346403,0.0-3.4-7.4,18833,List1A,white,man,,TRUE,4,,,,,
null,CORRECT,,html-keyboard-response,97,347912,0.0-3.4-8.4-0.4,18833,List1A,white,man,,,,null,,,,
6650,"<img src=""portrait/BM2.jpg""style=""height:400px;""></img>",6,html-button-response,98,354578,0.0-3.4-10.4,18833,List1A,white,man,,TRUE,5,,,,,
2107,"<img src=""portrait/BM2.jpg""style=""height:400px;""></img>",5,html-button-response,99,357702,0.0-3.4-12.4-0.4,18833,List1A,white,man,,FALSE,5,,,,,
null,CORRECT,,html-keyboard-response,100,359213,0.0-3.4-12.4-1.4-0.4,18833,List1A,white,man,,,,null,,,,
2078,"<img src=""portrait/BW2.jpg""style=""height:400px;""></img>",4,html-button-response,101,361306,0.0-3.4-13.4,18833,List1A,white,man,,TRUE,2,,,,,
3137,"<img src=""portrait/BW2.jpg""style=""height:400px;""></img>",2,html-button-response,102,365459,0.0-3.4-15.4-0.4,18833,List1A,white,man,,FALSE,2,,,,,
null,CORRECT,,html-keyboard-response,103,366970,0.0-3.4-15.4-1.4-0.4,18833,List1A,white,man,,,,null,,,,
2013,"<img src=""portrait/WW1.jpg""style=""height:400px;""></img>",0,html-button-response,104,368996,0.0-3.4-16.4,18833,List1A,white,man,,TRUE,1,,,,,
1888,"<img src=""portrait/WW1.jpg""style=""height:400px;""></img>",1,html-button-response,105,371909,0.0-3.4-18.4-0.4,18833,List1A,white,man,,FALSE,1,,,,,
null,CORRECT,,html-keyboard-response,106,373420,0.0-3.4-18.4-1.4-0.4,18833,List1A,white,man,,,,null,,,,
1981,"<img src=""portrait/WM2.jpg""style=""height:400px;""></img>",4,html-button-response,107,375416,0.0-3.4-19.4,18833,List1A,white,man,,TRUE,7,,,,,
2788,"<img src=""portrait/WM2.jpg""style=""height:400px;""></img>",3,html-button-response,108,379224,0.0-3.4-21.4-0.4,18833,List1A,white,man,,FALSE,7,,,,,
null,INCORRECT,,html-keyboard-response,109,380733,0.0-3.4-21.4-2.4-0.4,18833,List1A,white,man,,,,null,,,,
2062,"<img src=""portrait/WM1.jpg""style=""height:400px;""></img>",6,html-button-response,110,382813,0.0-3.4-22.4,18833,List1A,white,man,,TRUE,6,,,,,
null,CORRECT,,html-keyboard-response,111,384320,0.0-3.4-23.4-0.4,18833,List1A,white,man,,,,null,,,,
1436,<p>You got 3 out of 8 right first time. Press Continue.</p>,0,html-button-response,112,385764,0.0-3.4-25.4,18833,List1A,white,man,,,,,,,,
1467,"As you did not score 100%, the memory game will repeat. Press Continue.",0,html-button-response,113,388241,0.0-3.4-26.4-0.4,18833,List1A,white,man,,,,,,,,
14048,"<img src='img/portrait_matrix_list1.jpg' style='width:900px;height:500px;''></img><p>If you have memorised all the portraits and names and are ready to start, press Continue.</p><p><strong>Please note: Your memory of these faces will be tested 4 times during this experiment.</strong></p>",0,html-button-response,114,403307,0.0-3.5-0.5,18833,List1A,white,man,,,,,,,,
2835,"<img src=""portrait/WW2.jpg""style=""height:400px;""></img>",2,html-button-response,115,407159,0.0-3.5-1.5,18833,List1A,white,man,,TRUE,3,,,,,
2048,"<img src=""portrait/WW2.jpg""style=""height:400px;""></img>",3,html-button-response,116,410226,0.0-3.5-3.5-0.5,18833,List1A,white,man,,FALSE,3,,,,,
null,CORRECT,,html-keyboard-response,117,411738,0.0-3.5-3.5-1.5-0.5,18833,List1A,white,man,,,,null,,,,
2021,"<img src=""portrait/BW1.jpg""style=""height:400px;""></img>",1,html-button-response,118,413775,0.0-3.5-4.5,18833,List1A,white,man,,TRUE,0,,,,,
2796,"<img src=""portrait/BW1.jpg""style=""height:400px;""></img>",0,html-button-response,119,417589,0.0-3.5-6.5-0.5,18833,List1A,white,man,,FALSE,0,,,,,
null,CORRECT,,html-keyboard-response,120,419097,0.0-3.5-6.5-1.5-0.5,18833,List1A,white,man,,,,null,,,,
1995,"<img src=""portrait/BM1.jpg""style=""height:400px;""></img>",4,html-button-response,121,421105,0.0-3.5-7.5,18833,List1A,white,man,,TRUE,4,,,,,
null,CORRECT,,html-keyboard-response,122,422615,0.0-3.5-8.5-0.5,18833,List1A,white,man,,,,null,,,,
1870,"<img src=""portrait/BM2.jpg""style=""height:400px;""></img>",6,html-button-response,123,424496,0.0-3.5-10.5,18833,List1A,white,man,,TRUE,5,,,,,
2496,"<img src=""portrait/BM2.jpg""style=""height:400px;""></img>",5,html-button-response,124,428009,0.0-3.5-12.5-0.5,18833,List1A,white,man,,FALSE,5,,,,,
null,CORRECT,,html-keyboard-response,125,429517,0.0-3.5-12.5-1.5-0.5,18833,List1A,white,man,,,,null,,,,
3352,"<img src=""portrait/BW2.jpg""style=""height:400px;""></img>",3,html-button-response,126,432884,0.0-3.5-13.5,18833,List1A,white,man,,TRUE,2,,,,,
1804,"<img src=""portrait/BW2.jpg""style=""height:400px;""></img>",2,html-button-response,127,435706,0.0-3.5-15.5-0.5,18833,List1A,white,man,,FALSE,2,,,,,
null,CORRECT,,html-keyboard-response,128,437215,0.0-3.5-15.5-1.5-0.5,18833,List1A,white,man,,,,null,,,,
2157,"<img src=""portrait/WW1.jpg""style=""height:400px;""></img>",0,html-button-response,129,439386,0.0-3.5-16.5,18833,List1A,white,man,,TRUE,1,,,,,
1825,"<img src=""portrait/WW1.jpg""style=""height:400px;""></img>",1,html-button-response,130,442234,0.0-3.5-18.5-0.5,18833,List1A,white,man,,FALSE,1,,,,,
null,CORRECT,,html-keyboard-response,131,443742,0.0-3.5-18.5-1.5-0.5,18833,List1A,white,man,,,,null,,,,
2941,"<img src=""portrait/WM2.jpg""style=""height:400px;""></img>",4,html-button-response,132,446702,0.0-3.5-19.5,18833,List1A,white,man,,TRUE,7,,,,,
2866,"<img src=""portrait/WM2.jpg""style=""height:400px;""></img>",7,html-button-response,133,450585,0.0-3.5-21.5-0.5,18833,List1A,white,man,,FALSE,7,,,,,
null,CORRECT,,html-keyboard-response,134,452093,0.0-3.5-21.5-1.5-0.5,18833,List1A,white,man,,,,null,,,,
4813,"<img src=""portrait/WM1.jpg""style=""height:400px;""></img>",6,html-button-response,135,456920,0.0-3.5-22.5,18833,List1A,white,man,,TRUE,6,,,,,
null,CORRECT,,html-keyboard-response,136,458429,0.0-3.5-23.5-0.5,18833,List1A,white,man,,,,null,,,,
1557,<p>You got 2 out of 8 right first time. Press Continue.</p>,0,html-button-response,137,459997,0.0-3.5-25.5,18833,List1A,white,man,,,,,,,,
1805,"As you did not score 100%, the memory game will repeat. Press Continue.",0,html-button-response,138,462813,0.0-3.5-26.5-0.5,18833,List1A,white,man,,,,,,,,
1654,"<img src='img/portrait_matrix_list1.jpg' style='width:900px;height:500px;''></img><p>If you have memorised all the portraits and names and are ready to start, press Continue.</p><p><strong>Please note: Your memory of these faces will be tested 4 times during this experiment.</strong></p>",0,html-button-response,139,465481,0.0-3.6-0.6,18833,List1A,white,man,,,,,,,,
2629,"<img src=""portrait/WW2.jpg""style=""height:400px;""></img>",2,html-button-response,140,469127,0.0-3.6-1.6,18833,List1A,white,man,,TRUE,3,,,,,
1751,"<img src=""portrait/WW2.jpg""style=""height:400px;""></img>",3,html-button-response,141,471895,0.0-3.6-3.6-0.6,18833,List1A,white,man,,FALSE,3,,,,,
null,CORRECT,,html-keyboard-response,142,473405,0.0-3.6-3.6-1.6-0.6,18833,List1A,white,man,,,,null,,,,
2236,"<img src=""portrait/BW1.jpg""style=""height:400px;""></img>",1,html-button-response,143,475654,0.0-3.6-4.6,18833,List1A,white,man,,TRUE,0,,,,,
1702,"<img src=""portrait/BW1.jpg""style=""height:400px;""></img>",0,html-button-response,144,478373,0.0-3.6-6.6-0.6,18833,List1A,white,man,,FALSE,0,,,,,
null,CORRECT,,html-keyboard-response,145,479882,0.0-3.6-6.6-1.6-0.6,18833,List1A,white,man,,,,null,,,,
2239,"<img src=""portrait/BM1.jpg""style=""height:400px;""></img>",4,html-button-response,146,482134,0.0-3.6-7.6,18833,List1A,white,man,,TRUE,4,,,,,
null,CORRECT,,html-keyboard-response,147,483642,0.0-3.6-8.6-0.6,18833,List1A,white,man,,,,null,,,,
3623,"<img src=""portrait/BM2.jpg""style=""height:400px;""></img>",5,html-button-response,148,487280,0.0-3.6-10.6,18833,List1A,white,man,,TRUE,5,,,,,
null,CORRECT,,html-keyboard-response,149,488788,0.0-3.6-11.6-0.6,18833,List1A,white,man,,,,null,,,,
2706,"<img src=""portrait/BW2.jpg""style=""height:400px;""></img>",3,html-button-response,150,491511,0.0-3.6-13.6,18833,List1A,white,man,,TRUE,2,,,,,
1744,"<img src=""portrait/BW2.jpg""style=""height:400px;""></img>",2,html-button-response,151,494271,0.0-3.6-15.6-0.6,18833,List1A,white,man,,FALSE,2,,,,,
null,CORRECT,,html-keyboard-response,152,495779,0.0-3.6-15.6-1.6-0.6,18833,List1A,white,man,,,,null,,,,
3119,"<img src=""portrait/WW1.jpg""style=""height:400px;""></img>",0,html-button-response,153,498909,0.0-3.6-16.6,18833,List1A,white,man,,TRUE,1,,,,,
1796,"<img src=""portrait/WW1.jpg""style=""height:400px;""></img>",1,html-button-response,154,501719,0.0-3.6-18.6-0.6,18833,List1A,white,man,,FALSE,1,,,,,
null,CORRECT,,html-keyboard-response,155,503227,0.0-3.6-18.6-1.6-0.6,18833,List1A,white,man,,,,null,,,,
3259,"<img src=""portrait/WM2.jpg""style=""height:400px;""></img>",7,html-button-response,156,506502,0.0-3.6-19.6,18833,List1A,white,man,,TRUE,7,,,,,
null,CORRECT,,html-keyboard-response,157,508012,0.0-3.6-20.6-0.6,18833,List1A,white,man,,,,null,,,,
2097,"<img src=""portrait/WM1.jpg""style=""height:400px;""></img>",6,html-button-response,158,510123,0.0-3.6-22.6,18833,List1A,white,man,,TRUE,6,,,,,
null,CORRECT,,html-keyboard-response,159,511633,0.0-3.6-23.6-0.6,18833,List1A,white,man,,,,null,,,,
1355,<p>You got 4 out of 8 right first time. Press Continue.</p>,0,html-button-response,160,512998,0.0-3.6-25.6,18833,List1A,white,man,,,,,,,,
1205,"As you did not score 100%, the memory game will repeat. Press Continue.",0,html-button-response,161,515210,0.0-3.6-26.6-0.6,18833,List1A,white,man,,,,,,,,
5376,"<img src='img/portrait_matrix_list1.jpg' style='width:900px;height:500px;''></img><p>If you have memorised all the portraits and names and are ready to start, press Continue.</p><p><strong>Please note: Your memory of these faces will be tested 4 times during this experiment.</strong></p>",0,html-button-response,162,521602,0.0-3.7-0.7,18833,List1A,white,man,,,,,,,,
2785,"<img src=""portrait/WW2.jpg""style=""height:400px;""></img>",2,html-button-response,163,525402,0.0-3.7-1.7,18833,List1A,white,man,,TRUE,3,,,,,
2168,"<img src=""portrait/WW2.jpg""style=""height:400px;""></img>",3,html-button-response,164,528588,0.0-3.7-3.7-0.7,18833,List1A,white,man,,FALSE,3,,,,,
null,CORRECT,,html-keyboard-response,165,530097,0.0-3.7-3.7-1.7-0.7,18833,List1A,white,man,,,,null,,,,
2612,"<img src=""portrait/BW1.jpg""style=""height:400px;""></img>",1,html-button-response,166,532724,0.0-3.7-4.7,18833,List1A,white,man,,TRUE,0,,,,,
1576,"<img src=""portrait/BW1.jpg""style=""height:400px;""></img>",0,html-button-response,167,535317,0.0-3.7-6.7-0.7,18833,List1A,white,man,,FALSE,0,,,,,
null,CORRECT,,html-keyboard-response,168,536824,0.0-3.7-6.7-1.7-0.7,18833,List1A,white,man,,,,null,,,,
2288,"<img src=""portrait/BM1.jpg""style=""height:400px;""></img>",7,html-button-response,169,539128,0.0-3.7-7.7,18833,List1A,white,man,,TRUE,4,,,,,
1194,"<img src=""portrait/BM1.jpg""style=""height:400px;""></img>",4,html-button-response,170,541341,0.0-3.7-9.7-0.7,18833,List1A,white,man,,FALSE,4,,,,,
null,CORRECT,,html-keyboard-response,171,542850,0.0-3.7-9.7-1.7-0.7,18833,List1A,white,man,,,,null,,,,
3000,"<img src=""portrait/BM2.jpg""style=""height:400px;""></img>",5,html-button-response,172,545865,0.0-3.7-10.7,18833,List1A,white,man,,TRUE,5,,,,,
null,CORRECT,,html-keyboard-response,173,547374,0.0-3.7-11.7-0.7,18833,List1A,white,man,,,,null,,,,
2512,"<img src=""portrait/BW2.jpg""style=""height:400px;""></img>",3,html-button-response,174,549900,0.0-3.7-13.7,18833,List1A,white,man,,TRUE,2,,,,,
1890,"<img src=""portrait/BW2.jpg""style=""height:400px;""></img>",2,html-button-response,175,552806,0.0-3.7-15.7-0.7,18833,List1A,white,man,,FALSE,2,,,,,
null,CORRECT,,html-keyboard-response,176,554324,0.0-3.7-15.7-1.7-0.7,18833,List1A,white,man,,,,null,,,,
2336,"<img src=""portrait/WW1.jpg""style=""height:400px;""></img>",0,html-button-response,177,556676,0.0-3.7-16.7,18833,List1A,white,man,,TRUE,1,,,,,
1715,"<img src=""portrait/WW1.jpg""style=""height:400px;""></img>",1,html-button-response,178,559406,0.0-3.7-18.7-0.7,18833,List1A,white,man,,FALSE,1,,,,,
null,CORRECT,,html-keyboard-response,179,560916,0.0-3.7-18.7-1.7-0.7,18833,List1A,white,man,,,,null,,,,
2220,"<img src=""portrait/WM2.jpg""style=""height:400px;""></img>",7,html-button-response,180,563151,0.0-3.7-19.7,18833,List1A,white,man,,TRUE,7,,,,,
null,CORRECT,,html-keyboard-response,181,564660,0.0-3.7-20.7-0.7,18833,List1A,white,man,,,,null,,,,
1741,"<img src=""portrait/WM1.jpg""style=""height:400px;""></img>",6,html-button-response,182,566414,0.0-3.7-22.7,18833,List1A,white,man,,TRUE,6,,,,,
null,CORRECT,,html-keyboard-response,183,567924,0.0-3.7-23.7-0.7,18833,List1A,white,man,,,,null,,,,
1607,<p>You got 3 out of 8 right first time. Press Continue.</p>,0,html-button-response,184,569541,0.0-3.7-25.7,18833,List1A,white,man,,,,,,,,
2955,"As you did not score 100%, the memory game will repeat. Press Continue.",0,html-button-response,185,573506,0.0-3.7-26.7-0.7,18833,List1A,white,man,,,,,,,,
31725,"<img src='img/portrait_matrix_list1.jpg' style='width:900px;height:500px;''></img><p>If you have memorised all the portraits and names and are ready to start, press Continue.</p><p><strong>Please note: Your memory of these faces will be tested 4 times during this experiment.</strong></p>",0,html-button-response,186,606248,0.0-3.8-0.8,18833,List1A,white,man,,,,,,,,
3769,"<img src=""portrait/WW2.jpg""style=""height:400px;""></img>",3,html-button-response,187,611033,0.0-3.8-1.8,18833,List1A,white,man,,TRUE,3,,,,,
null,CORRECT,,html-keyboard-response,188,612541,0.0-3.8-2.8-0.8,18833,List1A,white,man,,,,null,,,,
4939,"<img src=""portrait/BW1.jpg""style=""height:400px;""></img>",0,html-button-response,189,617495,0.0-3.8-4.8,18833,List1A,white,man,,TRUE,0,,,,,
null,CORRECT,,html-keyboard-response,190,619002,0.0-3.8-5.8-0.8,18833,List1A,white,man,,,,null,,,,
3989,"<img src=""portrait/BM1.jpg""style=""height:400px;""></img>",4,html-button-response,191,623005,0.0-3.8-7.8,18833,List1A,white,man,,TRUE,4,,,,,
null,CORRECT,,html-keyboard-response,192,624516,0.0-3.8-8.8-0.8,18833,List1A,white,man,,,,null,,,,
3472,"<img src=""portrait/BM2.jpg""style=""height:400px;""></img>",5,html-button-response,193,628002,0.0-3.8-10.8,18833,List1A,white,man,,TRUE,5,,,,,
null,CORRECT,,html-keyboard-response,194,629511,0.0-3.8-11.8-0.8,18833,List1A,white,man,,,,null,,,,
3202,"<img src=""portrait/BW2.jpg""style=""height:400px;""></img>",2,html-button-response,195,632726,0.0-3.8-13.8,18833,List1A,white,man,,TRUE,2,,,,,
null,CORRECT,,html-keyboard-response,196,634234,0.0-3.8-14.8-0.8,18833,List1A,white,man,,,,null,,,,
4357,"<img src=""portrait/WW1.jpg""style=""height:400px;""></img>",1,html-button-response,197,638603,0.0-3.8-16.8,18833,List1A,white,man,,TRUE,1,,,,,
null,CORRECT,,html-keyboard-response,198,640112,0.0-3.8-17.8-0.8,18833,List1A,white,man,,,,null,,,,
4362,"<img src=""portrait/WM2.jpg""style=""height:400px;""></img>",7,html-button-response,199,644499,0.0-3.8-19.8,18833,List1A,white,man,,TRUE,7,,,,,
null,CORRECT,,html-keyboard-response,200,646010,0.0-3.8-20.8-0.8,18833,List1A,white,man,,,,null,,,,
4733,"<img src=""portrait/WM1.jpg""style=""height:400px;""></img>",6,html-button-response,201,650763,0.0-3.8-22.8,18833,List1A,white,man,,TRUE,6,,,,,
null,CORRECT,,html-keyboard-response,202,652272,0.0-3.8-23.8-0.8,18833,List1A,white,man,,,,null,,,,
1420,<p>You got 8 out of 8 right first time. Press Continue.</p>,0,html-button-response,203,653708,0.0-3.8-25.8,18833,List1A,white,man,,,,,,,,
22995,"<p>In this experiment, you will view photographs of the people from the memory game interacting.</p><p>By using the <strong>exact</strong> phrase given <i>after</i> the photograph appears and recalling the correct names of the people in the photographs, form a sentence describing the interaction. You do not need to capitalise names.</p><p>Type your answer in the space provided. Please complete every sentence before moving onto the next trial.</p><p>You will only have a few seconds to memorise each given photograph and phrase before you can respond, so try your best to focus.</p><p>An example is given below. Press 'Continue' when you are ready.</p><img src='img/speaking_example.jpg' style='width:800px;height:460px;''></img>",0,html-button-response,204,677720,0.0-4.0,18833,List1A,white,man,,,,,,,,
2637,"<p>Before the experiment starts, you will watch two example trials. Press 'Continue'.</p>",0,html-button-response,205,681368,0.0-5.0,18833,List1A,white,man,,,,,,,,
null,<img src='img/meet_eg.gif' style='height:400px;''></img>,,html-keyboard-response,206,684383,0.0-6.0,18833,List1A,white,man,,,,null,,,,
null,<p>is meeting</p>,,html-keyboard-response,207,686390,0.0-7.0,18833,List1A,white,man,,,,null,,,,
2150,<p><b>Answer:</b> kate is meeting beth</p>,0,html-button-response,208,688548,0.0-8.0,18833,List1A,white,man,,,,,,,,
null,<img src='img/look_eg.gif' style='height:400px;''></img>,,html-keyboard-response,209,691558,0.0-9.0,18833,List1A,white,man,,,,null,,,,
null,<p>are looking at each other</p>,,html-keyboard-response,210,693563,0.0-10.0,18833,List1A,white,man,,,,null,,,,
1882,<p><b>Answer:</b> luke and dave are looking at each other</p>,0,html-button-response,211,695454,0.0-11.0,18833,List1A,white,man,,,,,,,,
7068,"<p>Ready to start the experiment?</p><br><p><strong>Remember to describe the picture using a full sentence,</strong></p><p><strong>that combines the names of the people with the <i>exact</i> phrase given.</strong></p><p><strong>To receive full payment you must do this correctly.</strong></p><p><strong> You do not need to capitalise names or use punctuation.</strong></p><br><p>Press 'Continue' to begin.</p>",0,html-button-response,212,703534,0.0-12.0,18833,List1A,white,man,,,,,,,,
null,"<div style=""font-size:60px;"">+</div>",,html-keyboard-response,213,705042,0.0-13.0-0.0,18833,List1A,white,man,,,,null,,,,
null,"<img src=""stim_listA/fight5.gif""style=""height:400px;""></stim_listA>",,html-keyboard-response,214,707056,0.0-13.0-1.0,18833,List1A,white,man,,,,null,,,,
null,is fighting,,html-keyboard-response,215,709064,0.0-13.0-2.0,18833,List1A,white,man,,,,null,,,,
42919,,,survey-text,216,752007,0.0-13.0-3.0,18833,List1A,white,man,,,,,"{""Q0"":""Fred is squaring up to mike""}","<img src=""stim_listA/fight5.gif""style=""height:400px;""></stim_listA>",is fighting,
null,"<div style=""font-size:60px;"">+</div>",,html-keyboard-response,217,752519,0.0-13.0-0.1,18833,List1A,white,man,,,,null,,,,
null,"<img src=""stim_listA/argue6.gif""style=""height:400px;""></stim_listA>",,html-keyboard-response,218,754526,0.0-13.0-1.1,18833,List1A,white,man,,,,null,,,,
null,are arguing with each other,,html-keyboard-response,219,756532,0.0-13.0-2.1,18833,List1A,white,man,,,,null,,,,
11774,,,survey-text,220,768316,0.0-13.0-3.1,18833,List1A,white,man,,,,,"{""Q0"":""Fred and dave""}","<img src=""stim_listA/argue6.gif""style=""height:400px;""></stim_listA>",are arguing with each other,
null,"<div style=""font-size:60px;"">+</div>",,html-keyboard-response,221,768823,0.0-13.0-0.2,18833,List1A,white,man,,,,null,,,,
null,"<img src=""stim_listA/kiss3.gif""style=""height:400px;""></stim_listA>",,html-keyboard-response,222,770839,0.0-13.0-1.2,18833,List1A,white,man,,,,null,,,,
null,is kissing,,html-keyboard-response,223,772846,0.0-13.0-2.2,18833,List1A,white,man,,,,null,,,,
10069,,,survey-text,224,782928,0.0-13.0-3.2,18833,List1A,white,man,,,,,"{""Q0"":""Luke  and beth""}","<img src=""stim_listA/kiss3.gif""style=""height:400px;""></stim_listA>",is kissing,
null,"<div style=""font-size:60px;"">+</div>",,html-keyboard-response,225,783434,0.0-13.0-0.3,18833,List1A,white,man,,,,null,,,,
null,"<img src=""stim_listA/touch4.gif""style=""height:400px;""></stim_listA>",,html-keyboard-response,226,785440,0.0-13.0-1.3,18833,List1A,white,man,,,,null,,,,
null,are touching each other,,html-keyboard-response,227,787448,0.0-13.0-2.3,18833,List1A,white,man,,,,null,,,,
8339,,,survey-text,228,795800,0.0-13.0-3.3,18833,List1A,white,man,,,,,"{""Q0"":""Luke and ruth""}","<img src=""stim_listA/touch4.gif""style=""height:400px;""></stim_listA>",are touching each other,
null,"<div style=""font-size:60px;"">+</div>",,html-keyboard-response,229,796308,0.0-13.0-0.4,18833,List1A,white,man,,,,null,,,,
null,"<img src=""stim_listA/argue3.gif""style=""height:400px;""></stim_listA>",,html-keyboard-response,230,798316,0.0-13.0-1.4,18833,List1A,white,man,,,,null,,,,
null,is arguing with,,html-keyboard-response,231,800331,0.0-13.0-2.4,18833,List1A,white,man,,,,null,,,,
11325,,,survey-text,232,811664,0.0-13.0-3.4,18833,List1A,white,man,,,,,"{""Q0"":""Dave and kate""}","<img src=""stim_listA/argue3.gif""style=""height:400px;""></stim_listA>",is arguing with,
null,"<div style=""font-size:60px;"">+</div>",,html-keyboard-response,233,812169,0.0-13.0-0.5,18833,List1A,white,man,,,,null,,,,
null,"<img src=""stim_listA/play3.gif""style=""height:400px;""></stim_listA>",,html-keyboard-response,234,814178,0.0-13.0-1.5,18833,List1A,white,man,,,,null,,,,
null,is playing with,,html-keyboard-response,235,816185,0.0-13.0-2.5,18833,List1A,white,man,,,,null,,,,
7661,,,survey-text,236,823856,0.0-13.0-3.5,18833,List1A,white,man,,,,,"{""Q0"":""Dave and jane""}","<img src=""stim_listA/play3.gif""style=""height:400px;""></stim_listA>",is playing with,
null,"<div style=""font-size:60px;"">+</div>",,html-keyboard-response,237,824364,0.0-13.0-0.6,18833,List1A,white,man,,,,null,,,,
null,"<img src=""stim_listA/shout5.gif""style=""height:400px;""></stim_listA>",,html-keyboard-response,238,826376,0.0-13.0-1.6,18833,List1A,white,man,,,,null,,,,
null,is shouting at,,html-keyboard-response,239,828383,0.0-13.0-2.6,18833,List1A,white,man,,,,null,,,,
9769,,,survey-text,240,838161,0.0-13.0-3.6,18833,List1A,white,man,,,,,"{""Q0"":""Fred and dave""}","<img src=""stim_listA/shout5.gif""style=""height:400px;""></stim_listA>",is shouting at,
null,"<div style=""font-size:60px;"">+</div>",,html-keyboard-response,241,838670,0.0-13.0-0.7,18833,List1A,white,man,,,,null,,,,
null,"<img src=""stim_listA/flirt4.gif""style=""height:400px;""></stim_listA>",,html-keyboard-response,242,840682,0.0-13.0-1.7,18833,List1A,white,man,,,,null,,,,
null,are flirting with each other,,html-keyboard-response,243,842686,0.0-13.0-2.7,18833,List1A,white,man,,,,null,,,,
9131,,,survey-text,244,851821,0.0-13.0-3.7,18833,List1A,white,man,,,,,"{""Q0"":""Fred and ruth""}","<img src=""stim_listA/flirt4.gif""style=""height:400px;""></stim_listA>",are flirting with each other,
null,"<div style=""font-size:60px;"">+</div>",,html-keyboard-response,245,852326,0.0-13.0-0.8,18833,List1A,white,man,,,,null,,,,
null,"<img src=""stim_listA/marry7.gif""style=""height:400px;""></stim_listA>",,html-keyboard-response,246,854337,0.0-13.0-1.8,18833,List1A,white,man,,,,null,,,,
null,is marrying,,html-keyboard-response,247,856343,0.0-13.0-2.8,18833,List1A,white,man,,,,null,,,,
8774,,,survey-text,248,865126,0.0-13.0-3.8,18833,List1A,white,man,,,,,"{""Q0"":""Ruth and kate""}","<img src=""stim_listA/marry7.gif""style=""height:400px;""></stim_listA>",is marrying,
null,"<div style=""font-size:60px;"">+</div>",,html-keyboard-response,249,865636,0.0-13.0-0.9,18833,List1A,white,man,,,,null,,,,
null,"<img src=""stim_listA/dance2.gif""style=""height:400px;""></stim_listA>",,html-keyboard-response,250,867647,0.0-13.0-1.9,18833,List1A,white,man,,,,null,,,,
null,are dancing with each other,,html-keyboard-response,251,869655,0.0-13.0-2.9,18833,List1A,white,man,,,,null,,,,
8794,,,survey-text,252,878457,0.0-13.0-3.9,18833,List1A,white,man,,,,,"{""Q0"":""Beth and luke""}","<img src=""stim_listA/dance2.gif""style=""height:400px;""></stim_listA>",are dancing with each other,
null,"<div style=""font-size:60px;"">+</div>",,html-keyboard-response,253,878964,0.0-13.0-0.10,18833,List1A,white,man,,,,null,,,,
null,"<img src=""stim_listA/talk5.gif""style=""height:400px;""></stim_listA>",,html-keyboard-response,254,880979,0.0-13.0-1.10,18833,List1A,white,man,,,,null,,,,
null,is talking to,,html-keyboard-response,255,882985,0.0-13.0-2.10,18833,List1A,white,man,,,,null,,,,
6933,,,survey-text,256,889928,0.0-13.0-3.10,18833,List1A,white,man,,,,,"{""Q0"":""Fred and dave""}","<img src=""stim_listA/talk5.gif""style=""height:400px;""></stim_listA>",is talking to,
null,"<div style=""font-size:60px;"">+</div>",,html-keyboard-response,257,890436,0.0-13.0-0.11,18833,List1A,white,man,,,,null,,,,
null,"<img src=""stim_listA/shout1.gif""style=""height:400px;""></stim_listA>",,html-keyboard-response,258,892447,0.0-13.0-1.11,18833,List1A,white,man,,,,null,,,,
null,is shouting at,,html-keyboard-response,259,894455,0.0-13.0-2.11,18833,List1A,white,man,,,,null,,,,
8963,,,survey-text,260,903428,0.0-13.0-3.11,18833,List1A,white,man,,,,,"{""Q0"":""Beth and fred""}","<img src=""stim_listA/shout1.gif""style=""height:400px;""></stim_listA>",is shouting at,
null,"<div style=""font-size:60px;"">+</div>",,html-keyboard-response,261,903936,0.0-13.0-0.12,18833,List1A,white,man,,,,null,,,,
null,"<img src=""stim_listA/talk2.gif""style=""height:400px;""></stim_listA>",,html-keyboard-response,262,905945,0.0-13.0-1.12,18833,List1A,white,man,,,,null,,,,
null,are talking to each other,,html-keyboard-response,263,907951,0.0-13.0-2.12,18833,List1A,white,man,,,,null,,,,
18826,,,survey-text,264,926786,0.0-13.0-3.12,18833,List1A,white,man,,,,,"{""Q0"":""Beth and mike""}","<img src=""stim_listA/talk2.gif""style=""height:400px;""></stim_listA>",are talking to each other,
null,"<div style=""font-size:60px;"">+</div>",,html-keyboard-response,265,927293,0.0-13.0-0.13,18833,List1A,white,man,,,,null,,,,
null,"<img src=""stim_listA/argue8.gif""style=""height:400px;""></stim_listA>",,html-keyboard-response,266,929302,0.0-13.0-1.13,18833,List1A,white,man,,,,null,,,,
null,are arguing with each other,,html-keyboard-response,267,931309,0.0-13.0-2.13,18833,List1A,white,man,,,,null,,,,
8888,,,survey-text,268,940207,0.0-13.0-3.13,18833,List1A,white,man,,,,,"{""Q0"":""Beth and jane ""}","<img src=""stim_listA/argue8.gif""style=""height:400px;""></stim_listA>",are arguing with each other,
null,"<div style=""font-size:60px;"">+</div>",,html-keyboard-response,269,940716,0.0-13.0-0.14,18833,List1A,white,man,,,,null,,,,
null,"<img src=""stim_listA/play8.gif""style=""height:400px;""></stim_listA>",,html-keyboard-response,270,942728,0.0-13.0-1.14,18833,List1A,white,man,,,,null,,,,
null,are playing with each other,,html-keyboard-response,271,944736,0.0-13.0-2.14,18833,List1A,white,man,,,,null,,,,
7423,,,survey-text,272,952167,0.0-13.0-3.14,18833,List1A,white,man,,,,,"{""Q0"":""Beth and jane ""}","<img src=""stim_listA/play8.gif""style=""height:400px;""></stim_listA>",are playing with each other,
null,"<div style=""font-size:60px;"">+</div>",,html-keyboard-response,273,952675,0.0-13.0-0.15,18833,List1A,white,man,,,,null,,,,
null,"<img src=""stim_listA/fight4.gif""style=""height:400px;""></stim_listA>",,html-keyboard-response,274,954686,0.0-13.0-1.15,18833,List1A,white,man,,,,null,,,,
null,are fighting each other,,html-keyboard-response,275,956693,0.0-13.0-2.15,18833,List1A,white,man,,,,null,,,,
10838,,,survey-text,276,967540,0.0-13.0-3.15,18833,List1A,white,man,,,,,"{""Q0"":""Jane and luke""}","<img src=""stim_listA/fight4.gif""style=""height:400px;""></stim_listA>",are fighting each other,
null,"<div style=""font-size:60px;"">+</div>",,html-keyboard-response,277,968048,0.0-13.0-0.16,18833,List1A,white,man,,,,null,,,,
null,"<img src=""stim_listA/talk6.gif""style=""height:400px;""></stim_listA>",,html-keyboard-response,278,970061,0.0-13.0-1.16,18833,List1A,white,man,,,,null,,,,
null,are talking to each other,,html-keyboard-response,279,972068,0.0-13.0-2.16,18833,List1A,white,man,,,,null,,,,
6915,,,survey-text,280,978992,0.0-13.0-3.16,18833,List1A,white,man,,,,,"{""Q0"":""Luke and mike""}","<img src=""stim_listA/talk6.gif""style=""height:400px;""></stim_listA>",are talking to each other,
null,"<div style=""font-size:60px;"">+</div>",,html-keyboard-response,281,979499,0.0-13.0-0.17,18833,List1A,white,man,,,,null,,,,
null,"<img src=""stim_listA/marry2.gif""style=""height:400px;""></stim_listA>",,html-keyboard-response,282,981512,0.0-13.0-1.17,18833,List1A,white,man,,,,null,,,,
null,are marrying each other,,html-keyboard-response,283,983520,0.0-13.0-2.17,18833,List1A,white,man,,,,null,,,,
8198,,,survey-text,284,991727,0.0-13.0-3.17,18833,List1A,white,man,,,,,"{""Q0"":""Fred and kate""}","<img src=""stim_listA/marry2.gif""style=""height:400px;""></stim_listA>",are marrying each other,
null,"<div style=""font-size:60px;"">+</div>",,html-keyboard-response,285,992234,0.0-13.0-0.18,18833,List1A,white,man,,,,null,,,,
null,"<img src=""stim_listA/fight1.gif""style=""height:400px;""></stim_listA>",,html-keyboard-response,286,994246,0.0-13.0-1.18,18833,List1A,white,man,,,,null,,,,
null,is fighting,,html-keyboard-response,287,996254,0.0-13.0-2.18,18833,List1A,white,man,,,,null,,,,
8578,,,survey-text,288,1004857,0.0-13.0-3.18,18833,List1A,white,man,,,,,"{""Q0"":""Mike and kate""}","<img src=""stim_listA/fight1.gif""style=""height:400px;""></stim_listA>",is fighting,
null,"<div style=""font-size:60px;"">+</div>",,html-keyboard-response,289,1005365,0.0-13.0-0.19,18833,List1A,white,man,,,,null,,,,
null,"<img src=""stim_listA/shout3.gif""style=""height:400px;""></stim_listA>",,html-keyboard-response,290,1007376,0.0-13.0-1.19,18833,List1A,white,man,,,,null,,,,
null,is shouting at,,html-keyboard-response,291,1009382,0.0-13.0-2.19,18833,List1A,white,man,,,,null,,,,
8157,,,survey-text,292,1017550,0.0-13.0-3.19,18833,List1A,white,man,,,,,"{""Q0"":""Ruth and luke""}","<img src=""stim_listA/shout3.gif""style=""height:400px;""></stim_listA>",is shouting at,
4635,"<img src='img/portrait_matrix_list1.jpg' style='width:900px;height:500px;''></img><p>If you have memorised all the portraits and names and are ready to start, press Continue.</p><p><strong>Please note: Your memory of these faces will be tested 4 times during this experiment.</strong></p>",0,html-button-response,293,1022200,0.0-14.0-0.0,18833,List1A,white,man,,,,,,,,
4269,"<img src=""portrait/BW1.jpg""style=""height:400px;""></img>",0,html-button-response,294,1027487,0.0-14.0-1.0,18833,List1A,white,man,,TRUE,0,,,,,
null,CORRECT,,html-keyboard-response,295,1028996,0.0-14.0-2.0-0.0,18833,List1A,white,man,,,,null,,,,
3342,"<img src=""portrait/BM1.jpg""style=""height:400px;""></img>",4,html-button-response,296,1032355,0.0-14.0-4.0,18833,List1A,white,man,,TRUE,4,,,,,
null,CORRECT,,html-keyboard-response,297,1033863,0.0-14.0-5.0-0.0,18833,List1A,white,man,,,,null,,,,
4354,"<img src=""portrait/WW2.jpg""style=""height:400px;""></img>",3,html-button-response,298,1038234,0.0-14.0-7.0,18833,List1A,white,man,,TRUE,3,,,,,
null,CORRECT,,html-keyboard-response,299,1039743,0.0-14.0-8.0-0.0,18833,List1A,white,man,,,,null,,,,
3667,"<img src=""portrait/WM2.jpg""style=""height:400px;""></img>",7,html-button-response,300,1043426,0.0-14.0-10.0,18833,List1A,white,man,,TRUE,7,,,,,
null,CORRECT,,html-keyboard-response,301,1044937,0.0-14.0-11.0-0.0,18833,List1A,white,man,,,,null,,,,
4115,"<img src=""portrait/BM2.jpg""style=""height:400px;""></img>",5,html-button-response,302,1049067,0.0-14.0-13.0,18833,List1A,white,man,,TRUE,5,,,,,
null,CORRECT,,html-keyboard-response,303,1050575,0.0-14.0-14.0-0.0,18833,List1A,white,man,,,,null,,,,
3797,"<img src=""portrait/BW2.jpg""style=""height:400px;""></img>",2,html-button-response,304,1054390,0.0-14.0-16.0,18833,List1A,white,man,,TRUE,2,,,,,
null,CORRECT,,html-keyboard-response,305,1055898,0.0-14.0-17.0-0.0,18833,List1A,white,man,,,,null,,,,
4723,"<img src=""portrait/WM1.jpg""style=""height:400px;""></img>",6,html-button-response,306,1060636,0.0-14.0-19.0,18833,List1A,white,man,,TRUE,6,,,,,
null,CORRECT,,html-keyboard-response,307,1062144,0.0-14.0-20.0-0.0,18833,List1A,white,man,,,,null,,,,
3544,"<img src=""portrait/WW1.jpg""style=""height:400px;""></img>",1,html-button-response,308,1065705,0.0-14.0-22.0,18833,List1A,white,man,,TRUE,1,,,,,
null,CORRECT,,html-keyboard-response,309,1067213,0.0-14.0-23.0-0.0,18833,List1A,white,man,,,,null,,,,
1576,<p>You got 8 out of 8 right first time. Press Continue.</p>,0,html-button-response,310,1068804,0.0-14.0-25.0,18833,List1A,white,man,,,,,,,,
null,"<div style=""font-size:60px;"">+</div>",,html-keyboard-response,311,1070313,0.0-15.0-0.0,18833,List1A,white,man,,,,null,,,,
null,"<img src=""stim_listA/play1.gif""style=""height:400px;""></stim_listA>",,html-keyboard-response,312,1072325,0.0-15.0-1.0,18833,List1A,white,man,,,,null,,,,
null,is playing with,,html-keyboard-response,313,1074332,0.0-15.0-2.0,18833,List1A,white,man,,,,null,,,,
10591,,,survey-text,314,1084933,0.0-15.0-3.0,18833,List1A,white,man,,,,,"{""Q0"":""Kate and mike""}","<img src=""stim_listA/play1.gif""style=""height:400px;""></stim_listA>",is playing with,
null,"<div style=""font-size:60px;"">+</div>",,html-keyboard-response,315,1085442,0.0-15.0-0.1,18833,List1A,white,man,,,,null,,,,
null,"<img src=""stim_listA/flirt5.gif""style=""height:400px;""></stim_listA>",,html-keyboard-response,316,1087453,0.0-15.0-1.1,18833,List1A,white,man,,,,null,,,,
null,is flirting with,,html-keyboard-response,317,1089460,0.0-15.0-2.1,18833,List1A,white,man,,,,null,,,,
7461,,,survey-text,318,1096929,0.0-15.0-3.1,18833,List1A,white,man,,,,,"{""Q0"":""Fred and dave""}","<img src=""stim_listA/flirt5.gif""style=""height:400px;""></stim_listA>",is flirting with,
null,"<div style=""font-size:60px;"">+</div>",,html-keyboard-response,319,1097436,0.0-15.0-0.2,18833,List1A,white,man,,,,null,,,,
null,"<img src=""stim_listA/kiss7.gif""style=""height:400px;""></stim_listA>",,html-keyboard-response,320,1099445,0.0-15.0-1.2,18833,List1A,white,man,,,,null,,,,
null,is kissing,,html-keyboard-response,321,1101452,0.0-15.0-2.2,18833,List1A,white,man,,,,null,,,,
9339,,,survey-text,322,1110801,0.0-15.0-3.2,18833,List1A,white,man,,,,,"{""Q0"":""Ruth and beth""}","<img src=""stim_listA/kiss7.gif""style=""height:400px;""></stim_listA>",is kissing,
null,"<div style=""font-size:60px;"">+</div>",,html-keyboard-response,323,1111309,0.0-15.0-0.3,18833,List1A,white,man,,,,null,,,,
null,"<img src=""stim_listA/talk1.gif""style=""height:400px;""></stim_listA>",,html-keyboard-response,324,1113322,0.0-15.0-1.3,18833,List1A,white,man,,,,null,,,,
null,is talking to,,html-keyboard-response,325,1115329,0.0-15.0-2.3,18833,List1A,white,man,,,,null,,,,
7991,,,survey-text,326,1123329,0.0-15.0-3.3,18833,List1A,white,man,,,,,"{""Q0"":""Fred and kate""}","<img src=""stim_listA/talk1.gif""style=""height:400px;""></stim_listA>",is talking to,
null,"<div style=""font-size:60px;"">+</div>",,html-keyboard-response,327,1123837,0.0-15.0-0.4,18833,List1A,white,man,,,,null,,,,
null,"<img src=""stim_listA/dance1.gif""style=""height:400px;""></stim_listA>",,html-keyboard-response,328,1125848,0.0-15.0-1.4,18833,List1A,white,man,,,,null,,,,
null,is dancing with,,html-keyboard-response,329,1127854,0.0-15.0-2.4,18833,List1A,white,man,,,,null,,,,
6819,,,survey-text,330,1134682,0.0-15.0-3.4,18833,List1A,white,man,,,,,"{""Q0"":""Fred and kate""}","<img src=""stim_listA/dance1.gif""style=""height:400px;""></stim_listA>",is dancing with,
null,"<div style=""font-size:60px;"">+</div>",,html-keyboard-response,331,1135189,0.0-15.0-0.5,18833,List1A,white,man,,,,null,,,,
null,"<img src=""stim_listA/dance4.gif""style=""height:400px;""></stim_listA>",,html-keyboard-response,332,1137200,0.0-15.0-1.5,18833,List1A,white,man,,,,null,,,,
null,are dancing with each other,,html-keyboard-response,333,1139207,0.0-15.0-2.5,18833,List1A,white,man,,,,null,,,,
7940,,,survey-text,334,1147157,0.0-15.0-3.5,18833,List1A,white,man,,,,,"{""Q0"":""Dave and ruth""}","<img src=""stim_listA/dance4.gif""style=""height:400px;""></stim_listA>",are dancing with each other,
null,"<div style=""font-size:60px;"">+</div>",,html-keyboard-response,335,1147664,0.0-15.0-0.6,18833,List1A,white,man,,,,null,,,,
null,"<img src=""stim_listA/shout8.gif""style=""height:400px;""></stim_listA>",,html-keyboard-response,336,1149675,0.0-15.0-1.6,18833,List1A,white,man,,,,null,,,,
null,are shouting at each other,,html-keyboard-response,337,1151682,0.0-15.0-2.6,18833,List1A,white,man,,,,null,,,,
8278,,,survey-text,338,1159969,0.0-15.0-3.6,18833,List1A,white,man,,,,,"{""Q0"":""Jane and kate""}","<img src=""stim_listA/shout8.gif""style=""height:400px;""></stim_listA>",are shouting at each other,
null,"<div style=""font-size:60px;"">+</div>",,html-keyboard-response,339,1160477,0.0-15.0-0.7,18833,List1A,white,man,,,,null,,,,
null,"<img src=""stim_listA/touch2.gif""style=""height:400px;""></stim_listA>",,html-keyboard-response,340,1162486,0.0-15.0-1.7,18833,List1A,white,man,,,,null,,,,
null,are touching each other,,html-keyboard-response,341,1164493,0.0-15.0-2.7,18833,List1A,white,man,,,,null,,,,
6201,,,survey-text,342,1170701,0.0-15.0-3.7,18833,List1A,white,man,,,,,"{""Q0"":""Fred and beth""}","<img src=""stim_listA/touch2.gif""style=""height:400px;""></stim_listA>",are touching each other,
null,"<div style=""font-size:60px;"">+</div>",,html-keyboard-response,343,1171208,0.0-15.0-0.8,18833,List1A,white,man,,,,null,,,,
null,"<img src=""stim_listA/touch1.gif""style=""height:400px;""></stim_listA>",,html-keyboard-response,344,1173225,0.0-15.0-1.8,18833,List1A,white,man,,,,null,,,,
null,is touching,,html-keyboard-response,345,1175233,0.0-15.0-2.8,18833,List1A,white,man,,,,null,,,,
6677,,,survey-text,346,1181920,0.0-15.0-3.8,18833,List1A,white,man,,,,,"{""Q0"":""Kate and mike""}","<img src=""stim_listA/touch1.gif""style=""height:400px;""></stim_listA>",is touching,
null,"<div style=""font-size:60px;"">+</div>",,html-keyboard-response,347,1182427,0.0-15.0-0.9,18833,List1A,white,man,,,,null,,,,
null,"<img src=""stim_listA/marry6.gif""style=""height:400px;""></stim_listA>",,html-keyboard-response,348,1184438,0.0-15.0-1.9,18833,List1A,white,man,,,,null,,,,
null,are marrying each other,,html-keyboard-response,349,1186446,0.0-15.0-2.9,18833,List1A,white,man,,,,null,,,,
6745,,,survey-text,350,1193200,0.0-15.0-3.9,18833,List1A,white,man,,,,,"{""Q0"":""Fred and dave""}","<img src=""stim_listA/marry6.gif""style=""height:400px;""></stim_listA>",are marrying each other,
null,"<div style=""font-size:60px;"">+</div>",,html-keyboard-response,351,1193707,0.0-15.0-0.10,18833,List1A,white,man,,,,null,,,,
null,"<img src=""stim_listA/argue7.gif""style=""height:400px;""></stim_listA>",,html-keyboard-response,352,1195716,0.0-15.0-1.10,18833,List1A,white,man,,,,null,,,,
null,is arguing with,,html-keyboard-response,353,1197724,0.0-15.0-2.10,18833,List1A,white,man,,,,null,,,,
8025,,,survey-text,354,1205759,0.0-15.0-3.10,18833,List1A,white,man,,,,,"{""Q0"":""Ruth and kate""}","<img src=""stim_listA/argue7.gif""style=""height:400px;""></stim_listA>",is arguing with,
null,"<div style=""font-size:60px;"">+</div>",,html-keyboard-response,355,1206270,0.0-15.0-0.11,18833,List1A,white,man,,,,null,,,,
null,"<img src=""stim_listA/marry3.gif""style=""height:400px;""></stim_listA>",,html-keyboard-response,356,1208280,0.0-15.0-1.11,18833,List1A,white,man,,,,null,,,,
null,is marrying,,html-keyboard-response,357,1210287,0.0-15.0-2.11,18833,List1A,white,man,,,,null,,,,
7178,,,survey-text,358,1217474,0.0-15.0-3.11,18833,List1A,white,man,,,,,"{""Q0"":""Dave and ruth""}","<img src=""stim_listA/marry3.gif""style=""height:400px;""></stim_listA>",is marrying,
null,"<div style=""font-size:60px;"">+</div>",,html-keyboard-response,359,1217981,0.0-15.0-0.12,18833,List1A,white,man,,,,null,,,,
null,"<img src=""stim_listA/talk8.gif""style=""height:400px;""></stim_listA>",,html-keyboard-response,360,1219993,0.0-15.0-1.12,18833,List1A,white,man,,,,null,,,,
null,are talking to each other,,html-keyboard-response,361,1222000,0.0-15.0-2.12,18833,List1A,white,man,,,,null,,,,
7448,,,survey-text,362,1229457,0.0-15.0-3.12,18833,List1A,white,man,,,,,"{""Q0"":""Ruth and kate""}","<img src=""stim_listA/talk8.gif""style=""height:400px;""></stim_listA>",are talking to each other,
null,"<div style=""font-size:60px;"">+</div>",,html-keyboard-response,363,1229964,0.0-15.0-0.13,18833,List1A,white,man,,,,null,,,,
null,"<img src=""stim_listA/play2.gif""style=""height:400px;""></stim_listA>",,html-keyboard-response,364,1231976,0.0-15.0-1.13,18833,List1A,white,man,,,,null,,,,
null,are playing with each other,,html-keyboard-response,365,1233982,0.0-15.0-2.13,18833,List1A,white,man,,,,null,,,,
6064,,,survey-text,366,1240056,0.0-15.0-3.13,18833,List1A,white,man,,,,,"{""Q0"":""Fred and beth""}","<img src=""stim_listA/play2.gif""style=""height:400px;""></stim_listA>",are playing with each other,
null,"<div style=""font-size:60px;"">+</div>",,html-keyboard-response,367,1240563,0.0-15.0-0.14,18833,List1A,white,man,,,,null,,,,
null,"<img src=""stim_listA/play7.gif""style=""height:400px;""></stim_listA>",,html-keyboard-response,368,1242574,0.0-15.0-1.14,18833,List1A,white,man,,,,null,,,,
null,is playing with,,html-keyboard-response,369,1244581,0.0-15.0-2.14,18833,List1A,white,man,,,,null,,,,
7618,,,survey-text,370,1252208,0.0-15.0-3.14,18833,List1A,white,man,,,,,"{""Q0"":""Kate and jane""}","<img src=""stim_listA/play7.gif""style=""height:400px;""></stim_listA>",is playing with,
null,"<div style=""font-size:60px;"">+</div>",,html-keyboard-response,371,1252715,0.0-15.0-0.15,18833,List1A,white,man,,,,null,,,,
null,"<img src=""stim_listA/play5.gif""style=""height:400px;""></stim_listA>",,html-keyboard-response,372,1254729,0.0-15.0-1.15,18833,List1A,white,man,,,,null,,,,
null,is playing with,,html-keyboard-response,373,1256738,0.0-15.0-2.15,18833,List1A,white,man,,,,null,,,,
7327,,,survey-text,374,1264074,0.0-15.0-3.15,18833,List1A,white,man,,,,,"{""Q0"":""Dave and mike""}","<img src=""stim_listA/play5.gif""style=""height:400px;""></stim_listA>",is playing with,
null,"<div style=""font-size:60px;"">+</div>",,html-keyboard-response,375,1264580,0.0-15.0-0.16,18833,List1A,white,man,,,,null,,,,
null,"<img src=""stim_listA/shout7.gif""style=""height:400px;""></stim_listA>",,html-keyboard-response,376,1266585,0.0-15.0-1.16,18833,List1A,white,man,,,,null,,,,
null,is shouting at,,html-keyboard-response,377,1268593,0.0-15.0-2.16,18833,List1A,white,man,,,,null,,,,
10744,,,survey-text,378,1279347,0.0-15.0-3.16,18833,List1A,white,man,,,,,"{""Q0"":""Ruth and beth""}","<img src=""stim_listA/shout7.gif""style=""height:400px;""></stim_listA>",is shouting at,
null,"<div style=""font-size:60px;"">+</div>",,html-keyboard-response,379,1279854,0.0-15.0-0.17,18833,List1A,white,man,,,,null,,,,
null,"<img src=""stim_listA/talk3.gif""style=""height:400px;""></stim_listA>",,html-keyboard-response,380,1281863,0.0-15.0-1.17,18833,List1A,white,man,,,,null,,,,
null,is talking to,,html-keyboard-response,381,1283870,0.0-15.0-2.17,18833,List1A,white,man,,,,null,,,,
6968,,,survey-text,382,1290850,0.0-15.0-3.17,18833,List1A,white,man,,,,,"{""Q0"":""Luke and jane""}","<img src=""stim_listA/talk3.gif""style=""height:400px;""></stim_listA>",is talking to,
null,"<div style=""font-size:60px;"">+</div>",,html-keyboard-response,383,1291360,0.0-15.0-0.18,18833,List1A,white,man,,,,null,,,,
null,"<img src=""stim_listA/touch7.gif""style=""height:400px;""></stim_listA>",,html-keyboard-response,384,1293375,0.0-15.0-1.18,18833,List1A,white,man,,,,null,,,,
null,is touching,,html-keyboard-response,385,1295385,0.0-15.0-2.18,18833,List1A,white,man,,,,null,,,,
7967,,,survey-text,386,1303362,0.0-15.0-3.18,18833,List1A,white,man,,,,,"{""Q0"":""Kate and jane""}","<img src=""stim_listA/touch7.gif""style=""height:400px;""></stim_listA>",is touching,
null,"<div style=""font-size:60px;"">+</div>",,html-keyboard-response,387,1303870,0.0-15.0-0.19,18833,List1A,white,man,,,,null,,,,
null,"<img src=""stim_listA/dance7.gif""style=""height:400px;""></stim_listA>",,html-keyboard-response,388,1305883,0.0-15.0-1.19,18833,List1A,white,man,,,,null,,,,
null,is dancing with,,html-keyboard-response,389,1307889,0.0-15.0-2.19,18833,List1A,white,man,,,,null,,,,
7530,,,survey-text,390,1315436,0.0-15.0-3.19,18833,List1A,white,man,,,,,"{""Q0"":""Beth and ruth""}","<img src=""stim_listA/dance7.gif""style=""height:400px;""></stim_listA>",is dancing with,
4254,"<img src='img/portrait_matrix_list1.jpg' style='width:900px;height:500px;''></img><p>If you have memorised all the portraits and names and are ready to start, press Continue.</p><p><strong>Please note: Your memory of these faces will be tested 4 times during this experiment.</strong></p>",0,html-button-response,391,1319704,0.0-16.0-0.0,18833,List1A,white,man,,,,,,,,
18692,"<img src=""portrait/WM1.jpg""style=""height:400px;""></img>",6,html-button-response,392,1339414,0.0-16.0-1.0,18833,List1A,white,man,,TRUE,6,,,,,
null,CORRECT,,html-keyboard-response,393,1340929,0.0-16.0-2.0-0.0,18833,List1A,white,man,,,,null,,,,
3959,"<img src=""portrait/WW2.jpg""style=""height:400px;""></img>",3,html-button-response,394,1344907,0.0-16.0-4.0,18833,List1A,white,man,,TRUE,3,,,,,
null,CORRECT,,html-keyboard-response,395,1346417,0.0-16.0-5.0-0.0,18833,List1A,white,man,,,,null,,,,
3262,"<img src=""portrait/BM1.jpg""style=""height:400px;""></img>",4,html-button-response,396,1349694,0.0-16.0-7.0,18833,List1A,white,man,,TRUE,4,,,,,
null,CORRECT,,html-keyboard-response,397,1351205,0.0-16.0-8.0-0.0,18833,List1A,white,man,,,,null,,,,
5600,"<img src=""portrait/BW1.jpg""style=""height:400px;""></img>",0,html-button-response,398,1356817,0.0-16.0-10.0,18833,List1A,white,man,,TRUE,0,,,,,
null,CORRECT,,html-keyboard-response,399,1358326,0.0-16.0-11.0-0.0,18833,List1A,white,man,,,,null,,,,
4294,"<img src=""portrait/BM2.jpg""style=""height:400px;""></img>",5,html-button-response,400,1362635,0.0-16.0-13.0,18833,List1A,white,man,,TRUE,5,,,,,
null,CORRECT,,html-keyboard-response,401,1364143,0.0-16.0-14.0-0.0,18833,List1A,white,man,,,,null,,,,
3639,"<img src=""portrait/WM2.jpg""style=""height:400px;""></img>",7,html-button-response,402,1367796,0.0-16.0-16.0,18833,List1A,white,man,,TRUE,7,,,,,
null,CORRECT,,html-keyboard-response,403,1369306,0.0-16.0-17.0-0.0,18833,List1A,white,man,,,,null,,,,
3636,"<img src=""portrait/BW2.jpg""style=""height:400px;""></img>",2,html-button-response,404,1372958,0.0-16.0-19.0,18833,List1A,white,man,,TRUE,2,,,,,
null,CORRECT,,html-keyboard-response,405,1374467,0.0-16.0-20.0-0.0,18833,List1A,white,man,,,,null,,,,
3006,"<img src=""portrait/WW1.jpg""style=""height:400px;""></img>",1,html-button-response,406,1377491,0.0-16.0-22.0,18833,List1A,white,man,,TRUE,1,,,,,
null,CORRECT,,html-keyboard-response,407,1379000,0.0-16.0-23.0-0.0,18833,List1A,white,man,,,,null,,,,
1395,<p>You got 8 out of 8 right first time. Press Continue.</p>,0,html-button-response,408,1380404,0.0-16.0-25.0,18833,List1A,white,man,,,,,,,,
null,"<div style=""font-size:60px;"">+</div>",,html-keyboard-response,409,1381916,0.0-17.0-0.0,18833,List1A,white,man,,,,null,,,,
null,"<img src=""stim_listA/flirt8.gif""style=""height:400px;""></stim_listA>",,html-keyboard-response,410,1383931,0.0-17.0-1.0,18833,List1A,white,man,,,,null,,,,
null,are flirting with each other,,html-keyboard-response,411,1385940,0.0-17.0-2.0,18833,List1A,white,man,,,,null,,,,
7723,,,survey-text,412,1393672,0.0-17.0-3.0,18833,List1A,white,man,,,,,"{""Q0"":""Kate and ruth""}","<img src=""stim_listA/flirt8.gif""style=""height:400px;""></stim_listA>",are flirting with each other,
null,"<div style=""font-size:60px;"">+</div>",,html-keyboard-response,413,1394178,0.0-17.0-0.1,18833,List1A,white,man,,,,null,,,,
null,"<img src=""stim_listA/dance5.gif""style=""height:400px;""></stim_listA>",,html-keyboard-response,414,1396184,0.0-17.0-1.1,18833,List1A,white,man,,,,null,,,,
null,is dancing with,,html-keyboard-response,415,1398192,0.0-17.0-2.1,18833,List1A,white,man,,,,null,,,,
6609,,,survey-text,416,1404810,0.0-17.0-3.1,18833,List1A,white,man,,,,,"{""Q0"":""Dave and fred""}","<img src=""stim_listA/dance5.gif""style=""height:400px;""></stim_listA>",is dancing with,
null,"<div style=""font-size:60px;"">+</div>",,html-keyboard-response,417,1405321,0.0-17.0-0.2,18833,List1A,white,man,,,,null,,,,
null,"<img src=""stim_listA/flirt3.gif""style=""height:400px;""></stim_listA>",,html-keyboard-response,418,1407332,0.0-17.0-1.2,18833,List1A,white,man,,,,null,,,,
null,is flirting with,,html-keyboard-response,419,1409340,0.0-17.0-2.2,18833,List1A,white,man,,,,null,,,,
9305,,,survey-text,420,1418657,0.0-17.0-3.2,18833,List1A,white,man,,,,,"{""Q0"":""Luke and jane""}","<img src=""stim_listA/flirt3.gif""style=""height:400px;""></stim_listA>",is flirting with,
null,"<div style=""font-size:60px;"">+</div>",,html-keyboard-response,421,1419164,0.0-17.0-0.3,18833,List1A,white,man,,,,null,,,,
null,"<img src=""stim_listA/marry4.gif""style=""height:400px;""></stim_listA>",,html-keyboard-response,422,1421175,0.0-17.0-1.3,18833,List1A,white,man,,,,null,,,,
null,are marrying each other,,html-keyboard-response,423,1423184,0.0-17.0-2.3,18833,List1A,white,man,,,,null,,,,
8009,,,survey-text,424,1431203,0.0-17.0-3.3,18833,List1A,white,man,,,,,"{""Q0"":""Luke and jane""}","<img src=""stim_listA/marry4.gif""style=""height:400px;""></stim_listA>",are marrying each other,
null,"<div style=""font-size:60px;"">+</div>",,html-keyboard-response,425,1431712,0.0-17.0-0.4,18833,List1A,white,man,,,,null,,,,
null,"<img src=""stim_listA/marry1.gif""style=""height:400px;""></stim_listA>",,html-keyboard-response,426,1433725,0.0-17.0-1.4,18833,List1A,white,man,,,,null,,,,
null,is marrying,,html-keyboard-response,427,1435733,0.0-17.0-2.4,18833,List1A,white,man,,,,null,,,,
9389,,,survey-text,428,1445133,0.0-17.0-3.4,18833,List1A,white,man,,,,,"{""Q0"":""Beth and mike""}","<img src=""stim_listA/marry1.gif""style=""height:400px;""></stim_listA>",is marrying,
null,"<div style=""font-size:60px;"">+</div>",,html-keyboard-response,429,1445641,0.0-17.0-0.5,18833,List1A,white,man,,,,null,,,,
null,"<img src=""stim_listA/touch3.gif""style=""height:400px;""></stim_listA>",,html-keyboard-response,430,1447650,0.0-17.0-1.5,18833,List1A,white,man,,,,null,,,,
null,is touching,,html-keyboard-response,431,1449658,0.0-17.0-2.5,18833,List1A,white,man,,,,null,,,,
9980,,,survey-text,432,1459648,0.0-17.0-3.5,18833,List1A,white,man,,,,,"{""Q0"":""Dave and jane""}","<img src=""stim_listA/touch3.gif""style=""height:400px;""></stim_listA>",is touching,
null,"<div style=""font-size:60px;"">+</div>",,html-keyboard-response,433,1460157,0.0-17.0-0.6,18833,List1A,white,man,,,,null,,,,
null,"<img src=""stim_listA/kiss5.gif""style=""height:400px;""></stim_listA>",,html-keyboard-response,434,1462166,0.0-17.0-1.6,18833,List1A,white,man,,,,null,,,,
null,is kissing,,html-keyboard-response,435,1464185,0.0-17.0-2.6,18833,List1A,white,man,,,,null,,,,
8749,,,survey-text,436,1472943,0.0-17.0-3.6,18833,List1A,white,man,,,,,"{""Q0"":""Dave and fred""}","<img src=""stim_listA/kiss5.gif""style=""height:400px;""></stim_listA>",is kissing,
null,"<div style=""font-size:60px;"">+</div>",,html-keyboard-response,437,1473451,0.0-17.0-0.7,18833,List1A,white,man,,,,null,,,,
null,"<img src=""stim_listA/flirt7.gif""style=""height:400px;""></stim_listA>",,html-keyboard-response,438,1475463,0.0-17.0-1.7,18833,List1A,white,man,,,,null,,,,
null,is flirting with,,html-keyboard-response,439,1477471,0.0-17.0-2.7,18833,List1A,white,man,,,,null,,,,
10904,,,survey-text,440,1488384,0.0-17.0-3.7,18833,List1A,white,man,,,,,"{""Q0"":""Beth and jane""}","<img src=""stim_listA/flirt7.gif""style=""height:400px;""></stim_listA>",is flirting with,
null,"<div style=""font-size:60px;"">+</div>",,html-keyboard-response,441,1488894,0.0-17.0-0.8,18833,List1A,white,man,,,,null,,,,
null,"<img src=""stim_listA/fight2.gif""style=""height:400px;""></stim_listA>",,html-keyboard-response,442,1490906,0.0-17.0-1.8,18833,List1A,white,man,,,,null,,,,
null,are fighting each other,,html-keyboard-response,443,1492916,0.0-17.0-2.8,18833,List1A,white,man,,,,null,,,,
6213,,,survey-text,444,1499139,0.0-17.0-3.8,18833,List1A,white,man,,,,,"{""Q0"":""Beth and fred""}","<img src=""stim_listA/fight2.gif""style=""height:400px;""></stim_listA>",are fighting each other,
null,"<div style=""font-size:60px;"">+</div>",,html-keyboard-response,445,1499646,0.0-17.0-0.9,18833,List1A,white,man,,,,null,,,,
null,"<img src=""stim_listA/kiss6.gif""style=""height:400px;""></stim_listA>",,html-keyboard-response,446,1501668,0.0-17.0-1.9,18833,List1A,white,man,,,,null,,,,
null,are kissing each other,,html-keyboard-response,447,1503678,0.0-17.0-2.9,18833,List1A,white,man,,,,null,,,,
7656,,,survey-text,448,1511344,0.0-17.0-3.9,18833,List1A,white,man,,,,,"{""Q0"":""Dave and mike""}","<img src=""stim_listA/kiss6.gif""style=""height:400px;""></stim_listA>",are kissing each other,
null,"<div style=""font-size:60px;"">+</div>",,html-keyboard-response,449,1511852,0.0-17.0-0.10,18833,List1A,white,man,,,,null,,,,
null,"<img src=""stim_listA/fight8.gif""style=""height:400px;""></stim_listA>",,html-keyboard-response,450,1513864,0.0-17.0-1.10,18833,List1A,white,man,,,,null,,,,
null,are fighting each other,,html-keyboard-response,451,1515871,0.0-17.0-2.10,18833,List1A,white,man,,,,null,,,,
6350,,,survey-text,452,1522230,0.0-17.0-3.10,18833,List1A,white,man,,,,,"{""Q0"":""Beth and ruth""}","<img src=""stim_listA/fight8.gif""style=""height:400px;""></stim_listA>",are fighting each other,
null,"<div style=""font-size:60px;"">+</div>",,html-keyboard-response,453,1522738,0.0-17.0-0.11,18833,List1A,white,man,,,,null,,,,
null,"<img src=""stim_listA/kiss1.gif""style=""height:400px;""></stim_listA>",,html-keyboard-response,454,1524752,0.0-17.0-1.11,18833,List1A,white,man,,,,null,,,,
null,is kissing,,html-keyboard-response,455,1526769,0.0-17.0-2.11,18833,List1A,white,man,,,,null,,,,
7511,,,survey-text,456,1534289,0.0-17.0-3.11,18833,List1A,white,man,,,,,"{""Q0"":""Fred and betg""}","<img src=""stim_listA/kiss1.gif""style=""height:400px;""></stim_listA>",is kissing,
null,"<div style=""font-size:60px;"">+</div>",,html-keyboard-response,457,1534798,0.0-17.0-0.12,18833,List1A,white,man,,,,null,,,,
null,"<img src=""stim_listA/argue2.gif""style=""height:400px;""></stim_listA>",,html-keyboard-response,458,1536809,0.0-17.0-1.12,18833,List1A,white,man,,,,null,,,,
null,are arguing with each other,,html-keyboard-response,459,1538818,0.0-17.0-2.12,18833,List1A,white,man,,,,null,,,,
6388,,,survey-text,460,1545213,0.0-17.0-3.12,18833,List1A,white,man,,,,,"{""Q0"":""Kate and fred""}","<img src=""stim_listA/argue2.gif""style=""height:400px;""></stim_listA>",are arguing with each other,
null,"<div style=""font-size:60px;"">+</div>",,html-keyboard-response,461,1545717,0.0-17.0-0.13,18833,List1A,white,man,,,,null,,,,
null,"<img src=""stim_listA/shout6.gif""style=""height:400px;""></stim_listA>",,html-keyboard-response,462,1547724,0.0-17.0-1.13,18833,List1A,white,man,,,,null,,,,
null,are shouting at each other,,html-keyboard-response,463,1549732,0.0-17.0-2.13,18833,List1A,white,man,,,,null,,,,
6646,,,survey-text,464,1556388,0.0-17.0-3.13,18833,List1A,white,man,,,,,"{""Q0"":""Dave and fred""}","<img src=""stim_listA/shout6.gif""style=""height:400px;""></stim_listA>",are shouting at each other,
null,"<div style=""font-size:60px;"">+</div>",,html-keyboard-response,465,1556895,0.0-17.0-0.14,18833,List1A,white,man,,,,null,,,,
null,"<img src=""stim_listA/talk7.gif""style=""height:400px;""></stim_listA>",,html-keyboard-response,466,1558906,0.0-17.0-1.14,18833,List1A,white,man,,,,null,,,,
null,is talking to,,html-keyboard-response,467,1560914,0.0-17.0-2.14,18833,List1A,white,man,,,,null,,,,
7562,,,survey-text,468,1568488,0.0-17.0-3.14,18833,List1A,white,man,,,,,"{""Q0"":""Beth and jane""}","<img src=""stim_listA/talk7.gif""style=""height:400px;""></stim_listA>",is talking to,
null,"<div style=""font-size:60px;"">+</div>",,html-keyboard-response,469,1568996,0.0-17.0-0.15,18833,List1A,white,man,,,,null,,,,
null,"<img src=""stim_listA/talk4.gif""style=""height:400px;""></stim_listA>",,html-keyboard-response,470,1571007,0.0-17.0-1.15,18833,List1A,white,man,,,,null,,,,
null,are talking to each other,,html-keyboard-response,471,1573012,0.0-17.0-2.15,18833,List1A,white,man,,,,null,,,,
7918,,,survey-text,472,1580939,0.0-17.0-3.15,18833,List1A,white,man,,,,,"{""Q0"":""Dave and jane""}","<img src=""stim_listA/talk4.gif""style=""height:400px;""></stim_listA>",are talking to each other,
null,"<div style=""font-size:60px;"">+</div>",,html-keyboard-response,473,1581447,0.0-17.0-0.16,18833,List1A,white,man,,,,null,,,,
null,"<img src=""stim_listA/dance3.gif""style=""height:400px;""></stim_listA>",,html-keyboard-response,474,1583461,0.0-17.0-1.16,18833,List1A,white,man,,,,null,,,,
null,is dancing with,,html-keyboard-response,475,1585469,0.0-17.0-2.16,18833,List1A,white,man,,,,null,,,,
7414,,,survey-text,476,1592893,0.0-17.0-3.16,18833,List1A,white,man,,,,,"{""Q0"":""Luke and jane""}","<img src=""stim_listA/dance3.gif""style=""height:400px;""></stim_listA>",is dancing with,
null,"<div style=""font-size:60px;"">+</div>",,html-keyboard-response,477,1593402,0.0-17.0-0.17,18833,List1A,white,man,,,,null,,,,
null,"<img src=""stim_listA/fight6.gif""style=""height:400px;""></stim_listA>",,html-keyboard-response,478,1595413,0.0-17.0-1.17,18833,List1A,white,man,,,,null,,,,
null,are fighting each other,,html-keyboard-response,479,1597422,0.0-17.0-2.17,18833,List1A,white,man,,,,null,,,,
6502,,,survey-text,480,1603934,0.0-17.0-3.17,18833,List1A,white,man,,,,,"{""Q0"":""Fred and luke""}","<img src=""stim_listA/fight6.gif""style=""height:400px;""></stim_listA>",are fighting each other,
null,"<div style=""font-size:60px;"">+</div>",,html-keyboard-response,481,1604443,0.0-17.0-0.18,18833,List1A,white,man,,,,null,,,,
null,"<img src=""stim_listA/fight7.gif""style=""height:400px;""></stim_listA>",,html-keyboard-response,482,1606457,0.0-17.0-1.18,18833,List1A,white,man,,,,null,,,,
null,is fighting,,html-keyboard-response,483,1608466,0.0-17.0-2.18,18833,List1A,white,man,,,,null,,,,
6845,,,survey-text,484,1615322,0.0-17.0-3.18,18833,List1A,white,man,,,,,"{""Q0"":""Kate and jane""}","<img src=""stim_listA/fight7.gif""style=""height:400px;""></stim_listA>",is fighting,
null,"<div style=""font-size:60px;"">+</div>",,html-keyboard-response,485,1615828,0.0-17.0-0.19,18833,List1A,white,man,,,,null,,,,
null,"<img src=""stim_listA/flirt2.gif""style=""height:400px;""></stim_listA>",,html-keyboard-response,486,1617841,0.0-17.0-1.19,18833,List1A,white,man,,,,null,,,,
null,are flirting with each other,,html-keyboard-response,487,1619849,0.0-17.0-2.19,18833,List1A,white,man,,,,null,,,,
13853,,,survey-text,488,1633712,0.0-17.0-3.19,18833,List1A,white,man,,,,,"{""Q0"":""Beth and mike""}","<img src=""stim_listA/flirt2.gif""style=""height:400px;""></stim_listA>",are flirting with each other,
1897,"<img src='img/portrait_matrix_list1.jpg' style='width:900px;height:500px;''></img><p>If you have memorised all the portraits and names and are ready to start, press Continue.</p><p><strong>Please note: Your memory of these faces will be tested 4 times during this experiment.</strong></p>",0,html-button-response,489,1635620,0.0-18.0-0.0,18833,List1A,white,man,,,,,,,,
4339,"<img src=""portrait/WM1.jpg""style=""height:400px;""></img>",6,html-button-response,490,1640976,0.0-18.0-1.0,18833,List1A,white,man,,TRUE,6,,,,,
null,CORRECT,,html-keyboard-response,491,1642485,0.0-18.0-2.0-0.0,18833,List1A,white,man,,,,null,,,,
1936,"<img src=""portrait/WM2.jpg""style=""height:400px;""></img>",7,html-button-response,492,1644436,0.0-18.0-4.0,18833,List1A,white,man,,TRUE,7,,,,,
null,CORRECT,,html-keyboard-response,493,1645945,0.0-18.0-5.0-0.0,18833,List1A,white,man,,,,null,,,,
3461,"<img src=""portrait/BM1.jpg""style=""height:400px;""></img>",4,html-button-response,494,1649426,0.0-18.0-7.0,18833,List1A,white,man,,TRUE,4,,,,,
null,CORRECT,,html-keyboard-response,495,1650937,0.0-18.0-8.0-0.0,18833,List1A,white,man,,,,null,,,,
4298,"<img src=""portrait/BW1.jpg""style=""height:400px;""></img>",0,html-button-response,496,1655250,0.0-18.0-10.0,18833,List1A,white,man,,TRUE,0,,,,,
null,CORRECT,,html-keyboard-response,497,1656763,0.0-18.0-11.0-0.0,18833,List1A,white,man,,,,null,,,,
1546,"<img src=""portrait/WW1.jpg""style=""height:400px;""></img>",1,html-button-response,498,1658324,0.0-18.0-13.0,18833,List1A,white,man,,TRUE,1,,,,,
null,CORRECT,,html-keyboard-response,499,1659832,0.0-18.0-14.0-0.0,18833,List1A,white,man,,,,null,,,,
3454,"<img src=""portrait/WW2.jpg""style=""height:400px;""></img>",3,html-button-response,500,1663302,0.0-18.0-16.0,18833,List1A,white,man,,TRUE,3,,,,,
null,CORRECT,,html-keyboard-response,501,1664811,0.0-18.0-17.0-0.0,18833,List1A,white,man,,,,null,,,,
3637,"<img src=""portrait/BM2.jpg""style=""height:400px;""></img>",5,html-button-response,502,1668464,0.0-18.0-19.0,18833,List1A,white,man,,TRUE,5,,,,,
null,CORRECT,,html-keyboard-response,503,1669973,0.0-18.0-20.0-0.0,18833,List1A,white,man,,,,null,,,,
4490,"<img src=""portrait/BW2.jpg""style=""height:400px;""></img>",2,html-button-response,504,1674478,0.0-18.0-22.0,18833,List1A,white,man,,TRUE,2,,,,,
null,CORRECT,,html-keyboard-response,505,1675984,0.0-18.0-23.0-0.0,18833,List1A,white,man,,,,null,,,,
1571,<p>You got 8 out of 8 right first time. Press Continue.</p>,0,html-button-response,506,1677568,0.0-18.0-25.0,18833,List1A,white,man,,,,,,,,
null,"<div style=""font-size:60px;"">+</div>",,html-keyboard-response,507,1679082,0.0-19.0-0.0,18833,List1A,white,man,,,,null,,,,
null,"<img src=""stim_listA/fight3.gif""style=""height:400px;""></stim_listA>",,html-keyboard-response,508,1681093,0.0-19.0-1.0,18833,List1A,white,man,,,,null,,,,
null,is fighting,,html-keyboard-response,509,1683102,0.0-19.0-2.0,18833,List1A,white,man,,,,null,,,,
7272,,,survey-text,510,1690385,0.0-19.0-3.0,18833,List1A,white,man,,,,,"{""Q0"":""Dave and ruth""}","<img src=""stim_listA/fight3.gif""style=""height:400px;""></stim_listA>",is fighting,
null,"<div style=""font-size:60px;"">+</div>",,html-keyboard-response,511,1690893,0.0-19.0-0.1,18833,List1A,white,man,,,,null,,,,
null,"<img src=""stim_listA/argue1.gif""style=""height:400px;""></stim_listA>",,html-keyboard-response,512,1692909,0.0-19.0-1.1,18833,List1A,white,man,,,,null,,,,
null,is arguing with,,html-keyboard-response,513,1694915,0.0-19.0-2.1,18833,List1A,white,man,,,,null,,,,
8193,,,survey-text,514,1703115,0.0-19.0-3.1,18833,List1A,white,man,,,,,"{""Q0"":""Mike and beth""}","<img src=""stim_listA/argue1.gif""style=""height:400px;""></stim_listA>",is arguing with,
null,"<div style=""font-size:60px;"">+</div>",,html-keyboard-response,515,1703624,0.0-19.0-0.2,18833,List1A,white,man,,,,null,,,,
null,"<img src=""stim_listA/argue4.gif""style=""height:400px;""></stim_listA>",,html-keyboard-response,516,1705635,0.0-19.0-1.2,18833,List1A,white,man,,,,null,,,,
null,are arguing with each other,,html-keyboard-response,517,1707641,0.0-19.0-2.2,18833,List1A,white,man,,,,null,,,,
7182,,,survey-text,518,1714830,0.0-19.0-3.2,18833,List1A,white,man,,,,,"{""Q0"":""Luke and jane""}","<img src=""stim_listA/argue4.gif""style=""height:400px;""></stim_listA>",are arguing with each other,
null,"<div style=""font-size:60px;"">+</div>",,html-keyboard-response,519,1715338,0.0-19.0-0.3,18833,List1A,white,man,,,,null,,,,
null,"<img src=""stim_listA/marry8.gif""style=""height:400px;""></stim_listA>",,html-keyboard-response,520,1717350,0.0-19.0-1.3,18833,List1A,white,man,,,,null,,,,
null,are marrying each other,,html-keyboard-response,521,1719358,0.0-19.0-2.3,18833,List1A,white,man,,,,null,,,,
7170,,,survey-text,522,1726539,0.0-19.0-3.3,18833,List1A,white,man,,,,,"{""Q0"":""Beth and jane""}","<img src=""stim_listA/marry8.gif""style=""height:400px;""></stim_listA>",are marrying each other,
null,"<div style=""font-size:60px;"">+</div>",,html-keyboard-response,523,1727046,0.0-19.0-0.4,18833,List1A,white,man,,,,null,,,,
null,"<img src=""stim_listA/play6.gif""style=""height:400px;""></stim_listA>",,html-keyboard-response,524,1729058,0.0-19.0-1.4,18833,List1A,white,man,,,,null,,,,
null,are playing with each other,,html-keyboard-response,525,1731066,0.0-19.0-2.4,18833,List1A,white,man,,,,null,,,,
8679,,,survey-text,526,1739756,0.0-19.0-3.4,18833,List1A,white,man,,,,,"{""Q0"":""Luke and jane""}","<img src=""stim_listA/play6.gif""style=""height:400px;""></stim_listA>",are playing with each other,
null,"<div style=""font-size:60px;"">+</div>",,html-keyboard-response,527,1740263,0.0-19.0-0.5,18833,List1A,white,man,,,,null,,,,
null,"<img src=""stim_listA/kiss8.gif""style=""height:400px;""></stim_listA>",,html-keyboard-response,528,1742272,0.0-19.0-1.5,18833,List1A,white,man,,,,null,,,,
null,are kissing each other,,html-keyboard-response,529,1744279,0.0-19.0-2.5,18833,List1A,white,man,,,,null,,,,
7162,,,survey-text,530,1751452,0.0-19.0-3.5,18833,List1A,white,man,,,,,"{""Q0"":""Kate and jane""}","<img src=""stim_listA/kiss8.gif""style=""height:400px;""></stim_listA>",are kissing each other,
null,"<div style=""font-size:60px;"">+</div>",,html-keyboard-response,531,1751962,0.0-19.0-0.6,18833,List1A,white,man,,,,null,,,,
null,"<img src=""stim_listA/marry5.gif""style=""height:400px;""></stim_listA>",,html-keyboard-response,532,1753973,0.0-19.0-1.6,18833,List1A,white,man,,,,null,,,,
null,is marrying,,html-keyboard-response,533,1755981,0.0-19.0-2.6,18833,List1A,white,man,,,,null,,,,
6840,,,survey-text,534,1762829,0.0-19.0-3.6,18833,List1A,white,man,,,,,"{""Q0"":""Mike and luke""}","<img src=""stim_listA/marry5.gif""style=""height:400px;""></stim_listA>",is marrying,
null,"<div style=""font-size:60px;"">+</div>",,html-keyboard-response,535,1763343,0.0-19.0-0.7,18833,List1A,white,man,,,,null,,,,
null,"<img src=""stim_listA/shout2.gif""style=""height:400px;""></stim_listA>",,html-keyboard-response,536,1765356,0.0-19.0-1.7,18833,List1A,white,man,,,,null,,,,
null,are shouting at each other,,html-keyboard-response,537,1767363,0.0-19.0-2.7,18833,List1A,white,man,,,,null,,,,
7639,,,survey-text,538,1775015,0.0-19.0-3.7,18833,List1A,white,man,,,,,"{""Q0"":""Mike and kate""}","<img src=""stim_listA/shout2.gif""style=""height:400px;""></stim_listA>",are shouting at each other,
null,"<div style=""font-size:60px;"">+</div>",,html-keyboard-response,539,1775522,0.0-19.0-0.8,18833,List1A,white,man,,,,null,,,,
null,"<img src=""stim_listA/dance8.gif""style=""height:400px;""></stim_listA>",,html-keyboard-response,540,1777532,0.0-19.0-1.8,18833,List1A,white,man,,,,null,,,,
null,are dancing with each other,,html-keyboard-response,541,1779542,0.0-19.0-2.8,18833,List1A,white,man,,,,null,,,,
7263,,,survey-text,542,1786813,0.0-19.0-3.8,18833,List1A,white,man,,,,,"{""Q0"":""Ruth and kate""}","<img src=""stim_listA/dance8.gif""style=""height:400px;""></stim_listA>",are dancing with each other,
null,"<div style=""font-size:60px;"">+</div>",,html-keyboard-response,543,1787320,0.0-19.0-0.9,18833,List1A,white,man,,,,null,,,,
null,"<img src=""stim_listA/flirt1.gif""style=""height:400px;""></stim_listA>",,html-keyboard-response,544,1789332,0.0-19.0-1.9,18833,List1A,white,man,,,,null,,,,
null,is flirting with,,html-keyboard-response,545,1791339,0.0-19.0-2.9,18833,List1A,white,man,,,,null,,,,
6697,,,survey-text,546,1798046,0.0-19.0-3.9,18833,List1A,white,man,,,,,"{""Q0"":""Fred and kate""}","<img src=""stim_listA/flirt1.gif""style=""height:400px;""></stim_listA>",is flirting with,
null,"<div style=""font-size:60px;"">+</div>",,html-keyboard-response,547,1798553,0.0-19.0-0.10,18833,List1A,white,man,,,,null,,,,
null,"<img src=""stim_listA/dance6.gif""style=""height:400px;""></stim_listA>",,html-keyboard-response,548,1800566,0.0-19.0-1.10,18833,List1A,white,man,,,,null,,,,
null,are dancing with each other,,html-keyboard-response,549,1802574,0.0-19.0-2.10,18833,List1A,white,man,,,,null,,,,
6778,,,survey-text,550,1809360,0.0-19.0-3.10,18833,List1A,white,man,,,,,"{""Q0"":""Mike and luke""}","<img src=""stim_listA/dance6.gif""style=""height:400px;""></stim_listA>",are dancing with each other,
null,"<div style=""font-size:60px;"">+</div>",,html-keyboard-response,551,1809868,0.0-19.0-0.11,18833,List1A,white,man,,,,null,,,,
null,"<img src=""stim_listA/flirt6.gif""style=""height:400px;""></stim_listA>",,html-keyboard-response,552,1811882,0.0-19.0-1.11,18833,List1A,white,man,,,,null,,,,
null,are flirting with each other,,html-keyboard-response,553,1813890,0.0-19.0-2.11,18833,List1A,white,man,,,,null,,,,
9587,,,survey-text,554,1823487,0.0-19.0-3.11,18833,List1A,white,man,,,,,"{""Q0"":""Mike and luke""}","<img src=""stim_listA/flirt6.gif""style=""height:400px;""></stim_listA>",are flirting with each other,
null,"<div style=""font-size:60px;"">+</div>",,html-keyboard-response,555,1823995,0.0-19.0-0.12,18833,List1A,white,man,,,,null,,,,
null,"<img src=""stim_listA/touch5.gif""style=""height:400px;""></stim_listA>",,html-keyboard-response,556,1826008,0.0-19.0-1.12,18833,List1A,white,man,,,,null,,,,
null,is touching,,html-keyboard-response,557,1828016,0.0-19.0-2.12,18833,List1A,white,man,,,,null,,,,
6916,,,survey-text,558,1834942,0.0-19.0-3.12,18833,List1A,white,man,,,,,"{""Q0"":""Dave and mike""}","<img src=""stim_listA/touch5.gif""style=""height:400px;""></stim_listA>",is touching,
null,"<div style=""font-size:60px;"">+</div>",,html-keyboard-response,559,1835451,0.0-19.0-0.13,18833,List1A,white,man,,,,null,,,,
null,"<img src=""stim_listA/touch6.gif""style=""height:400px;""></stim_listA>",,html-keyboard-response,560,1837463,0.0-19.0-1.13,18833,List1A,white,man,,,,null,,,,
null,are touching each other,,html-keyboard-response,561,1839470,0.0-19.0-2.13,18833,List1A,white,man,,,,null,,,,
3916,,,survey-text,562,1843394,0.0-19.0-3.13,18833,List1A,white,man,,,,,"{""Q0"":""Pass""}","<img src=""stim_listA/touch6.gif""style=""height:400px;""></stim_listA>",are touching each other,
null,"<div style=""font-size:60px;"">+</div>",,html-keyboard-response,563,1843903,0.0-19.0-0.14,18833,List1A,white,man,,,,null,,,,
null,"<img src=""stim_listA/argue5.gif""style=""height:400px;""></stim_listA>",,html-keyboard-response,564,1845913,0.0-19.0-1.14,18833,List1A,white,man,,,,null,,,,
null,is arguing with,,html-keyboard-response,565,1847920,0.0-19.0-2.14,18833,List1A,white,man,,,,null,,,,
7077,,,survey-text,566,1855007,0.0-19.0-3.14,18833,List1A,white,man,,,,,"{""Q0"":""Mike and luke""}","<img src=""stim_listA/argue5.gif""style=""height:400px;""></stim_listA>",is arguing with,
null,"<div style=""font-size:60px;"">+</div>",,html-keyboard-response,567,1855514,0.0-19.0-0.15,18833,List1A,white,man,,,,null,,,,
null,"<img src=""stim_listA/play4.gif""style=""height:400px;""></stim_listA>",,html-keyboard-response,568,1857524,0.0-19.0-1.15,18833,List1A,white,man,,,,null,,,,
null,are playing with each other,,html-keyboard-response,569,1859531,0.0-19.0-2.15,18833,List1A,white,man,,,,null,,,,
8365,,,survey-text,570,1867905,0.0-19.0-3.15,18833,List1A,white,man,,,,,"{""Q0"":""Luke and jane""}","<img src=""stim_listA/play4.gif""style=""height:400px;""></stim_listA>",are playing with each other,
null,"<div style=""font-size:60px;"">+</div>",,html-keyboard-response,571,1868413,0.0-19.0-0.16,18833,List1A,white,man,,,,null,,,,
null,"<img src=""stim_listA/shout4.gif""style=""height:400px;""></stim_listA>",,html-keyboard-response,572,1870426,0.0-19.0-1.16,18833,List1A,white,man,,,,null,,,,
null,are shouting at each other,,html-keyboard-response,573,1872434,0.0-19.0-2.16,18833,List1A,white,man,,,,null,,,,
6792,,,survey-text,574,1879236,0.0-19.0-3.16,18833,List1A,white,man,,,,,"{""Q0"":""Dave and beth""}","<img src=""stim_listA/shout4.gif""style=""height:400px;""></stim_listA>",are shouting at each other,
null,"<div style=""font-size:60px;"">+</div>",,html-keyboard-response,575,1879746,0.0-19.0-0.17,18833,List1A,white,man,,,,null,,,,
null,"<img src=""stim_listA/touch8.gif""style=""height:400px;""></stim_listA>",,html-keyboard-response,576,1881756,0.0-19.0-1.17,18833,List1A,white,man,,,,null,,,,
null,are touching each other,,html-keyboard-response,577,1883767,0.0-19.0-2.17,18833,List1A,white,man,,,,null,,,,
6277,,,survey-text,578,1890054,0.0-19.0-3.17,18833,List1A,white,man,,,,,"{""Q0"":""Beth and ruth""}","<img src=""stim_listA/touch8.gif""style=""height:400px;""></stim_listA>",are touching each other,
null,"<div style=""font-size:60px;"">+</div>",,html-keyboard-response,579,1890562,0.0-19.0-0.18,18833,List1A,white,man,,,,null,,,,
null,"<img src=""stim_listA/kiss2.gif""style=""height:400px;""></stim_listA>",,html-keyboard-response,580,1892573,0.0-19.0-1.18,18833,List1A,white,man,,,,null,,,,
null,are kissing each other,,html-keyboard-response,581,1894581,0.0-19.0-2.18,18833,List1A,white,man,,,,null,,,,
6512,,,survey-text,582,1901106,0.0-19.0-3.18,18833,List1A,white,man,,,,,"{""Q0"":""Kate and mike""}","<img src=""stim_listA/kiss2.gif""style=""height:400px;""></stim_listA>",are kissing each other,
null,"<div style=""font-size:60px;"">+</div>",,html-keyboard-response,583,1901615,0.0-19.0-0.19,18833,List1A,white,man,,,,null,,,,
null,"<img src=""stim_listA/kiss4.gif""style=""height:400px;""></stim_listA>",,html-keyboard-response,584,1903628,0.0-19.0-1.19,18833,List1A,white,man,,,,null,,,,
null,are kissing each other,,html-keyboard-response,585,1905636,0.0-19.0-2.19,18833,List1A,white,man,,,,null,,,,
6380,,,survey-text,586,1912028,0.0-19.0-3.19,18833,List1A,white,man,,,,,"{""Q0"":""Dave and ruth""}","<img src=""stim_listA/kiss4.gif""style=""height:400px;""></stim_listA>",are kissing each other,
2598,<p>Thank you for completing that task.</p><p>The final part of this session is a short questionnaire.</p><p>Press Continue.</p>,0,html-button-response,587,1914636,0.0-20.0,18833,List1A,white,man,,,,,,,,
32833,,,survey-text,588,1948486,0.0-21.0,18833,List1A,white,man,,,,,"{""Q0"":""61"",""Q1"":""English"",""Q2"":""English"",""Q3"":""Uk"",""Q4"":""British white"",""Q5"":""Male""}",,,demographics
6038,,,survey-likert,589,1954554,0.0-22.0,18833,List1A,white,man,,,,,"{""Q0"":3}",,,likert_ESS
4369,,,survey-likert,590,1958950,0.0-23.0,18833,List1A,white,man,,,,,"{""Q0"":2}",,,likert_NSSAL_Q1
3850,,,survey-likert,591,1962819,0.0-24.0,18833,List1A,white,man,,,,,"{""Q0"":2}",,,likert_NSSAL_Q2
4471,,,survey-likert,592,1967309,0.0-25.0,18833,List1A,white,man,,,,,"{""Q0"":4}",,,likert_CGRS_Q1
3091,,,survey-likert,593,1970414,0.0-26.0,18833,List1A,white,man,,,,,"{""Q0"":4}",,,likert_CGRS_Q2
2848,,,survey-likert,594,1973274,0.0-27.0,18833,List1A,white,man,,,,,"{""Q0"":4}",,,likert_CGRS_Q3
4180,,,survey-text,595,1977469,0.0-28.0,18833,List1A,white,man,,,,,"{""Q0"":""ccc""}",,,worker_id
3414,,,external-html,596,1980975,0.0-29.0,18833,List1A,white,man,debrief.html,,,,,,,
