rt,stimulus,button_pressed,trial_type,trial_index,time_elapsed,internal_node_id,subject,list,ppt_race,ppt_gender,url,first_guess,correct,key_press,responses,image_type,phrase_type,test_part
2808,Welcome to the experiment. Press Continue to begin.,0,html-button-response,0,2812,0.0-0.0,19435,List2B,white,woman,,,,,,,,
12095,,,external-html,1,15944,0.0-1.0,19435,List2B,white,woman,consent.html,,,,,,,
18270,"<p>On the next page, you will see portraits of 8 people and their names.</p><p>Your first task is to take a few minutes to memorise the names of these people.</p><p>You will have to recall their names during the rest of the experiment, so it is</p><p>essential that you try to memorise these people and their names as best as you can.</p><br><p><strong>You will then be tested on your memory of these names and portraits.</strong></p><br><p>The experiment will start after you have completed this memory test.</p><br><p>Ready?</p>",0,html-button-response,2,34217,0.0-2.0,19435,List2B,white,woman,,,,,,,,
129527,"<img src='img/portrait_matrix_list2.jpg' style='width:900px;height:500px;''></img><p>If you have memorised all the portraits and names and are ready to start, press Continue.</p><p><strong>Please note: Your memory of these faces will be tested 4 times during this experiment.</strong></p>",0,html-button-response,3,164749,0.0-3.0-0.0,19435,List2B,white,woman,,,,,,,,
2415,"<img src=""portrait/WM2.jpg""style=""height:400px;""></img>",7,html-button-response,4,168167,0.0-3.0-1.0,19435,List2B,white,woman,,TRUE,7,,,,,
null,CORRECT,,html-keyboard-response,5,169676,0.0-3.0-2.0-0.0,19435,List2B,white,woman,,,,null,,,,
2148,"<img src=""portrait/BW2.jpg""style=""height:400px;""></img>",2,html-button-response,6,171829,0.0-3.0-4.0,19435,List2B,white,woman,,TRUE,2,,,,,
null,CORRECT,,html-keyboard-response,7,173331,0.0-3.0-5.0-0.0,19435,List2B,white,woman,,,,null,,,,
2917,"<img src=""portrait/BW1.jpg""style=""height:400px;""></img>",0,html-button-response,8,176251,0.0-3.0-7.0,19435,List2B,white,woman,,TRUE,0,,,,,
null,CORRECT,,html-keyboard-response,9,177754,0.0-3.0-8.0-0.0,19435,List2B,white,woman,,,,null,,,,
1779,"<img src=""portrait/WW2.jpg""style=""height:400px;""></img>",3,html-button-response,10,179536,0.0-3.0-10.0,19435,List2B,white,woman,,TRUE,3,,,,,
null,CORRECT,,html-keyboard-response,11,181040,0.0-3.0-11.0-0.0,19435,List2B,white,woman,,,,null,,,,
2269,"<img src=""portrait/WW1.jpg""style=""height:400px;""></img>",1,html-button-response,12,183312,0.0-3.0-13.0,19435,List2B,white,woman,,TRUE,1,,,,,
null,CORRECT,,html-keyboard-response,13,184815,0.0-3.0-14.0-0.0,19435,List2B,white,woman,,,,null,,,,
2775,"<img src=""portrait/BM1.jpg""style=""height:400px;""></img>",4,html-button-response,14,187592,0.0-3.0-16.0,19435,List2B,white,woman,,TRUE,4,,,,,
null,CORRECT,,html-keyboard-response,15,189095,0.0-3.0-17.0-0.0,19435,List2B,white,woman,,,,null,,,,
2059,"<img src=""portrait/BM2.jpg""style=""height:400px;""></img>",5,html-button-response,16,191156,0.0-3.0-19.0,19435,List2B,white,woman,,TRUE,5,,,,,
null,CORRECT,,html-keyboard-response,17,192659,0.0-3.0-20.0-0.0,19435,List2B,white,woman,,,,null,,,,
2742,"<img src=""portrait/WM1.jpg""style=""height:400px;""></img>",6,html-button-response,18,195404,0.0-3.0-22.0,19435,List2B,white,woman,,TRUE,6,,,,,
null,CORRECT,,html-keyboard-response,19,196907,0.0-3.0-23.0-0.0,19435,List2B,white,woman,,,,null,,,,
1456,<p>You got 8 out of 8 right first time. Press Continue.</p>,0,html-button-response,20,198366,0.0-3.0-25.0,19435,List2B,white,woman,,,,,,,,
37751,"<p>In this experiment, you will view photographs of the people from the memory game interacting.</p><p>By using the <strong>exact</strong> phrase given <i>after</i> the photograph appears and recalling the correct names of the people in the photographs, form a sentence describing the interaction. You do not need to capitalise names.</p><p>Type your answer in the space provided. Please complete every sentence before moving onto the next trial.</p><p>You will only have a few seconds to memorise each given photograph and phrase before you can respond, so try your best to focus.</p><p>An example is given below. Press 'Continue' when you are ready.</p><img src='img/speaking_example.jpg' style='width:800px;height:460px;''></img>",0,html-button-response,21,237123,0.0-4.0,19435,List2B,white,woman,,,,,,,,
2057,"<p>Before the experiment starts, you will watch two example trials. Press 'Continue'.</p>",0,html-button-response,22,240183,0.0-5.0,19435,List2B,white,woman,,,,,,,,
null,<img src='img/meet_eg.gif' style='height:400px;''></img>,,html-keyboard-response,23,243188,0.0-6.0,19435,List2B,white,woman,,,,null,,,,
null,<p>is meeting</p>,,html-keyboard-response,24,245190,0.0-7.0,19435,List2B,white,woman,,,,null,,,,
1851,<p><b>Answer:</b> jane is meeting ruth</p>,0,html-button-response,25,247043,0.0-8.0,19435,List2B,white,woman,,,,,,,,
null,<img src='img/look_eg.gif' style='height:400px;''></img>,,html-keyboard-response,26,250046,0.0-9.0,19435,List2B,white,woman,,,,null,,,,
null,<p>are looking at each other</p>,,html-keyboard-response,27,252048,0.0-10.0,19435,List2B,white,woman,,,,null,,,,
3455,<p><b>Answer:</b> fred and mike are looking at each other</p>,0,html-button-response,28,255505,0.0-11.0,19435,List2B,white,woman,,,,,,,,
7269,"<p>Ready to start the experiment?</p><br><p><strong>Remember to describe the picture using a full sentence,</strong></p><p><strong>that combines the names of the people with the <i>exact</i> phrase given.</strong></p><p><strong>To receive full payment you must do this correctly.</strong></p><p><strong> You do not need to capitalise names or use punctuation.</strong></p><br><p>Press 'Continue' to begin.</p>",0,html-button-response,29,263777,0.0-12.0,19435,List2B,white,woman,,,,,,,,
null,"<div style=""font-size:60px;"">+</div>",,html-keyboard-response,30,265279,0.0-13.0-0.0,19435,List2B,white,woman,,,,null,,,,
null,"<img src=""stim_listB/dance3.gif""style=""height:400px;""></stim_listB>",,html-keyboard-response,31,267284,0.0-13.0-1.0,19435,List2B,white,woman,,,,null,,,,
null,is dancing with,,html-keyboard-response,32,269286,0.0-13.0-2.0,19435,List2B,white,woman,,,,null,,,,
9873,,,survey-text,33,279163,0.0-13.0-3.0,19435,List2B,white,woman,,,,,"{""Q0"":""Kate is dancing with Fred""}","<img src=""stim_listB/dance3.gif""style=""height:400px;""></stim_listB>",is dancing with,
null,"<div style=""font-size:60px;"">+</div>",,html-keyboard-response,34,279668,0.0-13.0-0.1,19435,List2B,white,woman,,,,null,,,,
null,"<img src=""stim_listB/play2.gif""style=""height:400px;""></stim_listB>",,html-keyboard-response,35,281670,0.0-13.0-1.1,19435,List2B,white,woman,,,,null,,,,
null,are playing with each other,,html-keyboard-response,36,283672,0.0-13.0-2.1,19435,List2B,white,woman,,,,null,,,,
8611,,,survey-text,37,292285,0.0-13.0-3.1,19435,List2B,white,woman,,,,,"{""Q0"":""Ruth and Luke are playing with each other""}","<img src=""stim_listB/play2.gif""style=""height:400px;""></stim_listB>",are playing with each other,
null,"<div style=""font-size:60px;"">+</div>",,html-keyboard-response,38,292787,0.0-13.0-0.2,19435,List2B,white,woman,,,,null,,,,
null,"<img src=""stim_listB/marry3.gif""style=""height:400px;""></stim_listB>",,html-keyboard-response,39,294789,0.0-13.0-1.2,19435,List2B,white,woman,,,,null,,,,
null,is marrying,,html-keyboard-response,40,296791,0.0-13.0-2.2,19435,List2B,white,woman,,,,null,,,,
5694,,,survey-text,41,302488,0.0-13.0-3.2,19435,List2B,white,woman,,,,,"{""Q0"":""Mike is marrying Beth""}","<img src=""stim_listB/marry3.gif""style=""height:400px;""></stim_listB>",is marrying,
null,"<div style=""font-size:60px;"">+</div>",,html-keyboard-response,42,302991,0.0-13.0-0.3,19435,List2B,white,woman,,,,null,,,,
null,"<img src=""stim_listB/shout3.gif""style=""height:400px;""></stim_listB>",,html-keyboard-response,43,304994,0.0-13.0-1.3,19435,List2B,white,woman,,,,null,,,,
null,is shouting at,,html-keyboard-response,44,306995,0.0-13.0-2.3,19435,List2B,white,woman,,,,null,,,,
7102,,,survey-text,45,314098,0.0-13.0-3.3,19435,List2B,white,woman,,,,,"{""Q0"":""Fred is shouting at Beth""}","<img src=""stim_listB/shout3.gif""style=""height:400px;""></stim_listB>",is shouting at,
null,"<div style=""font-size:60px;"">+</div>",,html-keyboard-response,46,314599,0.0-13.0-0.4,19435,List2B,white,woman,,,,null,,,,
null,"<img src=""stim_listB/marry1.gif""style=""height:400px;""></stim_listB>",,html-keyboard-response,47,316600,0.0-13.0-1.4,19435,List2B,white,woman,,,,null,,,,
null,is marrying,,html-keyboard-response,48,318602,0.0-13.0-2.4,19435,List2B,white,woman,,,,null,,,,
5402,,,survey-text,49,324007,0.0-13.0-3.4,19435,List2B,white,woman,,,,,"{""Q0"":""Dave is marrying Ruth""}","<img src=""stim_listB/marry1.gif""style=""height:400px;""></stim_listB>",is marrying,
null,"<div style=""font-size:60px;"">+</div>",,html-keyboard-response,50,324510,0.0-13.0-0.5,19435,List2B,white,woman,,,,null,,,,
null,"<img src=""stim_listB/dance4.gif""style=""height:400px;""></stim_listB>",,html-keyboard-response,51,326513,0.0-13.0-1.5,19435,List2B,white,woman,,,,null,,,,
null,are dancing with each other,,html-keyboard-response,52,328515,0.0-13.0-2.5,19435,List2B,white,woman,,,,null,,,,
11294,,,survey-text,53,339811,0.0-13.0-3.5,19435,List2B,white,woman,,,,,"{""Q0"":""Beth and Mike are dancing with each other""}","<img src=""stim_listB/dance4.gif""style=""height:400px;""></stim_listB>",are dancing with each other,
null,"<div style=""font-size:60px;"">+</div>",,html-keyboard-response,54,340314,0.0-13.0-0.6,19435,List2B,white,woman,,,,null,,,,
null,"<img src=""stim_listB/play3.gif""style=""height:400px;""></stim_listB>",,html-keyboard-response,55,342317,0.0-13.0-1.6,19435,List2B,white,woman,,,,null,,,,
null,is playing with,,html-keyboard-response,56,344319,0.0-13.0-2.6,19435,List2B,white,woman,,,,null,,,,
5958,,,survey-text,57,350279,0.0-13.0-3.6,19435,List2B,white,woman,,,,,"{""Q0"":""Mike is playing with Kate""}","<img src=""stim_listB/play3.gif""style=""height:400px;""></stim_listB>",is playing with,
null,"<div style=""font-size:60px;"">+</div>",,html-keyboard-response,58,350782,0.0-13.0-0.7,19435,List2B,white,woman,,,,null,,,,
null,"<img src=""stim_listB/shout2.gif""style=""height:400px;""></stim_listB>",,html-keyboard-response,59,352785,0.0-13.0-1.7,19435,List2B,white,woman,,,,null,,,,
null,are shouting at each other,,html-keyboard-response,60,354787,0.0-13.0-2.7,19435,List2B,white,woman,,,,null,,,,
8435,,,survey-text,61,363225,0.0-13.0-3.7,19435,List2B,white,woman,,,,,"{""Q0"":""Jane and Dave are shouting at each other""}","<img src=""stim_listB/shout2.gif""style=""height:400px;""></stim_listB>",are shouting at each other,
null,"<div style=""font-size:60px;"">+</div>",,html-keyboard-response,62,363727,0.0-13.0-0.8,19435,List2B,white,woman,,,,null,,,,
null,"<img src=""stim_listB/touch4.gif""style=""height:400px;""></stim_listB>",,html-keyboard-response,63,365730,0.0-13.0-1.8,19435,List2B,white,woman,,,,null,,,,
null,are touching each other,,html-keyboard-response,64,367732,0.0-13.0-2.8,19435,List2B,white,woman,,,,null,,,,
7073,,,survey-text,65,374808,0.0-13.0-3.8,19435,List2B,white,woman,,,,,"{""Q0"":""Beth and Fred are touching each other""}","<img src=""stim_listB/touch4.gif""style=""height:400px;""></stim_listB>",are touching each other,
null,"<div style=""font-size:60px;"">+</div>",,html-keyboard-response,66,375313,0.0-13.0-0.9,19435,List2B,white,woman,,,,null,,,,
null,"<img src=""stim_listB/kiss1.gif""style=""height:400px;""></stim_listB>",,html-keyboard-response,67,377316,0.0-13.0-1.9,19435,List2B,white,woman,,,,null,,,,
null,is kissing,,html-keyboard-response,68,379318,0.0-13.0-2.9,19435,List2B,white,woman,,,,null,,,,
5316,,,survey-text,69,384636,0.0-13.0-3.9,19435,List2B,white,woman,,,,,"{""Q0"":""Luke is kissing Ruth""}","<img src=""stim_listB/kiss1.gif""style=""height:400px;""></stim_listB>",is kissing,
null,"<div style=""font-size:60px;"">+</div>",,html-keyboard-response,70,385139,0.0-13.0-0.10,19435,List2B,white,woman,,,,null,,,,
null,"<img src=""stim_listB/fight1.gif""style=""height:400px;""></stim_listB>",,html-keyboard-response,71,387142,0.0-13.0-1.10,19435,List2B,white,woman,,,,null,,,,
null,is fighting,,html-keyboard-response,72,389144,0.0-13.0-2.10,19435,List2B,white,woman,,,,null,,,,
5702,,,survey-text,73,394848,0.0-13.0-3.10,19435,List2B,white,woman,,,,,"{""Q0"":""Dave is fighting Jane""}","<img src=""stim_listB/fight1.gif""style=""height:400px;""></stim_listB>",is fighting,
null,"<div style=""font-size:60px;"">+</div>",,html-keyboard-response,74,395350,0.0-13.0-0.11,19435,List2B,white,woman,,,,null,,,,
null,"<img src=""stim_listB/talk6.gif""style=""height:400px;""></stim_listB>",,html-keyboard-response,75,397353,0.0-13.0-1.11,19435,List2B,white,woman,,,,null,,,,
null,are talking to each other,,html-keyboard-response,76,399355,0.0-13.0-2.11,19435,List2B,white,woman,,,,null,,,,
8199,,,survey-text,77,407556,0.0-13.0-3.11,19435,List2B,white,woman,,,,,"{""Q0"":""Fred and Dave are talking to each other""}","<img src=""stim_listB/talk6.gif""style=""height:400px;""></stim_listB>",are talking to each other,
null,"<div style=""font-size:60px;"">+</div>",,html-keyboard-response,78,408058,0.0-13.0-0.12,19435,List2B,white,woman,,,,null,,,,
null,"<img src=""stim_listB/touch5.gif""style=""height:400px;""></stim_listB>",,html-keyboard-response,79,410061,0.0-13.0-1.12,19435,List2B,white,woman,,,,null,,,,
null,is touching,,html-keyboard-response,80,412063,0.0-13.0-2.12,19435,List2B,white,woman,,,,null,,,,
4946,,,survey-text,81,417010,0.0-13.0-3.12,19435,List2B,white,woman,,,,,"{""Q0"":""Dave is touching Mike""}","<img src=""stim_listB/touch5.gif""style=""height:400px;""></stim_listB>",is touching,
null,"<div style=""font-size:60px;"">+</div>",,html-keyboard-response,82,417512,0.0-13.0-0.13,19435,List2B,white,woman,,,,null,,,,
null,"<img src=""stim_listB/kiss7.gif""style=""height:400px;""></stim_listB>",,html-keyboard-response,83,419513,0.0-13.0-1.13,19435,List2B,white,woman,,,,null,,,,
null,is kissing,,html-keyboard-response,84,421515,0.0-13.0-2.13,19435,List2B,white,woman,,,,null,,,,
7635,,,survey-text,85,429152,0.0-13.0-3.13,19435,List2B,white,woman,,,,,"{""Q0"":""Ruth is kissing Beth""}","<img src=""stim_listB/kiss7.gif""style=""height:400px;""></stim_listB>",is kissing,
null,"<div style=""font-size:60px;"">+</div>",,html-keyboard-response,86,429653,0.0-13.0-0.14,19435,List2B,white,woman,,,,null,,,,
null,"<img src=""stim_listB/shout6.gif""style=""height:400px;""></stim_listB>",,html-keyboard-response,87,431656,0.0-13.0-1.14,19435,List2B,white,woman,,,,null,,,,
null,are shouting at each other,,html-keyboard-response,88,433658,0.0-13.0-2.14,19435,List2B,white,woman,,,,null,,,,
8640,,,survey-text,89,442301,0.0-13.0-3.14,19435,List2B,white,woman,,,,,"{""Q0"":""Mike and Dave are shouting at each other""}","<img src=""stim_listB/shout6.gif""style=""height:400px;""></stim_listB>",are shouting at each other,
null,"<div style=""font-size:60px;"">+</div>",,html-keyboard-response,90,442804,0.0-13.0-0.15,19435,List2B,white,woman,,,,null,,,,
null,"<img src=""stim_listB/touch7.gif""style=""height:400px;""></stim_listB>",,html-keyboard-response,91,444807,0.0-13.0-1.15,19435,List2B,white,woman,,,,null,,,,
null,is touching,,html-keyboard-response,92,446808,0.0-13.0-2.15,19435,List2B,white,woman,,,,null,,,,
4755,,,survey-text,93,451565,0.0-13.0-3.15,19435,List2B,white,woman,,,,,"{""Q0"":""Jane is touching Kate""}","<img src=""stim_listB/touch7.gif""style=""height:400px;""></stim_listB>",is touching,
null,"<div style=""font-size:60px;"">+</div>",,html-keyboard-response,94,452067,0.0-13.0-0.16,19435,List2B,white,woman,,,,null,,,,
null,"<img src=""stim_listB/argue1.gif""style=""height:400px;""></stim_listB>",,html-keyboard-response,95,454070,0.0-13.0-1.16,19435,List2B,white,woman,,,,null,,,,
null,is arguing with,,html-keyboard-response,96,456072,0.0-13.0-2.16,19435,List2B,white,woman,,,,null,,,,
5666,,,survey-text,97,461741,0.0-13.0-3.16,19435,List2B,white,woman,,,,,"{""Q0"":""Dave is arguing with Ruth""}","<img src=""stim_listB/argue1.gif""style=""height:400px;""></stim_listB>",is arguing with,
null,"<div style=""font-size:60px;"">+</div>",,html-keyboard-response,98,462243,0.0-13.0-0.17,19435,List2B,white,woman,,,,null,,,,
null,"<img src=""stim_listB/kiss6.gif""style=""height:400px;""></stim_listB>",,html-keyboard-response,99,464246,0.0-13.0-1.17,19435,List2B,white,woman,,,,null,,,,
null,are kissing each other,,html-keyboard-response,100,466247,0.0-13.0-2.17,19435,List2B,white,woman,,,,null,,,,
6755,,,survey-text,101,473004,0.0-13.0-3.17,19435,List2B,white,woman,,,,,"{""Q0"":""Mike and Dave are kissing each other""}","<img src=""stim_listB/kiss6.gif""style=""height:400px;""></stim_listB>",are kissing each other,
null,"<div style=""font-size:60px;"">+</div>",,html-keyboard-response,102,473507,0.0-13.0-0.18,19435,List2B,white,woman,,,,null,,,,
null,"<img src=""stim_listB/fight2.gif""style=""height:400px;""></stim_listB>",,html-keyboard-response,103,475510,0.0-13.0-1.18,19435,List2B,white,woman,,,,null,,,,
null,are fighting each other,,html-keyboard-response,104,477512,0.0-13.0-2.18,19435,List2B,white,woman,,,,null,,,,
7024,,,survey-text,105,484538,0.0-13.0-3.18,19435,List2B,white,woman,,,,,"{""Q0"":""Ruth and Luke are fighting each other""}","<img src=""stim_listB/fight2.gif""style=""height:400px;""></stim_listB>",are fighting each other,
null,"<div style=""font-size:60px;"">+</div>",,html-keyboard-response,106,485040,0.0-13.0-0.19,19435,List2B,white,woman,,,,null,,,,
null,"<img src=""stim_listB/fight5.gif""style=""height:400px;""></stim_listB>",,html-keyboard-response,107,487043,0.0-13.0-1.19,19435,List2B,white,woman,,,,null,,,,
null,is fighting,,html-keyboard-response,108,489045,0.0-13.0-2.19,19435,List2B,white,woman,,,,null,,,,
5350,,,survey-text,109,494398,0.0-13.0-3.19,19435,List2B,white,woman,,,,,"{""Q0"":""Dave is fighting Mike""}","<img src=""stim_listB/fight5.gif""style=""height:400px;""></stim_listB>",is fighting,
11656,"<img src='img/portrait_matrix_list2.jpg' style='width:900px;height:500px;''></img><p>If you have memorised all the portraits and names and are ready to start, press Continue.</p><p><strong>Please note: Your memory of these faces will be tested 4 times during this experiment.</strong></p>",0,html-button-response,110,506058,0.0-14.0-0.0,19435,List2B,white,woman,,,,,,,,
1912,"<img src=""portrait/WM2.jpg""style=""height:400px;""></img>",7,html-button-response,111,508972,0.0-14.0-1.0,19435,List2B,white,woman,,TRUE,7,,,,,
null,CORRECT,,html-keyboard-response,112,510476,0.0-14.0-2.0-0.0,19435,List2B,white,woman,,,,null,,,,
3374,"<img src=""portrait/BM1.jpg""style=""height:400px;""></img>",4,html-button-response,113,513854,0.0-14.0-4.0,19435,List2B,white,woman,,TRUE,4,,,,,
null,CORRECT,,html-keyboard-response,114,515357,0.0-14.0-5.0-0.0,19435,List2B,white,woman,,,,null,,,,
4802,"<img src=""portrait/BW1.jpg""style=""height:400px;""></img>",0,html-button-response,115,520162,0.0-14.0-7.0,19435,List2B,white,woman,,TRUE,0,,,,,
null,CORRECT,,html-keyboard-response,116,521664,0.0-14.0-8.0-0.0,19435,List2B,white,woman,,,,null,,,,
1642,"<img src=""portrait/WW1.jpg""style=""height:400px;""></img>",1,html-button-response,117,523310,0.0-14.0-10.0,19435,List2B,white,woman,,TRUE,1,,,,,
null,CORRECT,,html-keyboard-response,118,524812,0.0-14.0-11.0-0.0,19435,List2B,white,woman,,,,null,,,,
2587,"<img src=""portrait/WM1.jpg""style=""height:400px;""></img>",6,html-button-response,119,527401,0.0-14.0-13.0,19435,List2B,white,woman,,TRUE,6,,,,,
null,CORRECT,,html-keyboard-response,120,528903,0.0-14.0-14.0-0.0,19435,List2B,white,woman,,,,null,,,,
1776,"<img src=""portrait/BM2.jpg""style=""height:400px;""></img>",5,html-button-response,121,530682,0.0-14.0-16.0,19435,List2B,white,woman,,TRUE,5,,,,,
null,CORRECT,,html-keyboard-response,122,532185,0.0-14.0-17.0-0.0,19435,List2B,white,woman,,,,null,,,,
3438,"<img src=""portrait/WW2.jpg""style=""height:400px;""></img>",3,html-button-response,123,535625,0.0-14.0-19.0,19435,List2B,white,woman,,TRUE,3,,,,,
null,CORRECT,,html-keyboard-response,124,537129,0.0-14.0-20.0-0.0,19435,List2B,white,woman,,,,null,,,,
1766,"<img src=""portrait/BW2.jpg""style=""height:400px;""></img>",2,html-button-response,125,538899,0.0-14.0-22.0,19435,List2B,white,woman,,TRUE,2,,,,,
null,CORRECT,,html-keyboard-response,126,540402,0.0-14.0-23.0-0.0,19435,List2B,white,woman,,,,null,,,,
1192,<p>You got 8 out of 8 right first time. Press Continue.</p>,0,html-button-response,127,541598,0.0-14.0-25.0,19435,List2B,white,woman,,,,,,,,
null,"<div style=""font-size:60px;"">+</div>",,html-keyboard-response,128,543104,0.0-15.0-0.0,19435,List2B,white,woman,,,,null,,,,
null,"<img src=""stim_listB/kiss2.gif""style=""height:400px;""></stim_listB>",,html-keyboard-response,129,545107,0.0-15.0-1.0,19435,List2B,white,woman,,,,null,,,,
null,are kissing each other,,html-keyboard-response,130,547109,0.0-15.0-2.0,19435,List2B,white,woman,,,,null,,,,
38953,,,survey-text,131,586064,0.0-15.0-3.0,19435,List2B,white,woman,,,,,"{""Q0"":""Dave and Jane are kissing""}","<img src=""stim_listB/kiss2.gif""style=""height:400px;""></stim_listB>",are kissing each other,
null,"<div style=""font-size:60px;"">+</div>",,html-keyboard-response,132,586566,0.0-15.0-0.1,19435,List2B,white,woman,,,,null,,,,
null,"<img src=""stim_listB/talk3.gif""style=""height:400px;""></stim_listB>",,html-keyboard-response,133,588569,0.0-15.0-1.1,19435,List2B,white,woman,,,,null,,,,
null,is talking to,,html-keyboard-response,134,590571,0.0-15.0-2.1,19435,List2B,white,woman,,,,null,,,,
8424,,,survey-text,135,598998,0.0-15.0-3.1,19435,List2B,white,woman,,,,,"{""Q0"":""Kate is talking to Fred""}","<img src=""stim_listB/talk3.gif""style=""height:400px;""></stim_listB>",is talking to,
null,"<div style=""font-size:60px;"">+</div>",,html-keyboard-response,136,599500,0.0-15.0-0.2,19435,List2B,white,woman,,,,null,,,,
null,"<img src=""stim_listB/flirt7.gif""style=""height:400px;""></stim_listB>",,html-keyboard-response,137,601502,0.0-15.0-1.2,19435,List2B,white,woman,,,,null,,,,
null,is flirting with,,html-keyboard-response,138,603504,0.0-15.0-2.2,19435,List2B,white,woman,,,,null,,,,
7734,,,survey-text,139,611239,0.0-15.0-3.2,19435,List2B,white,woman,,,,,"{""Q0"":""Ruth is flirting with Kate""}","<img src=""stim_listB/flirt7.gif""style=""height:400px;""></stim_listB>",is flirting with,
null,"<div style=""font-size:60px;"">+</div>",,html-keyboard-response,140,611742,0.0-15.0-0.3,19435,List2B,white,woman,,,,null,,,,
null,"<img src=""stim_listB/marry2.gif""style=""height:400px;""></stim_listB>",,html-keyboard-response,141,613745,0.0-15.0-1.3,19435,List2B,white,woman,,,,null,,,,
null,are marrying each other,,html-keyboard-response,142,615747,0.0-15.0-2.3,19435,List2B,white,woman,,,,null,,,,
13146,,,survey-text,143,628895,0.0-15.0-3.3,19435,List2B,white,woman,,,,,"{""Q0"":""Jane and Luke are amrrying each other""}","<img src=""stim_listB/marry2.gif""style=""height:400px;""></stim_listB>",are marrying each other,
null,"<div style=""font-size:60px;"">+</div>",,html-keyboard-response,144,629397,0.0-15.0-0.4,19435,List2B,white,woman,,,,null,,,,
null,"<img src=""stim_listB/touch8.gif""style=""height:400px;""></stim_listB>",,html-keyboard-response,145,631400,0.0-15.0-1.4,19435,List2B,white,woman,,,,null,,,,
null,are touching each other,,html-keyboard-response,146,633402,0.0-15.0-2.4,19435,List2B,white,woman,,,,null,,,,
7413,,,survey-text,147,640819,0.0-15.0-3.4,19435,List2B,white,woman,,,,,"{""Q0"":""Beth and Ruth are touching each other""}","<img src=""stim_listB/touch8.gif""style=""height:400px;""></stim_listB>",are touching each other,
null,"<div style=""font-size:60px;"">+</div>",,html-keyboard-response,148,641321,0.0-15.0-0.5,19435,List2B,white,woman,,,,null,,,,
null,"<img src=""stim_listB/flirt1.gif""style=""height:400px;""></stim_listB>",,html-keyboard-response,149,643324,0.0-15.0-1.5,19435,List2B,white,woman,,,,null,,,,
null,is flirting with,,html-keyboard-response,150,645326,0.0-15.0-2.5,19435,List2B,white,woman,,,,null,,,,
5998,,,survey-text,151,651326,0.0-15.0-3.5,19435,List2B,white,woman,,,,,"{""Q0"":""Dave is flirting with Jane""}","<img src=""stim_listB/flirt1.gif""style=""height:400px;""></stim_listB>",is flirting with,
null,"<div style=""font-size:60px;"">+</div>",,html-keyboard-response,152,651829,0.0-15.0-0.6,19435,List2B,white,woman,,,,null,,,,
null,"<img src=""stim_listB/fight3.gif""style=""height:400px;""></stim_listB>",,html-keyboard-response,153,653832,0.0-15.0-1.6,19435,List2B,white,woman,,,,null,,,,
null,is fighting,,html-keyboard-response,154,655834,0.0-15.0-2.6,19435,List2B,white,woman,,,,null,,,,
6079,,,survey-text,155,661916,0.0-15.0-3.6,19435,List2B,white,woman,,,,,"{""Q0"":""Mike is fighting Kate""}","<img src=""stim_listB/fight3.gif""style=""height:400px;""></stim_listB>",is fighting,
null,"<div style=""font-size:60px;"">+</div>",,html-keyboard-response,156,662418,0.0-15.0-0.7,19435,List2B,white,woman,,,,null,,,,
null,"<img src=""stim_listB/kiss3.gif""style=""height:400px;""></stim_listB>",,html-keyboard-response,157,664421,0.0-15.0-1.7,19435,List2B,white,woman,,,,null,,,,
null,is kissing,,html-keyboard-response,158,666423,0.0-15.0-2.7,19435,List2B,white,woman,,,,null,,,,
10222,,,survey-text,159,676648,0.0-15.0-3.7,19435,List2B,white,woman,,,,,"{""Q0"":""Fred is kissing Beth""}","<img src=""stim_listB/kiss3.gif""style=""height:400px;""></stim_listB>",is kissing,
null,"<div style=""font-size:60px;"">+</div>",,html-keyboard-response,160,677151,0.0-15.0-0.8,19435,List2B,white,woman,,,,null,,,,
null,"<img src=""stim_listB/kiss8.gif""style=""height:400px;""></stim_listB>",,html-keyboard-response,161,679153,0.0-15.0-1.8,19435,List2B,white,woman,,,,null,,,,
null,are kissing each other,,html-keyboard-response,162,681154,0.0-15.0-2.8,19435,List2B,white,woman,,,,null,,,,
7911,,,survey-text,163,689066,0.0-15.0-3.8,19435,List2B,white,woman,,,,,"{""Q0"":""Kate and Jane are kissing each other""}","<img src=""stim_listB/kiss8.gif""style=""height:400px;""></stim_listB>",are kissing each other,
null,"<div style=""font-size:60px;"">+</div>",,html-keyboard-response,164,689568,0.0-15.0-0.9,19435,List2B,white,woman,,,,null,,,,
null,"<img src=""stim_listB/talk1.gif""style=""height:400px;""></stim_listB>",,html-keyboard-response,165,691571,0.0-15.0-1.9,19435,List2B,white,woman,,,,null,,,,
null,is talking to,,html-keyboard-response,166,693573,0.0-15.0-2.9,19435,List2B,white,woman,,,,null,,,,
6136,,,survey-text,167,699711,0.0-15.0-3.9,19435,List2B,white,woman,,,,,"{""Q0"":""Luke is talking to Jane""}","<img src=""stim_listB/talk1.gif""style=""height:400px;""></stim_listB>",is talking to,
null,"<div style=""font-size:60px;"">+</div>",,html-keyboard-response,168,700213,0.0-15.0-0.10,19435,List2B,white,woman,,,,null,,,,
null,"<img src=""stim_listB/dance8.gif""style=""height:400px;""></stim_listB>",,html-keyboard-response,169,702217,0.0-15.0-1.10,19435,List2B,white,woman,,,,null,,,,
null,are dancing with each other,,html-keyboard-response,170,704219,0.0-15.0-2.10,19435,List2B,white,woman,,,,null,,,,
8750,,,survey-text,171,712971,0.0-15.0-3.10,19435,List2B,white,woman,,,,,"{""Q0"":""Beth and Jane are dancing with each other""}","<img src=""stim_listB/dance8.gif""style=""height:400px;""></stim_listB>",are dancing with each other,
null,"<div style=""font-size:60px;"">+</div>",,html-keyboard-response,172,713473,0.0-15.0-0.11,19435,List2B,white,woman,,,,null,,,,
null,"<img src=""stim_listB/flirt4.gif""style=""height:400px;""></stim_listB>",,html-keyboard-response,173,715476,0.0-15.0-1.11,19435,List2B,white,woman,,,,null,,,,
null,are flirting with each other,,html-keyboard-response,174,717478,0.0-15.0-2.11,19435,List2B,white,woman,,,,null,,,,
8571,,,survey-text,175,726052,0.0-15.0-3.11,19435,List2B,white,woman,,,,,"{""Q0"":""Beth and Mike are flirting with each other""}","<img src=""stim_listB/flirt4.gif""style=""height:400px;""></stim_listB>",are flirting with each other,
null,"<div style=""font-size:60px;"">+</div>",,html-keyboard-response,176,726553,0.0-15.0-0.12,19435,List2B,white,woman,,,,null,,,,
null,"<img src=""stim_listB/talk2.gif""style=""height:400px;""></stim_listB>",,html-keyboard-response,177,728556,0.0-15.0-1.12,19435,List2B,white,woman,,,,null,,,,
null,are talking to each other,,html-keyboard-response,178,730559,0.0-15.0-2.12,19435,List2B,white,woman,,,,null,,,,
7566,,,survey-text,179,738127,0.0-15.0-3.12,19435,List2B,white,woman,,,,,"{""Q0"":""Ruth and Dave are talking to each other""}","<img src=""stim_listB/talk2.gif""style=""height:400px;""></stim_listB>",are talking to each other,
null,"<div style=""font-size:60px;"">+</div>",,html-keyboard-response,180,738630,0.0-15.0-0.13,19435,List2B,white,woman,,,,null,,,,
null,"<img src=""stim_listB/shout7.gif""style=""height:400px;""></stim_listB>",,html-keyboard-response,181,740633,0.0-15.0-1.13,19435,List2B,white,woman,,,,null,,,,
null,is shouting at,,html-keyboard-response,182,742635,0.0-15.0-2.13,19435,List2B,white,woman,,,,null,,,,
6087,,,survey-text,183,748723,0.0-15.0-3.13,19435,List2B,white,woman,,,,,"{""Q0"":""Ruth is shouting at BEth""}","<img src=""stim_listB/shout7.gif""style=""height:400px;""></stim_listB>",is shouting at,
null,"<div style=""font-size:60px;"">+</div>",,html-keyboard-response,184,749225,0.0-15.0-0.14,19435,List2B,white,woman,,,,null,,,,
null,"<img src=""stim_listB/touch3.gif""style=""height:400px;""></stim_listB>",,html-keyboard-response,185,751228,0.0-15.0-1.14,19435,List2B,white,woman,,,,null,,,,
null,is touching,,html-keyboard-response,186,753230,0.0-15.0-2.14,19435,List2B,white,woman,,,,null,,,,
18486,,,survey-text,187,771719,0.0-15.0-3.14,19435,List2B,white,woman,,,,,"{""Q0"":""Mike is touching Kate""}","<img src=""stim_listB/touch3.gif""style=""height:400px;""></stim_listB>",is touching,
null,"<div style=""font-size:60px;"">+</div>",,html-keyboard-response,188,772221,0.0-15.0-0.15,19435,List2B,white,woman,,,,null,,,,
null,"<img src=""stim_listB/argue5.gif""style=""height:400px;""></stim_listB>",,html-keyboard-response,189,774224,0.0-15.0-1.15,19435,List2B,white,woman,,,,null,,,,
null,is arguing with,,html-keyboard-response,190,776226,0.0-15.0-2.15,19435,List2B,white,woman,,,,null,,,,
6516,,,survey-text,191,782745,0.0-15.0-3.15,19435,List2B,white,woman,,,,,"{""Q0"":""Dave is arguing with Fred""}","<img src=""stim_listB/argue5.gif""style=""height:400px;""></stim_listB>",is arguing with,
null,"<div style=""font-size:60px;"">+</div>",,html-keyboard-response,192,783248,0.0-15.0-0.16,19435,List2B,white,woman,,,,null,,,,
null,"<img src=""stim_listB/flirt3.gif""style=""height:400px;""></stim_listB>",,html-keyboard-response,193,785251,0.0-15.0-1.16,19435,List2B,white,woman,,,,null,,,,
null,is flirting with,,html-keyboard-response,194,787254,0.0-15.0-2.16,19435,List2B,white,woman,,,,null,,,,
5897,,,survey-text,195,793153,0.0-15.0-3.16,19435,List2B,white,woman,,,,,"{""Q0"":""Fred is flirting with Kate""}","<img src=""stim_listB/flirt3.gif""style=""height:400px;""></stim_listB>",is flirting with,
null,"<div style=""font-size:60px;"">+</div>",,html-keyboard-response,196,793657,0.0-15.0-0.17,19435,List2B,white,woman,,,,null,,,,
null,"<img src=""stim_listB/play6.gif""style=""height:400px;""></stim_listB>",,html-keyboard-response,197,795661,0.0-15.0-1.17,19435,List2B,white,woman,,,,null,,,,
null,are playing with each other,,html-keyboard-response,198,797663,0.0-15.0-2.17,19435,List2B,white,woman,,,,null,,,,
8664,,,survey-text,199,806329,0.0-15.0-3.17,19435,List2B,white,woman,,,,,"{""Q0"":""Fred and Luke are playing with each other""}","<img src=""stim_listB/play6.gif""style=""height:400px;""></stim_listB>",are playing with each other,
null,"<div style=""font-size:60px;"">+</div>",,html-keyboard-response,200,806831,0.0-15.0-0.18,19435,List2B,white,woman,,,,null,,,,
null,"<img src=""stim_listB/marry4.gif""style=""height:400px;""></stim_listB>",,html-keyboard-response,201,808834,0.0-15.0-1.18,19435,List2B,white,woman,,,,null,,,,
null,are marrying each other,,html-keyboard-response,202,810836,0.0-15.0-2.18,19435,List2B,white,woman,,,,null,,,,
7457,,,survey-text,203,818297,0.0-15.0-3.18,19435,List2B,white,woman,,,,,"{""Q0"":""Kate and Fred are marrying each other""}","<img src=""stim_listB/marry4.gif""style=""height:400px;""></stim_listB>",are marrying each other,
null,"<div style=""font-size:60px;"">+</div>",,html-keyboard-response,204,818799,0.0-15.0-0.19,19435,List2B,white,woman,,,,null,,,,
null,"<img src=""stim_listB/touch6.gif""style=""height:400px;""></stim_listB>",,html-keyboard-response,205,820802,0.0-15.0-1.19,19435,List2B,white,woman,,,,null,,,,
null,are touching each other,,html-keyboard-response,206,822804,0.0-15.0-2.19,19435,List2B,white,woman,,,,null,,,,
7598,,,survey-text,207,830404,0.0-15.0-3.19,19435,List2B,white,woman,,,,,"{""Q0"":""Fred and Luke are touching each other""}","<img src=""stim_listB/touch6.gif""style=""height:400px;""></stim_listB>",are touching each other,
4601,"<img src='img/portrait_matrix_list2.jpg' style='width:900px;height:500px;''></img><p>If you have memorised all the portraits and names and are ready to start, press Continue.</p><p><strong>Please note: Your memory of these faces will be tested 4 times during this experiment.</strong></p>",0,html-button-response,208,835008,0.0-16.0-0.0,19435,List2B,white,woman,,,,,,,,
3336,"<img src=""portrait/BM2.jpg""style=""height:400px;""></img>",5,html-button-response,209,839349,0.0-16.0-1.0,19435,List2B,white,woman,,TRUE,5,,,,,
null,CORRECT,,html-keyboard-response,210,840852,0.0-16.0-2.0-0.0,19435,List2B,white,woman,,,,null,,,,
2367,"<img src=""portrait/BM1.jpg""style=""height:400px;""></img>",4,html-button-response,211,843220,0.0-16.0-4.0,19435,List2B,white,woman,,TRUE,4,,,,,
null,CORRECT,,html-keyboard-response,212,844723,0.0-16.0-5.0-0.0,19435,List2B,white,woman,,,,null,,,,
2065,"<img src=""portrait/WM1.jpg""style=""height:400px;""></img>",6,html-button-response,213,846792,0.0-16.0-7.0,19435,List2B,white,woman,,TRUE,6,,,,,
null,CORRECT,,html-keyboard-response,214,848296,0.0-16.0-8.0-0.0,19435,List2B,white,woman,,,,null,,,,
1509,"<img src=""portrait/WW1.jpg""style=""height:400px;""></img>",1,html-button-response,215,849808,0.0-16.0-10.0,19435,List2B,white,woman,,TRUE,1,,,,,
null,CORRECT,,html-keyboard-response,216,851311,0.0-16.0-11.0-0.0,19435,List2B,white,woman,,,,null,,,,
1704,"<img src=""portrait/WW2.jpg""style=""height:400px;""></img>",3,html-button-response,217,853018,0.0-16.0-13.0,19435,List2B,white,woman,,TRUE,3,,,,,
null,CORRECT,,html-keyboard-response,218,854521,0.0-16.0-14.0-0.0,19435,List2B,white,woman,,,,null,,,,
2643,"<img src=""portrait/WM2.jpg""style=""height:400px;""></img>",7,html-button-response,219,857167,0.0-16.0-16.0,19435,List2B,white,woman,,TRUE,7,,,,,
null,CORRECT,,html-keyboard-response,220,858669,0.0-16.0-17.0-0.0,19435,List2B,white,woman,,,,null,,,,
3372,"<img src=""portrait/BW2.jpg""style=""height:400px;""></img>",2,html-button-response,221,862044,0.0-16.0-19.0,19435,List2B,white,woman,,TRUE,2,,,,,
null,CORRECT,,html-keyboard-response,222,863547,0.0-16.0-20.0-0.0,19435,List2B,white,woman,,,,null,,,,
6338,"<img src=""portrait/BW1.jpg""style=""height:400px;""></img>",0,html-button-response,223,869888,0.0-16.0-22.0,19435,List2B,white,woman,,TRUE,0,,,,,
null,CORRECT,,html-keyboard-response,224,871391,0.0-16.0-23.0-0.0,19435,List2B,white,woman,,,,null,,,,
238569,<p>You got 8 out of 8 right first time. Press Continue.</p>,0,html-button-response,225,1109963,0.0-16.0-25.0,19435,List2B,white,woman,,,,,,,,
null,"<div style=""font-size:60px;"">+</div>",,html-keyboard-response,226,1111467,0.0-17.0-0.0,19435,List2B,white,woman,,,,null,,,,
null,"<img src=""stim_listB/argue2.gif""style=""height:400px;""></stim_listB>",,html-keyboard-response,227,1113469,0.0-17.0-1.0,19435,List2B,white,woman,,,,null,,,,
null,are arguing with each other,,html-keyboard-response,228,1115471,0.0-17.0-2.0,19435,List2B,white,woman,,,,null,,,,
8389,,,survey-text,229,1123864,0.0-17.0-3.0,19435,List2B,white,woman,,,,,"{""Q0"":""Jane and Luke are arguing with each other""}","<img src=""stim_listB/argue2.gif""style=""height:400px;""></stim_listB>",are arguing with each other,
null,"<div style=""font-size:60px;"">+</div>",,html-keyboard-response,230,1124368,0.0-17.0-0.1,19435,List2B,white,woman,,,,null,,,,
null,"<img src=""stim_listB/talk4.gif""style=""height:400px;""></stim_listB>",,html-keyboard-response,231,1126370,0.0-17.0-1.1,19435,List2B,white,woman,,,,null,,,,
null,are talking to each other,,html-keyboard-response,232,1128372,0.0-17.0-2.1,19435,List2B,white,woman,,,,null,,,,
11449,,,survey-text,233,1139823,0.0-17.0-3.1,19435,List2B,white,woman,,,,,"{""Q0"":""Beth and Mike are talking to each other""}","<img src=""stim_listB/talk4.gif""style=""height:400px;""></stim_listB>",are talking to each other,
null,"<div style=""font-size:60px;"">+</div>",,html-keyboard-response,234,1140326,0.0-17.0-0.2,19435,List2B,white,woman,,,,null,,,,
null,"<img src=""stim_listB/marry8.gif""style=""height:400px;""></stim_listB>",,html-keyboard-response,235,1142329,0.0-17.0-1.2,19435,List2B,white,woman,,,,null,,,,
null,are marrying each other,,html-keyboard-response,236,1144331,0.0-17.0-2.2,19435,List2B,white,woman,,,,null,,,,
9068,,,survey-text,237,1153403,0.0-17.0-3.2,19435,List2B,white,woman,,,,,"{""Q0"":""Kate and Ruth are marrying each other""}","<img src=""stim_listB/marry8.gif""style=""height:400px;""></stim_listB>",are marrying each other,
null,"<div style=""font-size:60px;"">+</div>",,html-keyboard-response,238,1153906,0.0-17.0-0.3,19435,List2B,white,woman,,,,null,,,,
null,"<img src=""stim_listB/kiss5.gif""style=""height:400px;""></stim_listB>",,html-keyboard-response,239,1155909,0.0-17.0-1.3,19435,List2B,white,woman,,,,null,,,,
null,is kissing,,html-keyboard-response,240,1157911,0.0-17.0-2.3,19435,List2B,white,woman,,,,null,,,,
5441,,,survey-text,241,1163354,0.0-17.0-3.3,19435,List2B,white,woman,,,,,"{""Q0"":""Luke is kissing Fred""}","<img src=""stim_listB/kiss5.gif""style=""height:400px;""></stim_listB>",is kissing,
null,"<div style=""font-size:60px;"">+</div>",,html-keyboard-response,242,1163856,0.0-17.0-0.4,19435,List2B,white,woman,,,,null,,,,
null,"<img src=""stim_listB/argue7.gif""style=""height:400px;""></stim_listB>",,html-keyboard-response,243,1165860,0.0-17.0-1.4,19435,List2B,white,woman,,,,null,,,,
null,is arguing with,,html-keyboard-response,244,1167862,0.0-17.0-2.4,19435,List2B,white,woman,,,,null,,,,
5958,,,survey-text,245,1173822,0.0-17.0-3.4,19435,List2B,white,woman,,,,,"{""Q0"":""Jane is arguing with Beth""}","<img src=""stim_listB/argue7.gif""style=""height:400px;""></stim_listB>",is arguing with,
null,"<div style=""font-size:60px;"">+</div>",,html-keyboard-response,246,1174324,0.0-17.0-0.5,19435,List2B,white,woman,,,,null,,,,
null,"<img src=""stim_listB/play7.gif""style=""height:400px;""></stim_listB>",,html-keyboard-response,247,1176327,0.0-17.0-1.5,19435,List2B,white,woman,,,,null,,,,
null,is playing with,,html-keyboard-response,248,1178329,0.0-17.0-2.5,19435,List2B,white,woman,,,,null,,,,
5781,,,survey-text,249,1184112,0.0-17.0-3.5,19435,List2B,white,woman,,,,,"{""Q0"":""Jane is playing with Kate""}","<img src=""stim_listB/play7.gif""style=""height:400px;""></stim_listB>",is playing with,
null,"<div style=""font-size:60px;"">+</div>",,html-keyboard-response,250,1184613,0.0-17.0-0.6,19435,List2B,white,woman,,,,null,,,,
null,"<img src=""stim_listB/kiss4.gif""style=""height:400px;""></stim_listB>",,html-keyboard-response,251,1186617,0.0-17.0-1.6,19435,List2B,white,woman,,,,null,,,,
null,are kissing each other,,html-keyboard-response,252,1188619,0.0-17.0-2.6,19435,List2B,white,woman,,,,null,,,,
9007,,,survey-text,253,1197629,0.0-17.0-3.6,19435,List2B,white,woman,,,,,"{""Q0"":""Kate and Mike are kissing each other""}","<img src=""stim_listB/kiss4.gif""style=""height:400px;""></stim_listB>",are kissing each other,
null,"<div style=""font-size:60px;"">+</div>",,html-keyboard-response,254,1198132,0.0-17.0-0.7,19435,List2B,white,woman,,,,null,,,,
null,"<img src=""stim_listB/marry5.gif""style=""height:400px;""></stim_listB>",,html-keyboard-response,255,1200136,0.0-17.0-1.7,19435,List2B,white,woman,,,,null,,,,
null,is marrying,,html-keyboard-response,256,1202137,0.0-17.0-2.7,19435,List2B,white,woman,,,,null,,,,
219450,,,survey-text,257,1421589,0.0-17.0-3.7,19435,List2B,white,woman,,,,,"{""Q0"":""Dave is marrying Fred""}","<img src=""stim_listB/marry5.gif""style=""height:400px;""></stim_listB>",is marrying,
null,"<div style=""font-size:60px;"">+</div>",,html-keyboard-response,258,1422094,0.0-17.0-0.8,19435,List2B,white,woman,,,,null,,,,
null,"<img src=""stim_listB/dance2.gif""style=""height:400px;""></stim_listB>",,html-keyboard-response,259,1424098,0.0-17.0-1.8,19435,List2B,white,woman,,,,null,,,,
null,are dancing with each other,,html-keyboard-response,260,1426099,0.0-17.0-2.8,19435,List2B,white,woman,,,,null,,,,
8494,,,survey-text,261,1434596,0.0-17.0-3.8,19435,List2B,white,woman,,,,,"{""Q0"":""Ruth and Fred are dancing with each other""}","<img src=""stim_listB/dance2.gif""style=""height:400px;""></stim_listB>",are dancing with each other,
null,"<div style=""font-size:60px;"">+</div>",,html-keyboard-response,262,1435099,0.0-17.0-0.9,19435,List2B,white,woman,,,,null,,,,
null,"<img src=""stim_listB/touch1.gif""style=""height:400px;""></stim_listB>",,html-keyboard-response,263,1437102,0.0-17.0-1.9,19435,List2B,white,woman,,,,null,,,,
null,is touching,,html-keyboard-response,264,1439104,0.0-17.0-2.9,19435,List2B,white,woman,,,,null,,,,
5145,,,survey-text,265,1444251,0.0-17.0-3.9,19435,List2B,white,woman,,,,,"{""Q0"":""Jane is touching Dave""}","<img src=""stim_listB/touch1.gif""style=""height:400px;""></stim_listB>",is touching,
null,"<div style=""font-size:60px;"">+</div>",,html-keyboard-response,266,1444753,0.0-17.0-0.10,19435,List2B,white,woman,,,,null,,,,
null,"<img src=""stim_listB/shout1.gif""style=""height:400px;""></stim_listB>",,html-keyboard-response,267,1446756,0.0-17.0-1.10,19435,List2B,white,woman,,,,null,,,,
null,is shouting at,,html-keyboard-response,268,1448758,0.0-17.0-2.10,19435,List2B,white,woman,,,,null,,,,
5664,,,survey-text,269,1454424,0.0-17.0-3.10,19435,List2B,white,woman,,,,,"{""Q0"":""Luke is shouting at Ruth""}","<img src=""stim_listB/shout1.gif""style=""height:400px;""></stim_listB>",is shouting at,
null,"<div style=""font-size:60px;"">+</div>",,html-keyboard-response,270,1454927,0.0-17.0-0.11,19435,List2B,white,woman,,,,null,,,,
null,"<img src=""stim_listB/shout5.gif""style=""height:400px;""></stim_listB>",,html-keyboard-response,271,1456931,0.0-17.0-1.11,19435,List2B,white,woman,,,,null,,,,
null,is shouting at,,html-keyboard-response,272,1458932,0.0-17.0-2.11,19435,List2B,white,woman,,,,null,,,,
5689,,,survey-text,273,1464624,0.0-17.0-3.11,19435,List2B,white,woman,,,,,"{""Q0"":""Luke is shouting at Fred""}","<img src=""stim_listB/shout5.gif""style=""height:400px;""></stim_listB>",is shouting at,
null,"<div style=""font-size:60px;"">+</div>",,html-keyboard-response,274,1465127,0.0-17.0-0.12,19435,List2B,white,woman,,,,null,,,,
null,"<img src=""stim_listB/play5.gif""style=""height:400px;""></stim_listB>",,html-keyboard-response,275,1467130,0.0-17.0-1.12,19435,List2B,white,woman,,,,null,,,,
null,is playing with,,html-keyboard-response,276,1469132,0.0-17.0-2.12,19435,List2B,white,woman,,,,null,,,,
6302,,,survey-text,277,1475436,0.0-17.0-3.12,19435,List2B,white,woman,,,,,"{""Q0"":""Dave is playing with Mike""}","<img src=""stim_listB/play5.gif""style=""height:400px;""></stim_listB>",is playing with,
null,"<div style=""font-size:60px;"">+</div>",,html-keyboard-response,278,1475939,0.0-17.0-0.13,19435,List2B,white,woman,,,,null,,,,
null,"<img src=""stim_listB/touch2.gif""style=""height:400px;""></stim_listB>",,html-keyboard-response,279,1477942,0.0-17.0-1.13,19435,List2B,white,woman,,,,null,,,,
null,are touching each other,,html-keyboard-response,280,1479943,0.0-17.0-2.13,19435,List2B,white,woman,,,,null,,,,
7938,,,survey-text,281,1487884,0.0-17.0-3.13,19435,List2B,white,woman,,,,,"{""Q0"":""Ruth and DAve are touching each other""}","<img src=""stim_listB/touch2.gif""style=""height:400px;""></stim_listB>",are touching each other,
null,"<div style=""font-size:60px;"">+</div>",,html-keyboard-response,282,1488386,0.0-17.0-0.14,19435,List2B,white,woman,,,,null,,,,
null,"<img src=""stim_listB/play8.gif""style=""height:400px;""></stim_listB>",,html-keyboard-response,283,1490389,0.0-17.0-1.14,19435,List2B,white,woman,,,,null,,,,
null,are playing with each other,,html-keyboard-response,284,1492391,0.0-17.0-2.14,19435,List2B,white,woman,,,,null,,,,
8081,,,survey-text,285,1500475,0.0-17.0-3.14,19435,List2B,white,woman,,,,,"{""Q0"":""Beth and Ruth are playing with each other""}","<img src=""stim_listB/play8.gif""style=""height:400px;""></stim_listB>",are playing with each other,
null,"<div style=""font-size:60px;"">+</div>",,html-keyboard-response,286,1500978,0.0-17.0-0.15,19435,List2B,white,woman,,,,null,,,,
null,"<img src=""stim_listB/flirt5.gif""style=""height:400px;""></stim_listB>",,html-keyboard-response,287,1502980,0.0-17.0-1.15,19435,List2B,white,woman,,,,null,,,,
null,is flirting with,,html-keyboard-response,288,1504982,0.0-17.0-2.15,19435,List2B,white,woman,,,,null,,,,
5703,,,survey-text,289,1510687,0.0-17.0-3.15,19435,List2B,white,woman,,,,,"{""Q0"":""Luke is flirting with Mike""}","<img src=""stim_listB/flirt5.gif""style=""height:400px;""></stim_listB>",is flirting with,
null,"<div style=""font-size:60px;"">+</div>",,html-keyboard-response,290,1511190,0.0-17.0-0.16,19435,List2B,white,woman,,,,null,,,,
null,"<img src=""stim_listB/flirt6.gif""style=""height:400px;""></stim_listB>",,html-keyboard-response,291,1513191,0.0-17.0-1.16,19435,List2B,white,woman,,,,null,,,,
null,are flirting with each other,,html-keyboard-response,292,1515193,0.0-17.0-2.16,19435,List2B,white,woman,,,,null,,,,
10684,,,survey-text,293,1525879,0.0-17.0-3.16,19435,List2B,white,woman,,,,,"{""Q0"":""Fred and Dave are flirting with each other""}","<img src=""stim_listB/flirt6.gif""style=""height:400px;""></stim_listB>",are flirting with each other,
null,"<div style=""font-size:60px;"">+</div>",,html-keyboard-response,294,1526381,0.0-17.0-0.17,19435,List2B,white,woman,,,,null,,,,
null,"<img src=""stim_listB/shout4.gif""style=""height:400px;""></stim_listB>",,html-keyboard-response,295,1528384,0.0-17.0-1.17,19435,List2B,white,woman,,,,null,,,,
null,are shouting at each other,,html-keyboard-response,296,1530385,0.0-17.0-2.17,19435,List2B,white,woman,,,,null,,,,
7746,,,survey-text,297,1538133,0.0-17.0-3.17,19435,List2B,white,woman,,,,,"{""Q0"":""Kate and Mike are shouting at each other""}","<img src=""stim_listB/shout4.gif""style=""height:400px;""></stim_listB>",are shouting at each other,
null,"<div style=""font-size:60px;"">+</div>",,html-keyboard-response,298,1538635,0.0-17.0-0.18,19435,List2B,white,woman,,,,null,,,,
null,"<img src=""stim_listB/flirt8.gif""style=""height:400px;""></stim_listB>",,html-keyboard-response,299,1540636,0.0-17.0-1.18,19435,List2B,white,woman,,,,null,,,,
null,are flirting with each other,,html-keyboard-response,300,1542641,0.0-17.0-2.18,19435,List2B,white,woman,,,,null,,,,
7464,,,survey-text,301,1550107,0.0-17.0-3.18,19435,List2B,white,woman,,,,,"{""Q0"":""Beth and Jane are flirting with each other""}","<img src=""stim_listB/flirt8.gif""style=""height:400px;""></stim_listB>",are flirting with each other,
null,"<div style=""font-size:60px;"">+</div>",,html-keyboard-response,302,1550610,0.0-17.0-0.19,19435,List2B,white,woman,,,,null,,,,
null,"<img src=""stim_listB/argue6.gif""style=""height:400px;""></stim_listB>",,html-keyboard-response,303,1552613,0.0-17.0-1.19,19435,List2B,white,woman,,,,null,,,,
null,are arguing with each other,,html-keyboard-response,304,1554615,0.0-17.0-2.19,19435,List2B,white,woman,,,,null,,,,
8629,,,survey-text,305,1563246,0.0-17.0-3.19,19435,List2B,white,woman,,,,,"{""Q0"":""Mike and Luke are arguing with each other""}","<img src=""stim_listB/argue6.gif""style=""height:400px;""></stim_listB>",are arguing with each other,
1446,"<img src='img/portrait_matrix_list2.jpg' style='width:900px;height:500px;''></img><p>If you have memorised all the portraits and names and are ready to start, press Continue.</p><p><strong>Please note: Your memory of these faces will be tested 4 times during this experiment.</strong></p>",0,html-button-response,306,1564698,0.0-18.0-0.0,19435,List2B,white,woman,,,,,,,,
4580,"<img src=""portrait/BM2.jpg""style=""height:400px;""></img>",5,html-button-response,307,1570283,0.0-18.0-1.0,19435,List2B,white,woman,,TRUE,5,,,,,
null,CORRECT,,html-keyboard-response,308,1571787,0.0-18.0-2.0-0.0,19435,List2B,white,woman,,,,null,,,,
8018,"<img src=""portrait/WM2.jpg""style=""height:400px;""></img>",7,html-button-response,309,1579806,0.0-18.0-4.0,19435,List2B,white,woman,,TRUE,7,,,,,
null,CORRECT,,html-keyboard-response,310,1581309,0.0-18.0-5.0-0.0,19435,List2B,white,woman,,,,null,,,,
1906,"<img src=""portrait/BW2.jpg""style=""height:400px;""></img>",2,html-button-response,311,1583218,0.0-18.0-7.0,19435,List2B,white,woman,,TRUE,2,,,,,
null,CORRECT,,html-keyboard-response,312,1584722,0.0-18.0-8.0-0.0,19435,List2B,white,woman,,,,null,,,,
2348,"<img src=""portrait/WW2.jpg""style=""height:400px;""></img>",3,html-button-response,313,1587073,0.0-18.0-10.0,19435,List2B,white,woman,,TRUE,3,,,,,
null,CORRECT,,html-keyboard-response,314,1588575,0.0-18.0-11.0-0.0,19435,List2B,white,woman,,,,null,,,,
6853,"<img src=""portrait/BM1.jpg""style=""height:400px;""></img>",4,html-button-response,315,1595430,0.0-18.0-13.0,19435,List2B,white,woman,,TRUE,4,,,,,
null,CORRECT,,html-keyboard-response,316,1596934,0.0-18.0-14.0-0.0,19435,List2B,white,woman,,,,null,,,,
1717,"<img src=""portrait/WW1.jpg""style=""height:400px;""></img>",1,html-button-response,317,1598654,0.0-18.0-16.0,19435,List2B,white,woman,,TRUE,1,,,,,
null,CORRECT,,html-keyboard-response,318,1600158,0.0-18.0-17.0-0.0,19435,List2B,white,woman,,,,null,,,,
1857,"<img src=""portrait/WM1.jpg""style=""height:400px;""></img>",6,html-button-response,319,1602018,0.0-18.0-19.0,19435,List2B,white,woman,,TRUE,6,,,,,
null,CORRECT,,html-keyboard-response,320,1603524,0.0-18.0-20.0-0.0,19435,List2B,white,woman,,,,null,,,,
1646,"<img src=""portrait/BW1.jpg""style=""height:400px;""></img>",0,html-button-response,321,1605173,0.0-18.0-22.0,19435,List2B,white,woman,,TRUE,0,,,,,
null,CORRECT,,html-keyboard-response,322,1606677,0.0-18.0-23.0-0.0,19435,List2B,white,woman,,,,null,,,,
17876,<p>You got 8 out of 8 right first time. Press Continue.</p>,0,html-button-response,323,1624555,0.0-18.0-25.0,19435,List2B,white,woman,,,,,,,,
null,"<div style=""font-size:60px;"">+</div>",,html-keyboard-response,324,1626062,0.0-19.0-0.0,19435,List2B,white,woman,,,,null,,,,
null,"<img src=""stim_listB/play1.gif""style=""height:400px;""></stim_listB>",,html-keyboard-response,325,1628064,0.0-19.0-1.0,19435,List2B,white,woman,,,,null,,,,
null,is playing with,,html-keyboard-response,326,1630067,0.0-19.0-2.0,19435,List2B,white,woman,,,,null,,,,
6975,,,survey-text,327,1637044,0.0-19.0-3.0,19435,List2B,white,woman,,,,,"{""Q0"":""Jane is playing with Dave""}","<img src=""stim_listB/play1.gif""style=""height:400px;""></stim_listB>",is playing with,
null,"<div style=""font-size:60px;"">+</div>",,html-keyboard-response,328,1637547,0.0-19.0-0.1,19435,List2B,white,woman,,,,null,,,,
null,"<img src=""stim_listB/dance5.gif""style=""height:400px;""></stim_listB>",,html-keyboard-response,329,1639550,0.0-19.0-1.1,19435,List2B,white,woman,,,,null,,,,
null,is dancing with,,html-keyboard-response,330,1641552,0.0-19.0-2.1,19435,List2B,white,woman,,,,null,,,,
9518,,,survey-text,331,1651072,0.0-19.0-3.1,19435,List2B,white,woman,,,,,"{""Q0"":""Luke is dancing with Mike""}","<img src=""stim_listB/dance5.gif""style=""height:400px;""></stim_listB>",is dancing with,
null,"<div style=""font-size:60px;"">+</div>",,html-keyboard-response,332,1651574,0.0-19.0-0.2,19435,List2B,white,woman,,,,null,,,,
null,"<img src=""stim_listB/fight4.gif""style=""height:400px;""></stim_listB>",,html-keyboard-response,333,1653577,0.0-19.0-1.2,19435,List2B,white,woman,,,,null,,,,
null,are fighting each other,,html-keyboard-response,334,1655579,0.0-19.0-2.2,19435,List2B,white,woman,,,,null,,,,
8805,,,survey-text,335,1664391,0.0-19.0-3.2,19435,List2B,white,woman,,,,,"{""Q0"":""Beth and Fred are fighting each other""}","<img src=""stim_listB/fight4.gif""style=""height:400px;""></stim_listB>",are fighting each other,
null,"<div style=""font-size:60px;"">+</div>",,html-keyboard-response,336,1664894,0.0-19.0-0.3,19435,List2B,white,woman,,,,null,,,,
null,"<img src=""stim_listB/shout8.gif""style=""height:400px;""></stim_listB>",,html-keyboard-response,337,1666897,0.0-19.0-1.3,19435,List2B,white,woman,,,,null,,,,
null,are shouting at each other,,html-keyboard-response,338,1668900,0.0-19.0-2.3,19435,List2B,white,woman,,,,null,,,,
7705,,,survey-text,339,1676607,0.0-19.0-3.3,19435,List2B,white,woman,,,,,"{""Q0"":""Kate and Jane are shouting at each other""}","<img src=""stim_listB/shout8.gif""style=""height:400px;""></stim_listB>",are shouting at each other,
null,"<div style=""font-size:60px;"">+</div>",,html-keyboard-response,340,1677110,0.0-19.0-0.4,19435,List2B,white,woman,,,,null,,,,
null,"<img src=""stim_listB/fight7.gif""style=""height:400px;""></stim_listB>",,html-keyboard-response,341,1679111,0.0-19.0-1.4,19435,List2B,white,woman,,,,null,,,,
null,is fighting,,html-keyboard-response,342,1681113,0.0-19.0-2.4,19435,List2B,white,woman,,,,null,,,,
5212,,,survey-text,343,1686327,0.0-19.0-3.4,19435,List2B,white,woman,,,,,"{""Q0"":""Jane is fighting Kate""}","<img src=""stim_listB/fight7.gif""style=""height:400px;""></stim_listB>",is fighting,
null,"<div style=""font-size:60px;"">+</div>",,html-keyboard-response,344,1686830,0.0-19.0-0.5,19435,List2B,white,woman,,,,null,,,,
null,"<img src=""stim_listB/dance6.gif""style=""height:400px;""></stim_listB>",,html-keyboard-response,345,1688833,0.0-19.0-1.5,19435,List2B,white,woman,,,,null,,,,
null,are dancing with each other,,html-keyboard-response,346,1690835,0.0-19.0-2.5,19435,List2B,white,woman,,,,null,,,,
7245,,,survey-text,347,1698083,0.0-19.0-3.5,19435,List2B,white,woman,,,,,"{""Q0"":""Fred and Dave are dancing with each other""}","<img src=""stim_listB/dance6.gif""style=""height:400px;""></stim_listB>",are dancing with each other,
null,"<div style=""font-size:60px;"">+</div>",,html-keyboard-response,348,1698586,0.0-19.0-0.6,19435,List2B,white,woman,,,,null,,,,
null,"<img src=""stim_listB/argue8.gif""style=""height:400px;""></stim_listB>",,html-keyboard-response,349,1700589,0.0-19.0-1.6,19435,List2B,white,woman,,,,null,,,,
null,are arguing with each other,,html-keyboard-response,350,1702591,0.0-19.0-2.6,19435,List2B,white,woman,,,,null,,,,
8446,,,survey-text,351,1711039,0.0-19.0-3.6,19435,List2B,white,woman,,,,,"{""Q0"":""Kate and Ruth are arguing with each other""}","<img src=""stim_listB/argue8.gif""style=""height:400px;""></stim_listB>",are arguing with each other,
null,"<div style=""font-size:60px;"">+</div>",,html-keyboard-response,352,1711541,0.0-19.0-0.7,19435,List2B,white,woman,,,,null,,,,
null,"<img src=""stim_listB/play4.gif""style=""height:400px;""></stim_listB>",,html-keyboard-response,353,1713544,0.0-19.0-1.7,19435,List2B,white,woman,,,,null,,,,
null,are playing with each other,,html-keyboard-response,354,1715545,0.0-19.0-2.7,19435,List2B,white,woman,,,,null,,,,
7913,,,survey-text,355,1723460,0.0-19.0-3.7,19435,List2B,white,woman,,,,,"{""Q0"":""Beth and Fred are playing with each other""}","<img src=""stim_listB/play4.gif""style=""height:400px;""></stim_listB>",are playing with each other,
null,"<div style=""font-size:60px;"">+</div>",,html-keyboard-response,356,1723962,0.0-19.0-0.8,19435,List2B,white,woman,,,,null,,,,
null,"<img src=""stim_listB/dance1.gif""style=""height:400px;""></stim_listB>",,html-keyboard-response,357,1725965,0.0-19.0-1.8,19435,List2B,white,woman,,,,null,,,,
null,is dancing with,,html-keyboard-response,358,1727967,0.0-19.0-2.8,19435,List2B,white,woman,,,,null,,,,
6824,,,survey-text,359,1734794,0.0-19.0-3.8,19435,List2B,white,woman,,,,,"{""Q0"":""Luke is dancing with Jane""}","<img src=""stim_listB/dance1.gif""style=""height:400px;""></stim_listB>",is dancing with,
null,"<div style=""font-size:60px;"">+</div>",,html-keyboard-response,360,1735296,0.0-19.0-0.9,19435,List2B,white,woman,,,,null,,,,
null,"<img src=""stim_listB/marry7.gif""style=""height:400px;""></stim_listB>",,html-keyboard-response,361,1737300,0.0-19.0-1.9,19435,List2B,white,woman,,,,null,,,,
null,is marrying,,html-keyboard-response,362,1739302,0.0-19.0-2.9,19435,List2B,white,woman,,,,null,,,,
5157,,,survey-text,363,1744462,0.0-19.0-3.9,19435,List2B,white,woman,,,,,"{""Q0"":""Jane is marrying Beth""}","<img src=""stim_listB/marry7.gif""style=""height:400px;""></stim_listB>",is marrying,
null,"<div style=""font-size:60px;"">+</div>",,html-keyboard-response,364,1744964,0.0-19.0-0.10,19435,List2B,white,woman,,,,null,,,,
null,"<img src=""stim_listB/marry6.gif""style=""height:400px;""></stim_listB>",,html-keyboard-response,365,1746967,0.0-19.0-1.10,19435,List2B,white,woman,,,,null,,,,
null,are marrying each other,,html-keyboard-response,366,1748969,0.0-19.0-2.10,19435,List2B,white,woman,,,,null,,,,
9045,,,survey-text,367,1758016,0.0-19.0-3.10,19435,List2B,white,woman,,,,,"{""Q0"":""Mike and Luke are marrying each other""}","<img src=""stim_listB/marry6.gif""style=""height:400px;""></stim_listB>",are marrying each other,
null,"<div style=""font-size:60px;"">+</div>",,html-keyboard-response,368,1758517,0.0-19.0-0.11,19435,List2B,white,woman,,,,null,,,,
null,"<img src=""stim_listB/talk8.gif""style=""height:400px;""></stim_listB>",,html-keyboard-response,369,1760519,0.0-19.0-1.11,19435,List2B,white,woman,,,,null,,,,
null,are talking to each other,,html-keyboard-response,370,1762522,0.0-19.0-2.11,19435,List2B,white,woman,,,,null,,,,
7677,,,survey-text,371,1770201,0.0-19.0-3.11,19435,List2B,white,woman,,,,,"{""Q0"":""Beth and Jane are talking to each other""}","<img src=""stim_listB/talk8.gif""style=""height:400px;""></stim_listB>",are talking to each other,
null,"<div style=""font-size:60px;"">+</div>",,html-keyboard-response,372,1770704,0.0-19.0-0.12,19435,List2B,white,woman,,,,null,,,,
null,"<img src=""stim_listB/flirt2.gif""style=""height:400px;""></stim_listB>",,html-keyboard-response,373,1772707,0.0-19.0-1.12,19435,List2B,white,woman,,,,null,,,,
null,are flirting with each other,,html-keyboard-response,374,1774709,0.0-19.0-2.12,19435,List2B,white,woman,,,,null,,,,
56828,,,survey-text,375,1831541,0.0-19.0-3.12,19435,List2B,white,woman,,,,,"{""Q0"":""Ruth and Dave are flirting with each other""}","<img src=""stim_listB/flirt2.gif""style=""height:400px;""></stim_listB>",are flirting with each other,
null,"<div style=""font-size:60px;"">+</div>",,html-keyboard-response,376,1832044,0.0-19.0-0.13,19435,List2B,white,woman,,,,null,,,,
null,"<img src=""stim_listB/fight8.gif""style=""height:400px;""></stim_listB>",,html-keyboard-response,377,1834046,0.0-19.0-1.13,19435,List2B,white,woman,,,,null,,,,
null,are fighting each other,,html-keyboard-response,378,1836048,0.0-19.0-2.13,19435,List2B,white,woman,,,,null,,,,
8461,,,survey-text,379,1844512,0.0-19.0-3.13,19435,List2B,white,woman,,,,,"{""Q0"":""Beth and Ruth are fighting each other""}","<img src=""stim_listB/fight8.gif""style=""height:400px;""></stim_listB>",are fighting each other,
null,"<div style=""font-size:60px;"">+</div>",,html-keyboard-response,380,1845014,0.0-19.0-0.14,19435,List2B,white,woman,,,,null,,,,
null,"<img src=""stim_listB/argue4.gif""style=""height:400px;""></stim_listB>",,html-keyboard-response,381,1847017,0.0-19.0-1.14,19435,List2B,white,woman,,,,null,,,,
null,are arguing with each other,,html-keyboard-response,382,1849019,0.0-19.0-2.14,19435,List2B,white,woman,,,,null,,,,
7383,,,survey-text,383,1856406,0.0-19.0-3.14,19435,List2B,white,woman,,,,,"{""Q0"":""Kate and Fred are arguing with each other""}","<img src=""stim_listB/argue4.gif""style=""height:400px;""></stim_listB>",are arguing with each other,
null,"<div style=""font-size:60px;"">+</div>",,html-keyboard-response,384,1856908,0.0-19.0-0.15,19435,List2B,white,woman,,,,null,,,,
null,"<img src=""stim_listB/argue3.gif""style=""height:400px;""></stim_listB>",,html-keyboard-response,385,1858911,0.0-19.0-1.15,19435,List2B,white,woman,,,,null,,,,
null,is arguing with,,html-keyboard-response,386,1860913,0.0-19.0-2.15,19435,List2B,white,woman,,,,null,,,,
6429,,,survey-text,387,1867346,0.0-19.0-3.15,19435,List2B,white,woman,,,,,"{""Q0"":""Mike is arguing with Beth""}","<img src=""stim_listB/argue3.gif""style=""height:400px;""></stim_listB>",is arguing with,
null,"<div style=""font-size:60px;"">+</div>",,html-keyboard-response,388,1867849,0.0-19.0-0.16,19435,List2B,white,woman,,,,null,,,,
null,"<img src=""stim_listB/dance7.gif""style=""height:400px;""></stim_listB>",,html-keyboard-response,389,1869852,0.0-19.0-1.16,19435,List2B,white,woman,,,,null,,,,
null,is dancing with,,html-keyboard-response,390,1871854,0.0-19.0-2.16,19435,List2B,white,woman,,,,null,,,,
8917,,,survey-text,391,1880772,0.0-19.0-3.16,19435,List2B,white,woman,,,,,"{""Q0"":""Ruth is dancing with Kate""}","<img src=""stim_listB/dance7.gif""style=""height:400px;""></stim_listB>",is dancing with,
null,"<div style=""font-size:60px;"">+</div>",,html-keyboard-response,392,1881273,0.0-19.0-0.17,19435,List2B,white,woman,,,,null,,,,
null,"<img src=""stim_listB/talk5.gif""style=""height:400px;""></stim_listB>",,html-keyboard-response,393,1883276,0.0-19.0-1.17,19435,List2B,white,woman,,,,null,,,,
null,is talking to,,html-keyboard-response,394,1885278,0.0-19.0-2.17,19435,List2B,white,woman,,,,null,,,,
5248,,,survey-text,395,1890529,0.0-19.0-3.17,19435,List2B,white,woman,,,,,"{""Q0"":""Luke is talking to Mike""}","<img src=""stim_listB/talk5.gif""style=""height:400px;""></stim_listB>",is talking to,
null,"<div style=""font-size:60px;"">+</div>",,html-keyboard-response,396,1891032,0.0-19.0-0.18,19435,List2B,white,woman,,,,null,,,,
null,"<img src=""stim_listB/talk7.gif""style=""height:400px;""></stim_listB>",,html-keyboard-response,397,1893035,0.0-19.0-1.18,19435,List2B,white,woman,,,,null,,,,
null,is talking to,,html-keyboard-response,398,1895037,0.0-19.0-2.18,19435,List2B,white,woman,,,,null,,,,
5558,,,survey-text,399,1900597,0.0-19.0-3.18,19435,List2B,white,woman,,,,,"{""Q0"":""Ruth is talking to Kate""}","<img src=""stim_listB/talk7.gif""style=""height:400px;""></stim_listB>",is talking to,
null,"<div style=""font-size:60px;"">+</div>",,html-keyboard-response,400,1901100,0.0-19.0-0.19,19435,List2B,white,woman,,,,null,,,,
null,"<img src=""stim_listB/fight6.gif""style=""height:400px;""></stim_listB>",,html-keyboard-response,401,1903102,0.0-19.0-1.19,19435,List2B,white,woman,,,,null,,,,
null,are fighting each other,,html-keyboard-response,402,1905103,0.0-19.0-2.19,19435,List2B,white,woman,,,,null,,,,
7403,,,survey-text,403,1912507,0.0-19.0-3.19,19435,List2B,white,woman,,,,,"{""Q0"":""Fred and Luke are fighting each other""}","<img src=""stim_listB/fight6.gif""style=""height:400px;""></stim_listB>",are fighting each other,
2314,<p>Thank you for completing that task.</p><p>The final part of this session is a short questionnaire.</p><p>Press Continue.</p>,0,html-button-response,404,1914823,0.0-20.0,19435,List2B,white,woman,,,,,,,,
15946,,,survey-text,405,1931775,0.0-21.0,19435,List2B,white,woman,,,,,"{""Q0"":""29"",""Q1"":""English"",""Q2"":""English"",""Q3"":""England"",""Q4"":""Caucasion"",""Q5"":""Female""}",,,demographics
23184,,,survey-likert,406,1954968,0.0-22.0,19435,List2B,white,woman,,,,,"{""Q0"":4}",,,likert_ESS
6040,,,survey-likert,407,1961021,0.0-23.0,19435,List2B,white,woman,,,,,"{""Q0"":4}",,,likert_NSSAL_Q1
3000,,,survey-likert,408,1964027,0.0-24.0,19435,List2B,white,woman,,,,,"{""Q0"":4}",,,likert_NSSAL_Q2
2310,,,survey-likert,409,1966351,0.0-25.0,19435,List2B,white,woman,,,,,"{""Q0"":4}",,,likert_CGRS_Q1
1823,,,survey-likert,410,1968191,0.0-26.0,19435,List2B,white,woman,,,,,"{""Q0"":4}",,,likert_CGRS_Q2
2323,,,survey-likert,411,1970531,0.0-27.0,19435,List2B,white,woman,,,,,"{""Q0"":4}",,,likert_CGRS_Q3
8287,,,survey-text,412,1978835,0.0-28.0,19435,List2B,white,woman,,,,,"{""Q0"":""ccc""}",,,worker_id
21536,,,external-html,413,2000439,0.0-29.0,19435,List2B,white,woman,debrief.html,,,,,,,
