rt,stimulus,button_pressed,trial_type,trial_index,time_elapsed,internal_node_id,subject,list,ppt_race,ppt_gender,url,first_guess,correct,key_press,responses,image_type,phrase_type,test_part
4611,Welcome to the experiment. Press Continue to begin.,0,html-button-response,0,4619,0.0-0.0,19901,List2B,black,woman,,,,,,,,
13511,,,external-html,1,19268,0.0-1.0,19901,List2B,black,woman,consent.html,,,,,,,
37615,"<p>On the next page, you will see portraits of 8 people and their names.</p><p>Your first task is to take a few minutes to memorise the names of these people.</p><p>You will have to recall their names during the rest of the experiment, so it is</p><p>essential that you try to memorise these people and their names as best as you can.</p><br><p><strong>You will then be tested on your memory of these names and portraits.</strong></p><br><p>The experiment will start after you have completed this memory test.</p><br><p>Ready?</p>",0,html-button-response,2,56886,0.0-2.0,19901,List2B,black,woman,,,,,,,,
128244,"<img src='img/portrait_matrix_list2.jpg' style='width:900px;height:500px;''></img><p>If you have memorised all the portraits and names and are ready to start, press Continue.</p><p><strong>Please note: Your memory of these faces will be tested 4 times during this experiment.</strong></p>",0,html-button-response,3,186140,0.0-3.0-0.0,19901,List2B,black,woman,,,,,,,,
2702,"<img src=""portrait/WW2.jpg""style=""height:400px;""></img>",3,html-button-response,4,189858,0.0-3.0-1.0,19901,List2B,black,woman,,TRUE,3,,,,,
null,CORRECT,,html-keyboard-response,5,191388,0.0-3.0-2.0-0.0,19901,List2B,black,woman,,,,null,,,,
2920,"<img src=""portrait/BM1.jpg""style=""height:400px;""></img>",4,html-button-response,6,194312,0.0-3.0-4.0,19901,List2B,black,woman,,TRUE,4,,,,,
null,CORRECT,,html-keyboard-response,7,195837,0.0-3.0-5.0-0.0,19901,List2B,black,woman,,,,null,,,,
3183,"<img src=""portrait/BW2.jpg""style=""height:400px;""></img>",2,html-button-response,8,199022,0.0-3.0-7.0,19901,List2B,black,woman,,TRUE,2,,,,,
null,CORRECT,,html-keyboard-response,9,200550,0.0-3.0-8.0-0.0,19901,List2B,black,woman,,,,null,,,,
5763,"<img src=""portrait/WW1.jpg""style=""height:400px;""></img>",1,html-button-response,10,206314,0.0-3.0-10.0,19901,List2B,black,woman,,TRUE,1,,,,,
null,CORRECT,,html-keyboard-response,11,207833,0.0-3.0-11.0-0.0,19901,List2B,black,woman,,,,null,,,,
4160,"<img src=""portrait/WM2.jpg""style=""height:400px;""></img>",7,html-button-response,12,211995,0.0-3.0-13.0,19901,List2B,black,woman,,TRUE,7,,,,,
null,CORRECT,,html-keyboard-response,13,213516,0.0-3.0-14.0-0.0,19901,List2B,black,woman,,,,null,,,,
3515,"<img src=""portrait/BW1.jpg""style=""height:400px;""></img>",0,html-button-response,14,217034,0.0-3.0-16.0,19901,List2B,black,woman,,TRUE,0,,,,,
null,CORRECT,,html-keyboard-response,15,218561,0.0-3.0-17.0-0.0,19901,List2B,black,woman,,,,null,,,,
3356,"<img src=""portrait/WM1.jpg""style=""height:400px;""></img>",6,html-button-response,16,221919,0.0-3.0-19.0,19901,List2B,black,woman,,TRUE,6,,,,,
null,CORRECT,,html-keyboard-response,17,223443,0.0-3.0-20.0-0.0,19901,List2B,black,woman,,,,null,,,,
2430,"<img src=""portrait/BM2.jpg""style=""height:400px;""></img>",5,html-button-response,18,225876,0.0-3.0-22.0,19901,List2B,black,woman,,TRUE,5,,,,,
null,CORRECT,,html-keyboard-response,19,227408,0.0-3.0-23.0-0.0,19901,List2B,black,woman,,,,null,,,,
2074,<p>You got 8 out of 8 right first time. Press Continue.</p>,0,html-button-response,20,229485,0.0-3.0-25.0,19901,List2B,black,woman,,,,,,,,
35006,"<p>In this experiment, you will view photographs of the people from the memory game interacting.</p><p>By using the <strong>exact</strong> phrase given <i>after</i> the photograph appears and recalling the correct names of the people in the photographs, form a sentence describing the interaction. You do not need to capitalise names.</p><p>Type your answer in the space provided. Please complete every sentence before moving onto the next trial.</p><p>You will only have a few seconds to memorise each given photograph and phrase before you can respond, so try your best to focus.</p><p>An example is given below. Press 'Continue' when you are ready.</p><img src='img/speaking_example.jpg' style='width:800px;height:460px;''></img>",0,html-button-response,21,265506,0.0-4.0,19901,List2B,black,woman,,,,,,,,
2185,"<p>Before the experiment starts, you will watch two example trials. Press 'Continue'.</p>",0,html-button-response,22,268703,0.0-5.0,19901,List2B,black,woman,,,,,,,,
null,<img src='img/meet_eg.gif' style='height:400px;''></img>,,html-keyboard-response,23,271721,0.0-6.0,19901,List2B,black,woman,,,,null,,,,
null,<p>is meeting</p>,,html-keyboard-response,24,273732,0.0-7.0,19901,List2B,black,woman,,,,null,,,,
3908,<p><b>Answer:</b> jane is meeting ruth</p>,0,html-button-response,25,277642,0.0-8.0,19901,List2B,black,woman,,,,,,,,
null,<img src='img/look_eg.gif' style='height:400px;''></img>,,html-keyboard-response,26,280653,0.0-9.0,19901,List2B,black,woman,,,,null,,,,
null,<p>are looking at each other</p>,,html-keyboard-response,27,282667,0.0-10.0,19901,List2B,black,woman,,,,null,,,,
4413,<p><b>Answer:</b> fred and mike are looking at each other</p>,0,html-button-response,28,287082,0.0-11.0,19901,List2B,black,woman,,,,,,,,
10351,"<p>Ready to start the experiment?</p><br><p><strong>Remember to describe the picture using a full sentence,</strong></p><p><strong>that combines the names of the people with the <i>exact</i> phrase given.</strong></p><p><strong>To receive full payment you must do this correctly.</strong></p><p><strong> You do not need to capitalise names or use punctuation.</strong></p><br><p>Press 'Continue' to begin.</p>",0,html-button-response,29,298450,0.0-12.0,19901,List2B,black,woman,,,,,,,,
null,"<div style=""font-size:60px;"">+</div>",,html-keyboard-response,30,299978,0.0-13.0-0.0,19901,List2B,black,woman,,,,null,,,,
null,"<img src=""stim_listB/shout3.gif""style=""height:400px;""></stim_listB>",,html-keyboard-response,31,301981,0.0-13.0-1.0,19901,List2B,black,woman,,,,null,,,,
null,is shouting at,,html-keyboard-response,32,303982,0.0-13.0-2.0,19901,List2B,black,woman,,,,null,,,,
26522,,,survey-text,33,330507,0.0-13.0-3.0,19901,List2B,black,woman,,,,,"{""Q0"":""beth and fred are shouting at each other""}","<img src=""stim_listB/shout3.gif""style=""height:400px;""></stim_listB>",is shouting at,
null,"<div style=""font-size:60px;"">+</div>",,html-keyboard-response,34,331022,0.0-13.0-0.1,19901,List2B,black,woman,,,,null,,,,
null,"<img src=""stim_listB/play1.gif""style=""height:400px;""></stim_listB>",,html-keyboard-response,35,333023,0.0-13.0-1.1,19901,List2B,black,woman,,,,null,,,,
null,is playing with,,html-keyboard-response,36,335025,0.0-13.0-2.1,19901,List2B,black,woman,,,,null,,,,
12039,,,survey-text,37,347066,0.0-13.0-3.1,19901,List2B,black,woman,,,,,"{""Q0"":""dave is playing with jane""}","<img src=""stim_listB/play1.gif""style=""height:400px;""></stim_listB>",is playing with,
null,"<div style=""font-size:60px;"">+</div>",,html-keyboard-response,38,347570,0.0-13.0-0.2,19901,List2B,black,woman,,,,null,,,,
null,"<img src=""stim_listB/dance5.gif""style=""height:400px;""></stim_listB>",,html-keyboard-response,39,349573,0.0-13.0-1.2,19901,List2B,black,woman,,,,null,,,,
null,is dancing with,,html-keyboard-response,40,351586,0.0-13.0-2.2,19901,List2B,black,woman,,,,null,,,,
14646,,,survey-text,41,366234,0.0-13.0-3.2,19901,List2B,black,woman,,,,,"{""Q0"":""mike is dancing with luke""}","<img src=""stim_listB/dance5.gif""style=""height:400px;""></stim_listB>",is dancing with,
null,"<div style=""font-size:60px;"">+</div>",,html-keyboard-response,42,366749,0.0-13.0-0.3,19901,List2B,black,woman,,,,null,,,,
null,"<img src=""stim_listB/shout4.gif""style=""height:400px;""></stim_listB>",,html-keyboard-response,43,368753,0.0-13.0-1.3,19901,List2B,black,woman,,,,null,,,,
null,are shouting at each other,,html-keyboard-response,44,370765,0.0-13.0-2.3,19901,List2B,black,woman,,,,null,,,,
26326,,,survey-text,45,397091,0.0-13.0-3.3,19901,List2B,black,woman,,,,,"{""Q0"":""kate and mike are shouting at each other""}","<img src=""stim_listB/shout4.gif""style=""height:400px;""></stim_listB>",are shouting at each other,
null,"<div style=""font-size:60px;"">+</div>",,html-keyboard-response,46,397609,0.0-13.0-0.4,19901,List2B,black,woman,,,,null,,,,
null,"<img src=""stim_listB/fight3.gif""style=""height:400px;""></stim_listB>",,html-keyboard-response,47,399613,0.0-13.0-1.4,19901,List2B,black,woman,,,,null,,,,
null,is fighting,,html-keyboard-response,48,401626,0.0-13.0-2.4,19901,List2B,black,woman,,,,null,,,,
8287,,,survey-text,49,409915,0.0-13.0-3.4,19901,List2B,black,woman,,,,,"{""Q0"":""mike is fighting kate""}","<img src=""stim_listB/fight3.gif""style=""height:400px;""></stim_listB>",is fighting,
null,"<div style=""font-size:60px;"">+</div>",,html-keyboard-response,50,410426,0.0-13.0-0.5,19901,List2B,black,woman,,,,null,,,,
null,"<img src=""stim_listB/play3.gif""style=""height:400px;""></stim_listB>",,html-keyboard-response,51,412429,0.0-13.0-1.5,19901,List2B,black,woman,,,,null,,,,
null,is playing with,,html-keyboard-response,52,414442,0.0-13.0-2.5,19901,List2B,black,woman,,,,null,,,,
12544,,,survey-text,53,426988,0.0-13.0-3.5,19901,List2B,black,woman,,,,,"{""Q0"":""mike is playing with kate""}","<img src=""stim_listB/play3.gif""style=""height:400px;""></stim_listB>",is playing with,
null,"<div style=""font-size:60px;"">+</div>",,html-keyboard-response,54,427504,0.0-13.0-0.6,19901,List2B,black,woman,,,,null,,,,
null,"<img src=""stim_listB/kiss3.gif""style=""height:400px;""></stim_listB>",,html-keyboard-response,55,429507,0.0-13.0-1.6,19901,List2B,black,woman,,,,null,,,,
null,is kissing,,html-keyboard-response,56,431524,0.0-13.0-2.6,19901,List2B,black,woman,,,,null,,,,
9970,,,survey-text,57,441496,0.0-13.0-3.6,19901,List2B,black,woman,,,,,"{""Q0"":""fred and beth are kissing""}","<img src=""stim_listB/kiss3.gif""style=""height:400px;""></stim_listB>",is kissing,
null,"<div style=""font-size:60px;"">+</div>",,html-keyboard-response,58,442003,0.0-13.0-0.7,19901,List2B,black,woman,,,,null,,,,
null,"<img src=""stim_listB/dance6.gif""style=""height:400px;""></stim_listB>",,html-keyboard-response,59,444008,0.0-13.0-1.7,19901,List2B,black,woman,,,,null,,,,
null,are dancing with each other,,html-keyboard-response,60,446010,0.0-13.0-2.7,19901,List2B,black,woman,,,,null,,,,
11983,,,survey-text,61,457995,0.0-13.0-3.7,19901,List2B,black,woman,,,,,"{""Q0"":""fred and dave are dancing with each other""}","<img src=""stim_listB/dance6.gif""style=""height:400px;""></stim_listB>",are dancing with each other,
null,"<div style=""font-size:60px;"">+</div>",,html-keyboard-response,62,458499,0.0-13.0-0.8,19901,List2B,black,woman,,,,null,,,,
null,"<img src=""stim_listB/play4.gif""style=""height:400px;""></stim_listB>",,html-keyboard-response,63,460503,0.0-13.0-1.8,19901,List2B,black,woman,,,,null,,,,
null,are playing with each other,,html-keyboard-response,64,462505,0.0-13.0-2.8,19901,List2B,black,woman,,,,null,,,,
9523,,,survey-text,65,472030,0.0-13.0-3.8,19901,List2B,black,woman,,,,,"{""Q0"":""Beth and Fred are playing with each other""}","<img src=""stim_listB/play4.gif""style=""height:400px;""></stim_listB>",are playing with each other,
null,"<div style=""font-size:60px;"">+</div>",,html-keyboard-response,66,472546,0.0-13.0-0.9,19901,List2B,black,woman,,,,null,,,,
null,"<img src=""stim_listB/shout1.gif""style=""height:400px;""></stim_listB>",,html-keyboard-response,67,474549,0.0-13.0-1.9,19901,List2B,black,woman,,,,null,,,,
null,is shouting at,,html-keyboard-response,68,476560,0.0-13.0-2.9,19901,List2B,black,woman,,,,null,,,,
11753,,,survey-text,69,488314,0.0-13.0-3.9,19901,List2B,black,woman,,,,,"{""Q0"":""Ruth is shouting at Luke""}","<img src=""stim_listB/shout1.gif""style=""height:400px;""></stim_listB>",is shouting at,
null,"<div style=""font-size:60px;"">+</div>",,html-keyboard-response,70,488824,0.0-13.0-0.10,19901,List2B,black,woman,,,,null,,,,
null,"<img src=""stim_listB/argue6.gif""style=""height:400px;""></stim_listB>",,html-keyboard-response,71,490826,0.0-13.0-1.10,19901,List2B,black,woman,,,,null,,,,
null,are arguing with each other,,html-keyboard-response,72,492841,0.0-13.0-2.10,19901,List2B,black,woman,,,,null,,,,
9721,,,survey-text,73,502564,0.0-13.0-3.10,19901,List2B,black,woman,,,,,"{""Q0"":""Mike and Luke are arguing with each other""}","<img src=""stim_listB/argue6.gif""style=""height:400px;""></stim_listB>",are arguing with each other,
null,"<div style=""font-size:60px;"">+</div>",,html-keyboard-response,74,503072,0.0-13.0-0.11,19901,List2B,black,woman,,,,null,,,,
null,"<img src=""stim_listB/flirt7.gif""style=""height:400px;""></stim_listB>",,html-keyboard-response,75,505075,0.0-13.0-1.11,19901,List2B,black,woman,,,,null,,,,
null,is flirting with,,html-keyboard-response,76,507091,0.0-13.0-2.11,19901,List2B,black,woman,,,,null,,,,
9652,,,survey-text,77,516745,0.0-13.0-3.11,19901,List2B,black,woman,,,,,"{""Q0"":""Beth is flirting with Ruth""}","<img src=""stim_listB/flirt7.gif""style=""height:400px;""></stim_listB>",is flirting with,
null,"<div style=""font-size:60px;"">+</div>",,html-keyboard-response,78,517254,0.0-13.0-0.12,19901,List2B,black,woman,,,,null,,,,
null,"<img src=""stim_listB/fight7.gif""style=""height:400px;""></stim_listB>",,html-keyboard-response,79,519258,0.0-13.0-1.12,19901,List2B,black,woman,,,,null,,,,
null,is fighting,,html-keyboard-response,80,521262,0.0-13.0-2.12,19901,List2B,black,woman,,,,null,,,,
12898,,,survey-text,81,534162,0.0-13.0-3.12,19901,List2B,black,woman,,,,,"{""Q0"":""Jane is fighting Kate""}","<img src=""stim_listB/fight7.gif""style=""height:400px;""></stim_listB>",is fighting,
null,"<div style=""font-size:60px;"">+</div>",,html-keyboard-response,82,534666,0.0-13.0-0.13,19901,List2B,black,woman,,,,null,,,,
null,"<img src=""stim_listB/dance2.gif""style=""height:400px;""></stim_listB>",,html-keyboard-response,83,536668,0.0-13.0-1.13,19901,List2B,black,woman,,,,null,,,,
null,are dancing with each other,,html-keyboard-response,84,538670,0.0-13.0-2.13,19901,List2B,black,woman,,,,null,,,,
12167,,,survey-text,85,550839,0.0-13.0-3.13,19901,List2B,black,woman,,,,,"{""Q0"":""Ruth and Dave are dancing with each other""}","<img src=""stim_listB/dance2.gif""style=""height:400px;""></stim_listB>",are dancing with each other,
null,"<div style=""font-size:60px;"">+</div>",,html-keyboard-response,86,551346,0.0-13.0-0.14,19901,List2B,black,woman,,,,null,,,,
null,"<img src=""stim_listB/flirt5.gif""style=""height:400px;""></stim_listB>",,html-keyboard-response,87,553349,0.0-13.0-1.14,19901,List2B,black,woman,,,,null,,,,
null,is flirting with,,html-keyboard-response,88,555363,0.0-13.0-2.14,19901,List2B,black,woman,,,,null,,,,
10004,,,survey-text,89,565369,0.0-13.0-3.14,19901,List2B,black,woman,,,,,"{""Q0"":""Luke is flirting with Mike""}","<img src=""stim_listB/flirt5.gif""style=""height:400px;""></stim_listB>",is flirting with,
null,"<div style=""font-size:60px;"">+</div>",,html-keyboard-response,90,565877,0.0-13.0-0.15,19901,List2B,black,woman,,,,null,,,,
null,"<img src=""stim_listB/fight5.gif""style=""height:400px;""></stim_listB>",,html-keyboard-response,91,567882,0.0-13.0-1.15,19901,List2B,black,woman,,,,null,,,,
null,is fighting,,html-keyboard-response,92,569894,0.0-13.0-2.15,19901,List2B,black,woman,,,,null,,,,
24544,,,survey-text,93,594440,0.0-13.0-3.15,19901,List2B,black,woman,,,,,"{""Q0"":""luke is fighting mike""}","<img src=""stim_listB/fight5.gif""style=""height:400px;""></stim_listB>",is fighting,
null,"<div style=""font-size:60px;"">+</div>",,html-keyboard-response,94,594956,0.0-13.0-0.16,19901,List2B,black,woman,,,,null,,,,
null,"<img src=""stim_listB/talk7.gif""style=""height:400px;""></stim_listB>",,html-keyboard-response,95,596959,0.0-13.0-1.16,19901,List2B,black,woman,,,,null,,,,
null,is talking to,,html-keyboard-response,96,598976,0.0-13.0-2.16,19901,List2B,black,woman,,,,null,,,,
12313,,,survey-text,97,611291,0.0-13.0-3.16,19901,List2B,black,woman,,,,,"{""Q0"":""ruth is talking to kate""}","<img src=""stim_listB/talk7.gif""style=""height:400px;""></stim_listB>",is talking to,
null,"<div style=""font-size:60px;"">+</div>",,html-keyboard-response,98,611801,0.0-13.0-0.17,19901,List2B,black,woman,,,,null,,,,
null,"<img src=""stim_listB/kiss1.gif""style=""height:400px;""></stim_listB>",,html-keyboard-response,99,613804,0.0-13.0-1.17,19901,List2B,black,woman,,,,null,,,,
null,is kissing,,html-keyboard-response,100,615812,0.0-13.0-2.17,19901,List2B,black,woman,,,,null,,,,
14245,,,survey-text,101,630058,0.0-13.0-3.17,19901,List2B,black,woman,,,,,"{""Q0"":""luke is kissing kate""}","<img src=""stim_listB/kiss1.gif""style=""height:400px;""></stim_listB>",is kissing,
null,"<div style=""font-size:60px;"">+</div>",,html-keyboard-response,102,630565,0.0-13.0-0.18,19901,List2B,black,woman,,,,null,,,,
null,"<img src=""stim_listB/talk4.gif""style=""height:400px;""></stim_listB>",,html-keyboard-response,103,632569,0.0-13.0-1.18,19901,List2B,black,woman,,,,null,,,,
null,are talking to each other,,html-keyboard-response,104,634584,0.0-13.0-2.18,19901,List2B,black,woman,,,,null,,,,
10190,,,survey-text,105,644776,0.0-13.0-3.18,19901,List2B,black,woman,,,,,"{""Q0"":""Mike and Kate are talking to each other""}","<img src=""stim_listB/talk4.gif""style=""height:400px;""></stim_listB>",are talking to each other,
null,"<div style=""font-size:60px;"">+</div>",,html-keyboard-response,106,645285,0.0-13.0-0.19,19901,List2B,black,woman,,,,null,,,,
null,"<img src=""stim_listB/touch1.gif""style=""height:400px;""></stim_listB>",,html-keyboard-response,107,647287,0.0-13.0-1.19,19901,List2B,black,woman,,,,null,,,,
null,is touching,,html-keyboard-response,108,649305,0.0-13.0-2.19,19901,List2B,black,woman,,,,null,,,,
10684,,,survey-text,109,659991,0.0-13.0-3.19,19901,List2B,black,woman,,,,,"{""Q0"":""jane is touching dave""}","<img src=""stim_listB/touch1.gif""style=""height:400px;""></stim_listB>",is touching,
26941,"<img src='img/portrait_matrix_list2.jpg' style='width:900px;height:500px;''></img><p>If you have memorised all the portraits and names and are ready to start, press Continue.</p><p><strong>Please note: Your memory of these faces will be tested 4 times during this experiment.</strong></p>",0,html-button-response,110,686934,0.0-14.0-0.0,19901,List2B,black,woman,,,,,,,,
3742,"<img src=""portrait/BW2.jpg""style=""height:400px;""></img>",2,html-button-response,111,691686,0.0-14.0-1.0,19901,List2B,black,woman,,TRUE,2,,,,,
null,CORRECT,,html-keyboard-response,112,693206,0.0-14.0-2.0-0.0,19901,List2B,black,woman,,,,null,,,,
3081,"<img src=""portrait/WW1.jpg""style=""height:400px;""></img>",1,html-button-response,113,696289,0.0-14.0-4.0,19901,List2B,black,woman,,TRUE,1,,,,,
null,CORRECT,,html-keyboard-response,114,697807,0.0-14.0-5.0-0.0,19901,List2B,black,woman,,,,null,,,,
2000,"<img src=""portrait/BM2.jpg""style=""height:400px;""></img>",5,html-button-response,115,699809,0.0-14.0-7.0,19901,List2B,black,woman,,TRUE,5,,,,,
null,CORRECT,,html-keyboard-response,116,701348,0.0-14.0-8.0-0.0,19901,List2B,black,woman,,,,null,,,,
4543,"<img src=""portrait/WM1.jpg""style=""height:400px;""></img>",6,html-button-response,117,705894,0.0-14.0-10.0,19901,List2B,black,woman,,TRUE,6,,,,,
null,CORRECT,,html-keyboard-response,118,707413,0.0-14.0-11.0-0.0,19901,List2B,black,woman,,,,null,,,,
1941,"<img src=""portrait/WW2.jpg""style=""height:400px;""></img>",3,html-button-response,119,709357,0.0-14.0-13.0,19901,List2B,black,woman,,TRUE,3,,,,,
null,CORRECT,,html-keyboard-response,120,710865,0.0-14.0-14.0-0.0,19901,List2B,black,woman,,,,null,,,,
2057,"<img src=""portrait/BM1.jpg""style=""height:400px;""></img>",4,html-button-response,121,712924,0.0-14.0-16.0,19901,List2B,black,woman,,TRUE,4,,,,,
null,CORRECT,,html-keyboard-response,122,714445,0.0-14.0-17.0-0.0,19901,List2B,black,woman,,,,null,,,,
2625,"<img src=""portrait/WM2.jpg""style=""height:400px;""></img>",7,html-button-response,123,717080,0.0-14.0-19.0,19901,List2B,black,woman,,TRUE,7,,,,,
null,CORRECT,,html-keyboard-response,124,718610,0.0-14.0-20.0-0.0,19901,List2B,black,woman,,,,null,,,,
3502,"<img src=""portrait/BW1.jpg""style=""height:400px;""></img>",0,html-button-response,125,722114,0.0-14.0-22.0,19901,List2B,black,woman,,TRUE,0,,,,,
null,CORRECT,,html-keyboard-response,126,723644,0.0-14.0-23.0-0.0,19901,List2B,black,woman,,,,null,,,,
1865,<p>You got 8 out of 8 right first time. Press Continue.</p>,0,html-button-response,127,725512,0.0-14.0-25.0,19901,List2B,black,woman,,,,,,,,
null,"<div style=""font-size:60px;"">+</div>",,html-keyboard-response,128,727042,0.0-15.0-0.0,19901,List2B,black,woman,,,,null,,,,
null,"<img src=""stim_listB/dance3.gif""style=""height:400px;""></stim_listB>",,html-keyboard-response,129,729045,0.0-15.0-1.0,19901,List2B,black,woman,,,,null,,,,
null,is dancing with,,html-keyboard-response,130,731061,0.0-15.0-2.0,19901,List2B,black,woman,,,,null,,,,
8065,,,survey-text,131,739128,0.0-15.0-3.0,19901,List2B,black,woman,,,,,"{""Q0"":""Fred is dancing with Kate""}","<img src=""stim_listB/dance3.gif""style=""height:400px;""></stim_listB>",is dancing with,
null,"<div style=""font-size:60px;"">+</div>",,html-keyboard-response,132,739641,0.0-15.0-0.1,19901,List2B,black,woman,,,,null,,,,
null,"<img src=""stim_listB/marry1.gif""style=""height:400px;""></stim_listB>",,html-keyboard-response,133,741644,0.0-15.0-1.1,19901,List2B,black,woman,,,,null,,,,
null,is marrying,,html-keyboard-response,134,743659,0.0-15.0-2.1,19901,List2B,black,woman,,,,null,,,,
8276,,,survey-text,135,751937,0.0-15.0-3.1,19901,List2B,black,woman,,,,,"{""Q0"":""Ruth is marrying dave""}","<img src=""stim_listB/marry1.gif""style=""height:400px;""></stim_listB>",is marrying,
null,"<div style=""font-size:60px;"">+</div>",,html-keyboard-response,136,752454,0.0-15.0-0.2,19901,List2B,black,woman,,,,null,,,,
null,"<img src=""stim_listB/touch5.gif""style=""height:400px;""></stim_listB>",,html-keyboard-response,137,754457,0.0-15.0-1.2,19901,List2B,black,woman,,,,null,,,,
null,is touching,,html-keyboard-response,138,756470,0.0-15.0-2.2,19901,List2B,black,woman,,,,null,,,,
7884,,,survey-text,139,764356,0.0-15.0-3.2,19901,List2B,black,woman,,,,,"{""Q0"":""mike is touching dave""}","<img src=""stim_listB/touch5.gif""style=""height:400px;""></stim_listB>",is touching,
null,"<div style=""font-size:60px;"">+</div>",,html-keyboard-response,140,764864,0.0-15.0-0.3,19901,List2B,black,woman,,,,null,,,,
null,"<img src=""stim_listB/marry2.gif""style=""height:400px;""></stim_listB>",,html-keyboard-response,141,766867,0.0-15.0-1.3,19901,List2B,black,woman,,,,null,,,,
null,are marrying each other,,html-keyboard-response,142,768880,0.0-15.0-2.3,19901,List2B,black,woman,,,,null,,,,
16275,,,survey-text,143,785157,0.0-15.0-3.3,19901,List2B,black,woman,,,,,"{""Q0"":""jane and luke are marrying each other""}","<img src=""stim_listB/marry2.gif""style=""height:400px;""></stim_listB>",are marrying each other,
null,"<div style=""font-size:60px;"">+</div>",,html-keyboard-response,144,785660,0.0-15.0-0.4,19901,List2B,black,woman,,,,null,,,,
null,"<img src=""stim_listB/marry4.gif""style=""height:400px;""></stim_listB>",,html-keyboard-response,145,787664,0.0-15.0-1.4,19901,List2B,black,woman,,,,null,,,,
null,are marrying each other,,html-keyboard-response,146,789676,0.0-15.0-2.4,19901,List2B,black,woman,,,,null,,,,
8761,,,survey-text,147,798440,0.0-15.0-3.4,19901,List2B,black,woman,,,,,"{""Q0"":""Fred and kate are marrying each other""}","<img src=""stim_listB/marry4.gif""style=""height:400px;""></stim_listB>",are marrying each other,
null,"<div style=""font-size:60px;"">+</div>",,html-keyboard-response,148,798956,0.0-15.0-0.5,19901,List2B,black,woman,,,,null,,,,
null,"<img src=""stim_listB/touch8.gif""style=""height:400px;""></stim_listB>",,html-keyboard-response,149,800959,0.0-15.0-1.5,19901,List2B,black,woman,,,,null,,,,
null,are touching each other,,html-keyboard-response,150,802967,0.0-15.0-2.5,19901,List2B,black,woman,,,,null,,,,
8727,,,survey-text,151,811697,0.0-15.0-3.5,19901,List2B,black,woman,,,,,"{""Q0"":""beth and ruth are touching each other""}","<img src=""stim_listB/touch8.gif""style=""height:400px;""></stim_listB>",are touching each other,
null,"<div style=""font-size:60px;"">+</div>",,html-keyboard-response,152,812204,0.0-15.0-0.6,19901,List2B,black,woman,,,,null,,,,
null,"<img src=""stim_listB/play7.gif""style=""height:400px;""></stim_listB>",,html-keyboard-response,153,814208,0.0-15.0-1.6,19901,List2B,black,woman,,,,null,,,,
null,is playing with,,html-keyboard-response,154,816220,0.0-15.0-2.6,19901,List2B,black,woman,,,,null,,,,
14276,,,survey-text,155,830497,0.0-15.0-3.6,19901,List2B,black,woman,,,,,"{""Q0"":""kate is playing with jane""}","<img src=""stim_listB/play7.gif""style=""height:400px;""></stim_listB>",is playing with,
null,"<div style=""font-size:60px;"">+</div>",,html-keyboard-response,156,831014,0.0-15.0-0.7,19901,List2B,black,woman,,,,null,,,,
null,"<img src=""stim_listB/kiss4.gif""style=""height:400px;""></stim_listB>",,html-keyboard-response,157,833018,0.0-15.0-1.7,19901,List2B,black,woman,,,,null,,,,
null,are kissing each other,,html-keyboard-response,158,835032,0.0-15.0-2.7,19901,List2B,black,woman,,,,null,,,,
12506,,,survey-text,159,847539,0.0-15.0-3.7,19901,List2B,black,woman,,,,,"{""Q0"":""mike and kate are kissing each other""}","<img src=""stim_listB/kiss4.gif""style=""height:400px;""></stim_listB>",are kissing each other,
null,"<div style=""font-size:60px;"">+</div>",,html-keyboard-response,160,848044,0.0-15.0-0.8,19901,List2B,black,woman,,,,null,,,,
null,"<img src=""stim_listB/flirt2.gif""style=""height:400px;""></stim_listB>",,html-keyboard-response,161,850047,0.0-15.0-1.8,19901,List2B,black,woman,,,,null,,,,
null,are flirting with each other,,html-keyboard-response,162,852049,0.0-15.0-2.8,19901,List2B,black,woman,,,,null,,,,
10667,,,survey-text,163,862717,0.0-15.0-3.8,19901,List2B,black,woman,,,,,"{""Q0"":""Ruth and dave are flirting with each other""}","<img src=""stim_listB/flirt2.gif""style=""height:400px;""></stim_listB>",are flirting with each other,
null,"<div style=""font-size:60px;"">+</div>",,html-keyboard-response,164,863225,0.0-15.0-0.9,19901,List2B,black,woman,,,,null,,,,
null,"<img src=""stim_listB/argue7.gif""style=""height:400px;""></stim_listB>",,html-keyboard-response,165,865230,0.0-15.0-1.9,19901,List2B,black,woman,,,,null,,,,
null,is arguing with,,html-keyboard-response,166,867240,0.0-15.0-2.9,19901,List2B,black,woman,,,,null,,,,
9470,,,survey-text,167,876710,0.0-15.0-3.9,19901,List2B,black,woman,,,,,"{""Q0"":""jane is arguing with beth""}","<img src=""stim_listB/argue7.gif""style=""height:400px;""></stim_listB>",is arguing with,
null,"<div style=""font-size:60px;"">+</div>",,html-keyboard-response,168,877222,0.0-15.0-0.10,19901,List2B,black,woman,,,,null,,,,
null,"<img src=""stim_listB/dance4.gif""style=""height:400px;""></stim_listB>",,html-keyboard-response,169,879225,0.0-15.0-1.10,19901,List2B,black,woman,,,,null,,,,
null,are dancing with each other,,html-keyboard-response,170,881227,0.0-15.0-2.10,19901,List2B,black,woman,,,,null,,,,
10166,,,survey-text,171,891395,0.0-15.0-3.10,19901,List2B,black,woman,,,,,"{""Q0"":""beth and mike are dancing with each other""}","<img src=""stim_listB/dance4.gif""style=""height:400px;""></stim_listB>",are dancing with each other,
null,"<div style=""font-size:60px;"">+</div>",,html-keyboard-response,172,891907,0.0-15.0-0.11,19901,List2B,black,woman,,,,null,,,,
null,"<img src=""stim_listB/shout6.gif""style=""height:400px;""></stim_listB>",,html-keyboard-response,173,893910,0.0-15.0-1.11,19901,List2B,black,woman,,,,null,,,,
null,are shouting at each other,,html-keyboard-response,174,895924,0.0-15.0-2.11,19901,List2B,black,woman,,,,null,,,,
13036,,,survey-text,175,908963,0.0-15.0-3.11,19901,List2B,black,woman,,,,,"{""Q0"":""mike and dave are shouting at each other""}","<img src=""stim_listB/shout6.gif""style=""height:400px;""></stim_listB>",are shouting at each other,
null,"<div style=""font-size:60px;"">+</div>",,html-keyboard-response,176,909470,0.0-15.0-0.12,19901,List2B,black,woman,,,,null,,,,
null,"<img src=""stim_listB/shout2.gif""style=""height:400px;""></stim_listB>",,html-keyboard-response,177,911474,0.0-15.0-1.12,19901,List2B,black,woman,,,,null,,,,
null,are shouting at each other,,html-keyboard-response,178,913484,0.0-15.0-2.12,19901,List2B,black,woman,,,,null,,,,
11996,,,survey-text,179,925481,0.0-15.0-3.12,19901,List2B,black,woman,,,,,"{""Q0"":""dave and jane are shouting at each other""}","<img src=""stim_listB/shout2.gif""style=""height:400px;""></stim_listB>",are shouting at each other,
null,"<div style=""font-size:60px;"">+</div>",,html-keyboard-response,180,925999,0.0-15.0-0.13,19901,List2B,black,woman,,,,null,,,,
null,"<img src=""stim_listB/argue3.gif""style=""height:400px;""></stim_listB>",,html-keyboard-response,181,928002,0.0-15.0-1.13,19901,List2B,black,woman,,,,null,,,,
null,is arguing with,,html-keyboard-response,182,930015,0.0-15.0-2.13,19901,List2B,black,woman,,,,null,,,,
7990,,,survey-text,183,938007,0.0-15.0-3.13,19901,List2B,black,woman,,,,,"{""Q0"":""mike is arguing with beth""}","<img src=""stim_listB/argue3.gif""style=""height:400px;""></stim_listB>",is arguing with,
null,"<div style=""font-size:60px;"">+</div>",,html-keyboard-response,184,938513,0.0-15.0-0.14,19901,List2B,black,woman,,,,null,,,,
null,"<img src=""stim_listB/argue2.gif""style=""height:400px;""></stim_listB>",,html-keyboard-response,185,940517,0.0-15.0-1.14,19901,List2B,black,woman,,,,null,,,,
null,are arguing with each other,,html-keyboard-response,186,942531,0.0-15.0-2.14,19901,List2B,black,woman,,,,null,,,,
9379,,,survey-text,187,951913,0.0-15.0-3.14,19901,List2B,black,woman,,,,,"{""Q0"":""jane and luke are arguing with each other""}","<img src=""stim_listB/argue2.gif""style=""height:400px;""></stim_listB>",are arguing with each other,
null,"<div style=""font-size:60px;"">+</div>",,html-keyboard-response,188,952425,0.0-15.0-0.15,19901,List2B,black,woman,,,,null,,,,
null,"<img src=""stim_listB/touch2.gif""style=""height:400px;""></stim_listB>",,html-keyboard-response,189,954433,0.0-15.0-1.15,19901,List2B,black,woman,,,,null,,,,
null,are touching each other,,html-keyboard-response,190,956442,0.0-15.0-2.15,19901,List2B,black,woman,,,,null,,,,
12104,,,survey-text,191,968548,0.0-15.0-3.15,19901,List2B,black,woman,,,,,"{""Q0"":""ruth and luke are touching each other""}","<img src=""stim_listB/touch2.gif""style=""height:400px;""></stim_listB>",are touching each other,
null,"<div style=""font-size:60px;"">+</div>",,html-keyboard-response,192,969057,0.0-15.0-0.16,19901,List2B,black,woman,,,,null,,,,
null,"<img src=""stim_listB/argue8.gif""style=""height:400px;""></stim_listB>",,html-keyboard-response,193,971061,0.0-15.0-1.16,19901,List2B,black,woman,,,,null,,,,
null,are arguing with each other,,html-keyboard-response,194,973072,0.0-15.0-2.16,19901,List2B,black,woman,,,,null,,,,
12607,,,survey-text,195,985681,0.0-15.0-3.16,19901,List2B,black,woman,,,,,"{""Q0"":""Ruth and kate are arguing with each other""}","<img src=""stim_listB/argue8.gif""style=""height:400px;""></stim_listB>",are arguing with each other,
null,"<div style=""font-size:60px;"">+</div>",,html-keyboard-response,196,986186,0.0-15.0-0.17,19901,List2B,black,woman,,,,null,,,,
null,"<img src=""stim_listB/marry3.gif""style=""height:400px;""></stim_listB>",,html-keyboard-response,197,988189,0.0-15.0-1.17,19901,List2B,black,woman,,,,null,,,,
null,is marrying,,html-keyboard-response,198,990202,0.0-15.0-2.17,19901,List2B,black,woman,,,,null,,,,
10452,,,survey-text,199,1000655,0.0-15.0-3.17,19901,List2B,black,woman,,,,,"{""Q0"":""mike is marrying beth""}","<img src=""stim_listB/marry3.gif""style=""height:400px;""></stim_listB>",is marrying,
null,"<div style=""font-size:60px;"">+</div>",,html-keyboard-response,200,1001165,0.0-15.0-0.18,19901,List2B,black,woman,,,,null,,,,
null,"<img src=""stim_listB/talk3.gif""style=""height:400px;""></stim_listB>",,html-keyboard-response,201,1003169,0.0-15.0-1.18,19901,List2B,black,woman,,,,null,,,,
null,is talking to,,html-keyboard-response,202,1005185,0.0-15.0-2.18,19901,List2B,black,woman,,,,null,,,,
7367,,,survey-text,203,1012553,0.0-15.0-3.18,19901,List2B,black,woman,,,,,"{""Q0"":""kate is talking to fred""}","<img src=""stim_listB/talk3.gif""style=""height:400px;""></stim_listB>",is talking to,
null,"<div style=""font-size:60px;"">+</div>",,html-keyboard-response,204,1013066,0.0-15.0-0.19,19901,List2B,black,woman,,,,null,,,,
null,"<img src=""stim_listB/fight6.gif""style=""height:400px;""></stim_listB>",,html-keyboard-response,205,1015069,0.0-15.0-1.19,19901,List2B,black,woman,,,,null,,,,
null,are fighting each other,,html-keyboard-response,206,1017078,0.0-15.0-2.19,19901,List2B,black,woman,,,,null,,,,
16083,,,survey-text,207,1033162,0.0-15.0-3.19,19901,List2B,black,woman,,,,,"{""Q0"":""luke and fred are fighting each other""}","<img src=""stim_listB/fight6.gif""style=""height:400px;""></stim_listB>",are fighting each other,
70084,"<img src='img/portrait_matrix_list2.jpg' style='width:900px;height:500px;''></img><p>If you have memorised all the portraits and names and are ready to start, press Continue.</p><p><strong>Please note: Your memory of these faces will be tested 4 times during this experiment.</strong></p>",0,html-button-response,208,1103248,0.0-16.0-0.0,19901,List2B,black,woman,,,,,,,,
2790,"<img src=""portrait/WW1.jpg""style=""height:400px;""></img>",1,html-button-response,209,1107044,0.0-16.0-1.0,19901,List2B,black,woman,,TRUE,1,,,,,
null,CORRECT,,html-keyboard-response,210,1108561,0.0-16.0-2.0-0.0,19901,List2B,black,woman,,,,null,,,,
3759,"<img src=""portrait/BM1.jpg""style=""height:400px;""></img>",4,html-button-response,211,1112322,0.0-16.0-4.0,19901,List2B,black,woman,,TRUE,4,,,,,
null,CORRECT,,html-keyboard-response,212,1113849,0.0-16.0-5.0-0.0,19901,List2B,black,woman,,,,null,,,,
3263,"<img src=""portrait/WM1.jpg""style=""height:400px;""></img>",6,html-button-response,213,1117115,0.0-16.0-7.0,19901,List2B,black,woman,,TRUE,6,,,,,
null,CORRECT,,html-keyboard-response,214,1118648,0.0-16.0-8.0-0.0,19901,List2B,black,woman,,,,null,,,,
2195,"<img src=""portrait/WM2.jpg""style=""height:400px;""></img>",7,html-button-response,215,1120848,0.0-16.0-10.0,19901,List2B,black,woman,,TRUE,7,,,,,
null,CORRECT,,html-keyboard-response,216,1122380,0.0-16.0-11.0-0.0,19901,List2B,black,woman,,,,null,,,,
3490,"<img src=""portrait/BW1.jpg""style=""height:400px;""></img>",0,html-button-response,217,1125872,0.0-16.0-13.0,19901,List2B,black,woman,,TRUE,0,,,,,
null,CORRECT,,html-keyboard-response,218,1127396,0.0-16.0-14.0-0.0,19901,List2B,black,woman,,,,null,,,,
2378,"<img src=""portrait/BM2.jpg""style=""height:400px;""></img>",5,html-button-response,219,1129776,0.0-16.0-16.0,19901,List2B,black,woman,,TRUE,5,,,,,
null,CORRECT,,html-keyboard-response,220,1131296,0.0-16.0-17.0-0.0,19901,List2B,black,woman,,,,null,,,,
2716,"<img src=""portrait/BW2.jpg""style=""height:400px;""></img>",2,html-button-response,221,1134014,0.0-16.0-19.0,19901,List2B,black,woman,,TRUE,2,,,,,
null,CORRECT,,html-keyboard-response,222,1135544,0.0-16.0-20.0-0.0,19901,List2B,black,woman,,,,null,,,,
1802,"<img src=""portrait/WW2.jpg""style=""height:400px;""></img>",3,html-button-response,223,1137348,0.0-16.0-22.0,19901,List2B,black,woman,,TRUE,3,,,,,
null,CORRECT,,html-keyboard-response,224,1138879,0.0-16.0-23.0-0.0,19901,List2B,black,woman,,,,null,,,,
2056,<p>You got 8 out of 8 right first time. Press Continue.</p>,0,html-button-response,225,1140938,0.0-16.0-25.0,19901,List2B,black,woman,,,,,,,,
null,"<div style=""font-size:60px;"">+</div>",,html-keyboard-response,226,1142460,0.0-17.0-0.0,19901,List2B,black,woman,,,,null,,,,
null,"<img src=""stim_listB/flirt1.gif""style=""height:400px;""></stim_listB>",,html-keyboard-response,227,1144464,0.0-17.0-1.0,19901,List2B,black,woman,,,,null,,,,
null,is flirting with,,html-keyboard-response,228,1146475,0.0-17.0-2.0,19901,List2B,black,woman,,,,null,,,,
8916,,,survey-text,229,1155393,0.0-17.0-3.0,19901,List2B,black,woman,,,,,"{""Q0"":""luke is flirting with jane""}","<img src=""stim_listB/flirt1.gif""style=""height:400px;""></stim_listB>",is flirting with,
null,"<div style=""font-size:60px;"">+</div>",,html-keyboard-response,230,1155906,0.0-17.0-0.1,19901,List2B,black,woman,,,,null,,,,
null,"<img src=""stim_listB/play6.gif""style=""height:400px;""></stim_listB>",,html-keyboard-response,231,1157910,0.0-17.0-1.1,19901,List2B,black,woman,,,,null,,,,
null,are playing with each other,,html-keyboard-response,232,1159923,0.0-17.0-2.1,19901,List2B,black,woman,,,,null,,,,
10489,,,survey-text,233,1170414,0.0-17.0-3.1,19901,List2B,black,woman,,,,,"{""Q0"":""fred and luke are playing with each other""}","<img src=""stim_listB/play6.gif""style=""height:400px;""></stim_listB>",are playing with each other,
null,"<div style=""font-size:60px;"">+</div>",,html-keyboard-response,234,1170925,0.0-17.0-0.2,19901,List2B,black,woman,,,,null,,,,
null,"<img src=""stim_listB/fight8.gif""style=""height:400px;""></stim_listB>",,html-keyboard-response,235,1172929,0.0-17.0-1.2,19901,List2B,black,woman,,,,null,,,,
null,are fighting each other,,html-keyboard-response,236,1174931,0.0-17.0-2.2,19901,List2B,black,woman,,,,null,,,,
10458,,,survey-text,237,1185391,0.0-17.0-3.2,19901,List2B,black,woman,,,,,"{""Q0"":""ruth and beth are fighting each other""}","<img src=""stim_listB/fight8.gif""style=""height:400px;""></stim_listB>",are fighting each other,
null,"<div style=""font-size:60px;"">+</div>",,html-keyboard-response,238,1185906,0.0-17.0-0.3,19901,List2B,black,woman,,,,null,,,,
null,"<img src=""stim_listB/kiss6.gif""style=""height:400px;""></stim_listB>",,html-keyboard-response,239,1187909,0.0-17.0-1.3,19901,List2B,black,woman,,,,null,,,,
null,are kissing each other,,html-keyboard-response,240,1189921,0.0-17.0-2.3,19901,List2B,black,woman,,,,null,,,,
16094,,,survey-text,241,1206018,0.0-17.0-3.3,19901,List2B,black,woman,,,,,"{""Q0"":""dave and mike are kissing each other""}","<img src=""stim_listB/kiss6.gif""style=""height:400px;""></stim_listB>",are kissing each other,
null,"<div style=""font-size:60px;"">+</div>",,html-keyboard-response,242,1206534,0.0-17.0-0.4,19901,List2B,black,woman,,,,null,,,,
null,"<img src=""stim_listB/flirt3.gif""style=""height:400px;""></stim_listB>",,html-keyboard-response,243,1208537,0.0-17.0-1.4,19901,List2B,black,woman,,,,null,,,,
null,is flirting with,,html-keyboard-response,244,1210550,0.0-17.0-2.4,19901,List2B,black,woman,,,,null,,,,
10276,,,survey-text,245,1220828,0.0-17.0-3.4,19901,List2B,black,woman,,,,,"{""Q0"":""kate is flirting with fred""}","<img src=""stim_listB/flirt3.gif""style=""height:400px;""></stim_listB>",is flirting with,
null,"<div style=""font-size:60px;"">+</div>",,html-keyboard-response,246,1221331,0.0-17.0-0.5,19901,List2B,black,woman,,,,null,,,,
null,"<img src=""stim_listB/talk5.gif""style=""height:400px;""></stim_listB>",,html-keyboard-response,247,1223346,0.0-17.0-1.5,19901,List2B,black,woman,,,,null,,,,
null,is talking to,,html-keyboard-response,248,1225361,0.0-17.0-2.5,19901,List2B,black,woman,,,,null,,,,
6982,,,survey-text,249,1232345,0.0-17.0-3.5,19901,List2B,black,woman,,,,,"{""Q0"":""mike is talking to luke""}","<img src=""stim_listB/talk5.gif""style=""height:400px;""></stim_listB>",is talking to,
null,"<div style=""font-size:60px;"">+</div>",,html-keyboard-response,250,1232858,0.0-17.0-0.6,19901,List2B,black,woman,,,,null,,,,
null,"<img src=""stim_listB/talk8.gif""style=""height:400px;""></stim_listB>",,html-keyboard-response,251,1234863,0.0-17.0-1.6,19901,List2B,black,woman,,,,null,,,,
null,are talking to each other,,html-keyboard-response,252,1236872,0.0-17.0-2.6,19901,List2B,black,woman,,,,null,,,,
8625,,,survey-text,253,1245499,0.0-17.0-3.6,19901,List2B,black,woman,,,,,"{""Q0"":""jane and beth are talking to each other""}","<img src=""stim_listB/talk8.gif""style=""height:400px;""></stim_listB>",are talking to each other,
null,"<div style=""font-size:60px;"">+</div>",,html-keyboard-response,254,1246002,0.0-17.0-0.7,19901,List2B,black,woman,,,,null,,,,
null,"<img src=""stim_listB/flirt8.gif""style=""height:400px;""></stim_listB>",,html-keyboard-response,255,1248007,0.0-17.0-1.7,19901,List2B,black,woman,,,,null,,,,
null,are flirting with each other,,html-keyboard-response,256,1250021,0.0-17.0-2.7,19901,List2B,black,woman,,,,null,,,,
13593,,,survey-text,257,1263617,0.0-17.0-3.7,19901,List2B,black,woman,,,,,"{""Q0"":""beth and jane are flirting with each other""}","<img src=""stim_listB/flirt8.gif""style=""height:400px;""></stim_listB>",are flirting with each other,
null,"<div style=""font-size:60px;"">+</div>",,html-keyboard-response,258,1264132,0.0-17.0-0.8,19901,List2B,black,woman,,,,null,,,,
null,"<img src=""stim_listB/touch4.gif""style=""height:400px;""></stim_listB>",,html-keyboard-response,259,1266136,0.0-17.0-1.8,19901,List2B,black,woman,,,,null,,,,
null,are touching each other,,html-keyboard-response,260,1268148,0.0-17.0-2.8,19901,List2B,black,woman,,,,null,,,,
11284,,,survey-text,261,1279435,0.0-17.0-3.8,19901,List2B,black,woman,,,,,"{""Q0"":""fred and beth are touching each other""}","<img src=""stim_listB/touch4.gif""style=""height:400px;""></stim_listB>",are touching each other,
null,"<div style=""font-size:60px;"">+</div>",,html-keyboard-response,262,1279945,0.0-17.0-0.9,19901,List2B,black,woman,,,,null,,,,
null,"<img src=""stim_listB/play8.gif""style=""height:400px;""></stim_listB>",,html-keyboard-response,263,1281948,0.0-17.0-1.9,19901,List2B,black,woman,,,,null,,,,
null,are playing with each other,,html-keyboard-response,264,1283963,0.0-17.0-2.9,19901,List2B,black,woman,,,,null,,,,
8582,,,survey-text,265,1292547,0.0-17.0-3.9,19901,List2B,black,woman,,,,,"{""Q0"":""ruth and beth are playing with each other""}","<img src=""stim_listB/play8.gif""style=""height:400px;""></stim_listB>",are playing with each other,
null,"<div style=""font-size:60px;"">+</div>",,html-keyboard-response,266,1293058,0.0-17.0-0.10,19901,List2B,black,woman,,,,null,,,,
null,"<img src=""stim_listB/kiss2.gif""style=""height:400px;""></stim_listB>",,html-keyboard-response,267,1295062,0.0-17.0-1.10,19901,List2B,black,woman,,,,null,,,,
null,are kissing each other,,html-keyboard-response,268,1297078,0.0-17.0-2.10,19901,List2B,black,woman,,,,null,,,,
10827,,,survey-text,269,1307907,0.0-17.0-3.10,19901,List2B,black,woman,,,,,"{""Q0"":""dave and jane are kissing each other""}","<img src=""stim_listB/kiss2.gif""style=""height:400px;""></stim_listB>",are kissing each other,
null,"<div style=""font-size:60px;"">+</div>",,html-keyboard-response,270,1308422,0.0-17.0-0.11,19901,List2B,black,woman,,,,null,,,,
null,"<img src=""stim_listB/marry5.gif""style=""height:400px;""></stim_listB>",,html-keyboard-response,271,1310425,0.0-17.0-1.11,19901,List2B,black,woman,,,,null,,,,
null,is marrying,,html-keyboard-response,272,1312439,0.0-17.0-2.11,19901,List2B,black,woman,,,,null,,,,
10691,,,survey-text,273,1323133,0.0-17.0-3.11,19901,List2B,black,woman,,,,,"{""Q0"":""dave is marrying fred""}","<img src=""stim_listB/marry5.gif""style=""height:400px;""></stim_listB>",is marrying,
null,"<div style=""font-size:60px;"">+</div>",,html-keyboard-response,274,1323638,0.0-17.0-0.12,19901,List2B,black,woman,,,,null,,,,
null,"<img src=""stim_listB/fight1.gif""style=""height:400px;""></stim_listB>",,html-keyboard-response,275,1325641,0.0-17.0-1.12,19901,List2B,black,woman,,,,null,,,,
null,is fighting,,html-keyboard-response,276,1327655,0.0-17.0-2.12,19901,List2B,black,woman,,,,null,,,,
5860,,,survey-text,277,1333517,0.0-17.0-3.12,19901,List2B,black,woman,,,,,"{""Q0"":""jane is fighting dave""}","<img src=""stim_listB/fight1.gif""style=""height:400px;""></stim_listB>",is fighting,
null,"<div style=""font-size:60px;"">+</div>",,html-keyboard-response,278,1334034,0.0-17.0-0.13,19901,List2B,black,woman,,,,null,,,,
null,"<img src=""stim_listB/argue5.gif""style=""height:400px;""></stim_listB>",,html-keyboard-response,279,1336035,0.0-17.0-1.13,19901,List2B,black,woman,,,,null,,,,
null,is arguing with,,html-keyboard-response,280,1338052,0.0-17.0-2.13,19901,List2B,black,woman,,,,null,,,,
10415,,,survey-text,281,1348468,0.0-17.0-3.13,19901,List2B,black,woman,,,,,"{""Q0"":""dave is arguing with fred""}","<img src=""stim_listB/argue5.gif""style=""height:400px;""></stim_listB>",is arguing with,
null,"<div style=""font-size:60px;"">+</div>",,html-keyboard-response,282,1348971,0.0-17.0-0.14,19901,List2B,black,woman,,,,null,,,,
null,"<img src=""stim_listB/flirt6.gif""style=""height:400px;""></stim_listB>",,html-keyboard-response,283,1350974,0.0-17.0-1.14,19901,List2B,black,woman,,,,null,,,,
null,are flirting with each other,,html-keyboard-response,284,1352987,0.0-17.0-2.14,19901,List2B,black,woman,,,,null,,,,
12009,,,survey-text,285,1364998,0.0-17.0-3.14,19901,List2B,black,woman,,,,,"{""Q0"":""dave and fred are flirting with each other""}","<img src=""stim_listB/flirt6.gif""style=""height:400px;""></stim_listB>",are flirting with each other,
null,"<div style=""font-size:60px;"">+</div>",,html-keyboard-response,286,1365501,0.0-17.0-0.15,19901,List2B,black,woman,,,,null,,,,
null,"<img src=""stim_listB/touch3.gif""style=""height:400px;""></stim_listB>",,html-keyboard-response,287,1367506,0.0-17.0-1.15,19901,List2B,black,woman,,,,null,,,,
null,is touching,,html-keyboard-response,288,1369515,0.0-17.0-2.15,19901,List2B,black,woman,,,,null,,,,
6560,,,survey-text,289,1376077,0.0-17.0-3.15,19901,List2B,black,woman,,,,,"{""Q0"":""kate is touching mike""}","<img src=""stim_listB/touch3.gif""style=""height:400px;""></stim_listB>",is touching,
null,"<div style=""font-size:60px;"">+</div>",,html-keyboard-response,290,1376581,0.0-17.0-0.16,19901,List2B,black,woman,,,,null,,,,
null,"<img src=""stim_listB/play5.gif""style=""height:400px;""></stim_listB>",,html-keyboard-response,291,1378584,0.0-17.0-1.16,19901,List2B,black,woman,,,,null,,,,
null,is playing with,,html-keyboard-response,292,1380599,0.0-17.0-2.16,19901,List2B,black,woman,,,,null,,,,
13415,,,survey-text,293,1394016,0.0-17.0-3.16,19901,List2B,black,woman,,,,,"{""Q0"":""dave is playing with mike""}","<img src=""stim_listB/play5.gif""style=""height:400px;""></stim_listB>",is playing with,
null,"<div style=""font-size:60px;"">+</div>",,html-keyboard-response,294,1394528,0.0-17.0-0.17,19901,List2B,black,woman,,,,null,,,,
null,"<img src=""stim_listB/shout5.gif""style=""height:400px;""></stim_listB>",,html-keyboard-response,295,1396532,0.0-17.0-1.17,19901,List2B,black,woman,,,,null,,,,
null,is shouting at,,html-keyboard-response,296,1398545,0.0-17.0-2.17,19901,List2B,black,woman,,,,null,,,,
10090,,,survey-text,297,1408642,0.0-17.0-3.17,19901,List2B,black,woman,,,,,"{""Q0"":""luke is fighting with fred""}","<img src=""stim_listB/shout5.gif""style=""height:400px;""></stim_listB>",is shouting at,
null,"<div style=""font-size:60px;"">+</div>",,html-keyboard-response,298,1409146,0.0-17.0-0.18,19901,List2B,black,woman,,,,null,,,,
null,"<img src=""stim_listB/marry8.gif""style=""height:400px;""></stim_listB>",,html-keyboard-response,299,1411150,0.0-17.0-1.18,19901,List2B,black,woman,,,,null,,,,
null,are marrying each other,,html-keyboard-response,300,1413162,0.0-17.0-2.18,19901,List2B,black,woman,,,,null,,,,
11939,,,survey-text,301,1425102,0.0-17.0-3.18,19901,List2B,black,woman,,,,,"{""Q0"":""kate and ruth are marrying each other""}","<img src=""stim_listB/marry8.gif""style=""height:400px;""></stim_listB>",are marrying each other,
null,"<div style=""font-size:60px;"">+</div>",,html-keyboard-response,302,1425610,0.0-17.0-0.19,19901,List2B,black,woman,,,,null,,,,
null,"<img src=""stim_listB/touch7.gif""style=""height:400px;""></stim_listB>",,html-keyboard-response,303,1427613,0.0-17.0-1.19,19901,List2B,black,woman,,,,null,,,,
null,is touching,,html-keyboard-response,304,1429626,0.0-17.0-2.19,19901,List2B,black,woman,,,,null,,,,
5810,,,survey-text,305,1435438,0.0-17.0-3.19,19901,List2B,black,woman,,,,,"{""Q0"":""jane is touching kate""}","<img src=""stim_listB/touch7.gif""style=""height:400px;""></stim_listB>",is touching,
92792,"<img src='img/portrait_matrix_list2.jpg' style='width:900px;height:500px;''></img><p>If you have memorised all the portraits and names and are ready to start, press Continue.</p><p><strong>Please note: Your memory of these faces will be tested 4 times during this experiment.</strong></p>",0,html-button-response,306,1528233,0.0-18.0-0.0,19901,List2B,black,woman,,,,,,,,
3624,"<img src=""portrait/WM1.jpg""style=""height:400px;""></img>",6,html-button-response,307,1532870,0.0-18.0-1.0,19901,List2B,black,woman,,TRUE,6,,,,,
null,CORRECT,,html-keyboard-response,308,1534392,0.0-18.0-2.0-0.0,19901,List2B,black,woman,,,,null,,,,
2672,"<img src=""portrait/BM2.jpg""style=""height:400px;""></img>",5,html-button-response,309,1537067,0.0-18.0-4.0,19901,List2B,black,woman,,TRUE,5,,,,,
null,CORRECT,,html-keyboard-response,310,1538592,0.0-18.0-5.0-0.0,19901,List2B,black,woman,,,,null,,,,
1897,"<img src=""portrait/WW2.jpg""style=""height:400px;""></img>",3,html-button-response,311,1540492,0.0-18.0-7.0,19901,List2B,black,woman,,TRUE,3,,,,,
null,CORRECT,,html-keyboard-response,312,1542025,0.0-18.0-8.0-0.0,19901,List2B,black,woman,,,,null,,,,
3912,"<img src=""portrait/WW1.jpg""style=""height:400px;""></img>",1,html-button-response,313,1545940,0.0-18.0-10.0,19901,List2B,black,woman,,TRUE,1,,,,,
null,CORRECT,,html-keyboard-response,314,1547474,0.0-18.0-11.0-0.0,19901,List2B,black,woman,,,,null,,,,
3309,"<img src=""portrait/WM2.jpg""style=""height:400px;""></img>",7,html-button-response,315,1550786,0.0-18.0-13.0,19901,List2B,black,woman,,TRUE,7,,,,,
null,CORRECT,,html-keyboard-response,316,1552306,0.0-18.0-14.0-0.0,19901,List2B,black,woman,,,,null,,,,
2552,"<img src=""portrait/BW2.jpg""style=""height:400px;""></img>",2,html-button-response,317,1554861,0.0-18.0-16.0,19901,List2B,black,woman,,TRUE,2,,,,,
null,CORRECT,,html-keyboard-response,318,1556373,0.0-18.0-17.0-0.0,19901,List2B,black,woman,,,,null,,,,
3456,"<img src=""portrait/BW1.jpg""style=""height:400px;""></img>",0,html-button-response,319,1559832,0.0-18.0-19.0,19901,List2B,black,woman,,TRUE,0,,,,,
null,CORRECT,,html-keyboard-response,320,1561353,0.0-18.0-20.0-0.0,19901,List2B,black,woman,,,,null,,,,
3239,"<img src=""portrait/BM1.jpg""style=""height:400px;""></img>",4,html-button-response,321,1564595,0.0-18.0-22.0,19901,List2B,black,woman,,TRUE,4,,,,,
null,CORRECT,,html-keyboard-response,322,1566120,0.0-18.0-23.0-0.0,19901,List2B,black,woman,,,,null,,,,
1823,<p>You got 8 out of 8 right first time. Press Continue.</p>,0,html-button-response,323,1567946,0.0-18.0-25.0,19901,List2B,black,woman,,,,,,,,
null,"<div style=""font-size:60px;"">+</div>",,html-keyboard-response,324,1569468,0.0-19.0-0.0,19901,List2B,black,woman,,,,null,,,,
null,"<img src=""stim_listB/fight2.gif""style=""height:400px;""></stim_listB>",,html-keyboard-response,325,1571472,0.0-19.0-1.0,19901,List2B,black,woman,,,,null,,,,
null,are fighting each other,,html-keyboard-response,326,1573486,0.0-19.0-2.0,19901,List2B,black,woman,,,,null,,,,
10868,,,survey-text,327,1584356,0.0-19.0-3.0,19901,List2B,black,woman,,,,,"{""Q0"":""ruth and luke are fighting with each other""}","<img src=""stim_listB/fight2.gif""style=""height:400px;""></stim_listB>",are fighting each other,
null,"<div style=""font-size:60px;"">+</div>",,html-keyboard-response,328,1584865,0.0-19.0-0.1,19901,List2B,black,woman,,,,null,,,,
null,"<img src=""stim_listB/talk1.gif""style=""height:400px;""></stim_listB>",,html-keyboard-response,329,1586868,0.0-19.0-1.1,19901,List2B,black,woman,,,,null,,,,
null,is talking to,,html-keyboard-response,330,1588870,0.0-19.0-2.1,19901,List2B,black,woman,,,,null,,,,
8893,,,survey-text,331,1597765,0.0-19.0-3.1,19901,List2B,black,woman,,,,,"{""Q0"":""jane is talking to luke""}","<img src=""stim_listB/talk1.gif""style=""height:400px;""></stim_listB>",is talking to,
null,"<div style=""font-size:60px;"">+</div>",,html-keyboard-response,332,1598279,0.0-19.0-0.2,19901,List2B,black,woman,,,,null,,,,
null,"<img src=""stim_listB/fight4.gif""style=""height:400px;""></stim_listB>",,html-keyboard-response,333,1600282,0.0-19.0-1.2,19901,List2B,black,woman,,,,null,,,,
null,are fighting each other,,html-keyboard-response,334,1602295,0.0-19.0-2.2,19901,List2B,black,woman,,,,null,,,,
9700,,,survey-text,335,1611998,0.0-19.0-3.2,19901,List2B,black,woman,,,,,"{""Q0"":""beth and fred are fighting each other""}","<img src=""stim_listB/fight4.gif""style=""height:400px;""></stim_listB>",are fighting each other,
null,"<div style=""font-size:60px;"">+</div>",,html-keyboard-response,336,1612509,0.0-19.0-0.3,19901,List2B,black,woman,,,,null,,,,
null,"<img src=""stim_listB/marry7.gif""style=""height:400px;""></stim_listB>",,html-keyboard-response,337,1614514,0.0-19.0-1.3,19901,List2B,black,woman,,,,null,,,,
null,is marrying,,html-keyboard-response,338,1616527,0.0-19.0-2.3,19901,List2B,black,woman,,,,null,,,,
10410,,,survey-text,339,1626939,0.0-19.0-3.3,19901,List2B,black,woman,,,,,"{""Q0"":""jane is marrying beth""}","<img src=""stim_listB/marry7.gif""style=""height:400px;""></stim_listB>",is marrying,
null,"<div style=""font-size:60px;"">+</div>",,html-keyboard-response,340,1627452,0.0-19.0-0.4,19901,List2B,black,woman,,,,null,,,,
null,"<img src=""stim_listB/dance7.gif""style=""height:400px;""></stim_listB>",,html-keyboard-response,341,1629455,0.0-19.0-1.4,19901,List2B,black,woman,,,,null,,,,
null,is dancing with,,html-keyboard-response,342,1631469,0.0-19.0-2.4,19901,List2B,black,woman,,,,null,,,,
6822,,,survey-text,343,1638298,0.0-19.0-3.4,19901,List2B,black,woman,,,,,"{""Q0"":""ruth is dancing with kate""}","<img src=""stim_listB/dance7.gif""style=""height:400px;""></stim_listB>",is dancing with,
null,"<div style=""font-size:60px;"">+</div>",,html-keyboard-response,344,1638801,0.0-19.0-0.5,19901,List2B,black,woman,,,,null,,,,
null,"<img src=""stim_listB/kiss5.gif""style=""height:400px;""></stim_listB>",,html-keyboard-response,345,1640804,0.0-19.0-1.5,19901,List2B,black,woman,,,,null,,,,
null,is kissing,,html-keyboard-response,346,1642815,0.0-19.0-2.5,19901,List2B,black,woman,,,,null,,,,
11849,,,survey-text,347,1654667,0.0-19.0-3.5,19901,List2B,black,woman,,,,,"{""Q0"":""luke is kissing fred""}","<img src=""stim_listB/kiss5.gif""style=""height:400px;""></stim_listB>",is kissing,
null,"<div style=""font-size:60px;"">+</div>",,html-keyboard-response,348,1655179,0.0-19.0-0.6,19901,List2B,black,woman,,,,null,,,,
null,"<img src=""stim_listB/touch6.gif""style=""height:400px;""></stim_listB>",,html-keyboard-response,349,1657183,0.0-19.0-1.6,19901,List2B,black,woman,,,,null,,,,
null,are touching each other,,html-keyboard-response,350,1659196,0.0-19.0-2.6,19901,List2B,black,woman,,,,null,,,,
11097,,,survey-text,351,1670296,0.0-19.0-3.6,19901,List2B,black,woman,,,,,"{""Q0"":""fred and luke are touching each other""}","<img src=""stim_listB/touch6.gif""style=""height:400px;""></stim_listB>",are touching each other,
null,"<div style=""font-size:60px;"">+</div>",,html-keyboard-response,352,1670809,0.0-19.0-0.7,19901,List2B,black,woman,,,,null,,,,
null,"<img src=""stim_listB/talk6.gif""style=""height:400px;""></stim_listB>",,html-keyboard-response,353,1672813,0.0-19.0-1.7,19901,List2B,black,woman,,,,null,,,,
null,are talking to each other,,html-keyboard-response,354,1674815,0.0-19.0-2.7,19901,List2B,black,woman,,,,null,,,,
17480,,,survey-text,355,1692296,0.0-19.0-3.7,19901,List2B,black,woman,,,,,"{""Q0"":""fred and dave are talking to each other""}","<img src=""stim_listB/talk6.gif""style=""height:400px;""></stim_listB>",are talking to each other,
null,"<div style=""font-size:60px;"">+</div>",,html-keyboard-response,356,1692806,0.0-19.0-0.8,19901,List2B,black,woman,,,,null,,,,
null,"<img src=""stim_listB/flirt4.gif""style=""height:400px;""></stim_listB>",,html-keyboard-response,357,1694817,0.0-19.0-1.8,19901,List2B,black,woman,,,,null,,,,
null,are flirting with each other,,html-keyboard-response,358,1696823,0.0-19.0-2.8,19901,List2B,black,woman,,,,null,,,,
16421,,,survey-text,359,1713246,0.0-19.0-3.8,19901,List2B,black,woman,,,,,"{""Q0"":""beth and mike are flirting with each other""}","<img src=""stim_listB/flirt4.gif""style=""height:400px;""></stim_listB>",are flirting with each other,
null,"<div style=""font-size:60px;"">+</div>",,html-keyboard-response,360,1713752,0.0-19.0-0.9,19901,List2B,black,woman,,,,null,,,,
null,"<img src=""stim_listB/shout8.gif""style=""height:400px;""></stim_listB>",,html-keyboard-response,361,1715756,0.0-19.0-1.9,19901,List2B,black,woman,,,,null,,,,
null,are shouting at each other,,html-keyboard-response,362,1717772,0.0-19.0-2.9,19901,List2B,black,woman,,,,null,,,,
15430,,,survey-text,363,1733203,0.0-19.0-3.9,19901,List2B,black,woman,,,,,"{""Q0"":""jane and kate are shouting at each other""}","<img src=""stim_listB/shout8.gif""style=""height:400px;""></stim_listB>",are shouting at each other,
null,"<div style=""font-size:60px;"">+</div>",,html-keyboard-response,364,1733715,0.0-19.0-0.10,19901,List2B,black,woman,,,,null,,,,
null,"<img src=""stim_listB/dance8.gif""style=""height:400px;""></stim_listB>",,html-keyboard-response,365,1735719,0.0-19.0-1.10,19901,List2B,black,woman,,,,null,,,,
null,are dancing with each other,,html-keyboard-response,366,1737731,0.0-19.0-2.10,19901,List2B,black,woman,,,,null,,,,
12624,,,survey-text,367,1750357,0.0-19.0-3.10,19901,List2B,black,woman,,,,,"{""Q0"":""jane and beth are dancing with each other""}","<img src=""stim_listB/dance8.gif""style=""height:400px;""></stim_listB>",are dancing with each other,
null,"<div style=""font-size:60px;"">+</div>",,html-keyboard-response,368,1750873,0.0-19.0-0.11,19901,List2B,black,woman,,,,null,,,,
null,"<img src=""stim_listB/kiss8.gif""style=""height:400px;""></stim_listB>",,html-keyboard-response,369,1752876,0.0-19.0-1.11,19901,List2B,black,woman,,,,null,,,,
null,are kissing each other,,html-keyboard-response,370,1754885,0.0-19.0-2.11,19901,List2B,black,woman,,,,null,,,,
36662,,,survey-text,371,1791550,0.0-19.0-3.11,19901,List2B,black,woman,,,,,"{""Q0"":""""}","<img src=""stim_listB/kiss8.gif""style=""height:400px;""></stim_listB>",are kissing each other,
null,"<div style=""font-size:60px;"">+</div>",,html-keyboard-response,372,1792065,0.0-19.0-0.12,19901,List2B,black,woman,,,,null,,,,
null,"<img src=""stim_listB/kiss7.gif""style=""height:400px;""></stim_listB>",,html-keyboard-response,373,1794068,0.0-19.0-1.12,19901,List2B,black,woman,,,,null,,,,
null,is kissing,,html-keyboard-response,374,1796083,0.0-19.0-2.12,19901,List2B,black,woman,,,,null,,,,
8608,,,survey-text,375,1804692,0.0-19.0-3.12,19901,List2B,black,woman,,,,,"{""Q0"":""ruth is kissing beth""}","<img src=""stim_listB/kiss7.gif""style=""height:400px;""></stim_listB>",is kissing,
null,"<div style=""font-size:60px;"">+</div>",,html-keyboard-response,376,1805202,0.0-19.0-0.13,19901,List2B,black,woman,,,,null,,,,
null,"<img src=""stim_listB/play2.gif""style=""height:400px;""></stim_listB>",,html-keyboard-response,377,1807205,0.0-19.0-1.13,19901,List2B,black,woman,,,,null,,,,
null,are playing with each other,,html-keyboard-response,378,1809219,0.0-19.0-2.13,19901,List2B,black,woman,,,,null,,,,
12197,,,survey-text,379,1821418,0.0-19.0-3.13,19901,List2B,black,woman,,,,,"{""Q0"":""ruth and luke are playing with each other""}","<img src=""stim_listB/play2.gif""style=""height:400px;""></stim_listB>",are playing with each other,
null,"<div style=""font-size:60px;"">+</div>",,html-keyboard-response,380,1821932,0.0-19.0-0.14,19901,List2B,black,woman,,,,null,,,,
null,"<img src=""stim_listB/marry6.gif""style=""height:400px;""></stim_listB>",,html-keyboard-response,381,1823935,0.0-19.0-1.14,19901,List2B,black,woman,,,,null,,,,
null,are marrying each other,,html-keyboard-response,382,1825952,0.0-19.0-2.14,19901,List2B,black,woman,,,,null,,,,
14822,,,survey-text,383,1840775,0.0-19.0-3.14,19901,List2B,black,woman,,,,,"{""Q0"":""luke and mike are marrying each other""}","<img src=""stim_listB/marry6.gif""style=""height:400px;""></stim_listB>",are marrying each other,
null,"<div style=""font-size:60px;"">+</div>",,html-keyboard-response,384,1841279,0.0-19.0-0.15,19901,List2B,black,woman,,,,null,,,,
null,"<img src=""stim_listB/argue1.gif""style=""height:400px;""></stim_listB>",,html-keyboard-response,385,1843284,0.0-19.0-1.15,19901,List2B,black,woman,,,,null,,,,
null,is arguing with,,html-keyboard-response,386,1845297,0.0-19.0-2.15,19901,List2B,black,woman,,,,null,,,,
10459,,,survey-text,387,1855758,0.0-19.0-3.15,19901,List2B,black,woman,,,,,"{""Q0"":""ruth is arguing with dave""}","<img src=""stim_listB/argue1.gif""style=""height:400px;""></stim_listB>",is arguing with,
null,"<div style=""font-size:60px;"">+</div>",,html-keyboard-response,388,1856275,0.0-19.0-0.16,19901,List2B,black,woman,,,,null,,,,
null,"<img src=""stim_listB/dance1.gif""style=""height:400px;""></stim_listB>",,html-keyboard-response,389,1858280,0.0-19.0-1.16,19901,List2B,black,woman,,,,null,,,,
null,is dancing with,,html-keyboard-response,390,1860297,0.0-19.0-2.16,19901,List2B,black,woman,,,,null,,,,
13177,,,survey-text,391,1873476,0.0-19.0-3.16,19901,List2B,black,woman,,,,,"{""Q0"":""luke is dancing with jane""}","<img src=""stim_listB/dance1.gif""style=""height:400px;""></stim_listB>",is dancing with,
null,"<div style=""font-size:60px;"">+</div>",,html-keyboard-response,392,1873983,0.0-19.0-0.17,19901,List2B,black,woman,,,,null,,,,
null,"<img src=""stim_listB/talk2.gif""style=""height:400px;""></stim_listB>",,html-keyboard-response,393,1875987,0.0-19.0-1.17,19901,List2B,black,woman,,,,null,,,,
null,are talking to each other,,html-keyboard-response,394,1877998,0.0-19.0-2.17,19901,List2B,black,woman,,,,null,,,,
13791,,,survey-text,395,1891792,0.0-19.0-3.17,19901,List2B,black,woman,,,,,"{""Q0"":""dave and ruth are talking to each other""}","<img src=""stim_listB/talk2.gif""style=""height:400px;""></stim_listB>",are talking to each other,
null,"<div style=""font-size:60px;"">+</div>",,html-keyboard-response,396,1892297,0.0-19.0-0.18,19901,List2B,black,woman,,,,null,,,,
null,"<img src=""stim_listB/shout7.gif""style=""height:400px;""></stim_listB>",,html-keyboard-response,397,1894300,0.0-19.0-1.18,19901,List2B,black,woman,,,,null,,,,
null,is shouting at,,html-keyboard-response,398,1896311,0.0-19.0-2.18,19901,List2B,black,woman,,,,null,,,,
8244,,,survey-text,399,1904557,0.0-19.0-3.18,19901,List2B,black,woman,,,,,"{""Q0"":""ruth is shouting at beth""}","<img src=""stim_listB/shout7.gif""style=""height:400px;""></stim_listB>",is shouting at,
null,"<div style=""font-size:60px;"">+</div>",,html-keyboard-response,400,1905061,0.0-19.0-0.19,19901,List2B,black,woman,,,,null,,,,
null,"<img src=""stim_listB/argue4.gif""style=""height:400px;""></stim_listB>",,html-keyboard-response,401,1907064,0.0-19.0-1.19,19901,List2B,black,woman,,,,null,,,,
null,are arguing with each other,,html-keyboard-response,402,1909066,0.0-19.0-2.19,19901,List2B,black,woman,,,,null,,,,
11515,,,survey-text,403,1920582,0.0-19.0-3.19,19901,List2B,black,woman,,,,,"{""Q0"":""fred and kate are shouting at each other""}","<img src=""stim_listB/argue4.gif""style=""height:400px;""></stim_listB>",are arguing with each other,
2471,<p>Thank you for completing that task.</p><p>The final part of this session is a short questionnaire.</p><p>Press Continue.</p>,0,html-button-response,404,1923055,0.0-20.0,19901,List2B,black,woman,,,,,,,,
25558,,,survey-text,405,1949618,0.0-21.0,19901,List2B,black,woman,,,,,"{""Q0"":""33"",""Q1"":""english"",""Q2"":""English"",""Q3"":""England"",""Q4"":""Black British"",""Q5"":""female""}",,,demographics
5298,,,survey-likert,406,1954919,0.0-22.0,19901,List2B,black,woman,,,,,"{""Q0"":2}",,,likert_ESS
13278,,,survey-likert,407,1968216,0.0-23.0,19901,List2B,black,woman,,,,,"{""Q0"":5}",,,likert_NSSAL_Q1
3435,,,survey-likert,408,1971667,0.0-24.0,19901,List2B,black,woman,,,,,"{""Q0"":5}",,,likert_NSSAL_Q2
4581,,,survey-likert,409,1976266,0.0-25.0,19901,List2B,black,woman,,,,,"{""Q0"":2}",,,likert_CGRS_Q1
3638,,,survey-likert,410,1979922,0.0-26.0,19901,List2B,black,woman,,,,,"{""Q0"":3}",,,likert_CGRS_Q2
3171,,,survey-likert,411,1983110,0.0-27.0,19901,List2B,black,woman,,,,,"{""Q0"":3}",,,likert_CGRS_Q3
3750,,,survey-text,412,1986877,0.0-28.0,19901,List2B,black,woman,,,,,"{""Q0"":""ccc""}",,,worker_id
24537,,,external-html,413,2011870,0.0-29.0,19901,List2B,black,woman,debrief.html,,,,,,,
