rt,stimulus,button_pressed,trial_type,trial_index,time_elapsed,internal_node_id,subject,list,ppt_race,ppt_gender,url,first_guess,correct,key_press,responses,image_type,phrase_type,test_part
1485,Welcome to the experiment. Press Continue to begin.,0,html-button-response,0,1491,0.0-0.0,20173,List2A,white,woman,,,,,,,,
37168,,,external-html,1,39789,0.0-1.0,20173,List2A,white,woman,consent.html,,,,,,,
14006,"<p>On the next page, you will see portraits of 8 people and their names.</p><p>Your first task is to take a few minutes to memorise the names of these people.</p><p>You will have to recall their names during the rest of the experiment, so it is</p><p>essential that you try to memorise these people and their names as best as you can.</p><br><p><strong>You will then be tested on your memory of these names and portraits.</strong></p><br><p>The experiment will start after you have completed this memory test.</p><br><p>Ready?</p>",0,html-button-response,2,53800,0.0-2.0,20173,List2A,white,woman,,,,,,,,
129061,"<img src='img/portrait_matrix_list2.jpg' style='width:900px;height:500px;''></img><p>If you have memorised all the portraits and names and are ready to start, press Continue.</p><p><strong>Please note: Your memory of these faces will be tested 4 times during this experiment.</strong></p>",0,html-button-response,3,183864,0.0-3.0-0.0,20173,List2A,white,woman,,,,,,,,
2307,"<img src=""portrait/WM2.jpg""style=""height:400px;""></img>",7,html-button-response,4,187175,0.0-3.0-1.0,20173,List2A,white,woman,,TRUE,7,,,,,
null,CORRECT,,html-keyboard-response,5,188679,0.0-3.0-2.0-0.0,20173,List2A,white,woman,,,,null,,,,
2073,"<img src=""portrait/WW2.jpg""style=""height:400px;""></img>",3,html-button-response,6,190755,0.0-3.0-4.0,20173,List2A,white,woman,,TRUE,3,,,,,
null,CORRECT,,html-keyboard-response,7,192257,0.0-3.0-5.0-0.0,20173,List2A,white,woman,,,,null,,,,
2737,"<img src=""portrait/WM1.jpg""style=""height:400px;""></img>",6,html-button-response,8,194996,0.0-3.0-7.0,20173,List2A,white,woman,,TRUE,6,,,,,
null,CORRECT,,html-keyboard-response,9,196499,0.0-3.0-8.0-0.0,20173,List2A,white,woman,,,,null,,,,
5209,"<img src=""portrait/WW1.jpg""style=""height:400px;""></img>",1,html-button-response,10,201709,0.0-3.0-10.0,20173,List2A,white,woman,,TRUE,1,,,,,
null,CORRECT,,html-keyboard-response,11,203212,0.0-3.0-11.0-0.0,20173,List2A,white,woman,,,,null,,,,
2276,"<img src=""portrait/BW2.jpg""style=""height:400px;""></img>",2,html-button-response,12,205489,0.0-3.0-13.0,20173,List2A,white,woman,,TRUE,2,,,,,
null,CORRECT,,html-keyboard-response,13,206992,0.0-3.0-14.0-0.0,20173,List2A,white,woman,,,,null,,,,
2140,"<img src=""portrait/BM1.jpg""style=""height:400px;""></img>",4,html-button-response,14,209133,0.0-3.0-16.0,20173,List2A,white,woman,,TRUE,4,,,,,
null,CORRECT,,html-keyboard-response,15,210636,0.0-3.0-17.0-0.0,20173,List2A,white,woman,,,,null,,,,
2117,"<img src=""portrait/BM2.jpg""style=""height:400px;""></img>",5,html-button-response,16,212754,0.0-3.0-19.0,20173,List2A,white,woman,,TRUE,5,,,,,
null,CORRECT,,html-keyboard-response,17,214255,0.0-3.0-20.0-0.0,20173,List2A,white,woman,,,,null,,,,
2335,"<img src=""portrait/BW1.jpg""style=""height:400px;""></img>",0,html-button-response,18,216592,0.0-3.0-22.0,20173,List2A,white,woman,,TRUE,0,,,,,
null,CORRECT,,html-keyboard-response,19,218093,0.0-3.0-23.0-0.0,20173,List2A,white,woman,,,,null,,,,
2173,<p>You got 8 out of 8 right first time. Press Continue.</p>,0,html-button-response,20,220267,0.0-3.0-25.0,20173,List2A,white,woman,,,,,,,,
25898,"<p>In this experiment, you will view photographs of the people from the memory game interacting.</p><p>By using the <strong>exact</strong> phrase given <i>after</i> the photograph appears and recalling the correct names of the people in the photographs, form a sentence describing the interaction. You do not need to capitalise names.</p><p>Type your answer in the space provided. Please complete every sentence before moving onto the next trial.</p><p>You will only have a few seconds to memorise each given photograph and phrase before you can respond, so try your best to focus.</p><p>An example is given below. Press 'Continue' when you are ready.</p><img src='img/speaking_example.jpg' style='width:800px;height:460px;''></img>",0,html-button-response,21,247168,0.0-4.0,20173,List2A,white,woman,,,,,,,,
1816,"<p>Before the experiment starts, you will watch two example trials. Press 'Continue'.</p>",0,html-button-response,22,249989,0.0-5.0,20173,List2A,white,woman,,,,,,,,
null,<img src='img/meet_eg.gif' style='height:400px;''></img>,,html-keyboard-response,23,252992,0.0-6.0,20173,List2A,white,woman,,,,null,,,,
null,<p>is meeting</p>,,html-keyboard-response,24,254993,0.0-7.0,20173,List2A,white,woman,,,,null,,,,
3100,<p><b>Answer:</b> jane is meeting ruth</p>,0,html-button-response,25,258094,0.0-8.0,20173,List2A,white,woman,,,,,,,,
null,<img src='img/look_eg.gif' style='height:400px;''></img>,,html-keyboard-response,26,261097,0.0-9.0,20173,List2A,white,woman,,,,null,,,,
null,<p>are looking at each other</p>,,html-keyboard-response,27,263099,0.0-10.0,20173,List2A,white,woman,,,,null,,,,
1616,<p><b>Answer:</b> fred and mike are looking at each other</p>,0,html-button-response,28,264717,0.0-11.0,20173,List2A,white,woman,,,,,,,,
2891,"<p>Ready to start the experiment?</p><br><p><strong>Remember to describe the picture using a full sentence,</strong></p><p><strong>that combines the names of the people with the <i>exact</i> phrase given.</strong></p><p><strong>To receive full payment you must do this correctly.</strong></p><p><strong> You do not need to capitalise names or use punctuation.</strong></p><br><p>Press 'Continue' to begin.</p>",0,html-button-response,29,268610,0.0-12.0,20173,List2A,white,woman,,,,,,,,
null,"<div style=""font-size:60px;"">+</div>",,html-keyboard-response,30,270113,0.0-13.0-0.0,20173,List2A,white,woman,,,,null,,,,
null,"<img src=""stim_listA/flirt2.gif""style=""height:400px;""></stim_listA>",,html-keyboard-response,31,272115,0.0-13.0-1.0,20173,List2A,white,woman,,,,null,,,,
null,are flirting with each other,,html-keyboard-response,32,274117,0.0-13.0-2.0,20173,List2A,white,woman,,,,null,,,,
5289,,,survey-text,33,279409,0.0-13.0-3.0,20173,List2A,white,woman,,,,,"{""Q0"":""ruth and dave are flirting with each other""}","<img src=""stim_listA/flirt2.gif""style=""height:400px;""></stim_listA>",are flirting with each other,
null,"<div style=""font-size:60px;"">+</div>",,html-keyboard-response,34,279912,0.0-13.0-0.1,20173,List2A,white,woman,,,,null,,,,
null,"<img src=""stim_listA/shout2.gif""style=""height:400px;""></stim_listA>",,html-keyboard-response,35,281914,0.0-13.0-1.1,20173,List2A,white,woman,,,,null,,,,
null,are shouting at each other,,html-keyboard-response,36,283916,0.0-13.0-2.1,20173,List2A,white,woman,,,,null,,,,
5851,,,survey-text,37,289768,0.0-13.0-3.1,20173,List2A,white,woman,,,,,"{""Q0"":""jane and dave are shouting at each other""}","<img src=""stim_listA/shout2.gif""style=""height:400px;""></stim_listA>",are shouting at each other,
null,"<div style=""font-size:60px;"">+</div>",,html-keyboard-response,38,290271,0.0-13.0-0.2,20173,List2A,white,woman,,,,null,,,,
null,"<img src=""stim_listA/touch6.gif""style=""height:400px;""></stim_listA>",,html-keyboard-response,39,292273,0.0-13.0-1.2,20173,List2A,white,woman,,,,null,,,,
null,are touching each other,,html-keyboard-response,40,294275,0.0-13.0-2.2,20173,List2A,white,woman,,,,null,,,,
4808,,,survey-text,41,299084,0.0-13.0-3.2,20173,List2A,white,woman,,,,,"{""Q0"":""fred and luke are touching each other""}","<img src=""stim_listA/touch6.gif""style=""height:400px;""></stim_listA>",are touching each other,
null,"<div style=""font-size:60px;"">+</div>",,html-keyboard-response,42,299586,0.0-13.0-0.3,20173,List2A,white,woman,,,,null,,,,
null,"<img src=""stim_listA/talk5.gif""style=""height:400px;""></stim_listA>",,html-keyboard-response,43,301588,0.0-13.0-1.3,20173,List2A,white,woman,,,,null,,,,
null,is talking to,,html-keyboard-response,44,303590,0.0-13.0-2.3,20173,List2A,white,woman,,,,null,,,,
4032,,,survey-text,45,307623,0.0-13.0-3.3,20173,List2A,white,woman,,,,,"{""Q0"":""luke is talking to mike""}","<img src=""stim_listA/talk5.gif""style=""height:400px;""></stim_listA>",is talking to,
null,"<div style=""font-size:60px;"">+</div>",,html-keyboard-response,46,308126,0.0-13.0-0.4,20173,List2A,white,woman,,,,null,,,,
null,"<img src=""stim_listA/argue3.gif""style=""height:400px;""></stim_listA>",,html-keyboard-response,47,310128,0.0-13.0-1.4,20173,List2A,white,woman,,,,null,,,,
null,is arguing with,,html-keyboard-response,48,312130,0.0-13.0-2.4,20173,List2A,white,woman,,,,null,,,,
6887,,,survey-text,49,319019,0.0-13.0-3.4,20173,List2A,white,woman,,,,,"{""Q0"":""mike is arguing with beth""}","<img src=""stim_listA/argue3.gif""style=""height:400px;""></stim_listA>",is arguing with,
null,"<div style=""font-size:60px;"">+</div>",,html-keyboard-response,50,319521,0.0-13.0-0.5,20173,List2A,white,woman,,,,null,,,,
null,"<img src=""stim_listA/touch1.gif""style=""height:400px;""></stim_listA>",,html-keyboard-response,51,321523,0.0-13.0-1.5,20173,List2A,white,woman,,,,null,,,,
null,is touching,,html-keyboard-response,52,323527,0.0-13.0-2.5,20173,List2A,white,woman,,,,null,,,,
4357,,,survey-text,53,327886,0.0-13.0-3.5,20173,List2A,white,woman,,,,,"{""Q0"":""ruth is touching dave""}","<img src=""stim_listA/touch1.gif""style=""height:400px;""></stim_listA>",is touching,
null,"<div style=""font-size:60px;"">+</div>",,html-keyboard-response,54,328388,0.0-13.0-0.6,20173,List2A,white,woman,,,,null,,,,
null,"<img src=""stim_listA/dance1.gif""style=""height:400px;""></stim_listA>",,html-keyboard-response,55,330390,0.0-13.0-1.6,20173,List2A,white,woman,,,,null,,,,
null,is dancing with,,html-keyboard-response,56,332392,0.0-13.0-2.6,20173,List2A,white,woman,,,,null,,,,
3348,,,survey-text,57,335741,0.0-13.0-3.6,20173,List2A,white,woman,,,,,"{""Q0"":""luke is dancing with jane""}","<img src=""stim_listA/dance1.gif""style=""height:400px;""></stim_listA>",is dancing with,
null,"<div style=""font-size:60px;"">+</div>",,html-keyboard-response,58,336243,0.0-13.0-0.7,20173,List2A,white,woman,,,,null,,,,
null,"<img src=""stim_listA/fight2.gif""style=""height:400px;""></stim_listA>",,html-keyboard-response,59,338246,0.0-13.0-1.7,20173,List2A,white,woman,,,,null,,,,
null,are fighting each other,,html-keyboard-response,60,340247,0.0-13.0-2.7,20173,List2A,white,woman,,,,null,,,,
6828,,,survey-text,61,347077,0.0-13.0-3.7,20173,List2A,white,woman,,,,,"{""Q0"":""ruth and luke are fighting each other""}","<img src=""stim_listA/fight2.gif""style=""height:400px;""></stim_listA>",are fighting each other,
null,"<div style=""font-size:60px;"">+</div>",,html-keyboard-response,62,347578,0.0-13.0-0.8,20173,List2A,white,woman,,,,null,,,,
null,"<img src=""stim_listA/marry8.gif""style=""height:400px;""></stim_listA>",,html-keyboard-response,63,349587,0.0-13.0-1.8,20173,List2A,white,woman,,,,null,,,,
null,are marrying each other,,html-keyboard-response,64,351589,0.0-13.0-2.8,20173,List2A,white,woman,,,,null,,,,
5000,,,survey-text,65,356591,0.0-13.0-3.8,20173,List2A,white,woman,,,,,"{""Q0"":""kate and ruth are marrying each other""}","<img src=""stim_listA/marry8.gif""style=""height:400px;""></stim_listA>",are marrying each other,
null,"<div style=""font-size:60px;"">+</div>",,html-keyboard-response,66,357093,0.0-13.0-0.9,20173,List2A,white,woman,,,,null,,,,
null,"<img src=""stim_listA/flirt6.gif""style=""height:400px;""></stim_listA>",,html-keyboard-response,67,359094,0.0-13.0-1.9,20173,List2A,white,woman,,,,null,,,,
null,are flirting with each other,,html-keyboard-response,68,361096,0.0-13.0-2.9,20173,List2A,white,woman,,,,null,,,,
6903,,,survey-text,69,368002,0.0-13.0-3.9,20173,List2A,white,woman,,,,,"{""Q0"":""fred and dave are flirting with each other""}","<img src=""stim_listA/flirt6.gif""style=""height:400px;""></stim_listA>",are flirting with each other,
null,"<div style=""font-size:60px;"">+</div>",,html-keyboard-response,70,368504,0.0-13.0-0.10,20173,List2A,white,woman,,,,null,,,,
null,"<img src=""stim_listA/play8.gif""style=""height:400px;""></stim_listA>",,html-keyboard-response,71,370505,0.0-13.0-1.10,20173,List2A,white,woman,,,,null,,,,
null,are playing with each other,,html-keyboard-response,72,372506,0.0-13.0-2.10,20173,List2A,white,woman,,,,null,,,,
12255,,,survey-text,73,384762,0.0-13.0-3.10,20173,List2A,white,woman,,,,,"{""Q0"":""ruth and kate are fighting with each other""}","<img src=""stim_listA/play8.gif""style=""height:400px;""></stim_listA>",are playing with each other,
null,"<div style=""font-size:60px;"">+</div>",,html-keyboard-response,74,385263,0.0-13.0-0.11,20173,List2A,white,woman,,,,null,,,,
null,"<img src=""stim_listA/touch2.gif""style=""height:400px;""></stim_listA>",,html-keyboard-response,75,387265,0.0-13.0-1.11,20173,List2A,white,woman,,,,null,,,,
null,are touching each other,,html-keyboard-response,76,389267,0.0-13.0-2.11,20173,List2A,white,woman,,,,null,,,,
5418,,,survey-text,77,394685,0.0-13.0-3.11,20173,List2A,white,woman,,,,,"{""Q0"":""ruth and luke are touching each other""}","<img src=""stim_listA/touch2.gif""style=""height:400px;""></stim_listA>",are touching each other,
null,"<div style=""font-size:60px;"">+</div>",,html-keyboard-response,78,395187,0.0-13.0-0.12,20173,List2A,white,woman,,,,null,,,,
null,"<img src=""stim_listA/play2.gif""style=""height:400px;""></stim_listA>",,html-keyboard-response,79,397189,0.0-13.0-1.12,20173,List2A,white,woman,,,,null,,,,
null,are playing with each other,,html-keyboard-response,80,399190,0.0-13.0-2.12,20173,List2A,white,woman,,,,null,,,,
8642,,,survey-text,81,407833,0.0-13.0-3.12,20173,List2A,white,woman,,,,,"{""Q0"":""ruth and luke are playing with each other""}","<img src=""stim_listA/play2.gif""style=""height:400px;""></stim_listA>",are playing with each other,
null,"<div style=""font-size:60px;"">+</div>",,html-keyboard-response,82,408334,0.0-13.0-0.13,20173,List2A,white,woman,,,,null,,,,
null,"<img src=""stim_listA/marry3.gif""style=""height:400px;""></stim_listA>",,html-keyboard-response,83,410336,0.0-13.0-1.13,20173,List2A,white,woman,,,,null,,,,
null,is marrying,,html-keyboard-response,84,412338,0.0-13.0-2.13,20173,List2A,white,woman,,,,null,,,,
3347,,,survey-text,85,415685,0.0-13.0-3.13,20173,List2A,white,woman,,,,,"{""Q0"":""beth is marrying mike""}","<img src=""stim_listA/marry3.gif""style=""height:400px;""></stim_listA>",is marrying,
null,"<div style=""font-size:60px;"">+</div>",,html-keyboard-response,86,416186,0.0-13.0-0.14,20173,List2A,white,woman,,,,null,,,,
null,"<img src=""stim_listA/flirt8.gif""style=""height:400px;""></stim_listA>",,html-keyboard-response,87,418188,0.0-13.0-1.14,20173,List2A,white,woman,,,,null,,,,
null,are flirting with each other,,html-keyboard-response,88,420190,0.0-13.0-2.14,20173,List2A,white,woman,,,,null,,,,
4424,,,survey-text,89,424616,0.0-13.0-3.14,20173,List2A,white,woman,,,,,"{""Q0"":""beth and jane are flirting with each other""}","<img src=""stim_listA/flirt8.gif""style=""height:400px;""></stim_listA>",are flirting with each other,
null,"<div style=""font-size:60px;"">+</div>",,html-keyboard-response,90,425117,0.0-13.0-0.15,20173,List2A,white,woman,,,,null,,,,
null,"<img src=""stim_listA/talk6.gif""style=""height:400px;""></stim_listA>",,html-keyboard-response,91,427118,0.0-13.0-1.15,20173,List2A,white,woman,,,,null,,,,
null,are talking to each other,,html-keyboard-response,92,429121,0.0-13.0-2.15,20173,List2A,white,woman,,,,null,,,,
7109,,,survey-text,93,436230,0.0-13.0-3.15,20173,List2A,white,woman,,,,,"{""Q0"":""fred and dave are talking to each other""}","<img src=""stim_listA/talk6.gif""style=""height:400px;""></stim_listA>",are talking to each other,
null,"<div style=""font-size:60px;"">+</div>",,html-keyboard-response,94,436732,0.0-13.0-0.16,20173,List2A,white,woman,,,,null,,,,
null,"<img src=""stim_listA/play7.gif""style=""height:400px;""></stim_listA>",,html-keyboard-response,95,438733,0.0-13.0-1.16,20173,List2A,white,woman,,,,null,,,,
null,is playing with,,html-keyboard-response,96,440735,0.0-13.0-2.16,20173,List2A,white,woman,,,,null,,,,
7579,,,survey-text,97,448316,0.0-13.0-3.16,20173,List2A,white,woman,,,,,"{""Q0"":""kate is playing with jane""}","<img src=""stim_listA/play7.gif""style=""height:400px;""></stim_listA>",is playing with,
null,"<div style=""font-size:60px;"">+</div>",,html-keyboard-response,98,448817,0.0-13.0-0.17,20173,List2A,white,woman,,,,null,,,,
null,"<img src=""stim_listA/kiss5.gif""style=""height:400px;""></stim_listA>",,html-keyboard-response,99,450818,0.0-13.0-1.17,20173,List2A,white,woman,,,,null,,,,
null,is kissing,,html-keyboard-response,100,452820,0.0-13.0-2.17,20173,List2A,white,woman,,,,null,,,,
5154,,,survey-text,101,457974,0.0-13.0-3.17,20173,List2A,white,woman,,,,,"{""Q0"":""luke is kissing fred""}","<img src=""stim_listA/kiss5.gif""style=""height:400px;""></stim_listA>",is kissing,
null,"<div style=""font-size:60px;"">+</div>",,html-keyboard-response,102,458476,0.0-13.0-0.18,20173,List2A,white,woman,,,,null,,,,
null,"<img src=""stim_listA/marry2.gif""style=""height:400px;""></stim_listA>",,html-keyboard-response,103,460478,0.0-13.0-1.18,20173,List2A,white,woman,,,,null,,,,
null,are marrying each other,,html-keyboard-response,104,462480,0.0-13.0-2.18,20173,List2A,white,woman,,,,null,,,,
7803,,,survey-text,105,470285,0.0-13.0-3.18,20173,List2A,white,woman,,,,,"{""Q0"":""jane and luke are marrying each other""}","<img src=""stim_listA/marry2.gif""style=""height:400px;""></stim_listA>",are marrying each other,
null,"<div style=""font-size:60px;"">+</div>",,html-keyboard-response,106,470786,0.0-13.0-0.19,20173,List2A,white,woman,,,,null,,,,
null,"<img src=""stim_listA/marry5.gif""style=""height:400px;""></stim_listA>",,html-keyboard-response,107,472787,0.0-13.0-1.19,20173,List2A,white,woman,,,,null,,,,
null,is marrying,,html-keyboard-response,108,474788,0.0-13.0-2.19,20173,List2A,white,woman,,,,null,,,,
8715,,,survey-text,109,483504,0.0-13.0-3.19,20173,List2A,white,woman,,,,,"{""Q0"":""fred is marrying dave""}","<img src=""stim_listA/marry5.gif""style=""height:400px;""></stim_listA>",is marrying,
13006,"<img src='img/portrait_matrix_list2.jpg' style='width:900px;height:500px;''></img><p>If you have memorised all the portraits and names and are ready to start, press Continue.</p><p><strong>Please note: Your memory of these faces will be tested 4 times during this experiment.</strong></p>",0,html-button-response,110,496513,0.0-14.0-0.0,20173,List2A,white,woman,,,,,,,,
4473,"<img src=""portrait/BW1.jpg""style=""height:400px;""></img>",0,html-button-response,111,501989,0.0-14.0-1.0,20173,List2A,white,woman,,TRUE,0,,,,,
null,CORRECT,,html-keyboard-response,112,503491,0.0-14.0-2.0-0.0,20173,List2A,white,woman,,,,null,,,,
1455,"<img src=""portrait/WW2.jpg""style=""height:400px;""></img>",3,html-button-response,113,504948,0.0-14.0-4.0,20173,List2A,white,woman,,TRUE,3,,,,,
null,CORRECT,,html-keyboard-response,114,506449,0.0-14.0-5.0-0.0,20173,List2A,white,woman,,,,null,,,,
1813,"<img src=""portrait/BM2.jpg""style=""height:400px;""></img>",5,html-button-response,115,508265,0.0-14.0-7.0,20173,List2A,white,woman,,TRUE,5,,,,,
null,CORRECT,,html-keyboard-response,116,509767,0.0-14.0-8.0-0.0,20173,List2A,white,woman,,,,null,,,,
1395,"<img src=""portrait/WM2.jpg""style=""height:400px;""></img>",7,html-button-response,117,511163,0.0-14.0-10.0,20173,List2A,white,woman,,TRUE,7,,,,,
null,CORRECT,,html-keyboard-response,118,512664,0.0-14.0-11.0-0.0,20173,List2A,white,woman,,,,null,,,,
1669,"<img src=""portrait/WW1.jpg""style=""height:400px;""></img>",1,html-button-response,119,514335,0.0-14.0-13.0,20173,List2A,white,woman,,TRUE,1,,,,,
null,CORRECT,,html-keyboard-response,120,515836,0.0-14.0-14.0-0.0,20173,List2A,white,woman,,,,null,,,,
2272,"<img src=""portrait/WM1.jpg""style=""height:400px;""></img>",6,html-button-response,121,518110,0.0-14.0-16.0,20173,List2A,white,woman,,TRUE,6,,,,,
null,CORRECT,,html-keyboard-response,122,519612,0.0-14.0-17.0-0.0,20173,List2A,white,woman,,,,null,,,,
6303,"<img src=""portrait/BW2.jpg""style=""height:400px;""></img>",2,html-button-response,123,525917,0.0-14.0-19.0,20173,List2A,white,woman,,TRUE,2,,,,,
null,CORRECT,,html-keyboard-response,124,527418,0.0-14.0-20.0-0.0,20173,List2A,white,woman,,,,null,,,,
1435,"<img src=""portrait/BM1.jpg""style=""height:400px;""></img>",4,html-button-response,125,528855,0.0-14.0-22.0,20173,List2A,white,woman,,TRUE,4,,,,,
null,CORRECT,,html-keyboard-response,126,530357,0.0-14.0-23.0-0.0,20173,List2A,white,woman,,,,null,,,,
1114,<p>You got 8 out of 8 right first time. Press Continue.</p>,0,html-button-response,127,531473,0.0-14.0-25.0,20173,List2A,white,woman,,,,,,,,
null,"<div style=""font-size:60px;"">+</div>",,html-keyboard-response,128,532976,0.0-15.0-0.0,20173,List2A,white,woman,,,,null,,,,
null,"<img src=""stim_listA/talk3.gif""style=""height:400px;""></stim_listA>",,html-keyboard-response,129,534978,0.0-15.0-1.0,20173,List2A,white,woman,,,,null,,,,
null,is talking to,,html-keyboard-response,130,536979,0.0-15.0-2.0,20173,List2A,white,woman,,,,null,,,,
6113,,,survey-text,131,543094,0.0-15.0-3.0,20173,List2A,white,woman,,,,,"{""Q0"":""fred is talking to kate""}","<img src=""stim_listA/talk3.gif""style=""height:400px;""></stim_listA>",is talking to,
null,"<div style=""font-size:60px;"">+</div>",,html-keyboard-response,132,543596,0.0-15.0-0.1,20173,List2A,white,woman,,,,null,,,,
null,"<img src=""stim_listA/touch7.gif""style=""height:400px;""></stim_listA>",,html-keyboard-response,133,545597,0.0-15.0-1.1,20173,List2A,white,woman,,,,null,,,,
null,is touching,,html-keyboard-response,134,547599,0.0-15.0-2.1,20173,List2A,white,woman,,,,null,,,,
3203,,,survey-text,135,550814,0.0-15.0-3.1,20173,List2A,white,woman,,,,,"{""Q0"":""kate is touching jane""}","<img src=""stim_listA/touch7.gif""style=""height:400px;""></stim_listA>",is touching,
null,"<div style=""font-size:60px;"">+</div>",,html-keyboard-response,136,551316,0.0-15.0-0.2,20173,List2A,white,woman,,,,null,,,,
null,"<img src=""stim_listA/flirt1.gif""style=""height:400px;""></stim_listA>",,html-keyboard-response,137,553317,0.0-15.0-1.2,20173,List2A,white,woman,,,,null,,,,
null,is flirting with,,html-keyboard-response,138,555318,0.0-15.0-2.2,20173,List2A,white,woman,,,,null,,,,
6713,,,survey-text,139,562032,0.0-15.0-3.2,20173,List2A,white,woman,,,,,"{""Q0"":""jane is flirting with dave""}","<img src=""stim_listA/flirt1.gif""style=""height:400px;""></stim_listA>",is flirting with,
null,"<div style=""font-size:60px;"">+</div>",,html-keyboard-response,140,562533,0.0-15.0-0.3,20173,List2A,white,woman,,,,null,,,,
null,"<img src=""stim_listA/kiss1.gif""style=""height:400px;""></stim_listA>",,html-keyboard-response,141,564534,0.0-15.0-1.3,20173,List2A,white,woman,,,,null,,,,
null,is kissing,,html-keyboard-response,142,566536,0.0-15.0-2.3,20173,List2A,white,woman,,,,null,,,,
4242,,,survey-text,143,570780,0.0-15.0-3.3,20173,List2A,white,woman,,,,,"{""Q0"":""luke is kissing ruth""}","<img src=""stim_listA/kiss1.gif""style=""height:400px;""></stim_listA>",is kissing,
null,"<div style=""font-size:60px;"">+</div>",,html-keyboard-response,144,571281,0.0-15.0-0.4,20173,List2A,white,woman,,,,null,,,,
null,"<img src=""stim_listA/fight7.gif""style=""height:400px;""></stim_listA>",,html-keyboard-response,145,573282,0.0-15.0-1.4,20173,List2A,white,woman,,,,null,,,,
null,is fighting,,html-keyboard-response,146,575283,0.0-15.0-2.4,20173,List2A,white,woman,,,,null,,,,
3740,,,survey-text,147,579028,0.0-15.0-3.4,20173,List2A,white,woman,,,,,"{""Q0"":""jane is fighting kate""}","<img src=""stim_listA/fight7.gif""style=""height:400px;""></stim_listA>",is fighting,
null,"<div style=""font-size:60px;"">+</div>",,html-keyboard-response,148,579530,0.0-15.0-0.5,20173,List2A,white,woman,,,,null,,,,
null,"<img src=""stim_listA/touch8.gif""style=""height:400px;""></stim_listA>",,html-keyboard-response,149,581532,0.0-15.0-1.5,20173,List2A,white,woman,,,,null,,,,
null,are touching each other,,html-keyboard-response,150,583533,0.0-15.0-2.5,20173,List2A,white,woman,,,,null,,,,
5930,,,survey-text,151,589468,0.0-15.0-3.5,20173,List2A,white,woman,,,,,"{""Q0"":""beth and ruth are touching each other""}","<img src=""stim_listA/touch8.gif""style=""height:400px;""></stim_listA>",are touching each other,
null,"<div style=""font-size:60px;"">+</div>",,html-keyboard-response,152,589969,0.0-15.0-0.6,20173,List2A,white,woman,,,,null,,,,
null,"<img src=""stim_listA/talk1.gif""style=""height:400px;""></stim_listA>",,html-keyboard-response,153,591971,0.0-15.0-1.6,20173,List2A,white,woman,,,,null,,,,
null,is talking to,,html-keyboard-response,154,593973,0.0-15.0-2.6,20173,List2A,white,woman,,,,null,,,,
5355,,,survey-text,155,599330,0.0-15.0-3.6,20173,List2A,white,woman,,,,,"{""Q0"":""luke and jane are talking to each other""}","<img src=""stim_listA/talk1.gif""style=""height:400px;""></stim_listA>",is talking to,
null,"<div style=""font-size:60px;"">+</div>",,html-keyboard-response,156,599832,0.0-15.0-0.7,20173,List2A,white,woman,,,,null,,,,
null,"<img src=""stim_listA/fight1.gif""style=""height:400px;""></stim_listA>",,html-keyboard-response,157,601833,0.0-15.0-1.7,20173,List2A,white,woman,,,,null,,,,
null,is fighting,,html-keyboard-response,158,603835,0.0-15.0-2.7,20173,List2A,white,woman,,,,null,,,,
3642,,,survey-text,159,607478,0.0-15.0-3.7,20173,List2A,white,woman,,,,,"{""Q0"":""dave is fighting jane""}","<img src=""stim_listA/fight1.gif""style=""height:400px;""></stim_listA>",is fighting,
null,"<div style=""font-size:60px;"">+</div>",,html-keyboard-response,160,607981,0.0-15.0-0.8,20173,List2A,white,woman,,,,null,,,,
null,"<img src=""stim_listA/fight5.gif""style=""height:400px;""></stim_listA>",,html-keyboard-response,161,609983,0.0-15.0-1.8,20173,List2A,white,woman,,,,null,,,,
null,is fighting,,html-keyboard-response,162,611988,0.0-15.0-2.8,20173,List2A,white,woman,,,,null,,,,
3033,,,survey-text,163,615022,0.0-15.0-3.8,20173,List2A,white,woman,,,,,"{""Q0"":""dave is fighting mike""}","<img src=""stim_listA/fight5.gif""style=""height:400px;""></stim_listA>",is fighting,
null,"<div style=""font-size:60px;"">+</div>",,html-keyboard-response,164,615525,0.0-15.0-0.9,20173,List2A,white,woman,,,,null,,,,
null,"<img src=""stim_listA/kiss6.gif""style=""height:400px;""></stim_listA>",,html-keyboard-response,165,617527,0.0-15.0-1.9,20173,List2A,white,woman,,,,null,,,,
null,are kissing each other,,html-keyboard-response,166,619529,0.0-15.0-2.9,20173,List2A,white,woman,,,,null,,,,
4571,,,survey-text,167,624101,0.0-15.0-3.9,20173,List2A,white,woman,,,,,"{""Q0"":""mike and dave are kissing each other""}","<img src=""stim_listA/kiss6.gif""style=""height:400px;""></stim_listA>",are kissing each other,
null,"<div style=""font-size:60px;"">+</div>",,html-keyboard-response,168,624603,0.0-15.0-0.10,20173,List2A,white,woman,,,,null,,,,
null,"<img src=""stim_listA/shout7.gif""style=""height:400px;""></stim_listA>",,html-keyboard-response,169,626606,0.0-15.0-1.10,20173,List2A,white,woman,,,,null,,,,
null,is shouting at,,html-keyboard-response,170,628608,0.0-15.0-2.10,20173,List2A,white,woman,,,,null,,,,
3996,,,survey-text,171,632609,0.0-15.0-3.10,20173,List2A,white,woman,,,,,"{""Q0"":""ruth is shouting at beth""}","<img src=""stim_listA/shout7.gif""style=""height:400px;""></stim_listA>",is shouting at,
null,"<div style=""font-size:60px;"">+</div>",,html-keyboard-response,172,633111,0.0-15.0-0.11,20173,List2A,white,woman,,,,null,,,,
null,"<img src=""stim_listA/argue5.gif""style=""height:400px;""></stim_listA>",,html-keyboard-response,173,635113,0.0-15.0-1.11,20173,List2A,white,woman,,,,null,,,,
null,is arguing with,,html-keyboard-response,174,637115,0.0-15.0-2.11,20173,List2A,white,woman,,,,null,,,,
4846,,,survey-text,175,641963,0.0-15.0-3.11,20173,List2A,white,woman,,,,,"{""Q0"":""dave is arguing with fred""}","<img src=""stim_listA/argue5.gif""style=""height:400px;""></stim_listA>",is arguing with,
null,"<div style=""font-size:60px;"">+</div>",,html-keyboard-response,176,642465,0.0-15.0-0.12,20173,List2A,white,woman,,,,null,,,,
null,"<img src=""stim_listA/talk4.gif""style=""height:400px;""></stim_listA>",,html-keyboard-response,177,644468,0.0-15.0-1.12,20173,List2A,white,woman,,,,null,,,,
null,are talking to each other,,html-keyboard-response,178,646470,0.0-15.0-2.12,20173,List2A,white,woman,,,,null,,,,
12541,,,survey-text,179,659013,0.0-15.0-3.12,20173,List2A,white,woman,,,,,"{""Q0"":""mike and beth are talking to each other""}","<img src=""stim_listA/talk4.gif""style=""height:400px;""></stim_listA>",are talking to each other,
null,"<div style=""font-size:60px;"">+</div>",,html-keyboard-response,180,659515,0.0-15.0-0.13,20173,List2A,white,woman,,,,null,,,,
null,"<img src=""stim_listA/play3.gif""style=""height:400px;""></stim_listA>",,html-keyboard-response,181,661517,0.0-15.0-1.13,20173,List2A,white,woman,,,,null,,,,
null,is playing with,,html-keyboard-response,182,663520,0.0-15.0-2.13,20173,List2A,white,woman,,,,null,,,,
4805,,,survey-text,183,668328,0.0-15.0-3.13,20173,List2A,white,woman,,,,,"{""Q0"":""mike is playing with kate""}","<img src=""stim_listA/play3.gif""style=""height:400px;""></stim_listA>",is playing with,
null,"<div style=""font-size:60px;"">+</div>",,html-keyboard-response,184,668829,0.0-15.0-0.14,20173,List2A,white,woman,,,,null,,,,
null,"<img src=""stim_listA/marry7.gif""style=""height:400px;""></stim_listA>",,html-keyboard-response,185,670831,0.0-15.0-1.14,20173,List2A,white,woman,,,,null,,,,
null,is marrying,,html-keyboard-response,186,672834,0.0-15.0-2.14,20173,List2A,white,woman,,,,null,,,,
3220,,,survey-text,187,676054,0.0-15.0-3.14,20173,List2A,white,woman,,,,,"{""Q0"":""beth is marrying jane""}","<img src=""stim_listA/marry7.gif""style=""height:400px;""></stim_listA>",is marrying,
null,"<div style=""font-size:60px;"">+</div>",,html-keyboard-response,188,676556,0.0-15.0-0.15,20173,List2A,white,woman,,,,null,,,,
null,"<img src=""stim_listA/marry6.gif""style=""height:400px;""></stim_listA>",,html-keyboard-response,189,678558,0.0-15.0-1.15,20173,List2A,white,woman,,,,null,,,,
null,are marrying each other,,html-keyboard-response,190,680560,0.0-15.0-2.15,20173,List2A,white,woman,,,,null,,,,
5335,,,survey-text,191,685898,0.0-15.0-3.15,20173,List2A,white,woman,,,,,"{""Q0"":""mike and luke are marrying each other""}","<img src=""stim_listA/marry6.gif""style=""height:400px;""></stim_listA>",are marrying each other,
null,"<div style=""font-size:60px;"">+</div>",,html-keyboard-response,192,686400,0.0-15.0-0.16,20173,List2A,white,woman,,,,null,,,,
null,"<img src=""stim_listA/kiss2.gif""style=""height:400px;""></stim_listA>",,html-keyboard-response,193,688403,0.0-15.0-1.16,20173,List2A,white,woman,,,,null,,,,
null,are kissing each other,,html-keyboard-response,194,690405,0.0-15.0-2.16,20173,List2A,white,woman,,,,null,,,,
6040,,,survey-text,195,696446,0.0-15.0-3.16,20173,List2A,white,woman,,,,,"{""Q0"":""jane and dave are kissing each other""}","<img src=""stim_listA/kiss2.gif""style=""height:400px;""></stim_listA>",are kissing each other,
null,"<div style=""font-size:60px;"">+</div>",,html-keyboard-response,196,696948,0.0-15.0-0.17,20173,List2A,white,woman,,,,null,,,,
null,"<img src=""stim_listA/shout1.gif""style=""height:400px;""></stim_listA>",,html-keyboard-response,197,698951,0.0-15.0-1.17,20173,List2A,white,woman,,,,null,,,,
null,is shouting at,,html-keyboard-response,198,700954,0.0-15.0-2.17,20173,List2A,white,woman,,,,null,,,,
3908,,,survey-text,199,704862,0.0-15.0-3.17,20173,List2A,white,woman,,,,,"{""Q0"":""luke is shouting at ruth""}","<img src=""stim_listA/shout1.gif""style=""height:400px;""></stim_listA>",is shouting at,
null,"<div style=""font-size:60px;"">+</div>",,html-keyboard-response,200,705365,0.0-15.0-0.18,20173,List2A,white,woman,,,,null,,,,
null,"<img src=""stim_listA/touch4.gif""style=""height:400px;""></stim_listA>",,html-keyboard-response,201,707366,0.0-15.0-1.18,20173,List2A,white,woman,,,,null,,,,
null,are touching each other,,html-keyboard-response,202,709368,0.0-15.0-2.18,20173,List2A,white,woman,,,,null,,,,
6048,,,survey-text,203,715420,0.0-15.0-3.18,20173,List2A,white,woman,,,,,"{""Q0"":""beth and fred are touching each other""}","<img src=""stim_listA/touch4.gif""style=""height:400px;""></stim_listA>",are touching each other,
null,"<div style=""font-size:60px;"">+</div>",,html-keyboard-response,204,715922,0.0-15.0-0.19,20173,List2A,white,woman,,,,null,,,,
null,"<img src=""stim_listA/dance7.gif""style=""height:400px;""></stim_listA>",,html-keyboard-response,205,717925,0.0-15.0-1.19,20173,List2A,white,woman,,,,null,,,,
null,is dancing with,,html-keyboard-response,206,719927,0.0-15.0-2.19,20173,List2A,white,woman,,,,null,,,,
3750,,,survey-text,207,723680,0.0-15.0-3.19,20173,List2A,white,woman,,,,,"{""Q0"":""ruth is dancing with kate""}","<img src=""stim_listA/dance7.gif""style=""height:400px;""></stim_listA>",is dancing with,
1942,"<img src='img/portrait_matrix_list2.jpg' style='width:900px;height:500px;''></img><p>If you have memorised all the portraits and names and are ready to start, press Continue.</p><p><strong>Please note: Your memory of these faces will be tested 4 times during this experiment.</strong></p>",0,html-button-response,208,725623,0.0-16.0-0.0,20173,List2A,white,woman,,,,,,,,
1765,"<img src=""portrait/WM2.jpg""style=""height:400px;""></img>",7,html-button-response,209,728391,0.0-16.0-1.0,20173,List2A,white,woman,,TRUE,7,,,,,
null,CORRECT,,html-keyboard-response,210,729893,0.0-16.0-2.0-0.0,20173,List2A,white,woman,,,,null,,,,
1773,"<img src=""portrait/BM1.jpg""style=""height:400px;""></img>",4,html-button-response,211,731668,0.0-16.0-4.0,20173,List2A,white,woman,,TRUE,4,,,,,
null,CORRECT,,html-keyboard-response,212,733171,0.0-16.0-5.0-0.0,20173,List2A,white,woman,,,,null,,,,
1973,"<img src=""portrait/BM2.jpg""style=""height:400px;""></img>",5,html-button-response,213,735145,0.0-16.0-7.0,20173,List2A,white,woman,,TRUE,5,,,,,
null,CORRECT,,html-keyboard-response,214,736649,0.0-16.0-8.0-0.0,20173,List2A,white,woman,,,,null,,,,
1802,"<img src=""portrait/WW2.jpg""style=""height:400px;""></img>",3,html-button-response,215,738455,0.0-16.0-10.0,20173,List2A,white,woman,,TRUE,3,,,,,
null,CORRECT,,html-keyboard-response,216,739959,0.0-16.0-11.0-0.0,20173,List2A,white,woman,,,,null,,,,
2962,"<img src=""portrait/BW2.jpg""style=""height:400px;""></img>",2,html-button-response,217,742922,0.0-16.0-13.0,20173,List2A,white,woman,,TRUE,2,,,,,
null,CORRECT,,html-keyboard-response,218,744425,0.0-16.0-14.0-0.0,20173,List2A,white,woman,,,,null,,,,
1785,"<img src=""portrait/BW1.jpg""style=""height:400px;""></img>",0,html-button-response,219,746211,0.0-16.0-16.0,20173,List2A,white,woman,,TRUE,0,,,,,
null,CORRECT,,html-keyboard-response,220,747714,0.0-16.0-17.0-0.0,20173,List2A,white,woman,,,,null,,,,
1604,"<img src=""portrait/WW1.jpg""style=""height:400px;""></img>",1,html-button-response,221,749319,0.0-16.0-19.0,20173,List2A,white,woman,,TRUE,1,,,,,
null,CORRECT,,html-keyboard-response,222,750825,0.0-16.0-20.0-0.0,20173,List2A,white,woman,,,,null,,,,
1859,"<img src=""portrait/WM1.jpg""style=""height:400px;""></img>",6,html-button-response,223,752685,0.0-16.0-22.0,20173,List2A,white,woman,,TRUE,6,,,,,
null,CORRECT,,html-keyboard-response,224,754188,0.0-16.0-23.0-0.0,20173,List2A,white,woman,,,,null,,,,
1155,<p>You got 8 out of 8 right first time. Press Continue.</p>,0,html-button-response,225,755345,0.0-16.0-25.0,20173,List2A,white,woman,,,,,,,,
null,"<div style=""font-size:60px;"">+</div>",,html-keyboard-response,226,756849,0.0-17.0-0.0,20173,List2A,white,woman,,,,null,,,,
null,"<img src=""stim_listA/argue8.gif""style=""height:400px;""></stim_listA>",,html-keyboard-response,227,758851,0.0-17.0-1.0,20173,List2A,white,woman,,,,null,,,,
null,are arguing with each other,,html-keyboard-response,228,760854,0.0-17.0-2.0,20173,List2A,white,woman,,,,null,,,,
5312,,,survey-text,229,766167,0.0-17.0-3.0,20173,List2A,white,woman,,,,,"{""Q0"":""ruth and kate are arguing with each other""}","<img src=""stim_listA/argue8.gif""style=""height:400px;""></stim_listA>",are arguing with each other,
null,"<div style=""font-size:60px;"">+</div>",,html-keyboard-response,230,766669,0.0-17.0-0.1,20173,List2A,white,woman,,,,null,,,,
null,"<img src=""stim_listA/flirt7.gif""style=""height:400px;""></stim_listA>",,html-keyboard-response,231,768672,0.0-17.0-1.1,20173,List2A,white,woman,,,,null,,,,
null,is flirting with,,html-keyboard-response,232,770674,0.0-17.0-2.1,20173,List2A,white,woman,,,,null,,,,
9099,,,survey-text,233,779775,0.0-17.0-3.1,20173,List2A,white,woman,,,,,"{""Q0"":""kate is flirting with ruth""}","<img src=""stim_listA/flirt7.gif""style=""height:400px;""></stim_listA>",is flirting with,
null,"<div style=""font-size:60px;"">+</div>",,html-keyboard-response,234,780277,0.0-17.0-0.2,20173,List2A,white,woman,,,,null,,,,
null,"<img src=""stim_listA/dance6.gif""style=""height:400px;""></stim_listA>",,html-keyboard-response,235,782280,0.0-17.0-1.2,20173,List2A,white,woman,,,,null,,,,
null,are dancing with each other,,html-keyboard-response,236,784282,0.0-17.0-2.2,20173,List2A,white,woman,,,,null,,,,
4848,,,survey-text,237,789131,0.0-17.0-3.2,20173,List2A,white,woman,,,,,"{""Q0"":""fred and dave are dancing with each other""}","<img src=""stim_listA/dance6.gif""style=""height:400px;""></stim_listA>",are dancing with each other,
null,"<div style=""font-size:60px;"">+</div>",,html-keyboard-response,238,789633,0.0-17.0-0.3,20173,List2A,white,woman,,,,null,,,,
null,"<img src=""stim_listA/argue4.gif""style=""height:400px;""></stim_listA>",,html-keyboard-response,239,791635,0.0-17.0-1.3,20173,List2A,white,woman,,,,null,,,,
null,are arguing with each other,,html-keyboard-response,240,793637,0.0-17.0-2.3,20173,List2A,white,woman,,,,null,,,,
4614,,,survey-text,241,798252,0.0-17.0-3.3,20173,List2A,white,woman,,,,,"{""Q0"":""fred and kate are arguing with each other""}","<img src=""stim_listA/argue4.gif""style=""height:400px;""></stim_listA>",are arguing with each other,
null,"<div style=""font-size:60px;"">+</div>",,html-keyboard-response,242,798754,0.0-17.0-0.4,20173,List2A,white,woman,,,,null,,,,
null,"<img src=""stim_listA/fight8.gif""style=""height:400px;""></stim_listA>",,html-keyboard-response,243,800756,0.0-17.0-1.4,20173,List2A,white,woman,,,,null,,,,
null,are fighting each other,,html-keyboard-response,244,802759,0.0-17.0-2.4,20173,List2A,white,woman,,,,null,,,,
5873,,,survey-text,245,808633,0.0-17.0-3.4,20173,List2A,white,woman,,,,,"{""Q0"":""beth and ruth are fighting each other""}","<img src=""stim_listA/fight8.gif""style=""height:400px;""></stim_listA>",are fighting each other,
null,"<div style=""font-size:60px;"">+</div>",,html-keyboard-response,246,809135,0.0-17.0-0.5,20173,List2A,white,woman,,,,null,,,,
null,"<img src=""stim_listA/flirt4.gif""style=""height:400px;""></stim_listA>",,html-keyboard-response,247,811137,0.0-17.0-1.5,20173,List2A,white,woman,,,,null,,,,
null,are flirting with each other,,html-keyboard-response,248,813139,0.0-17.0-2.5,20173,List2A,white,woman,,,,null,,,,
5088,,,survey-text,249,818229,0.0-17.0-3.5,20173,List2A,white,woman,,,,,"{""Q0"":""beth and mike are flirting with each other""}","<img src=""stim_listA/flirt4.gif""style=""height:400px;""></stim_listA>",are flirting with each other,
null,"<div style=""font-size:60px;"">+</div>",,html-keyboard-response,250,818731,0.0-17.0-0.6,20173,List2A,white,woman,,,,null,,,,
null,"<img src=""stim_listA/play6.gif""style=""height:400px;""></stim_listA>",,html-keyboard-response,251,820735,0.0-17.0-1.6,20173,List2A,white,woman,,,,null,,,,
null,are playing with each other,,html-keyboard-response,252,822738,0.0-17.0-2.6,20173,List2A,white,woman,,,,null,,,,
5057,,,survey-text,253,827797,0.0-17.0-3.6,20173,List2A,white,woman,,,,,"{""Q0"":""fred and luke are playing with each other""}","<img src=""stim_listA/play6.gif""style=""height:400px;""></stim_listA>",are playing with each other,
null,"<div style=""font-size:60px;"">+</div>",,html-keyboard-response,254,828298,0.0-17.0-0.7,20173,List2A,white,woman,,,,null,,,,
null,"<img src=""stim_listA/shout4.gif""style=""height:400px;""></stim_listA>",,html-keyboard-response,255,830300,0.0-17.0-1.7,20173,List2A,white,woman,,,,null,,,,
null,are shouting at each other,,html-keyboard-response,256,832302,0.0-17.0-2.7,20173,List2A,white,woman,,,,null,,,,
5376,,,survey-text,257,837681,0.0-17.0-3.7,20173,List2A,white,woman,,,,,"{""Q0"":""mike and beth are shouting at each other""}","<img src=""stim_listA/shout4.gif""style=""height:400px;""></stim_listA>",are shouting at each other,
null,"<div style=""font-size:60px;"">+</div>",,html-keyboard-response,258,838184,0.0-17.0-0.8,20173,List2A,white,woman,,,,null,,,,
null,"<img src=""stim_listA/touch5.gif""style=""height:400px;""></stim_listA>",,html-keyboard-response,259,840186,0.0-17.0-1.8,20173,List2A,white,woman,,,,null,,,,
null,is touching,,html-keyboard-response,260,842189,0.0-17.0-2.8,20173,List2A,white,woman,,,,null,,,,
2949,,,survey-text,261,845139,0.0-17.0-3.8,20173,List2A,white,woman,,,,,"{""Q0"":""dave is touching mike""}","<img src=""stim_listA/touch5.gif""style=""height:400px;""></stim_listA>",is touching,
null,"<div style=""font-size:60px;"">+</div>",,html-keyboard-response,262,845640,0.0-17.0-0.9,20173,List2A,white,woman,,,,null,,,,
null,"<img src=""stim_listA/argue1.gif""style=""height:400px;""></stim_listA>",,html-keyboard-response,263,847643,0.0-17.0-1.9,20173,List2A,white,woman,,,,null,,,,
null,is arguing with,,html-keyboard-response,264,849645,0.0-17.0-2.9,20173,List2A,white,woman,,,,null,,,,
3740,,,survey-text,265,853389,0.0-17.0-3.9,20173,List2A,white,woman,,,,,"{""Q0"":""dave is arguing with ruth""}","<img src=""stim_listA/argue1.gif""style=""height:400px;""></stim_listA>",is arguing with,
null,"<div style=""font-size:60px;"">+</div>",,html-keyboard-response,266,853891,0.0-17.0-0.10,20173,List2A,white,woman,,,,null,,,,
null,"<img src=""stim_listA/dance2.gif""style=""height:400px;""></stim_listA>",,html-keyboard-response,267,855894,0.0-17.0-1.10,20173,List2A,white,woman,,,,null,,,,
null,are dancing with each other,,html-keyboard-response,268,857896,0.0-17.0-2.10,20173,List2A,white,woman,,,,null,,,,
4861,,,survey-text,269,862758,0.0-17.0-3.10,20173,List2A,white,woman,,,,,"{""Q0"":""dave and ruth are dancing with each other""}","<img src=""stim_listA/dance2.gif""style=""height:400px;""></stim_listA>",are dancing with each other,
null,"<div style=""font-size:60px;"">+</div>",,html-keyboard-response,270,863260,0.0-17.0-0.11,20173,List2A,white,woman,,,,null,,,,
null,"<img src=""stim_listA/dance5.gif""style=""height:400px;""></stim_listA>",,html-keyboard-response,271,865263,0.0-17.0-1.11,20173,List2A,white,woman,,,,null,,,,
null,is dancing with,,html-keyboard-response,272,867265,0.0-17.0-2.11,20173,List2A,white,woman,,,,null,,,,
3623,,,survey-text,273,870889,0.0-17.0-3.11,20173,List2A,white,woman,,,,,"{""Q0"":""luke is dancing with mike""}","<img src=""stim_listA/dance5.gif""style=""height:400px;""></stim_listA>",is dancing with,
null,"<div style=""font-size:60px;"">+</div>",,html-keyboard-response,274,871391,0.0-17.0-0.12,20173,List2A,white,woman,,,,null,,,,
null,"<img src=""stim_listA/dance8.gif""style=""height:400px;""></stim_listA>",,html-keyboard-response,275,873393,0.0-17.0-1.12,20173,List2A,white,woman,,,,null,,,,
null,are dancing with each other,,html-keyboard-response,276,875395,0.0-17.0-2.12,20173,List2A,white,woman,,,,null,,,,
5273,,,survey-text,277,880671,0.0-17.0-3.12,20173,List2A,white,woman,,,,,"{""Q0"":""jane and beth are dancing with each other""}","<img src=""stim_listA/dance8.gif""style=""height:400px;""></stim_listA>",are dancing with each other,
null,"<div style=""font-size:60px;"">+</div>",,html-keyboard-response,278,881173,0.0-17.0-0.13,20173,List2A,white,woman,,,,null,,,,
null,"<img src=""stim_listA/play1.gif""style=""height:400px;""></stim_listA>",,html-keyboard-response,279,883176,0.0-17.0-1.13,20173,List2A,white,woman,,,,null,,,,
null,is playing with,,html-keyboard-response,280,885178,0.0-17.0-2.13,20173,List2A,white,woman,,,,null,,,,
3130,,,survey-text,281,888309,0.0-17.0-3.13,20173,List2A,white,woman,,,,,"{""Q0"":""jane is playing with dave""}","<img src=""stim_listA/play1.gif""style=""height:400px;""></stim_listA>",is playing with,
null,"<div style=""font-size:60px;"">+</div>",,html-keyboard-response,282,888811,0.0-17.0-0.14,20173,List2A,white,woman,,,,null,,,,
null,"<img src=""stim_listA/argue2.gif""style=""height:400px;""></stim_listA>",,html-keyboard-response,283,890816,0.0-17.0-1.14,20173,List2A,white,woman,,,,null,,,,
null,are arguing with each other,,html-keyboard-response,284,892819,0.0-17.0-2.14,20173,List2A,white,woman,,,,null,,,,
4798,,,survey-text,285,897618,0.0-17.0-3.14,20173,List2A,white,woman,,,,,"{""Q0"":""jane and luke are arguing with each other""}","<img src=""stim_listA/argue2.gif""style=""height:400px;""></stim_listA>",are arguing with each other,
null,"<div style=""font-size:60px;"">+</div>",,html-keyboard-response,286,898119,0.0-17.0-0.15,20173,List2A,white,woman,,,,null,,,,
null,"<img src=""stim_listA/flirt5.gif""style=""height:400px;""></stim_listA>",,html-keyboard-response,287,900121,0.0-17.0-1.15,20173,List2A,white,woman,,,,null,,,,
null,is flirting with,,html-keyboard-response,288,902123,0.0-17.0-2.15,20173,List2A,white,woman,,,,null,,,,
3762,,,survey-text,289,905888,0.0-17.0-3.15,20173,List2A,white,woman,,,,,"{""Q0"":""luke is flirting with mike""}","<img src=""stim_listA/flirt5.gif""style=""height:400px;""></stim_listA>",is flirting with,
null,"<div style=""font-size:60px;"">+</div>",,html-keyboard-response,290,906390,0.0-17.0-0.16,20173,List2A,white,woman,,,,null,,,,
null,"<img src=""stim_listA/kiss3.gif""style=""height:400px;""></stim_listA>",,html-keyboard-response,291,908392,0.0-17.0-1.16,20173,List2A,white,woman,,,,null,,,,
null,is kissing,,html-keyboard-response,292,910394,0.0-17.0-2.16,20173,List2A,white,woman,,,,null,,,,
3636,,,survey-text,293,914031,0.0-17.0-3.16,20173,List2A,white,woman,,,,,"{""Q0"":""fred is kissing beth""}","<img src=""stim_listA/kiss3.gif""style=""height:400px;""></stim_listA>",is kissing,
null,"<div style=""font-size:60px;"">+</div>",,html-keyboard-response,294,914534,0.0-17.0-0.17,20173,List2A,white,woman,,,,null,,,,
null,"<img src=""stim_listA/argue6.gif""style=""height:400px;""></stim_listA>",,html-keyboard-response,295,916536,0.0-17.0-1.17,20173,List2A,white,woman,,,,null,,,,
null,are arguing with each other,,html-keyboard-response,296,918538,0.0-17.0-2.17,20173,List2A,white,woman,,,,null,,,,
4441,,,survey-text,297,922981,0.0-17.0-3.17,20173,List2A,white,woman,,,,,"{""Q0"":""mike and luke are arguing with each other""}","<img src=""stim_listA/argue6.gif""style=""height:400px;""></stim_listA>",are arguing with each other,
null,"<div style=""font-size:60px;"">+</div>",,html-keyboard-response,298,923483,0.0-17.0-0.18,20173,List2A,white,woman,,,,null,,,,
null,"<img src=""stim_listA/kiss7.gif""style=""height:400px;""></stim_listA>",,html-keyboard-response,299,925485,0.0-17.0-1.18,20173,List2A,white,woman,,,,null,,,,
null,is kissing,,html-keyboard-response,300,927487,0.0-17.0-2.18,20173,List2A,white,woman,,,,null,,,,
2989,,,survey-text,301,930477,0.0-17.0-3.18,20173,List2A,white,woman,,,,,"{""Q0"":""beth is kissing ruth""}","<img src=""stim_listA/kiss7.gif""style=""height:400px;""></stim_listA>",is kissing,
null,"<div style=""font-size:60px;"">+</div>",,html-keyboard-response,302,930979,0.0-17.0-0.19,20173,List2A,white,woman,,,,null,,,,
null,"<img src=""stim_listA/shout5.gif""style=""height:400px;""></stim_listA>",,html-keyboard-response,303,932981,0.0-17.0-1.19,20173,List2A,white,woman,,,,null,,,,
null,is shouting at,,html-keyboard-response,304,934983,0.0-17.0-2.19,20173,List2A,white,woman,,,,null,,,,
7348,,,survey-text,305,942333,0.0-17.0-3.19,20173,List2A,white,woman,,,,,"{""Q0"":""luke is shouting at fred""}","<img src=""stim_listA/shout5.gif""style=""height:400px;""></stim_listA>",is shouting at,
2608,"<img src='img/portrait_matrix_list2.jpg' style='width:900px;height:500px;''></img><p>If you have memorised all the portraits and names and are ready to start, press Continue.</p><p><strong>Please note: Your memory of these faces will be tested 4 times during this experiment.</strong></p>",0,html-button-response,306,944943,0.0-18.0-0.0,20173,List2A,white,woman,,,,,,,,
1745,"<img src=""portrait/WW1.jpg""style=""height:400px;""></img>",1,html-button-response,307,947690,0.0-18.0-1.0,20173,List2A,white,woman,,TRUE,1,,,,,
null,CORRECT,,html-keyboard-response,308,949193,0.0-18.0-2.0-0.0,20173,List2A,white,woman,,,,null,,,,
2288,"<img src=""portrait/BW2.jpg""style=""height:400px;""></img>",2,html-button-response,309,951483,0.0-18.0-4.0,20173,List2A,white,woman,,TRUE,2,,,,,
null,CORRECT,,html-keyboard-response,310,952986,0.0-18.0-5.0-0.0,20173,List2A,white,woman,,,,null,,,,
1269,"<img src=""portrait/BM2.jpg""style=""height:400px;""></img>",5,html-button-response,311,954256,0.0-18.0-7.0,20173,List2A,white,woman,,TRUE,5,,,,,
null,CORRECT,,html-keyboard-response,312,955758,0.0-18.0-8.0-0.0,20173,List2A,white,woman,,,,null,,,,
1211,"<img src=""portrait/WM2.jpg""style=""height:400px;""></img>",7,html-button-response,313,956971,0.0-18.0-10.0,20173,List2A,white,woman,,TRUE,7,,,,,
null,CORRECT,,html-keyboard-response,314,958472,0.0-18.0-11.0-0.0,20173,List2A,white,woman,,,,null,,,,
3097,"<img src=""portrait/BW1.jpg""style=""height:400px;""></img>",0,html-button-response,315,961571,0.0-18.0-13.0,20173,List2A,white,woman,,TRUE,0,,,,,
null,CORRECT,,html-keyboard-response,316,963072,0.0-18.0-14.0-0.0,20173,List2A,white,woman,,,,null,,,,
1459,"<img src=""portrait/BM1.jpg""style=""height:400px;""></img>",4,html-button-response,317,964536,0.0-18.0-16.0,20173,List2A,white,woman,,TRUE,4,,,,,
null,CORRECT,,html-keyboard-response,318,966037,0.0-18.0-17.0-0.0,20173,List2A,white,woman,,,,null,,,,
1372,"<img src=""portrait/WW2.jpg""style=""height:400px;""></img>",3,html-button-response,319,967411,0.0-18.0-19.0,20173,List2A,white,woman,,TRUE,3,,,,,
null,CORRECT,,html-keyboard-response,320,968913,0.0-18.0-20.0-0.0,20173,List2A,white,woman,,,,null,,,,
1582,"<img src=""portrait/WM1.jpg""style=""height:400px;""></img>",6,html-button-response,321,970496,0.0-18.0-22.0,20173,List2A,white,woman,,TRUE,6,,,,,
null,CORRECT,,html-keyboard-response,322,971997,0.0-18.0-23.0-0.0,20173,List2A,white,woman,,,,null,,,,
1270,<p>You got 8 out of 8 right first time. Press Continue.</p>,0,html-button-response,323,973269,0.0-18.0-25.0,20173,List2A,white,woman,,,,,,,,
null,"<div style=""font-size:60px;"">+</div>",,html-keyboard-response,324,974772,0.0-19.0-0.0,20173,List2A,white,woman,,,,null,,,,
null,"<img src=""stim_listA/marry1.gif""style=""height:400px;""></stim_listA>",,html-keyboard-response,325,976773,0.0-19.0-1.0,20173,List2A,white,woman,,,,null,,,,
null,is marrying,,html-keyboard-response,326,978775,0.0-19.0-2.0,20173,List2A,white,woman,,,,null,,,,
3537,,,survey-text,327,982313,0.0-19.0-3.0,20173,List2A,white,woman,,,,,"{""Q0"":""dave is marrying ruth""}","<img src=""stim_listA/marry1.gif""style=""height:400px;""></stim_listA>",is marrying,
null,"<div style=""font-size:60px;"">+</div>",,html-keyboard-response,328,982814,0.0-19.0-0.1,20173,List2A,white,woman,,,,null,,,,
null,"<img src=""stim_listA/play4.gif""style=""height:400px;""></stim_listA>",,html-keyboard-response,329,984816,0.0-19.0-1.1,20173,List2A,white,woman,,,,null,,,,
null,are playing with each other,,html-keyboard-response,330,986818,0.0-19.0-2.1,20173,List2A,white,woman,,,,null,,,,
5146,,,survey-text,331,991965,0.0-19.0-3.1,20173,List2A,white,woman,,,,,"{""Q0"":""beth and fred are playing with each other""}","<img src=""stim_listA/play4.gif""style=""height:400px;""></stim_listA>",are playing with each other,
null,"<div style=""font-size:60px;"">+</div>",,html-keyboard-response,332,992467,0.0-19.0-0.2,20173,List2A,white,woman,,,,null,,,,
null,"<img src=""stim_listA/marry4.gif""style=""height:400px;""></stim_listA>",,html-keyboard-response,333,994469,0.0-19.0-1.2,20173,List2A,white,woman,,,,null,,,,
null,are marrying each other,,html-keyboard-response,334,996471,0.0-19.0-2.2,20173,List2A,white,woman,,,,null,,,,
4679,,,survey-text,335,1001150,0.0-19.0-3.2,20173,List2A,white,woman,,,,,"{""Q0"":""fred and kate are marrying each other""}","<img src=""stim_listA/marry4.gif""style=""height:400px;""></stim_listA>",are marrying each other,
null,"<div style=""font-size:60px;"">+</div>",,html-keyboard-response,336,1001652,0.0-19.0-0.3,20173,List2A,white,woman,,,,null,,,,
null,"<img src=""stim_listA/touch3.gif""style=""height:400px;""></stim_listA>",,html-keyboard-response,337,1003654,0.0-19.0-1.3,20173,List2A,white,woman,,,,null,,,,
null,is touching,,html-keyboard-response,338,1005655,0.0-19.0-2.3,20173,List2A,white,woman,,,,null,,,,
3599,,,survey-text,339,1009255,0.0-19.0-3.3,20173,List2A,white,woman,,,,,"{""Q0"":""mike is touching kate""}","<img src=""stim_listA/touch3.gif""style=""height:400px;""></stim_listA>",is touching,
null,"<div style=""font-size:60px;"">+</div>",,html-keyboard-response,340,1009757,0.0-19.0-0.4,20173,List2A,white,woman,,,,null,,,,
null,"<img src=""stim_listA/fight6.gif""style=""height:400px;""></stim_listA>",,html-keyboard-response,341,1011759,0.0-19.0-1.4,20173,List2A,white,woman,,,,null,,,,
null,are fighting each other,,html-keyboard-response,342,1013760,0.0-19.0-2.4,20173,List2A,white,woman,,,,null,,,,
5240,,,survey-text,343,1019002,0.0-19.0-3.4,20173,List2A,white,woman,,,,,"{""Q0"":""fred and luke are fighting each other""}","<img src=""stim_listA/fight6.gif""style=""height:400px;""></stim_listA>",are fighting each other,
null,"<div style=""font-size:60px;"">+</div>",,html-keyboard-response,344,1019504,0.0-19.0-0.5,20173,List2A,white,woman,,,,null,,,,
null,"<img src=""stim_listA/talk8.gif""style=""height:400px;""></stim_listA>",,html-keyboard-response,345,1021506,0.0-19.0-1.5,20173,List2A,white,woman,,,,null,,,,
null,are talking to each other,,html-keyboard-response,346,1023507,0.0-19.0-2.5,20173,List2A,white,woman,,,,null,,,,
4311,,,survey-text,347,1027822,0.0-19.0-3.5,20173,List2A,white,woman,,,,,"{""Q0"":""beth and jane are talking to each other""}","<img src=""stim_listA/talk8.gif""style=""height:400px;""></stim_listA>",are talking to each other,
null,"<div style=""font-size:60px;"">+</div>",,html-keyboard-response,348,1028323,0.0-19.0-0.6,20173,List2A,white,woman,,,,null,,,,
null,"<img src=""stim_listA/argue7.gif""style=""height:400px;""></stim_listA>",,html-keyboard-response,349,1030325,0.0-19.0-1.6,20173,List2A,white,woman,,,,null,,,,
null,is arguing with,,html-keyboard-response,350,1032326,0.0-19.0-2.6,20173,List2A,white,woman,,,,null,,,,
3579,,,survey-text,351,1035906,0.0-19.0-3.6,20173,List2A,white,woman,,,,,"{""Q0"":""beth is arguing with jane""}","<img src=""stim_listA/argue7.gif""style=""height:400px;""></stim_listA>",is arguing with,
null,"<div style=""font-size:60px;"">+</div>",,html-keyboard-response,352,1036408,0.0-19.0-0.7,20173,List2A,white,woman,,,,null,,,,
null,"<img src=""stim_listA/kiss8.gif""style=""height:400px;""></stim_listA>",,html-keyboard-response,353,1038410,0.0-19.0-1.7,20173,List2A,white,woman,,,,null,,,,
null,are kissing each other,,html-keyboard-response,354,1040411,0.0-19.0-2.7,20173,List2A,white,woman,,,,null,,,,
4617,,,survey-text,355,1045029,0.0-19.0-3.7,20173,List2A,white,woman,,,,,"{""Q0"":""jane and kate are kissing each other""}","<img src=""stim_listA/kiss8.gif""style=""height:400px;""></stim_listA>",are kissing each other,
null,"<div style=""font-size:60px;"">+</div>",,html-keyboard-response,356,1045530,0.0-19.0-0.8,20173,List2A,white,woman,,,,null,,,,
null,"<img src=""stim_listA/kiss4.gif""style=""height:400px;""></stim_listA>",,html-keyboard-response,357,1047532,0.0-19.0-1.8,20173,List2A,white,woman,,,,null,,,,
null,are kissing each other,,html-keyboard-response,358,1049534,0.0-19.0-2.8,20173,List2A,white,woman,,,,null,,,,
5271,,,survey-text,359,1054806,0.0-19.0-3.8,20173,List2A,white,woman,,,,,"{""Q0"":""mike and kate are kissing each other""}","<img src=""stim_listA/kiss4.gif""style=""height:400px;""></stim_listA>",are kissing each other,
null,"<div style=""font-size:60px;"">+</div>",,html-keyboard-response,360,1055308,0.0-19.0-0.9,20173,List2A,white,woman,,,,null,,,,
null,"<img src=""stim_listA/fight3.gif""style=""height:400px;""></stim_listA>",,html-keyboard-response,361,1057309,0.0-19.0-1.9,20173,List2A,white,woman,,,,null,,,,
null,is fighting,,html-keyboard-response,362,1059311,0.0-19.0-2.9,20173,List2A,white,woman,,,,null,,,,
4775,,,survey-text,363,1064087,0.0-19.0-3.9,20173,List2A,white,woman,,,,,"{""Q0"":""mike is fighting with kate""}","<img src=""stim_listA/fight3.gif""style=""height:400px;""></stim_listA>",is fighting,
null,"<div style=""font-size:60px;"">+</div>",,html-keyboard-response,364,1064588,0.0-19.0-0.10,20173,List2A,white,woman,,,,null,,,,
null,"<img src=""stim_listA/talk7.gif""style=""height:400px;""></stim_listA>",,html-keyboard-response,365,1066590,0.0-19.0-1.10,20173,List2A,white,woman,,,,null,,,,
null,is talking to,,html-keyboard-response,366,1068592,0.0-19.0-2.10,20173,List2A,white,woman,,,,null,,,,
3785,,,survey-text,367,1072379,0.0-19.0-3.10,20173,List2A,white,woman,,,,,"{""Q0"":""kate is talking to ruth""}","<img src=""stim_listA/talk7.gif""style=""height:400px;""></stim_listA>",is talking to,
null,"<div style=""font-size:60px;"">+</div>",,html-keyboard-response,368,1072880,0.0-19.0-0.11,20173,List2A,white,woman,,,,null,,,,
null,"<img src=""stim_listA/dance4.gif""style=""height:400px;""></stim_listA>",,html-keyboard-response,369,1074882,0.0-19.0-1.11,20173,List2A,white,woman,,,,null,,,,
null,are dancing with each other,,html-keyboard-response,370,1076885,0.0-19.0-2.11,20173,List2A,white,woman,,,,null,,,,
5260,,,survey-text,371,1082148,0.0-19.0-3.11,20173,List2A,white,woman,,,,,"{""Q0"":""mike and beth are dancing with each other""}","<img src=""stim_listA/dance4.gif""style=""height:400px;""></stim_listA>",are dancing with each other,
null,"<div style=""font-size:60px;"">+</div>",,html-keyboard-response,372,1082650,0.0-19.0-0.12,20173,List2A,white,woman,,,,null,,,,
null,"<img src=""stim_listA/shout8.gif""style=""height:400px;""></stim_listA>",,html-keyboard-response,373,1084652,0.0-19.0-1.12,20173,List2A,white,woman,,,,null,,,,
null,are shouting at each other,,html-keyboard-response,374,1086653,0.0-19.0-2.12,20173,List2A,white,woman,,,,null,,,,
5373,,,survey-text,375,1092028,0.0-19.0-3.12,20173,List2A,white,woman,,,,,"{""Q0"":""jane and kate are shouting at each other""}","<img src=""stim_listA/shout8.gif""style=""height:400px;""></stim_listA>",are shouting at each other,
null,"<div style=""font-size:60px;"">+</div>",,html-keyboard-response,376,1092529,0.0-19.0-0.13,20173,List2A,white,woman,,,,null,,,,
null,"<img src=""stim_listA/fight4.gif""style=""height:400px;""></stim_listA>",,html-keyboard-response,377,1094531,0.0-19.0-1.13,20173,List2A,white,woman,,,,null,,,,
null,are fighting each other,,html-keyboard-response,378,1096533,0.0-19.0-2.13,20173,List2A,white,woman,,,,null,,,,
4258,,,survey-text,379,1100795,0.0-19.0-3.13,20173,List2A,white,woman,,,,,"{""Q0"":""beth and fred are fighting each other""}","<img src=""stim_listA/fight4.gif""style=""height:400px;""></stim_listA>",are fighting each other,
null,"<div style=""font-size:60px;"">+</div>",,html-keyboard-response,380,1101296,0.0-19.0-0.14,20173,List2A,white,woman,,,,null,,,,
null,"<img src=""stim_listA/dance3.gif""style=""height:400px;""></stim_listA>",,html-keyboard-response,381,1103298,0.0-19.0-1.14,20173,List2A,white,woman,,,,null,,,,
null,is dancing with,,html-keyboard-response,382,1105300,0.0-19.0-2.14,20173,List2A,white,woman,,,,null,,,,
3074,,,survey-text,383,1108375,0.0-19.0-3.14,20173,List2A,white,woman,,,,,"{""Q0"":""fred is dancing with kate""}","<img src=""stim_listA/dance3.gif""style=""height:400px;""></stim_listA>",is dancing with,
null,"<div style=""font-size:60px;"">+</div>",,html-keyboard-response,384,1108876,0.0-19.0-0.15,20173,List2A,white,woman,,,,null,,,,
null,"<img src=""stim_listA/shout6.gif""style=""height:400px;""></stim_listA>",,html-keyboard-response,385,1110878,0.0-19.0-1.15,20173,List2A,white,woman,,,,null,,,,
null,are shouting at each other,,html-keyboard-response,386,1112880,0.0-19.0-2.15,20173,List2A,white,woman,,,,null,,,,
4520,,,survey-text,387,1117405,0.0-19.0-3.15,20173,List2A,white,woman,,,,,"{""Q0"":""mike and dave are shouting at each other""}","<img src=""stim_listA/shout6.gif""style=""height:400px;""></stim_listA>",are shouting at each other,
null,"<div style=""font-size:60px;"">+</div>",,html-keyboard-response,388,1117907,0.0-19.0-0.16,20173,List2A,white,woman,,,,null,,,,
null,"<img src=""stim_listA/shout3.gif""style=""height:400px;""></stim_listA>",,html-keyboard-response,389,1119908,0.0-19.0-1.16,20173,List2A,white,woman,,,,null,,,,
null,is shouting at,,html-keyboard-response,390,1121910,0.0-19.0-2.16,20173,List2A,white,woman,,,,null,,,,
3547,,,survey-text,391,1125458,0.0-19.0-3.16,20173,List2A,white,woman,,,,,"{""Q0"":""fred is shouting at beth""}","<img src=""stim_listA/shout3.gif""style=""height:400px;""></stim_listA>",is shouting at,
null,"<div style=""font-size:60px;"">+</div>",,html-keyboard-response,392,1125961,0.0-19.0-0.17,20173,List2A,white,woman,,,,null,,,,
null,"<img src=""stim_listA/talk2.gif""style=""height:400px;""></stim_listA>",,html-keyboard-response,393,1127962,0.0-19.0-1.17,20173,List2A,white,woman,,,,null,,,,
null,are talking to each other,,html-keyboard-response,394,1129963,0.0-19.0-2.17,20173,List2A,white,woman,,,,null,,,,
4402,,,survey-text,395,1134368,0.0-19.0-3.17,20173,List2A,white,woman,,,,,"{""Q0"":""ruth and dave are talking to each other""}","<img src=""stim_listA/talk2.gif""style=""height:400px;""></stim_listA>",are talking to each other,
null,"<div style=""font-size:60px;"">+</div>",,html-keyboard-response,396,1134870,0.0-19.0-0.18,20173,List2A,white,woman,,,,null,,,,
null,"<img src=""stim_listA/play5.gif""style=""height:400px;""></stim_listA>",,html-keyboard-response,397,1136873,0.0-19.0-1.18,20173,List2A,white,woman,,,,null,,,,
null,is playing with,,html-keyboard-response,398,1138875,0.0-19.0-2.18,20173,List2A,white,woman,,,,null,,,,
3147,,,survey-text,399,1142025,0.0-19.0-3.18,20173,List2A,white,woman,,,,,"{""Q0"":""mike is playing with dave""}","<img src=""stim_listA/play5.gif""style=""height:400px;""></stim_listA>",is playing with,
null,"<div style=""font-size:60px;"">+</div>",,html-keyboard-response,400,1142526,0.0-19.0-0.19,20173,List2A,white,woman,,,,null,,,,
null,"<img src=""stim_listA/flirt3.gif""style=""height:400px;""></stim_listA>",,html-keyboard-response,401,1144528,0.0-19.0-1.19,20173,List2A,white,woman,,,,null,,,,
null,is flirting with,,html-keyboard-response,402,1146530,0.0-19.0-2.19,20173,List2A,white,woman,,,,null,,,,
5107,,,survey-text,403,1151638,0.0-19.0-3.19,20173,List2A,white,woman,,,,,"{""Q0"":""fred is flirting with kate""}","<img src=""stim_listA/flirt3.gif""style=""height:400px;""></stim_listA>",is flirting with,
1556,<p>Thank you for completing that task.</p><p>The final part of this session is a short questionnaire.</p><p>Press Continue.</p>,0,html-button-response,404,1153196,0.0-20.0,20173,List2A,white,woman,,,,,,,,
21362,,,survey-text,405,1175560,0.0-21.0,20173,List2A,white,woman,,,,,"{""Q0"":""25"",""Q1"":""English"",""Q2"":""English"",""Q3"":""UK (England)"",""Q4"":""White"",""Q5"":""Female""}",,,demographics
6592,,,survey-likert,406,1182156,0.0-22.0,20173,List2A,white,woman,,,,,"{""Q0"":4}",,,likert_ESS
7461,,,survey-likert,407,1189619,0.0-23.0,20173,List2A,white,woman,,,,,"{""Q0"":4}",,,likert_NSSAL_Q1
2826,,,survey-likert,408,1192448,0.0-24.0,20173,List2A,white,woman,,,,,"{""Q0"":4}",,,likert_NSSAL_Q2
3876,,,survey-likert,409,1196328,0.0-25.0,20173,List2A,white,woman,,,,,"{""Q0"":4}",,,likert_CGRS_Q1
2357,,,survey-likert,410,1198688,0.0-26.0,20173,List2A,white,woman,,,,,"{""Q0"":4}",,,likert_CGRS_Q2
1868,,,survey-likert,411,1200560,0.0-27.0,20173,List2A,white,woman,,,,,"{""Q0"":4}",,,likert_CGRS_Q3
8267,,,survey-text,412,1208829,0.0-28.0,20173,List2A,white,woman,,,,,"{""Q0"":""ccc""}",,,worker_id
51361,,,external-html,413,1260244,0.0-29.0,20173,List2A,white,woman,debrief.html,,,,,,,
