rt,stimulus,button_pressed,trial_type,trial_index,time_elapsed,internal_node_id,subject,list,ppt_race,ppt_gender,url,first_guess,correct,key_press,responses,image_type,phrase_type,test_part
2738,Welcome to the experiment. Press Continue to begin.,0,html-button-response,0,2740,0.0-0.0,20195,List2A,white,man,,,,,,,,
158244,,,external-html,1,162025,0.0-1.0,20195,List2A,white,man,consent.html,,,,,,,
52658,"<p>On the next page, you will see portraits of 8 people and their names.</p><p>Your first task is to take a few minutes to memorise the names of these people.</p><p>You will have to recall their names during the rest of the experiment, so it is</p><p>essential that you try to memorise these people and their names as best as you can.</p><br><p><strong>You will then be tested on your memory of these names and portraits.</strong></p><br><p>The experiment will start after you have completed this memory test.</p><br><p>Ready?</p>",0,html-button-response,2,214685,0.0-2.0,20195,List2A,white,man,,,,,,,,
51009,"<img src='img/portrait_matrix_list2.jpg' style='width:900px;height:500px;''></img><p>If you have memorised all the portraits and names and are ready to start, press Continue.</p><p><strong>Please note: Your memory of these faces will be tested 4 times during this experiment.</strong></p>",0,html-button-response,3,266696,0.0-3.0-0.0,20195,List2A,white,man,,,,,,,,
8903,"<img src=""portrait/BW2.jpg""style=""height:400px;""></img>",2,html-button-response,4,276601,0.0-3.0-1.0,20195,List2A,white,man,,TRUE,2,,,,,
null,CORRECT,,html-keyboard-response,5,278105,0.0-3.0-2.0-0.0,20195,List2A,white,man,,,,null,,,,
5282,"<img src=""portrait/BW1.jpg""style=""height:400px;""></img>",0,html-button-response,6,283388,0.0-3.0-4.0,20195,List2A,white,man,,TRUE,0,,,,,
null,CORRECT,,html-keyboard-response,7,284889,0.0-3.0-5.0-0.0,20195,List2A,white,man,,,,null,,,,
7245,"<img src=""portrait/WM1.jpg""style=""height:400px;""></img>",6,html-button-response,8,292134,0.0-3.0-7.0,20195,List2A,white,man,,TRUE,6,,,,,
null,CORRECT,,html-keyboard-response,9,293636,0.0-3.0-8.0-0.0,20195,List2A,white,man,,,,null,,,,
19645,"<img src=""portrait/WM2.jpg""style=""height:400px;""></img>",7,html-button-response,10,313282,0.0-3.0-10.0,20195,List2A,white,man,,TRUE,7,,,,,
null,CORRECT,,html-keyboard-response,11,314784,0.0-3.0-11.0-0.0,20195,List2A,white,man,,,,null,,,,
8992,"<img src=""portrait/BM1.jpg""style=""height:400px;""></img>",4,html-button-response,12,323777,0.0-3.0-13.0,20195,List2A,white,man,,TRUE,4,,,,,
null,CORRECT,,html-keyboard-response,13,325280,0.0-3.0-14.0-0.0,20195,List2A,white,man,,,,null,,,,
7330,"<img src=""portrait/WW1.jpg""style=""height:400px;""></img>",1,html-button-response,14,332612,0.0-3.0-16.0,20195,List2A,white,man,,TRUE,1,,,,,
null,CORRECT,,html-keyboard-response,15,334113,0.0-3.0-17.0-0.0,20195,List2A,white,man,,,,null,,,,
17438,"<img src=""portrait/BM2.jpg""style=""height:400px;""></img>",5,html-button-response,16,351552,0.0-3.0-19.0,20195,List2A,white,man,,TRUE,5,,,,,
null,CORRECT,,html-keyboard-response,17,353053,0.0-3.0-20.0-0.0,20195,List2A,white,man,,,,null,,,,
5335,"<img src=""portrait/WW2.jpg""style=""height:400px;""></img>",3,html-button-response,18,358389,0.0-3.0-22.0,20195,List2A,white,man,,TRUE,3,,,,,
null,CORRECT,,html-keyboard-response,19,359891,0.0-3.0-23.0-0.0,20195,List2A,white,man,,,,null,,,,
2111,<p>You got 8 out of 8 right first time. Press Continue.</p>,0,html-button-response,20,362002,0.0-3.0-25.0,20195,List2A,white,man,,,,,,,,
72303,"<p>In this experiment, you will view photographs of the people from the memory game interacting.</p><p>By using the <strong>exact</strong> phrase given <i>after</i> the photograph appears and recalling the correct names of the people in the photographs, form a sentence describing the interaction. You do not need to capitalise names.</p><p>Type your answer in the space provided. Please complete every sentence before moving onto the next trial.</p><p>You will only have a few seconds to memorise each given photograph and phrase before you can respond, so try your best to focus.</p><p>An example is given below. Press 'Continue' when you are ready.</p><img src='img/speaking_example.jpg' style='width:800px;height:460px;''></img>",0,html-button-response,21,435306,0.0-4.0,20195,List2A,white,man,,,,,,,,
2370,"<p>Before the experiment starts, you will watch two example trials. Press 'Continue'.</p>",0,html-button-response,22,438679,0.0-5.0,20195,List2A,white,man,,,,,,,,
null,<img src='img/meet_eg.gif' style='height:400px;''></img>,,html-keyboard-response,23,441681,0.0-6.0,20195,List2A,white,man,,,,null,,,,
null,<p>is meeting</p>,,html-keyboard-response,24,443683,0.0-7.0,20195,List2A,white,man,,,,null,,,,
8845,<p><b>Answer:</b> jane is meeting ruth</p>,0,html-button-response,25,452528,0.0-8.0,20195,List2A,white,man,,,,,,,,
null,<img src='img/look_eg.gif' style='height:400px;''></img>,,html-keyboard-response,26,455529,0.0-9.0,20195,List2A,white,man,,,,null,,,,
null,<p>are looking at each other</p>,,html-keyboard-response,27,457530,0.0-10.0,20195,List2A,white,man,,,,null,,,,
9032,<p><b>Answer:</b> fred and mike are looking at each other</p>,0,html-button-response,28,466562,0.0-11.0,20195,List2A,white,man,,,,,,,,
18375,"<p>Ready to start the experiment?</p><br><p><strong>Remember to describe the picture using a full sentence,</strong></p><p><strong>that combines the names of the people with the <i>exact</i> phrase given.</strong></p><p><strong>To receive full payment you must do this correctly.</strong></p><p><strong> You do not need to capitalise names or use punctuation.</strong></p><br><p>Press 'Continue' to begin.</p>",0,html-button-response,29,485940,0.0-12.0,20195,List2A,white,man,,,,,,,,
null,"<div style=""font-size:60px;"">+</div>",,html-keyboard-response,30,487443,0.0-13.0-0.0,20195,List2A,white,man,,,,null,,,,
null,"<img src=""stim_listA/fight8.gif""style=""height:400px;""></stim_listA>",,html-keyboard-response,31,489444,0.0-13.0-1.0,20195,List2A,white,man,,,,null,,,,
null,are fighting each other,,html-keyboard-response,32,491444,0.0-13.0-2.0,20195,List2A,white,man,,,,null,,,,
30339,,,survey-text,33,521785,0.0-13.0-3.0,20195,List2A,white,man,,,,,"{""Q0"":""Jane and Ruth are fighting each other""}","<img src=""stim_listA/fight8.gif""style=""height:400px;""></stim_listA>",are fighting each other,
null,"<div style=""font-size:60px;"">+</div>",,html-keyboard-response,34,522286,0.0-13.0-0.1,20195,List2A,white,man,,,,null,,,,
null,"<img src=""stim_listA/marry5.gif""style=""height:400px;""></stim_listA>",,html-keyboard-response,35,524288,0.0-13.0-1.1,20195,List2A,white,man,,,,null,,,,
null,is marrying,,html-keyboard-response,36,526289,0.0-13.0-2.1,20195,List2A,white,man,,,,null,,,,
15969,,,survey-text,37,542258,0.0-13.0-3.1,20195,List2A,white,man,,,,,"{""Q0"":""Dave is marrying Mike""}","<img src=""stim_listA/marry5.gif""style=""height:400px;""></stim_listA>",is marrying,
null,"<div style=""font-size:60px;"">+</div>",,html-keyboard-response,38,542759,0.0-13.0-0.2,20195,List2A,white,man,,,,null,,,,
null,"<img src=""stim_listA/flirt6.gif""style=""height:400px;""></stim_listA>",,html-keyboard-response,39,544760,0.0-13.0-1.2,20195,List2A,white,man,,,,null,,,,
null,are flirting with each other,,html-keyboard-response,40,546761,0.0-13.0-2.2,20195,List2A,white,man,,,,null,,,,
10839,,,survey-text,41,557601,0.0-13.0-3.2,20195,List2A,white,man,,,,,"{""Q0"":""Dave and Mike are flirting with each other""}","<img src=""stim_listA/flirt6.gif""style=""height:400px;""></stim_listA>",are flirting with each other,
null,"<div style=""font-size:60px;"">+</div>",,html-keyboard-response,42,558101,0.0-13.0-0.3,20195,List2A,white,man,,,,null,,,,
null,"<img src=""stim_listA/dance3.gif""style=""height:400px;""></stim_listA>",,html-keyboard-response,43,560102,0.0-13.0-1.3,20195,List2A,white,man,,,,null,,,,
null,is dancing with,,html-keyboard-response,44,562104,0.0-13.0-2.3,20195,List2A,white,man,,,,null,,,,
25447,,,survey-text,45,587552,0.0-13.0-3.3,20195,List2A,white,man,,,,,"{""Q0"":""Fred is Dancing with Kate""}","<img src=""stim_listA/dance3.gif""style=""height:400px;""></stim_listA>",is dancing with,
null,"<div style=""font-size:60px;"">+</div>",,html-keyboard-response,46,588053,0.0-13.0-0.4,20195,List2A,white,man,,,,null,,,,
null,"<img src=""stim_listA/play8.gif""style=""height:400px;""></stim_listA>",,html-keyboard-response,47,590053,0.0-13.0-1.4,20195,List2A,white,man,,,,null,,,,
null,are playing with each other,,html-keyboard-response,48,592054,0.0-13.0-2.4,20195,List2A,white,man,,,,null,,,,
13075,,,survey-text,49,605130,0.0-13.0-3.4,20195,List2A,white,man,,,,,"{""Q0"":""Beth and Kate are playing with each other""}","<img src=""stim_listA/play8.gif""style=""height:400px;""></stim_listA>",are playing with each other,
null,"<div style=""font-size:60px;"">+</div>",,html-keyboard-response,50,605632,0.0-13.0-0.5,20195,List2A,white,man,,,,null,,,,
null,"<img src=""stim_listA/dance2.gif""style=""height:400px;""></stim_listA>",,html-keyboard-response,51,607632,0.0-13.0-1.5,20195,List2A,white,man,,,,null,,,,
null,are dancing with each other,,html-keyboard-response,52,609632,0.0-13.0-2.5,20195,List2A,white,man,,,,null,,,,
14074,,,survey-text,53,623708,0.0-13.0-3.5,20195,List2A,white,man,,,,,"{""Q0"":""Ruth and Dave are dancing with each other""}","<img src=""stim_listA/dance2.gif""style=""height:400px;""></stim_listA>",are dancing with each other,
null,"<div style=""font-size:60px;"">+</div>",,html-keyboard-response,54,624210,0.0-13.0-0.6,20195,List2A,white,man,,,,null,,,,
null,"<img src=""stim_listA/shout7.gif""style=""height:400px;""></stim_listA>",,html-keyboard-response,55,626213,0.0-13.0-1.6,20195,List2A,white,man,,,,null,,,,
null,is shouting at,,html-keyboard-response,56,628213,0.0-13.0-2.6,20195,List2A,white,man,,,,null,,,,
17280,,,survey-text,57,645493,0.0-13.0-3.6,20195,List2A,white,man,,,,,"{""Q0"":""Beth is shouting at Kate""}","<img src=""stim_listA/shout7.gif""style=""height:400px;""></stim_listA>",is shouting at,
null,"<div style=""font-size:60px;"">+</div>",,html-keyboard-response,58,645994,0.0-13.0-0.7,20195,List2A,white,man,,,,null,,,,
null,"<img src=""stim_listA/fight4.gif""style=""height:400px;""></stim_listA>",,html-keyboard-response,59,647995,0.0-13.0-1.7,20195,List2A,white,man,,,,null,,,,
null,are fighting each other,,html-keyboard-response,60,649996,0.0-13.0-2.7,20195,List2A,white,man,,,,null,,,,
16661,,,survey-text,61,666659,0.0-13.0-3.7,20195,List2A,white,man,,,,,"{""Q0"":""Fred and Beth are fighting each other""}","<img src=""stim_listA/fight4.gif""style=""height:400px;""></stim_listA>",are fighting each other,
null,"<div style=""font-size:60px;"">+</div>",,html-keyboard-response,62,667160,0.0-13.0-0.8,20195,List2A,white,man,,,,null,,,,
null,"<img src=""stim_listA/talk8.gif""style=""height:400px;""></stim_listA>",,html-keyboard-response,63,669162,0.0-13.0-1.8,20195,List2A,white,man,,,,null,,,,
null,are talking to each other,,html-keyboard-response,64,671162,0.0-13.0-2.8,20195,List2A,white,man,,,,null,,,,
12990,,,survey-text,65,684154,0.0-13.0-3.8,20195,List2A,white,man,,,,,"{""Q0"":""Beth and Jane are talking to each other""}","<img src=""stim_listA/talk8.gif""style=""height:400px;""></stim_listA>",are talking to each other,
null,"<div style=""font-size:60px;"">+</div>",,html-keyboard-response,66,684655,0.0-13.0-0.9,20195,List2A,white,man,,,,null,,,,
null,"<img src=""stim_listA/kiss1.gif""style=""height:400px;""></stim_listA>",,html-keyboard-response,67,686657,0.0-13.0-1.9,20195,List2A,white,man,,,,null,,,,
null,is kissing,,html-keyboard-response,68,688658,0.0-13.0-2.9,20195,List2A,white,man,,,,null,,,,
9258,,,survey-text,69,697916,0.0-13.0-3.9,20195,List2A,white,man,,,,,"{""Q0"":""Luke is kissing Ruth""}","<img src=""stim_listA/kiss1.gif""style=""height:400px;""></stim_listA>",is kissing,
null,"<div style=""font-size:60px;"">+</div>",,html-keyboard-response,70,698418,0.0-13.0-0.10,20195,List2A,white,man,,,,null,,,,
null,"<img src=""stim_listA/marry4.gif""style=""height:400px;""></stim_listA>",,html-keyboard-response,71,700420,0.0-13.0-1.10,20195,List2A,white,man,,,,null,,,,
null,are marrying each other,,html-keyboard-response,72,702420,0.0-13.0-2.10,20195,List2A,white,man,,,,null,,,,
9773,,,survey-text,73,712194,0.0-13.0-3.10,20195,List2A,white,man,,,,,"{""Q0"":""""}","<img src=""stim_listA/marry4.gif""style=""height:400px;""></stim_listA>",are marrying each other,
null,"<div style=""font-size:60px;"">+</div>",,html-keyboard-response,74,712696,0.0-13.0-0.11,20195,List2A,white,man,,,,null,,,,
null,"<img src=""stim_listA/marry1.gif""style=""height:400px;""></stim_listA>",,html-keyboard-response,75,714697,0.0-13.0-1.11,20195,List2A,white,man,,,,null,,,,
null,is marrying,,html-keyboard-response,76,716698,0.0-13.0-2.11,20195,List2A,white,man,,,,null,,,,
12502,,,survey-text,77,729201,0.0-13.0-3.11,20195,List2A,white,man,,,,,"{""Q0"":""Dave is marrying Ruth""}","<img src=""stim_listA/marry1.gif""style=""height:400px;""></stim_listA>",is marrying,
null,"<div style=""font-size:60px;"">+</div>",,html-keyboard-response,78,729703,0.0-13.0-0.12,20195,List2A,white,man,,,,null,,,,
null,"<img src=""stim_listA/fight6.gif""style=""height:400px;""></stim_listA>",,html-keyboard-response,79,731703,0.0-13.0-1.12,20195,List2A,white,man,,,,null,,,,
null,are fighting each other,,html-keyboard-response,80,733706,0.0-13.0-2.12,20195,List2A,white,man,,,,null,,,,
12597,,,survey-text,81,746304,0.0-13.0-3.12,20195,List2A,white,man,,,,,"{""Q0"":""Luke and Fred are fighting each other""}","<img src=""stim_listA/fight6.gif""style=""height:400px;""></stim_listA>",are fighting each other,
null,"<div style=""font-size:60px;"">+</div>",,html-keyboard-response,82,746805,0.0-13.0-0.13,20195,List2A,white,man,,,,null,,,,
null,"<img src=""stim_listA/kiss4.gif""style=""height:400px;""></stim_listA>",,html-keyboard-response,83,748806,0.0-13.0-1.13,20195,List2A,white,man,,,,null,,,,
null,are kissing each other,,html-keyboard-response,84,750807,0.0-13.0-2.13,20195,List2A,white,man,,,,null,,,,
18779,,,survey-text,85,769586,0.0-13.0-3.13,20195,List2A,white,man,,,,,"{""Q0"":""Mike and Kate are kissing each other""}","<img src=""stim_listA/kiss4.gif""style=""height:400px;""></stim_listA>",are kissing each other,
null,"<div style=""font-size:60px;"">+</div>",,html-keyboard-response,86,770088,0.0-13.0-0.14,20195,List2A,white,man,,,,null,,,,
null,"<img src=""stim_listA/talk6.gif""style=""height:400px;""></stim_listA>",,html-keyboard-response,87,772088,0.0-13.0-1.14,20195,List2A,white,man,,,,null,,,,
null,are talking to each other,,html-keyboard-response,88,774089,0.0-13.0-2.14,20195,List2A,white,man,,,,null,,,,
9251,,,survey-text,89,783340,0.0-13.0-3.14,20195,List2A,white,man,,,,,"{""Q0"":""Dave and Fred are talking to each other""}","<img src=""stim_listA/talk6.gif""style=""height:400px;""></stim_listA>",are talking to each other,
null,"<div style=""font-size:60px;"">+</div>",,html-keyboard-response,90,783841,0.0-13.0-0.15,20195,List2A,white,man,,,,null,,,,
null,"<img src=""stim_listA/flirt7.gif""style=""height:400px;""></stim_listA>",,html-keyboard-response,91,785841,0.0-13.0-1.15,20195,List2A,white,man,,,,null,,,,
null,is flirting with,,html-keyboard-response,92,787842,0.0-13.0-2.15,20195,List2A,white,man,,,,null,,,,
10010,,,survey-text,93,797853,0.0-13.0-3.15,20195,List2A,white,man,,,,,"{""Q0"":""Ruth is flirting with Kate""}","<img src=""stim_listA/flirt7.gif""style=""height:400px;""></stim_listA>",is flirting with,
null,"<div style=""font-size:60px;"">+</div>",,html-keyboard-response,94,798353,0.0-13.0-0.16,20195,List2A,white,man,,,,null,,,,
null,"<img src=""stim_listA/touch1.gif""style=""height:400px;""></stim_listA>",,html-keyboard-response,95,800354,0.0-13.0-1.16,20195,List2A,white,man,,,,null,,,,
null,is touching,,html-keyboard-response,96,802355,0.0-13.0-2.16,20195,List2A,white,man,,,,null,,,,
13895,,,survey-text,97,816250,0.0-13.0-3.16,20195,List2A,white,man,,,,,"{""Q0"":""Dave is touching Jane""}","<img src=""stim_listA/touch1.gif""style=""height:400px;""></stim_listA>",is touching,
null,"<div style=""font-size:60px;"">+</div>",,html-keyboard-response,98,816751,0.0-13.0-0.17,20195,List2A,white,man,,,,null,,,,
null,"<img src=""stim_listA/flirt3.gif""style=""height:400px;""></stim_listA>",,html-keyboard-response,99,818753,0.0-13.0-1.17,20195,List2A,white,man,,,,null,,,,
null,is flirting with,,html-keyboard-response,100,820753,0.0-13.0-2.17,20195,List2A,white,man,,,,null,,,,
14028,,,survey-text,101,834781,0.0-13.0-3.17,20195,List2A,white,man,,,,,"{""Q0"":""Fred is flirting with Kate""}","<img src=""stim_listA/flirt3.gif""style=""height:400px;""></stim_listA>",is flirting with,
null,"<div style=""font-size:60px;"">+</div>",,html-keyboard-response,102,835282,0.0-13.0-0.18,20195,List2A,white,man,,,,null,,,,
null,"<img src=""stim_listA/play5.gif""style=""height:400px;""></stim_listA>",,html-keyboard-response,103,837282,0.0-13.0-1.18,20195,List2A,white,man,,,,null,,,,
null,is playing with,,html-keyboard-response,104,839282,0.0-13.0-2.18,20195,List2A,white,man,,,,null,,,,
6710,,,survey-text,105,845992,0.0-13.0-3.18,20195,List2A,white,man,,,,,"{""Q0"":""MIke is playing with Dave""}","<img src=""stim_listA/play5.gif""style=""height:400px;""></stim_listA>",is playing with,
null,"<div style=""font-size:60px;"">+</div>",,html-keyboard-response,106,846495,0.0-13.0-0.19,20195,List2A,white,man,,,,null,,,,
null,"<img src=""stim_listA/shout3.gif""style=""height:400px;""></stim_listA>",,html-keyboard-response,107,848496,0.0-13.0-1.19,20195,List2A,white,man,,,,null,,,,
null,is shouting at,,html-keyboard-response,108,850497,0.0-13.0-2.19,20195,List2A,white,man,,,,null,,,,
19240,,,survey-text,109,869738,0.0-13.0-3.19,20195,List2A,white,man,,,,,"{""Q0"":""Beth is shouting at Fred""}","<img src=""stim_listA/shout3.gif""style=""height:400px;""></stim_listA>",is shouting at,
30870,"<img src='img/portrait_matrix_list2.jpg' style='width:900px;height:500px;''></img><p>If you have memorised all the portraits and names and are ready to start, press Continue.</p><p><strong>Please note: Your memory of these faces will be tested 4 times during this experiment.</strong></p>",0,html-button-response,110,900609,0.0-14.0-0.0,20195,List2A,white,man,,,,,,,,
4983,"<img src=""portrait/BW1.jpg""style=""height:400px;""></img>",0,html-button-response,111,906594,0.0-14.0-1.0,20195,List2A,white,man,,TRUE,0,,,,,
null,CORRECT,,html-keyboard-response,112,908095,0.0-14.0-2.0-0.0,20195,List2A,white,man,,,,null,,,,
1867,"<img src=""portrait/WM2.jpg""style=""height:400px;""></img>",7,html-button-response,113,909964,0.0-14.0-4.0,20195,List2A,white,man,,TRUE,7,,,,,
null,CORRECT,,html-keyboard-response,114,911466,0.0-14.0-5.0-0.0,20195,List2A,white,man,,,,null,,,,
2376,"<img src=""portrait/WM1.jpg""style=""height:400px;""></img>",6,html-button-response,115,913843,0.0-14.0-7.0,20195,List2A,white,man,,TRUE,6,,,,,
null,CORRECT,,html-keyboard-response,116,915346,0.0-14.0-8.0-0.0,20195,List2A,white,man,,,,null,,,,
1806,"<img src=""portrait/BM2.jpg""style=""height:400px;""></img>",5,html-button-response,117,917154,0.0-14.0-10.0,20195,List2A,white,man,,TRUE,5,,,,,
null,CORRECT,,html-keyboard-response,118,918656,0.0-14.0-11.0-0.0,20195,List2A,white,man,,,,null,,,,
2293,"<img src=""portrait/BW2.jpg""style=""height:400px;""></img>",2,html-button-response,119,920950,0.0-14.0-13.0,20195,List2A,white,man,,TRUE,2,,,,,
null,CORRECT,,html-keyboard-response,120,922452,0.0-14.0-14.0-0.0,20195,List2A,white,man,,,,null,,,,
5207,"<img src=""portrait/WW2.jpg""style=""height:400px;""></img>",3,html-button-response,121,927660,0.0-14.0-16.0,20195,List2A,white,man,,TRUE,3,,,,,
null,CORRECT,,html-keyboard-response,122,929161,0.0-14.0-17.0-0.0,20195,List2A,white,man,,,,null,,,,
4594,"<img src=""portrait/BM1.jpg""style=""height:400px;""></img>",4,html-button-response,123,933755,0.0-14.0-19.0,20195,List2A,white,man,,TRUE,4,,,,,
null,CORRECT,,html-keyboard-response,124,935258,0.0-14.0-20.0-0.0,20195,List2A,white,man,,,,null,,,,
2098,"<img src=""portrait/WW1.jpg""style=""height:400px;""></img>",1,html-button-response,125,937357,0.0-14.0-22.0,20195,List2A,white,man,,TRUE,1,,,,,
null,CORRECT,,html-keyboard-response,126,938858,0.0-14.0-23.0-0.0,20195,List2A,white,man,,,,null,,,,
1595,<p>You got 8 out of 8 right first time. Press Continue.</p>,0,html-button-response,127,940455,0.0-14.0-25.0,20195,List2A,white,man,,,,,,,,
null,"<div style=""font-size:60px;"">+</div>",,html-keyboard-response,128,941957,0.0-15.0-0.0,20195,List2A,white,man,,,,null,,,,
null,"<img src=""stim_listA/argue5.gif""style=""height:400px;""></stim_listA>",,html-keyboard-response,129,943958,0.0-15.0-1.0,20195,List2A,white,man,,,,null,,,,
null,is arguing with,,html-keyboard-response,130,945959,0.0-15.0-2.0,20195,List2A,white,man,,,,null,,,,
8117,,,survey-text,131,954076,0.0-15.0-3.0,20195,List2A,white,man,,,,,"{""Q0"":""Dave is arguing with Fred""}","<img src=""stim_listA/argue5.gif""style=""height:400px;""></stim_listA>",is arguing with,
null,"<div style=""font-size:60px;"">+</div>",,html-keyboard-response,132,954580,0.0-15.0-0.1,20195,List2A,white,man,,,,null,,,,
null,"<img src=""stim_listA/argue2.gif""style=""height:400px;""></stim_listA>",,html-keyboard-response,133,956582,0.0-15.0-1.1,20195,List2A,white,man,,,,null,,,,
null,are arguing with each other,,html-keyboard-response,134,958582,0.0-15.0-2.1,20195,List2A,white,man,,,,null,,,,
12297,,,survey-text,135,970879,0.0-15.0-3.1,20195,List2A,white,man,,,,,"{""Q0"":""Jane and Luke are arguing with each other""}","<img src=""stim_listA/argue2.gif""style=""height:400px;""></stim_listA>",are arguing with each other,
null,"<div style=""font-size:60px;"">+</div>",,html-keyboard-response,136,971380,0.0-15.0-0.2,20195,List2A,white,man,,,,null,,,,
null,"<img src=""stim_listA/play6.gif""style=""height:400px;""></stim_listA>",,html-keyboard-response,137,973381,0.0-15.0-1.2,20195,List2A,white,man,,,,null,,,,
null,are playing with each other,,html-keyboard-response,138,975383,0.0-15.0-2.2,20195,List2A,white,man,,,,null,,,,
14085,,,survey-text,139,989469,0.0-15.0-3.2,20195,List2A,white,man,,,,,"{""Q0"":""Fred and Luke are playing with each other""}","<img src=""stim_listA/play6.gif""style=""height:400px;""></stim_listA>",are playing with each other,
null,"<div style=""font-size:60px;"">+</div>",,html-keyboard-response,140,989971,0.0-15.0-0.3,20195,List2A,white,man,,,,null,,,,
null,"<img src=""stim_listA/fight3.gif""style=""height:400px;""></stim_listA>",,html-keyboard-response,141,991973,0.0-15.0-1.3,20195,List2A,white,man,,,,null,,,,
null,is fighting,,html-keyboard-response,142,993973,0.0-15.0-2.3,20195,List2A,white,man,,,,null,,,,
11228,,,survey-text,143,1005203,0.0-15.0-3.3,20195,List2A,white,man,,,,,"{""Q0"":""Kate and Mike is fighting""}","<img src=""stim_listA/fight3.gif""style=""height:400px;""></stim_listA>",is fighting,
null,"<div style=""font-size:60px;"">+</div>",,html-keyboard-response,144,1005705,0.0-15.0-0.4,20195,List2A,white,man,,,,null,,,,
null,"<img src=""stim_listA/shout2.gif""style=""height:400px;""></stim_listA>",,html-keyboard-response,145,1007705,0.0-15.0-1.4,20195,List2A,white,man,,,,null,,,,
null,are shouting at each other,,html-keyboard-response,146,1009705,0.0-15.0-2.4,20195,List2A,white,man,,,,null,,,,
13823,,,survey-text,147,1023529,0.0-15.0-3.4,20195,List2A,white,man,,,,,"{""Q0"":""Jane and Dave are shouting at each other""}","<img src=""stim_listA/shout2.gif""style=""height:400px;""></stim_listA>",are shouting at each other,
null,"<div style=""font-size:60px;"">+</div>",,html-keyboard-response,148,1024030,0.0-15.0-0.5,20195,List2A,white,man,,,,null,,,,
null,"<img src=""stim_listA/touch3.gif""style=""height:400px;""></stim_listA>",,html-keyboard-response,149,1026033,0.0-15.0-1.5,20195,List2A,white,man,,,,null,,,,
null,is touching,,html-keyboard-response,150,1028033,0.0-15.0-2.5,20195,List2A,white,man,,,,null,,,,
7355,,,survey-text,151,1035388,0.0-15.0-3.5,20195,List2A,white,man,,,,,"{""Q0"":""Mike is touching Kate""}","<img src=""stim_listA/touch3.gif""style=""height:400px;""></stim_listA>",is touching,
null,"<div style=""font-size:60px;"">+</div>",,html-keyboard-response,152,1035889,0.0-15.0-0.6,20195,List2A,white,man,,,,null,,,,
null,"<img src=""stim_listA/argue4.gif""style=""height:400px;""></stim_listA>",,html-keyboard-response,153,1037891,0.0-15.0-1.6,20195,List2A,white,man,,,,null,,,,
null,are arguing with each other,,html-keyboard-response,154,1039893,0.0-15.0-2.6,20195,List2A,white,man,,,,null,,,,
10694,,,survey-text,155,1050587,0.0-15.0-3.6,20195,List2A,white,man,,,,,"{""Q0"":""Kate and Fred are arguing with each other""}","<img src=""stim_listA/argue4.gif""style=""height:400px;""></stim_listA>",are arguing with each other,
null,"<div style=""font-size:60px;"">+</div>",,html-keyboard-response,156,1051087,0.0-15.0-0.7,20195,List2A,white,man,,,,null,,,,
null,"<img src=""stim_listA/touch4.gif""style=""height:400px;""></stim_listA>",,html-keyboard-response,157,1053089,0.0-15.0-1.7,20195,List2A,white,man,,,,null,,,,
null,are touching each other,,html-keyboard-response,158,1055090,0.0-15.0-2.7,20195,List2A,white,man,,,,null,,,,
10718,,,survey-text,159,1065808,0.0-15.0-3.7,20195,List2A,white,man,,,,,"{""Q0"":""Beth and Fred are touching each other""}","<img src=""stim_listA/touch4.gif""style=""height:400px;""></stim_listA>",are touching each other,
null,"<div style=""font-size:60px;"">+</div>",,html-keyboard-response,160,1066308,0.0-15.0-0.8,20195,List2A,white,man,,,,null,,,,
null,"<img src=""stim_listA/argue1.gif""style=""height:400px;""></stim_listA>",,html-keyboard-response,161,1068309,0.0-15.0-1.8,20195,List2A,white,man,,,,null,,,,
null,is arguing with,,html-keyboard-response,162,1070310,0.0-15.0-2.8,20195,List2A,white,man,,,,null,,,,
14287,,,survey-text,163,1084598,0.0-15.0-3.8,20195,List2A,white,man,,,,,"{""Q0"":""Ruth is arguing with Dave""}","<img src=""stim_listA/argue1.gif""style=""height:400px;""></stim_listA>",is arguing with,
null,"<div style=""font-size:60px;"">+</div>",,html-keyboard-response,164,1085098,0.0-15.0-0.9,20195,List2A,white,man,,,,null,,,,
null,"<img src=""stim_listA/argue6.gif""style=""height:400px;""></stim_listA>",,html-keyboard-response,165,1087099,0.0-15.0-1.9,20195,List2A,white,man,,,,null,,,,
null,are arguing with each other,,html-keyboard-response,166,1089100,0.0-15.0-2.9,20195,List2A,white,man,,,,null,,,,
7940,,,survey-text,167,1097040,0.0-15.0-3.9,20195,List2A,white,man,,,,,"{""Q0"":""LUke and Mike are arguing with each other""}","<img src=""stim_listA/argue6.gif""style=""height:400px;""></stim_listA>",are arguing with each other,
null,"<div style=""font-size:60px;"">+</div>",,html-keyboard-response,168,1097542,0.0-15.0-0.10,20195,List2A,white,man,,,,null,,,,
null,"<img src=""stim_listA/talk1.gif""style=""height:400px;""></stim_listA>",,html-keyboard-response,169,1099543,0.0-15.0-1.10,20195,List2A,white,man,,,,null,,,,
null,is talking to,,html-keyboard-response,170,1101543,0.0-15.0-2.10,20195,List2A,white,man,,,,null,,,,
13549,,,survey-text,171,1115093,0.0-15.0-3.10,20195,List2A,white,man,,,,,"{""Q0"":""Jane is talking to Luke""}","<img src=""stim_listA/talk1.gif""style=""height:400px;""></stim_listA>",is talking to,
null,"<div style=""font-size:60px;"">+</div>",,html-keyboard-response,172,1115594,0.0-15.0-0.11,20195,List2A,white,man,,,,null,,,,
null,"<img src=""stim_listA/fight1.gif""style=""height:400px;""></stim_listA>",,html-keyboard-response,173,1117595,0.0-15.0-1.11,20195,List2A,white,man,,,,null,,,,
null,is fighting,,html-keyboard-response,174,1119595,0.0-15.0-2.11,20195,List2A,white,man,,,,null,,,,
7785,,,survey-text,175,1127381,0.0-15.0-3.11,20195,List2A,white,man,,,,,"{""Q0"":""Dave is fighting Jane""}","<img src=""stim_listA/fight1.gif""style=""height:400px;""></stim_listA>",is fighting,
null,"<div style=""font-size:60px;"">+</div>",,html-keyboard-response,176,1127882,0.0-15.0-0.12,20195,List2A,white,man,,,,null,,,,
null,"<img src=""stim_listA/kiss5.gif""style=""height:400px;""></stim_listA>",,html-keyboard-response,177,1129883,0.0-15.0-1.12,20195,List2A,white,man,,,,null,,,,
null,is kissing,,html-keyboard-response,178,1131885,0.0-15.0-2.12,20195,List2A,white,man,,,,null,,,,
8691,,,survey-text,179,1140576,0.0-15.0-3.12,20195,List2A,white,man,,,,,"{""Q0"":""Luke is kissing Fred""}","<img src=""stim_listA/kiss5.gif""style=""height:400px;""></stim_listA>",is kissing,
null,"<div style=""font-size:60px;"">+</div>",,html-keyboard-response,180,1141076,0.0-15.0-0.13,20195,List2A,white,man,,,,null,,,,
null,"<img src=""stim_listA/play7.gif""style=""height:400px;""></stim_listA>",,html-keyboard-response,181,1143077,0.0-15.0-1.13,20195,List2A,white,man,,,,null,,,,
null,is playing with,,html-keyboard-response,182,1145078,0.0-15.0-2.13,20195,List2A,white,man,,,,null,,,,
7318,,,survey-text,183,1152396,0.0-15.0-3.13,20195,List2A,white,man,,,,,"{""Q0"":""Kate is playing with Jane""}","<img src=""stim_listA/play7.gif""style=""height:400px;""></stim_listA>",is playing with,
null,"<div style=""font-size:60px;"">+</div>",,html-keyboard-response,184,1152897,0.0-15.0-0.14,20195,List2A,white,man,,,,null,,,,
null,"<img src=""stim_listA/dance6.gif""style=""height:400px;""></stim_listA>",,html-keyboard-response,185,1154898,0.0-15.0-1.14,20195,List2A,white,man,,,,null,,,,
null,are dancing with each other,,html-keyboard-response,186,1156899,0.0-15.0-2.14,20195,List2A,white,man,,,,null,,,,
15112,,,survey-text,187,1172012,0.0-15.0-3.14,20195,List2A,white,man,,,,,"{""Q0"":""Fred and Dave are dancing with each other""}","<img src=""stim_listA/dance6.gif""style=""height:400px;""></stim_listA>",are dancing with each other,
null,"<div style=""font-size:60px;"">+</div>",,html-keyboard-response,188,1172514,0.0-15.0-0.15,20195,List2A,white,man,,,,null,,,,
null,"<img src=""stim_listA/fight2.gif""style=""height:400px;""></stim_listA>",,html-keyboard-response,189,1174516,0.0-15.0-1.15,20195,List2A,white,man,,,,null,,,,
null,are fighting each other,,html-keyboard-response,190,1176517,0.0-15.0-2.15,20195,List2A,white,man,,,,null,,,,
16394,,,survey-text,191,1192911,0.0-15.0-3.15,20195,List2A,white,man,,,,,"{""Q0"":""Ruth and Luke are fighting each other""}","<img src=""stim_listA/fight2.gif""style=""height:400px;""></stim_listA>",are fighting each other,
null,"<div style=""font-size:60px;"">+</div>",,html-keyboard-response,192,1193412,0.0-15.0-0.16,20195,List2A,white,man,,,,null,,,,
null,"<img src=""stim_listA/kiss6.gif""style=""height:400px;""></stim_listA>",,html-keyboard-response,193,1195412,0.0-15.0-1.16,20195,List2A,white,man,,,,null,,,,
null,are kissing each other,,html-keyboard-response,194,1197413,0.0-15.0-2.16,20195,List2A,white,man,,,,null,,,,
12180,,,survey-text,195,1209593,0.0-15.0-3.16,20195,List2A,white,man,,,,,"{""Q0"":""Mike and Dave are kissing each other""}","<img src=""stim_listA/kiss6.gif""style=""height:400px;""></stim_listA>",are kissing each other,
null,"<div style=""font-size:60px;"">+</div>",,html-keyboard-response,196,1210094,0.0-15.0-0.17,20195,List2A,white,man,,,,null,,,,
null,"<img src=""stim_listA/touch8.gif""style=""height:400px;""></stim_listA>",,html-keyboard-response,197,1212094,0.0-15.0-1.17,20195,List2A,white,man,,,,null,,,,
null,are touching each other,,html-keyboard-response,198,1214095,0.0-15.0-2.17,20195,List2A,white,man,,,,null,,,,
10566,,,survey-text,199,1224663,0.0-15.0-3.17,20195,List2A,white,man,,,,,"{""Q0"":""Ruth and Beth are touching each other""}","<img src=""stim_listA/touch8.gif""style=""height:400px;""></stim_listA>",are touching each other,
null,"<div style=""font-size:60px;"">+</div>",,html-keyboard-response,200,1225164,0.0-15.0-0.18,20195,List2A,white,man,,,,null,,,,
null,"<img src=""stim_listA/kiss2.gif""style=""height:400px;""></stim_listA>",,html-keyboard-response,201,1227166,0.0-15.0-1.18,20195,List2A,white,man,,,,null,,,,
null,are kissing each other,,html-keyboard-response,202,1229167,0.0-15.0-2.18,20195,List2A,white,man,,,,null,,,,
8297,,,survey-text,203,1237465,0.0-15.0-3.18,20195,List2A,white,man,,,,,"{""Q0"":""Dave and Jane are kissing each other""}","<img src=""stim_listA/kiss2.gif""style=""height:400px;""></stim_listA>",are kissing each other,
null,"<div style=""font-size:60px;"">+</div>",,html-keyboard-response,204,1237967,0.0-15.0-0.19,20195,List2A,white,man,,,,null,,,,
null,"<img src=""stim_listA/fight7.gif""style=""height:400px;""></stim_listA>",,html-keyboard-response,205,1239968,0.0-15.0-1.19,20195,List2A,white,man,,,,null,,,,
null,is fighting,,html-keyboard-response,206,1241969,0.0-15.0-2.19,20195,List2A,white,man,,,,null,,,,
5983,,,survey-text,207,1247952,0.0-15.0-3.19,20195,List2A,white,man,,,,,"{""Q0"":""Kate is fighting Jane""}","<img src=""stim_listA/fight7.gif""style=""height:400px;""></stim_listA>",is fighting,
12579,"<img src='img/portrait_matrix_list2.jpg' style='width:900px;height:500px;''></img><p>If you have memorised all the portraits and names and are ready to start, press Continue.</p><p><strong>Please note: Your memory of these faces will be tested 4 times during this experiment.</strong></p>",0,html-button-response,208,1260533,0.0-16.0-0.0,20195,List2A,white,man,,,,,,,,
2583,"<img src=""portrait/WM1.jpg""style=""height:400px;""></img>",6,html-button-response,209,1264116,0.0-16.0-1.0,20195,List2A,white,man,,TRUE,6,,,,,
null,CORRECT,,html-keyboard-response,210,1265618,0.0-16.0-2.0-0.0,20195,List2A,white,man,,,,null,,,,
2447,"<img src=""portrait/BW2.jpg""style=""height:400px;""></img>",2,html-button-response,211,1268066,0.0-16.0-4.0,20195,List2A,white,man,,TRUE,2,,,,,
null,CORRECT,,html-keyboard-response,212,1269566,0.0-16.0-5.0-0.0,20195,List2A,white,man,,,,null,,,,
1599,"<img src=""portrait/WM2.jpg""style=""height:400px;""></img>",7,html-button-response,213,1271167,0.0-16.0-7.0,20195,List2A,white,man,,TRUE,7,,,,,
null,CORRECT,,html-keyboard-response,214,1272669,0.0-16.0-8.0-0.0,20195,List2A,white,man,,,,null,,,,
1450,"<img src=""portrait/BM2.jpg""style=""height:400px;""></img>",5,html-button-response,215,1274119,0.0-16.0-10.0,20195,List2A,white,man,,TRUE,5,,,,,
null,CORRECT,,html-keyboard-response,216,1275621,0.0-16.0-11.0-0.0,20195,List2A,white,man,,,,null,,,,
1550,"<img src=""portrait/WW2.jpg""style=""height:400px;""></img>",3,html-button-response,217,1277172,0.0-16.0-13.0,20195,List2A,white,man,,TRUE,3,,,,,
null,CORRECT,,html-keyboard-response,218,1278673,0.0-16.0-14.0-0.0,20195,List2A,white,man,,,,null,,,,
1733,"<img src=""portrait/BM1.jpg""style=""height:400px;""></img>",4,html-button-response,219,1280407,0.0-16.0-16.0,20195,List2A,white,man,,TRUE,4,,,,,
null,CORRECT,,html-keyboard-response,220,1281908,0.0-16.0-17.0-0.0,20195,List2A,white,man,,,,null,,,,
4399,"<img src=""portrait/WW1.jpg""style=""height:400px;""></img>",1,html-button-response,221,1286307,0.0-16.0-19.0,20195,List2A,white,man,,TRUE,1,,,,,
null,CORRECT,,html-keyboard-response,222,1287810,0.0-16.0-20.0-0.0,20195,List2A,white,man,,,,null,,,,
2514,"<img src=""portrait/BW1.jpg""style=""height:400px;""></img>",0,html-button-response,223,1290326,0.0-16.0-22.0,20195,List2A,white,man,,TRUE,0,,,,,
null,CORRECT,,html-keyboard-response,224,1291828,0.0-16.0-23.0-0.0,20195,List2A,white,man,,,,null,,,,
1414,<p>You got 8 out of 8 right first time. Press Continue.</p>,0,html-button-response,225,1293245,0.0-16.0-25.0,20195,List2A,white,man,,,,,,,,
null,"<div style=""font-size:60px;"">+</div>",,html-keyboard-response,226,1294747,0.0-17.0-0.0,20195,List2A,white,man,,,,null,,,,
null,"<img src=""stim_listA/talk3.gif""style=""height:400px;""></stim_listA>",,html-keyboard-response,227,1296749,0.0-17.0-1.0,20195,List2A,white,man,,,,null,,,,
null,is talking to,,html-keyboard-response,228,1298750,0.0-17.0-2.0,20195,List2A,white,man,,,,null,,,,
6862,,,survey-text,229,1305613,0.0-17.0-3.0,20195,List2A,white,man,,,,,"{""Q0"":""Kate is talking to Fred""}","<img src=""stim_listA/talk3.gif""style=""height:400px;""></stim_listA>",is talking to,
null,"<div style=""font-size:60px;"">+</div>",,html-keyboard-response,230,1306113,0.0-17.0-0.1,20195,List2A,white,man,,,,null,,,,
null,"<img src=""stim_listA/touch5.gif""style=""height:400px;""></stim_listA>",,html-keyboard-response,231,1308114,0.0-17.0-1.1,20195,List2A,white,man,,,,null,,,,
null,is touching,,html-keyboard-response,232,1310115,0.0-17.0-2.1,20195,List2A,white,man,,,,null,,,,
15631,,,survey-text,233,1325746,0.0-17.0-3.1,20195,List2A,white,man,,,,,"{""Q0"":""Dave is touching Jane""}","<img src=""stim_listA/touch5.gif""style=""height:400px;""></stim_listA>",is touching,
null,"<div style=""font-size:60px;"">+</div>",,html-keyboard-response,234,1326248,0.0-17.0-0.2,20195,List2A,white,man,,,,null,,,,
null,"<img src=""stim_listA/dance4.gif""style=""height:400px;""></stim_listA>",,html-keyboard-response,235,1328249,0.0-17.0-1.2,20195,List2A,white,man,,,,null,,,,
null,are dancing with each other,,html-keyboard-response,236,1330250,0.0-17.0-2.2,20195,List2A,white,man,,,,null,,,,
13611,,,survey-text,237,1343862,0.0-17.0-3.2,20195,List2A,white,man,,,,,"{""Q0"":""Mike and Beth are dancing with each other""}","<img src=""stim_listA/dance4.gif""style=""height:400px;""></stim_listA>",are dancing with each other,
null,"<div style=""font-size:60px;"">+</div>",,html-keyboard-response,238,1344362,0.0-17.0-0.3,20195,List2A,white,man,,,,null,,,,
null,"<img src=""stim_listA/marry3.gif""style=""height:400px;""></stim_listA>",,html-keyboard-response,239,1346363,0.0-17.0-1.3,20195,List2A,white,man,,,,null,,,,
null,is marrying,,html-keyboard-response,240,1348364,0.0-17.0-2.3,20195,List2A,white,man,,,,null,,,,
7210,,,survey-text,241,1355574,0.0-17.0-3.3,20195,List2A,white,man,,,,,"{""Q0"":""Mike is marrying Beth""}","<img src=""stim_listA/marry3.gif""style=""height:400px;""></stim_listA>",is marrying,
null,"<div style=""font-size:60px;"">+</div>",,html-keyboard-response,242,1356077,0.0-17.0-0.4,20195,List2A,white,man,,,,null,,,,
null,"<img src=""stim_listA/flirt8.gif""style=""height:400px;""></stim_listA>",,html-keyboard-response,243,1358077,0.0-17.0-1.4,20195,List2A,white,man,,,,null,,,,
null,are flirting with each other,,html-keyboard-response,244,1360079,0.0-17.0-2.4,20195,List2A,white,man,,,,null,,,,
15604,,,survey-text,245,1375684,0.0-17.0-3.4,20195,List2A,white,man,,,,,"{""Q0"":""Jane and Beth are flirting with each other""}","<img src=""stim_listA/flirt8.gif""style=""height:400px;""></stim_listA>",are flirting with each other,
null,"<div style=""font-size:60px;"">+</div>",,html-keyboard-response,246,1376186,0.0-17.0-0.5,20195,List2A,white,man,,,,null,,,,
null,"<img src=""stim_listA/argue3.gif""style=""height:400px;""></stim_listA>",,html-keyboard-response,247,1378186,0.0-17.0-1.5,20195,List2A,white,man,,,,null,,,,
null,is arguing with,,html-keyboard-response,248,1380187,0.0-17.0-2.5,20195,List2A,white,man,,,,null,,,,
9566,,,survey-text,249,1389755,0.0-17.0-3.5,20195,List2A,white,man,,,,,"{""Q0"":""Beth is arguing with Mike""}","<img src=""stim_listA/argue3.gif""style=""height:400px;""></stim_listA>",is arguing with,
null,"<div style=""font-size:60px;"">+</div>",,html-keyboard-response,250,1390259,0.0-17.0-0.6,20195,List2A,white,man,,,,null,,,,
null,"<img src=""stim_listA/dance8.gif""style=""height:400px;""></stim_listA>",,html-keyboard-response,251,1392259,0.0-17.0-1.6,20195,List2A,white,man,,,,null,,,,
null,are dancing with each other,,html-keyboard-response,252,1394260,0.0-17.0-2.6,20195,List2A,white,man,,,,null,,,,
12079,,,survey-text,253,1406341,0.0-17.0-3.6,20195,List2A,white,man,,,,,"{""Q0"":""Beth and Jane are dancing with each other""}","<img src=""stim_listA/dance8.gif""style=""height:400px;""></stim_listA>",are dancing with each other,
null,"<div style=""font-size:60px;"">+</div>",,html-keyboard-response,254,1406842,0.0-17.0-0.7,20195,List2A,white,man,,,,null,,,,
null,"<img src=""stim_listA/talk2.gif""style=""height:400px;""></stim_listA>",,html-keyboard-response,255,1408842,0.0-17.0-1.7,20195,List2A,white,man,,,,null,,,,
null,are talking to each other,,html-keyboard-response,256,1410843,0.0-17.0-2.7,20195,List2A,white,man,,,,null,,,,
8171,,,survey-text,257,1419014,0.0-17.0-3.7,20195,List2A,white,man,,,,,"{""Q0"":""Dave and Ruth are talking to each other""}","<img src=""stim_listA/talk2.gif""style=""height:400px;""></stim_listA>",are talking to each other,
null,"<div style=""font-size:60px;"">+</div>",,html-keyboard-response,258,1419515,0.0-17.0-0.8,20195,List2A,white,man,,,,null,,,,
null,"<img src=""stim_listA/fight5.gif""style=""height:400px;""></stim_listA>",,html-keyboard-response,259,1421516,0.0-17.0-1.8,20195,List2A,white,man,,,,null,,,,
null,is fighting,,html-keyboard-response,260,1423517,0.0-17.0-2.8,20195,List2A,white,man,,,,null,,,,
6201,,,survey-text,261,1429718,0.0-17.0-3.8,20195,List2A,white,man,,,,,"{""Q0"":""Mike is fighting Dave""}","<img src=""stim_listA/fight5.gif""style=""height:400px;""></stim_listA>",is fighting,
null,"<div style=""font-size:60px;"">+</div>",,html-keyboard-response,262,1430219,0.0-17.0-0.9,20195,List2A,white,man,,,,null,,,,
null,"<img src=""stim_listA/shout4.gif""style=""height:400px;""></stim_listA>",,html-keyboard-response,263,1432220,0.0-17.0-1.9,20195,List2A,white,man,,,,null,,,,
null,are shouting at each other,,html-keyboard-response,264,1434221,0.0-17.0-2.9,20195,List2A,white,man,,,,null,,,,
14212,,,survey-text,265,1448433,0.0-17.0-3.9,20195,List2A,white,man,,,,,"{""Q0"":""Kate and Mike are shouting at each other""}","<img src=""stim_listA/shout4.gif""style=""height:400px;""></stim_listA>",are shouting at each other,
null,"<div style=""font-size:60px;"">+</div>",,html-keyboard-response,266,1448934,0.0-17.0-0.10,20195,List2A,white,man,,,,null,,,,
null,"<img src=""stim_listA/argue8.gif""style=""height:400px;""></stim_listA>",,html-keyboard-response,267,1450935,0.0-17.0-1.10,20195,List2A,white,man,,,,null,,,,
null,are arguing with each other,,html-keyboard-response,268,1452937,0.0-17.0-2.10,20195,List2A,white,man,,,,null,,,,
9047,,,survey-text,269,1461984,0.0-17.0-3.10,20195,List2A,white,man,,,,,"{""Q0"":""Kate and Ruth are arguing with each other""}","<img src=""stim_listA/argue8.gif""style=""height:400px;""></stim_listA>",are arguing with each other,
null,"<div style=""font-size:60px;"">+</div>",,html-keyboard-response,270,1462485,0.0-17.0-0.11,20195,List2A,white,man,,,,null,,,,
null,"<img src=""stim_listA/play3.gif""style=""height:400px;""></stim_listA>",,html-keyboard-response,271,1464486,0.0-17.0-1.11,20195,List2A,white,man,,,,null,,,,
null,is playing with,,html-keyboard-response,272,1466487,0.0-17.0-2.11,20195,List2A,white,man,,,,null,,,,
12145,,,survey-text,273,1478632,0.0-17.0-3.11,20195,List2A,white,man,,,,,"{""Q0"":""Kate is playing with Mike""}","<img src=""stim_listA/play3.gif""style=""height:400px;""></stim_listA>",is playing with,
null,"<div style=""font-size:60px;"">+</div>",,html-keyboard-response,274,1479134,0.0-17.0-0.12,20195,List2A,white,man,,,,null,,,,
null,"<img src=""stim_listA/touch6.gif""style=""height:400px;""></stim_listA>",,html-keyboard-response,275,1481135,0.0-17.0-1.12,20195,List2A,white,man,,,,null,,,,
null,are touching each other,,html-keyboard-response,276,1483137,0.0-17.0-2.12,20195,List2A,white,man,,,,null,,,,
9443,,,survey-text,277,1492581,0.0-17.0-3.12,20195,List2A,white,man,,,,,"{""Q0"":""Luke and Fred are touching each other""}","<img src=""stim_listA/touch6.gif""style=""height:400px;""></stim_listA>",are touching each other,
null,"<div style=""font-size:60px;"">+</div>",,html-keyboard-response,278,1493081,0.0-17.0-0.13,20195,List2A,white,man,,,,null,,,,
null,"<img src=""stim_listA/shout1.gif""style=""height:400px;""></stim_listA>",,html-keyboard-response,279,1495082,0.0-17.0-1.13,20195,List2A,white,man,,,,null,,,,
null,is shouting at,,html-keyboard-response,280,1497082,0.0-17.0-2.13,20195,List2A,white,man,,,,null,,,,
10139,,,survey-text,281,1507221,0.0-17.0-3.13,20195,List2A,white,man,,,,,"{""Q0"":""Luke is shouting at Ruth""}","<img src=""stim_listA/shout1.gif""style=""height:400px;""></stim_listA>",is shouting at,
null,"<div style=""font-size:60px;"">+</div>",,html-keyboard-response,282,1507721,0.0-17.0-0.14,20195,List2A,white,man,,,,null,,,,
null,"<img src=""stim_listA/flirt2.gif""style=""height:400px;""></stim_listA>",,html-keyboard-response,283,1509724,0.0-17.0-1.14,20195,List2A,white,man,,,,null,,,,
null,are flirting with each other,,html-keyboard-response,284,1511726,0.0-17.0-2.14,20195,List2A,white,man,,,,null,,,,
8493,,,survey-text,285,1520219,0.0-17.0-3.14,20195,List2A,white,man,,,,,"{""Q0"":""Ruth and Dave are flirting with each other""}","<img src=""stim_listA/flirt2.gif""style=""height:400px;""></stim_listA>",are flirting with each other,
null,"<div style=""font-size:60px;"">+</div>",,html-keyboard-response,286,1520722,0.0-17.0-0.15,20195,List2A,white,man,,,,null,,,,
null,"<img src=""stim_listA/dance5.gif""style=""height:400px;""></stim_listA>",,html-keyboard-response,287,1522723,0.0-17.0-1.15,20195,List2A,white,man,,,,null,,,,
null,is dancing with,,html-keyboard-response,288,1524725,0.0-17.0-2.15,20195,List2A,white,man,,,,null,,,,
13274,,,survey-text,289,1537999,0.0-17.0-3.15,20195,List2A,white,man,,,,,"{""Q0"":""Mike is dancing with Luke""}","<img src=""stim_listA/dance5.gif""style=""height:400px;""></stim_listA>",is dancing with,
null,"<div style=""font-size:60px;"">+</div>",,html-keyboard-response,290,1538501,0.0-17.0-0.16,20195,List2A,white,man,,,,null,,,,
null,"<img src=""stim_listA/dance1.gif""style=""height:400px;""></stim_listA>",,html-keyboard-response,291,1540501,0.0-17.0-1.16,20195,List2A,white,man,,,,null,,,,
null,is dancing with,,html-keyboard-response,292,1542502,0.0-17.0-2.16,20195,List2A,white,man,,,,null,,,,
7929,,,survey-text,293,1550433,0.0-17.0-3.16,20195,List2A,white,man,,,,,"{""Q0"":""Luke is dancing with Jane""}","<img src=""stim_listA/dance1.gif""style=""height:400px;""></stim_listA>",is dancing with,
null,"<div style=""font-size:60px;"">+</div>",,html-keyboard-response,294,1550933,0.0-17.0-0.17,20195,List2A,white,man,,,,null,,,,
null,"<img src=""stim_listA/marry2.gif""style=""height:400px;""></stim_listA>",,html-keyboard-response,295,1552934,0.0-17.0-1.17,20195,List2A,white,man,,,,null,,,,
null,are marrying each other,,html-keyboard-response,296,1554935,0.0-17.0-2.17,20195,List2A,white,man,,,,null,,,,
9299,,,survey-text,297,1564234,0.0-17.0-3.17,20195,List2A,white,man,,,,,"{""Q0"":""Jane and Luke are marrying each other""}","<img src=""stim_listA/marry2.gif""style=""height:400px;""></stim_listA>",are marrying each other,
null,"<div style=""font-size:60px;"">+</div>",,html-keyboard-response,298,1564735,0.0-17.0-0.18,20195,List2A,white,man,,,,null,,,,
null,"<img src=""stim_listA/marry8.gif""style=""height:400px;""></stim_listA>",,html-keyboard-response,299,1566735,0.0-17.0-1.18,20195,List2A,white,man,,,,null,,,,
null,are marrying each other,,html-keyboard-response,300,1568736,0.0-17.0-2.18,20195,List2A,white,man,,,,null,,,,
8129,,,survey-text,301,1576865,0.0-17.0-3.18,20195,List2A,white,man,,,,,"{""Q0"":""Kate and Ruth are marrying each other""}","<img src=""stim_listA/marry8.gif""style=""height:400px;""></stim_listA>",are marrying each other,
null,"<div style=""font-size:60px;"">+</div>",,html-keyboard-response,302,1577365,0.0-17.0-0.19,20195,List2A,white,man,,,,null,,,,
null,"<img src=""stim_listA/kiss8.gif""style=""height:400px;""></stim_listA>",,html-keyboard-response,303,1579366,0.0-17.0-1.19,20195,List2A,white,man,,,,null,,,,
null,are kissing each other,,html-keyboard-response,304,1581367,0.0-17.0-2.19,20195,List2A,white,man,,,,null,,,,
7207,,,survey-text,305,1588576,0.0-17.0-3.19,20195,List2A,white,man,,,,,"{""Q0"":""Kate and Jane are kissing each other""}","<img src=""stim_listA/kiss8.gif""style=""height:400px;""></stim_listA>",are kissing each other,
40714,"<img src='img/portrait_matrix_list2.jpg' style='width:900px;height:500px;''></img><p>If you have memorised all the portraits and names and are ready to start, press Continue.</p><p><strong>Please note: Your memory of these faces will be tested 4 times during this experiment.</strong></p>",0,html-button-response,306,1629291,0.0-18.0-0.0,20195,List2A,white,man,,,,,,,,
2448,"<img src=""portrait/WM1.jpg""style=""height:400px;""></img>",6,html-button-response,307,1632741,0.0-18.0-1.0,20195,List2A,white,man,,TRUE,6,,,,,
null,CORRECT,,html-keyboard-response,308,1634242,0.0-18.0-2.0-0.0,20195,List2A,white,man,,,,null,,,,
1489,"<img src=""portrait/WM2.jpg""style=""height:400px;""></img>",7,html-button-response,309,1635731,0.0-18.0-4.0,20195,List2A,white,man,,TRUE,7,,,,,
null,CORRECT,,html-keyboard-response,310,1637232,0.0-18.0-5.0-0.0,20195,List2A,white,man,,,,null,,,,
1700,"<img src=""portrait/BW2.jpg""style=""height:400px;""></img>",2,html-button-response,311,1638932,0.0-18.0-7.0,20195,List2A,white,man,,TRUE,2,,,,,
null,CORRECT,,html-keyboard-response,312,1640433,0.0-18.0-8.0-0.0,20195,List2A,white,man,,,,null,,,,
1740,"<img src=""portrait/BM2.jpg""style=""height:400px;""></img>",5,html-button-response,313,1642175,0.0-18.0-10.0,20195,List2A,white,man,,TRUE,5,,,,,
null,CORRECT,,html-keyboard-response,314,1643678,0.0-18.0-11.0-0.0,20195,List2A,white,man,,,,null,,,,
1900,"<img src=""portrait/BW1.jpg""style=""height:400px;""></img>",0,html-button-response,315,1645581,0.0-18.0-13.0,20195,List2A,white,man,,TRUE,0,,,,,
null,CORRECT,,html-keyboard-response,316,1647082,0.0-18.0-14.0-0.0,20195,List2A,white,man,,,,null,,,,
1926,"<img src=""portrait/WW1.jpg""style=""height:400px;""></img>",1,html-button-response,317,1649009,0.0-18.0-16.0,20195,List2A,white,man,,TRUE,1,,,,,
null,CORRECT,,html-keyboard-response,318,1650511,0.0-18.0-17.0-0.0,20195,List2A,white,man,,,,null,,,,
936,"<img src=""portrait/WW2.jpg""style=""height:400px;""></img>",3,html-button-response,319,1651449,0.0-18.0-19.0,20195,List2A,white,man,,TRUE,3,,,,,
null,CORRECT,,html-keyboard-response,320,1652950,0.0-18.0-20.0-0.0,20195,List2A,white,man,,,,null,,,,
1002,"<img src=""portrait/BM1.jpg""style=""height:400px;""></img>",4,html-button-response,321,1653953,0.0-18.0-22.0,20195,List2A,white,man,,TRUE,4,,,,,
null,CORRECT,,html-keyboard-response,322,1655454,0.0-18.0-23.0-0.0,20195,List2A,white,man,,,,null,,,,
1643,<p>You got 8 out of 8 right first time. Press Continue.</p>,0,html-button-response,323,1657099,0.0-18.0-25.0,20195,List2A,white,man,,,,,,,,
null,"<div style=""font-size:60px;"">+</div>",,html-keyboard-response,324,1658602,0.0-19.0-0.0,20195,List2A,white,man,,,,null,,,,
null,"<img src=""stim_listA/play1.gif""style=""height:400px;""></stim_listA>",,html-keyboard-response,325,1660603,0.0-19.0-1.0,20195,List2A,white,man,,,,null,,,,
null,is playing with,,html-keyboard-response,326,1662604,0.0-19.0-2.0,20195,List2A,white,man,,,,null,,,,
7385,,,survey-text,327,1669990,0.0-19.0-3.0,20195,List2A,white,man,,,,,"{""Q0"":""Jane is playing with Dave""}","<img src=""stim_listA/play1.gif""style=""height:400px;""></stim_listA>",is playing with,
null,"<div style=""font-size:60px;"">+</div>",,html-keyboard-response,328,1670490,0.0-19.0-0.1,20195,List2A,white,man,,,,null,,,,
null,"<img src=""stim_listA/flirt5.gif""style=""height:400px;""></stim_listA>",,html-keyboard-response,329,1672491,0.0-19.0-1.1,20195,List2A,white,man,,,,null,,,,
null,is flirting with,,html-keyboard-response,330,1674491,0.0-19.0-2.1,20195,List2A,white,man,,,,null,,,,
10945,,,survey-text,331,1685438,0.0-19.0-3.1,20195,List2A,white,man,,,,,"{""Q0"":""Mike is flirting with Luke""}","<img src=""stim_listA/flirt5.gif""style=""height:400px;""></stim_listA>",is flirting with,
null,"<div style=""font-size:60px;"">+</div>",,html-keyboard-response,332,1685938,0.0-19.0-0.2,20195,List2A,white,man,,,,null,,,,
null,"<img src=""stim_listA/play4.gif""style=""height:400px;""></stim_listA>",,html-keyboard-response,333,1687941,0.0-19.0-1.2,20195,List2A,white,man,,,,null,,,,
null,are playing with each other,,html-keyboard-response,334,1689943,0.0-19.0-2.2,20195,List2A,white,man,,,,null,,,,
9530,,,survey-text,335,1699474,0.0-19.0-3.2,20195,List2A,white,man,,,,,"{""Q0"":""Beth and Fred are playing with each other""}","<img src=""stim_listA/play4.gif""style=""height:400px;""></stim_listA>",are playing with each other,
null,"<div style=""font-size:60px;"">+</div>",,html-keyboard-response,336,1699975,0.0-19.0-0.3,20195,List2A,white,man,,,,null,,,,
null,"<img src=""stim_listA/marry6.gif""style=""height:400px;""></stim_listA>",,html-keyboard-response,337,1701976,0.0-19.0-1.3,20195,List2A,white,man,,,,null,,,,
null,are marrying each other,,html-keyboard-response,338,1703977,0.0-19.0-2.3,20195,List2A,white,man,,,,null,,,,
11105,,,survey-text,339,1715082,0.0-19.0-3.3,20195,List2A,white,man,,,,,"{""Q0"":""Luke and Mike are marrying each other""}","<img src=""stim_listA/marry6.gif""style=""height:400px;""></stim_listA>",are marrying each other,
null,"<div style=""font-size:60px;"">+</div>",,html-keyboard-response,340,1715583,0.0-19.0-0.4,20195,List2A,white,man,,,,null,,,,
null,"<img src=""stim_listA/play2.gif""style=""height:400px;""></stim_listA>",,html-keyboard-response,341,1717584,0.0-19.0-1.4,20195,List2A,white,man,,,,null,,,,
null,are playing with each other,,html-keyboard-response,342,1719584,0.0-19.0-2.4,20195,List2A,white,man,,,,null,,,,
8609,,,survey-text,343,1728194,0.0-19.0-3.4,20195,List2A,white,man,,,,,"{""Q0"":""Luke and Ruth are playing with each other""}","<img src=""stim_listA/play2.gif""style=""height:400px;""></stim_listA>",are playing with each other,
null,"<div style=""font-size:60px;"">+</div>",,html-keyboard-response,344,1728696,0.0-19.0-0.5,20195,List2A,white,man,,,,null,,,,
null,"<img src=""stim_listA/talk7.gif""style=""height:400px;""></stim_listA>",,html-keyboard-response,345,1730698,0.0-19.0-1.5,20195,List2A,white,man,,,,null,,,,
null,is talking to,,html-keyboard-response,346,1732699,0.0-19.0-2.5,20195,List2A,white,man,,,,null,,,,
8084,,,survey-text,347,1740784,0.0-19.0-3.5,20195,List2A,white,man,,,,,"{""Q0"":""Kate is talking to Ruth""}","<img src=""stim_listA/talk7.gif""style=""height:400px;""></stim_listA>",is talking to,
null,"<div style=""font-size:60px;"">+</div>",,html-keyboard-response,348,1741285,0.0-19.0-0.6,20195,List2A,white,man,,,,null,,,,
null,"<img src=""stim_listA/dance7.gif""style=""height:400px;""></stim_listA>",,html-keyboard-response,349,1743286,0.0-19.0-1.6,20195,List2A,white,man,,,,null,,,,
null,is dancing with,,html-keyboard-response,350,1745287,0.0-19.0-2.6,20195,List2A,white,man,,,,null,,,,
9301,,,survey-text,351,1754588,0.0-19.0-3.6,20195,List2A,white,man,,,,,"{""Q0"":""Kate is dancing with Ruth""}","<img src=""stim_listA/dance7.gif""style=""height:400px;""></stim_listA>",is dancing with,
null,"<div style=""font-size:60px;"">+</div>",,html-keyboard-response,352,1755089,0.0-19.0-0.7,20195,List2A,white,man,,,,null,,,,
null,"<img src=""stim_listA/talk5.gif""style=""height:400px;""></stim_listA>",,html-keyboard-response,353,1757089,0.0-19.0-1.7,20195,List2A,white,man,,,,null,,,,
null,is talking to,,html-keyboard-response,354,1759092,0.0-19.0-2.7,20195,List2A,white,man,,,,null,,,,
9692,,,survey-text,355,1768784,0.0-19.0-3.7,20195,List2A,white,man,,,,,"{""Q0"":""Mike is talking to Luke""}","<img src=""stim_listA/talk5.gif""style=""height:400px;""></stim_listA>",is talking to,
null,"<div style=""font-size:60px;"">+</div>",,html-keyboard-response,356,1769286,0.0-19.0-0.8,20195,List2A,white,man,,,,null,,,,
null,"<img src=""stim_listA/argue7.gif""style=""height:400px;""></stim_listA>",,html-keyboard-response,357,1771288,0.0-19.0-1.8,20195,List2A,white,man,,,,null,,,,
null,is arguing with,,html-keyboard-response,358,1773288,0.0-19.0-2.8,20195,List2A,white,man,,,,null,,,,
6622,,,survey-text,359,1779911,0.0-19.0-3.8,20195,List2A,white,man,,,,,"{""Q0"":""Beth is arguing with Jane""}","<img src=""stim_listA/argue7.gif""style=""height:400px;""></stim_listA>",is arguing with,
null,"<div style=""font-size:60px;"">+</div>",,html-keyboard-response,360,1780412,0.0-19.0-0.9,20195,List2A,white,man,,,,null,,,,
null,"<img src=""stim_listA/shout6.gif""style=""height:400px;""></stim_listA>",,html-keyboard-response,361,1782414,0.0-19.0-1.9,20195,List2A,white,man,,,,null,,,,
null,are shouting at each other,,html-keyboard-response,362,1784414,0.0-19.0-2.9,20195,List2A,white,man,,,,null,,,,
14801,,,survey-text,363,1799216,0.0-19.0-3.9,20195,List2A,white,man,,,,,"{""Q0"":""Mike and Dave are shouting at each other""}","<img src=""stim_listA/shout6.gif""style=""height:400px;""></stim_listA>",are shouting at each other,
null,"<div style=""font-size:60px;"">+</div>",,html-keyboard-response,364,1799718,0.0-19.0-0.10,20195,List2A,white,man,,,,null,,,,
null,"<img src=""stim_listA/talk4.gif""style=""height:400px;""></stim_listA>",,html-keyboard-response,365,1801720,0.0-19.0-1.10,20195,List2A,white,man,,,,null,,,,
null,are talking to each other,,html-keyboard-response,366,1803722,0.0-19.0-2.10,20195,List2A,white,man,,,,null,,,,
9216,,,survey-text,367,1812939,0.0-19.0-3.10,20195,List2A,white,man,,,,,"{""Q0"":""Beth and Mike are talking to each other""}","<img src=""stim_listA/talk4.gif""style=""height:400px;""></stim_listA>",are talking to each other,
null,"<div style=""font-size:60px;"">+</div>",,html-keyboard-response,368,1813440,0.0-19.0-0.11,20195,List2A,white,man,,,,null,,,,
null,"<img src=""stim_listA/flirt1.gif""style=""height:400px;""></stim_listA>",,html-keyboard-response,369,1815441,0.0-19.0-1.11,20195,List2A,white,man,,,,null,,,,
null,is flirting with,,html-keyboard-response,370,1817442,0.0-19.0-2.11,20195,List2A,white,man,,,,null,,,,
6688,,,survey-text,371,1824131,0.0-19.0-3.11,20195,List2A,white,man,,,,,"{""Q0"":""Luke is flirting with Jane""}","<img src=""stim_listA/flirt1.gif""style=""height:400px;""></stim_listA>",is flirting with,
null,"<div style=""font-size:60px;"">+</div>",,html-keyboard-response,372,1824631,0.0-19.0-0.12,20195,List2A,white,man,,,,null,,,,
null,"<img src=""stim_listA/shout5.gif""style=""height:400px;""></stim_listA>",,html-keyboard-response,373,1826632,0.0-19.0-1.12,20195,List2A,white,man,,,,null,,,,
null,is shouting at,,html-keyboard-response,374,1828632,0.0-19.0-2.12,20195,List2A,white,man,,,,null,,,,
8276,,,survey-text,375,1836910,0.0-19.0-3.12,20195,List2A,white,man,,,,,"{""Q0"":""Luke is shouting at Fred""}","<img src=""stim_listA/shout5.gif""style=""height:400px;""></stim_listA>",is shouting at,
null,"<div style=""font-size:60px;"">+</div>",,html-keyboard-response,376,1837411,0.0-19.0-0.13,20195,List2A,white,man,,,,null,,,,
null,"<img src=""stim_listA/touch7.gif""style=""height:400px;""></stim_listA>",,html-keyboard-response,377,1839411,0.0-19.0-1.13,20195,List2A,white,man,,,,null,,,,
null,is touching,,html-keyboard-response,378,1841412,0.0-19.0-2.13,20195,List2A,white,man,,,,null,,,,
6751,,,survey-text,379,1848164,0.0-19.0-3.13,20195,List2A,white,man,,,,,"{""Q0"":""Kate is touching Jane""}","<img src=""stim_listA/touch7.gif""style=""height:400px;""></stim_listA>",is touching,
null,"<div style=""font-size:60px;"">+</div>",,html-keyboard-response,380,1848665,0.0-19.0-0.14,20195,List2A,white,man,,,,null,,,,
null,"<img src=""stim_listA/touch2.gif""style=""height:400px;""></stim_listA>",,html-keyboard-response,381,1850666,0.0-19.0-1.14,20195,List2A,white,man,,,,null,,,,
null,are touching each other,,html-keyboard-response,382,1852667,0.0-19.0-2.14,20195,List2A,white,man,,,,null,,,,
8961,,,survey-text,383,1861628,0.0-19.0-3.14,20195,List2A,white,man,,,,,"{""Q0"":""Luke and Beth are touching each other""}","<img src=""stim_listA/touch2.gif""style=""height:400px;""></stim_listA>",are touching each other,
null,"<div style=""font-size:60px;"">+</div>",,html-keyboard-response,384,1862129,0.0-19.0-0.15,20195,List2A,white,man,,,,null,,,,
null,"<img src=""stim_listA/kiss7.gif""style=""height:400px;""></stim_listA>",,html-keyboard-response,385,1864130,0.0-19.0-1.15,20195,List2A,white,man,,,,null,,,,
null,is kissing,,html-keyboard-response,386,1866131,0.0-19.0-2.15,20195,List2A,white,man,,,,null,,,,
24587,,,survey-text,387,1890718,0.0-19.0-3.15,20195,List2A,white,man,,,,,"{""Q0"":""Ruth and Beth are kissing each other""}","<img src=""stim_listA/kiss7.gif""style=""height:400px;""></stim_listA>",is kissing,
null,"<div style=""font-size:60px;"">+</div>",,html-keyboard-response,388,1891220,0.0-19.0-0.16,20195,List2A,white,man,,,,null,,,,
null,"<img src=""stim_listA/flirt4.gif""style=""height:400px;""></stim_listA>",,html-keyboard-response,389,1893222,0.0-19.0-1.16,20195,List2A,white,man,,,,null,,,,
null,are flirting with each other,,html-keyboard-response,390,1895222,0.0-19.0-2.16,20195,List2A,white,man,,,,null,,,,
11363,,,survey-text,391,1906586,0.0-19.0-3.16,20195,List2A,white,man,,,,,"{""Q0"":""Beth and Mike are flirting with each other""}","<img src=""stim_listA/flirt4.gif""style=""height:400px;""></stim_listA>",are flirting with each other,
null,"<div style=""font-size:60px;"">+</div>",,html-keyboard-response,392,1907087,0.0-19.0-0.17,20195,List2A,white,man,,,,null,,,,
null,"<img src=""stim_listA/marry7.gif""style=""height:400px;""></stim_listA>",,html-keyboard-response,393,1909088,0.0-19.0-1.17,20195,List2A,white,man,,,,null,,,,
null,is marrying,,html-keyboard-response,394,1911089,0.0-19.0-2.17,20195,List2A,white,man,,,,null,,,,
5763,,,survey-text,395,1916852,0.0-19.0-3.17,20195,List2A,white,man,,,,,"{""Q0"":""Jane is marrying Beth""}","<img src=""stim_listA/marry7.gif""style=""height:400px;""></stim_listA>",is marrying,
null,"<div style=""font-size:60px;"">+</div>",,html-keyboard-response,396,1917353,0.0-19.0-0.18,20195,List2A,white,man,,,,null,,,,
null,"<img src=""stim_listA/kiss3.gif""style=""height:400px;""></stim_listA>",,html-keyboard-response,397,1919354,0.0-19.0-1.18,20195,List2A,white,man,,,,null,,,,
null,is kissing,,html-keyboard-response,398,1921355,0.0-19.0-2.18,20195,List2A,white,man,,,,null,,,,
12191,,,survey-text,399,1933546,0.0-19.0-3.18,20195,List2A,white,man,,,,,"{""Q0"":""Fred is kissing Beth""}","<img src=""stim_listA/kiss3.gif""style=""height:400px;""></stim_listA>",is kissing,
null,"<div style=""font-size:60px;"">+</div>",,html-keyboard-response,400,1934048,0.0-19.0-0.19,20195,List2A,white,man,,,,null,,,,
null,"<img src=""stim_listA/shout8.gif""style=""height:400px;""></stim_listA>",,html-keyboard-response,401,1936049,0.0-19.0-1.19,20195,List2A,white,man,,,,null,,,,
null,are shouting at each other,,html-keyboard-response,402,1938050,0.0-19.0-2.19,20195,List2A,white,man,,,,null,,,,
11677,,,survey-text,403,1949728,0.0-19.0-3.19,20195,List2A,white,man,,,,,"{""Q0"":""Jane and Kate are shouting at each other""}","<img src=""stim_listA/shout8.gif""style=""height:400px;""></stim_listA>",are shouting at each other,
2094,<p>Thank you for completing that task.</p><p>The final part of this session is a short questionnaire.</p><p>Press Continue.</p>,0,html-button-response,404,1951823,0.0-20.0,20195,List2A,white,man,,,,,,,,
24382,,,survey-text,405,1977207,0.0-21.0,20195,List2A,white,man,,,,,"{""Q0"":""40"",""Q1"":""English"",""Q2"":""English"",""Q3"":""England"",""Q4"":""White"",""Q5"":""Male""}",,,demographics
6050,,,survey-likert,406,1983260,0.0-22.0,20195,List2A,white,man,,,,,"{""Q0"":4}",,,likert_ESS
10219,,,survey-likert,407,1993481,0.0-23.0,20195,List2A,white,man,,,,,"{""Q0"":3}",,,likert_NSSAL_Q1
4196,,,survey-likert,408,1997679,0.0-24.0,20195,List2A,white,man,,,,,"{""Q0"":3}",,,likert_NSSAL_Q2
5693,,,survey-likert,409,2003373,0.0-25.0,20195,List2A,white,man,,,,,"{""Q0"":4}",,,likert_CGRS_Q1
2896,,,survey-likert,410,2006272,0.0-26.0,20195,List2A,white,man,,,,,"{""Q0"":4}",,,likert_CGRS_Q2
4411,,,survey-likert,411,2010684,0.0-27.0,20195,List2A,white,man,,,,,"{""Q0"":4}",,,likert_CGRS_Q3
38526,,,survey-text,412,2049212,0.0-28.0,20195,List2A,white,man,,,,,"{""Q0"":""ccc""}",,,worker_id
42333,,,external-html,413,2091625,0.0-29.0,20195,List2A,white,man,debrief.html,,,,,,,
