rt,stimulus,button_pressed,trial_type,trial_index,time_elapsed,internal_node_id,subject,list,ppt_race,ppt_gender,url,first_guess,correct,key_press,responses,image_type,phrase_type,test_part
3567,Welcome to the experiment. Press Continue to begin.,0,html-button-response,0,3572,0.0-0.0,20915,List1A,white,woman,,,,,,,,
10340,,,external-html,1,15277,0.0-1.0,20915,List1A,white,woman,consent.html,,,,,,,
12805,"<p>On the next page, you will see portraits of 8 people and their names.</p><p>Your first task is to take a few minutes to memorise the names of these people.</p><p>You will have to recall their names during the rest of the experiment, so it is</p><p>essential that you try to memorise these people and their names as best as you can.</p><br><p><strong>You will then be tested on your memory of these names and portraits.</strong></p><br><p>The experiment will start after you have completed this memory test.</p><br><p>Ready?</p>",0,html-button-response,2,28084,0.0-2.0,20915,List1A,white,woman,,,,,,,,
35523,"<img src='img/portrait_matrix_list1.jpg' style='width:900px;height:500px;''></img><p>If you have memorised all the portraits and names and are ready to start, press Continue.</p><p><strong>Please note: Your memory of these faces will be tested 4 times during this experiment.</strong></p>",0,html-button-response,3,64625,0.0-3.0-0.0,20915,List1A,white,woman,,,,,,,,
3224,"<img src=""portrait/BW1.jpg""style=""height:400px;""></img>",1,html-button-response,4,68854,0.0-3.0-1.0,20915,List1A,white,woman,,TRUE,0,,,,,
4562,"<img src=""portrait/BW1.jpg""style=""height:400px;""></img>",0,html-button-response,5,74433,0.0-3.0-3.0-0.0,20915,List1A,white,woman,,FALSE,0,,,,,
null,CORRECT,,html-keyboard-response,6,75961,0.0-3.0-3.0-1.0-0.0,20915,List1A,white,woman,,,,null,,,,
6477,"<img src=""portrait/BW2.jpg""style=""height:400px;""></img>",2,html-button-response,7,82453,0.0-3.0-4.0,20915,List1A,white,woman,,TRUE,2,,,,,
null,CORRECT,,html-keyboard-response,8,83971,0.0-3.0-5.0-0.0,20915,List1A,white,woman,,,,null,,,,
3085,"<img src=""portrait/BM1.jpg""style=""height:400px;""></img>",7,html-button-response,9,87057,0.0-3.0-7.0,20915,List1A,white,woman,,TRUE,4,,,,,
1924,"<img src=""portrait/BM1.jpg""style=""height:400px;""></img>",4,html-button-response,10,89991,0.0-3.0-9.0-0.0,20915,List1A,white,woman,,FALSE,4,,,,,
null,CORRECT,,html-keyboard-response,11,91515,0.0-3.0-9.0-1.0-0.0,20915,List1A,white,woman,,,,null,,,,
1807,"<img src=""portrait/WW2.jpg""style=""height:400px;""></img>",3,html-button-response,12,93323,0.0-3.0-10.0,20915,List1A,white,woman,,TRUE,3,,,,,
null,CORRECT,,html-keyboard-response,13,94845,0.0-3.0-11.0-0.0,20915,List1A,white,woman,,,,null,,,,
5404,"<img src=""portrait/WM1.jpg""style=""height:400px;""></img>",6,html-button-response,14,100252,0.0-3.0-13.0,20915,List1A,white,woman,,TRUE,6,,,,,
null,CORRECT,,html-keyboard-response,15,101762,0.0-3.0-14.0-0.0,20915,List1A,white,woman,,,,null,,,,
2552,"<img src=""portrait/WW1.jpg""style=""height:400px;""></img>",1,html-button-response,16,104315,0.0-3.0-16.0,20915,List1A,white,woman,,TRUE,1,,,,,
null,CORRECT,,html-keyboard-response,17,105824,0.0-3.0-17.0-0.0,20915,List1A,white,woman,,,,null,,,,
4369,"<img src=""portrait/BM2.jpg""style=""height:400px;""></img>",5,html-button-response,18,110196,0.0-3.0-19.0,20915,List1A,white,woman,,TRUE,5,,,,,
null,CORRECT,,html-keyboard-response,19,111708,0.0-3.0-20.0-0.0,20915,List1A,white,woman,,,,null,,,,
1715,"<img src=""portrait/WM2.jpg""style=""height:400px;""></img>",7,html-button-response,20,113425,0.0-3.0-22.0,20915,List1A,white,woman,,TRUE,7,,,,,
null,CORRECT,,html-keyboard-response,21,114934,0.0-3.0-23.0-0.0,20915,List1A,white,woman,,,,null,,,,
1763,<p>You got 6 out of 8 right first time. Press Continue.</p>,0,html-button-response,22,116700,0.0-3.0-25.0,20915,List1A,white,woman,,,,,,,,
3983,"As you did not score 100%, the memory game will repeat. Press Continue.",0,html-button-response,23,121689,0.0-3.0-26.0-0.0,20915,List1A,white,woman,,,,,,,,
8982,"<img src='img/portrait_matrix_list1.jpg' style='width:900px;height:500px;''></img><p>If you have memorised all the portraits and names and are ready to start, press Continue.</p><p><strong>Please note: Your memory of these faces will be tested 4 times during this experiment.</strong></p>",0,html-button-response,24,131687,0.0-3.1-0.1,20915,List1A,white,woman,,,,,,,,
3074,"<img src=""portrait/BW1.jpg""style=""height:400px;""></img>",0,html-button-response,25,135769,0.0-3.1-1.1,20915,List1A,white,woman,,TRUE,0,,,,,
null,CORRECT,,html-keyboard-response,26,137291,0.0-3.1-2.1-0.1,20915,List1A,white,woman,,,,null,,,,
3432,"<img src=""portrait/BW2.jpg""style=""height:400px;""></img>",2,html-button-response,27,140725,0.0-3.1-4.1,20915,List1A,white,woman,,TRUE,2,,,,,
null,CORRECT,,html-keyboard-response,28,142245,0.0-3.1-5.1-0.1,20915,List1A,white,woman,,,,null,,,,
3744,"<img src=""portrait/BM1.jpg""style=""height:400px;""></img>",4,html-button-response,29,145991,0.0-3.1-7.1,20915,List1A,white,woman,,TRUE,4,,,,,
null,CORRECT,,html-keyboard-response,30,147497,0.0-3.1-8.1-0.1,20915,List1A,white,woman,,,,null,,,,
1818,"<img src=""portrait/WW2.jpg""style=""height:400px;""></img>",3,html-button-response,31,149317,0.0-3.1-10.1,20915,List1A,white,woman,,TRUE,3,,,,,
null,CORRECT,,html-keyboard-response,32,150827,0.0-3.1-11.1-0.1,20915,List1A,white,woman,,,,null,,,,
3123,"<img src=""portrait/WM1.jpg""style=""height:400px;""></img>",6,html-button-response,33,153953,0.0-3.1-13.1,20915,List1A,white,woman,,TRUE,6,,,,,
null,CORRECT,,html-keyboard-response,34,155463,0.0-3.1-14.1-0.1,20915,List1A,white,woman,,,,null,,,,
5328,"<img src=""portrait/WW1.jpg""style=""height:400px;""></img>",1,html-button-response,35,160793,0.0-3.1-16.1,20915,List1A,white,woman,,TRUE,1,,,,,
null,CORRECT,,html-keyboard-response,36,162300,0.0-3.1-17.1-0.1,20915,List1A,white,woman,,,,null,,,,
12075,"<img src=""portrait/BM2.jpg""style=""height:400px;""></img>",5,html-button-response,37,174378,0.0-3.1-19.1,20915,List1A,white,woman,,TRUE,5,,,,,
null,CORRECT,,html-keyboard-response,38,175891,0.0-3.1-20.1-0.1,20915,List1A,white,woman,,,,null,,,,
4748,"<img src=""portrait/WM2.jpg""style=""height:400px;""></img>",7,html-button-response,39,180641,0.0-3.1-22.1,20915,List1A,white,woman,,TRUE,7,,,,,
null,CORRECT,,html-keyboard-response,40,182156,0.0-3.1-23.1-0.1,20915,List1A,white,woman,,,,null,,,,
2500,<p>You got 8 out of 8 right first time. Press Continue.</p>,0,html-button-response,41,184659,0.0-3.1-25.1,20915,List1A,white,woman,,,,,,,,
15311,"<p>In this experiment, you will view photographs of the people from the memory game interacting.</p><p>By using the <strong>exact</strong> phrase given <i>after</i> the photograph appears and recalling the correct names of the people in the photographs, form a sentence describing the interaction. You do not need to capitalise names.</p><p>Type your answer in the space provided. Please complete every sentence before moving onto the next trial.</p><p>You will only have a few seconds to memorise each given photograph and phrase before you can respond, so try your best to focus.</p><p>An example is given below. Press 'Continue' when you are ready.</p><img src='img/speaking_example.jpg' style='width:800px;height:460px;''></img>",0,html-button-response,42,200983,0.0-4.0,20915,List1A,white,woman,,,,,,,,
2652,"<p>Before the experiment starts, you will watch two example trials. Press 'Continue'.</p>",0,html-button-response,43,204637,0.0-5.0,20915,List1A,white,woman,,,,,,,,
null,<img src='img/meet_eg.gif' style='height:400px;''></img>,,html-keyboard-response,44,207655,0.0-6.0,20915,List1A,white,woman,,,,null,,,,
null,<p>is meeting</p>,,html-keyboard-response,45,209661,0.0-7.0,20915,List1A,white,woman,,,,null,,,,
2234,<p><b>Answer:</b> kate is meeting beth</p>,0,html-button-response,46,211897,0.0-8.0,20915,List1A,white,woman,,,,,,,,
null,<img src='img/look_eg.gif' style='height:400px;''></img>,,html-keyboard-response,47,214909,0.0-9.0,20915,List1A,white,woman,,,,null,,,,
null,<p>are looking at each other</p>,,html-keyboard-response,48,216920,0.0-10.0,20915,List1A,white,woman,,,,null,,,,
3222,<p><b>Answer:</b> luke and dave are looking at each other</p>,0,html-button-response,49,220144,0.0-11.0,20915,List1A,white,woman,,,,,,,,
1634,"<p>Ready to start the experiment?</p><br><p><strong>Remember to describe the picture using a full sentence,</strong></p><p><strong>that combines the names of the people with the <i>exact</i> phrase given.</strong></p><p><strong>To receive full payment you must do this correctly.</strong></p><p><strong> You do not need to capitalise names or use punctuation.</strong></p><br><p>Press 'Continue' to begin.</p>",0,html-button-response,50,222796,0.0-12.0,20915,List1A,white,woman,,,,,,,,
null,"<div style=""font-size:60px;"">+</div>",,html-keyboard-response,51,224319,0.0-13.0-0.0,20915,List1A,white,woman,,,,null,,,,
null,"<img src=""stim_listA/play4.gif""style=""height:400px;""></stim_listA>",,html-keyboard-response,52,226324,0.0-13.0-1.0,20915,List1A,white,woman,,,,null,,,,
null,are playing with each other,,html-keyboard-response,53,228329,0.0-13.0-2.0,20915,List1A,white,woman,,,,null,,,,
22244,,,survey-text,54,250575,0.0-13.0-3.0,20915,List1A,white,woman,,,,,"{""Q0"":""Ruth and Luke are playing with each other. ""}","<img src=""stim_listA/play4.gif""style=""height:400px;""></stim_listA>",are playing with each other,
null,"<div style=""font-size:60px;"">+</div>",,html-keyboard-response,55,251092,0.0-13.0-0.1,20915,List1A,white,woman,,,,null,,,,
null,"<img src=""stim_listA/shout4.gif""style=""height:400px;""></stim_listA>",,html-keyboard-response,56,253094,0.0-13.0-1.1,20915,List1A,white,woman,,,,null,,,,
null,are shouting at each other,,html-keyboard-response,57,255103,0.0-13.0-2.1,20915,List1A,white,woman,,,,null,,,,
16838,,,survey-text,58,271943,0.0-13.0-3.1,20915,List1A,white,woman,,,,,"{""Q0"":""Ruth and Dave are shouting at each other.""}","<img src=""stim_listA/shout4.gif""style=""height:400px;""></stim_listA>",are shouting at each other,
null,"<div style=""font-size:60px;"">+</div>",,html-keyboard-response,59,272453,0.0-13.0-0.2,20915,List1A,white,woman,,,,null,,,,
null,"<img src=""stim_listA/dance6.gif""style=""height:400px;""></stim_listA>",,html-keyboard-response,60,274458,0.0-13.0-1.2,20915,List1A,white,woman,,,,null,,,,
null,are dancing with each other,,html-keyboard-response,61,276469,0.0-13.0-2.2,20915,List1A,white,woman,,,,null,,,,
22285,,,survey-text,62,298756,0.0-13.0-3.2,20915,List1A,white,woman,,,,,"{""Q0"":""Luke and Mike are dancing with each other.""}","<img src=""stim_listA/dance6.gif""style=""height:400px;""></stim_listA>",are dancing with each other,
null,"<div style=""font-size:60px;"">+</div>",,html-keyboard-response,63,299265,0.0-13.0-0.3,20915,List1A,white,woman,,,,null,,,,
null,"<img src=""stim_listA/play7.gif""style=""height:400px;""></stim_listA>",,html-keyboard-response,64,301269,0.0-13.0-1.3,20915,List1A,white,woman,,,,null,,,,
null,is playing with,,html-keyboard-response,65,303272,0.0-13.0-2.3,20915,List1A,white,woman,,,,null,,,,
14481,,,survey-text,66,317755,0.0-13.0-3.3,20915,List1A,white,woman,,,,,"{""Q0"":""Kate is playing with Jane.""}","<img src=""stim_listA/play7.gif""style=""height:400px;""></stim_listA>",is playing with,
null,"<div style=""font-size:60px;"">+</div>",,html-keyboard-response,67,318267,0.0-13.0-0.4,20915,List1A,white,woman,,,,null,,,,
null,"<img src=""stim_listA/talk5.gif""style=""height:400px;""></stim_listA>",,html-keyboard-response,68,320271,0.0-13.0-1.4,20915,List1A,white,woman,,,,null,,,,
null,is talking to,,html-keyboard-response,69,322287,0.0-13.0-2.4,20915,List1A,white,woman,,,,null,,,,
15441,,,survey-text,70,337729,0.0-13.0-3.4,20915,List1A,white,woman,,,,,"{""Q0"":""Fred is talking to Dave""}","<img src=""stim_listA/talk5.gif""style=""height:400px;""></stim_listA>",is talking to,
null,"<div style=""font-size:60px;"">+</div>",,html-keyboard-response,71,338235,0.0-13.0-0.5,20915,List1A,white,woman,,,,null,,,,
null,"<img src=""stim_listA/argue2.gif""style=""height:400px;""></stim_listA>",,html-keyboard-response,72,340241,0.0-13.0-1.5,20915,List1A,white,woman,,,,null,,,,
null,are arguing with each other,,html-keyboard-response,73,342257,0.0-13.0-2.5,20915,List1A,white,woman,,,,null,,,,
14791,,,survey-text,74,357049,0.0-13.0-3.5,20915,List1A,white,woman,,,,,"{""Q0"":""Fred and Kate are arguing with each other.""}","<img src=""stim_listA/argue2.gif""style=""height:400px;""></stim_listA>",are arguing with each other,
null,"<div style=""font-size:60px;"">+</div>",,html-keyboard-response,75,357560,0.0-13.0-0.6,20915,List1A,white,woman,,,,null,,,,
null,"<img src=""stim_listA/kiss5.gif""style=""height:400px;""></stim_listA>",,html-keyboard-response,76,359565,0.0-13.0-1.6,20915,List1A,white,woman,,,,null,,,,
null,is kissing,,html-keyboard-response,77,361569,0.0-13.0-2.6,20915,List1A,white,woman,,,,null,,,,
10377,,,survey-text,78,371947,0.0-13.0-3.6,20915,List1A,white,woman,,,,,"{""Q0"":""Fred is kissing Luke.""}","<img src=""stim_listA/kiss5.gif""style=""height:400px;""></stim_listA>",is kissing,
null,"<div style=""font-size:60px;"">+</div>",,html-keyboard-response,79,372448,0.0-13.0-0.7,20915,List1A,white,woman,,,,null,,,,
null,"<img src=""stim_listA/play3.gif""style=""height:400px;""></stim_listA>",,html-keyboard-response,80,374452,0.0-13.0-1.7,20915,List1A,white,woman,,,,null,,,,
null,is playing with,,html-keyboard-response,81,376466,0.0-13.0-2.7,20915,List1A,white,woman,,,,null,,,,
9944,,,survey-text,82,386411,0.0-13.0-3.7,20915,List1A,white,woman,,,,,"{""Q0"":""Dave is playing with Jane.""}","<img src=""stim_listA/play3.gif""style=""height:400px;""></stim_listA>",is playing with,
null,"<div style=""font-size:60px;"">+</div>",,html-keyboard-response,83,386924,0.0-13.0-0.8,20915,List1A,white,woman,,,,null,,,,
null,"<img src=""stim_listA/kiss7.gif""style=""height:400px;""></stim_listA>",,html-keyboard-response,84,388926,0.0-13.0-1.8,20915,List1A,white,woman,,,,null,,,,
null,is kissing,,html-keyboard-response,85,390930,0.0-13.0-2.8,20915,List1A,white,woman,,,,null,,,,
9032,,,survey-text,86,399963,0.0-13.0-3.8,20915,List1A,white,woman,,,,,"{""Q0"":""Beth is kissing Ruth.""}","<img src=""stim_listA/kiss7.gif""style=""height:400px;""></stim_listA>",is kissing,
null,"<div style=""font-size:60px;"">+</div>",,html-keyboard-response,87,400475,0.0-13.0-0.9,20915,List1A,white,woman,,,,null,,,,
null,"<img src=""stim_listA/dance5.gif""style=""height:400px;""></stim_listA>",,html-keyboard-response,88,402479,0.0-13.0-1.9,20915,List1A,white,woman,,,,null,,,,
null,is dancing with,,html-keyboard-response,89,404483,0.0-13.0-2.9,20915,List1A,white,woman,,,,null,,,,
6299,,,survey-text,90,410784,0.0-13.0-3.9,20915,List1A,white,woman,,,,,"{""Q0"":""Dave is dancing with Fred. ""}","<img src=""stim_listA/dance5.gif""style=""height:400px;""></stim_listA>",is dancing with,
null,"<div style=""font-size:60px;"">+</div>",,html-keyboard-response,91,411291,0.0-13.0-0.10,20915,List1A,white,woman,,,,null,,,,
null,"<img src=""stim_listA/flirt2.gif""style=""height:400px;""></stim_listA>",,html-keyboard-response,92,413294,0.0-13.0-1.10,20915,List1A,white,woman,,,,null,,,,
null,are flirting with each other,,html-keyboard-response,93,415309,0.0-13.0-2.10,20915,List1A,white,woman,,,,null,,,,
10890,,,survey-text,94,426201,0.0-13.0-3.10,20915,List1A,white,woman,,,,,"{""Q0"":""Ruth and Mike are flirting with each other. ""}","<img src=""stim_listA/flirt2.gif""style=""height:400px;""></stim_listA>",are flirting with each other,
null,"<div style=""font-size:60px;"">+</div>",,html-keyboard-response,95,426711,0.0-13.0-0.11,20915,List1A,white,woman,,,,null,,,,
null,"<img src=""stim_listA/kiss4.gif""style=""height:400px;""></stim_listA>",,html-keyboard-response,96,428716,0.0-13.0-1.11,20915,List1A,white,woman,,,,null,,,,
null,are kissing each other,,html-keyboard-response,97,430721,0.0-13.0-2.11,20915,List1A,white,woman,,,,null,,,,
12473,,,survey-text,98,443195,0.0-13.0-3.11,20915,List1A,white,woman,,,,,"{""Q0"":""Ruth and Dave are kissing.""}","<img src=""stim_listA/kiss4.gif""style=""height:400px;""></stim_listA>",are kissing each other,
null,"<div style=""font-size:60px;"">+</div>",,html-keyboard-response,99,443708,0.0-13.0-0.12,20915,List1A,white,woman,,,,null,,,,
null,"<img src=""stim_listA/touch1.gif""style=""height:400px;""></stim_listA>",,html-keyboard-response,100,445719,0.0-13.0-1.12,20915,List1A,white,woman,,,,null,,,,
null,is touching,,html-keyboard-response,101,447726,0.0-13.0-2.12,20915,List1A,white,woman,,,,null,,,,
17090,,,survey-text,102,464818,0.0-13.0-3.12,20915,List1A,white,woman,,,,,"{""Q0"":""Kate is touching Mike. ""}","<img src=""stim_listA/touch1.gif""style=""height:400px;""></stim_listA>",is touching,
null,"<div style=""font-size:60px;"">+</div>",,html-keyboard-response,103,465328,0.0-13.0-0.13,20915,List1A,white,woman,,,,null,,,,
null,"<img src=""stim_listA/dance3.gif""style=""height:400px;""></stim_listA>",,html-keyboard-response,104,467331,0.0-13.0-1.13,20915,List1A,white,woman,,,,null,,,,
null,is dancing with,,html-keyboard-response,105,469346,0.0-13.0-2.13,20915,List1A,white,woman,,,,null,,,,
7396,,,survey-text,106,476744,0.0-13.0-3.13,20915,List1A,white,woman,,,,,"{""Q0"":""Jane is dancing with Luke.""}","<img src=""stim_listA/dance3.gif""style=""height:400px;""></stim_listA>",is dancing with,
null,"<div style=""font-size:60px;"">+</div>",,html-keyboard-response,107,477251,0.0-13.0-0.14,20915,List1A,white,woman,,,,null,,,,
null,"<img src=""stim_listA/touch6.gif""style=""height:400px;""></stim_listA>",,html-keyboard-response,108,479256,0.0-13.0-1.14,20915,List1A,white,woman,,,,null,,,,
null,are touching each other,,html-keyboard-response,109,481267,0.0-13.0-2.14,20915,List1A,white,woman,,,,null,,,,
16308,,,survey-text,110,497577,0.0-13.0-3.14,20915,List1A,white,woman,,,,,"{""Q0"":""Luke and Fred are touching each other. ""}","<img src=""stim_listA/touch6.gif""style=""height:400px;""></stim_listA>",are touching each other,
null,"<div style=""font-size:60px;"">+</div>",,html-keyboard-response,111,498085,0.0-13.0-0.15,20915,List1A,white,woman,,,,null,,,,
null,"<img src=""stim_listA/argue7.gif""style=""height:400px;""></stim_listA>",,html-keyboard-response,112,500095,0.0-13.0-1.15,20915,List1A,white,woman,,,,null,,,,
null,is arguing with,,html-keyboard-response,113,502106,0.0-13.0-2.15,20915,List1A,white,woman,,,,null,,,,
19570,,,survey-text,114,521678,0.0-13.0-3.15,20915,List1A,white,woman,,,,,"{""Q0"":""Ruth is arguing with Luke.""}","<img src=""stim_listA/argue7.gif""style=""height:400px;""></stim_listA>",is arguing with,
null,"<div style=""font-size:60px;"">+</div>",,html-keyboard-response,115,522180,0.0-13.0-0.16,20915,List1A,white,woman,,,,null,,,,
null,"<img src=""stim_listA/shout7.gif""style=""height:400px;""></stim_listA>",,html-keyboard-response,116,524184,0.0-13.0-1.16,20915,List1A,white,woman,,,,null,,,,
null,is shouting at,,html-keyboard-response,117,526186,0.0-13.0-2.16,20915,List1A,white,woman,,,,null,,,,
10344,,,survey-text,118,536532,0.0-13.0-3.16,20915,List1A,white,woman,,,,,"{""Q0"":""Beth is shouting at Ruth.""}","<img src=""stim_listA/shout7.gif""style=""height:400px;""></stim_listA>",is shouting at,
null,"<div style=""font-size:60px;"">+</div>",,html-keyboard-response,119,537043,0.0-13.0-0.17,20915,List1A,white,woman,,,,null,,,,
null,"<img src=""stim_listA/talk8.gif""style=""height:400px;""></stim_listA>",,html-keyboard-response,120,539048,0.0-13.0-1.17,20915,List1A,white,woman,,,,null,,,,
null,are talking to each other,,html-keyboard-response,121,541054,0.0-13.0-2.17,20915,List1A,white,woman,,,,null,,,,
10957,,,survey-text,122,552012,0.0-13.0-3.17,20915,List1A,white,woman,,,,,"{""Q0"":""Ruth and Kate are talking to each other ""}","<img src=""stim_listA/talk8.gif""style=""height:400px;""></stim_listA>",are talking to each other,
null,"<div style=""font-size:60px;"">+</div>",,html-keyboard-response,123,552528,0.0-13.0-0.18,20915,List1A,white,woman,,,,null,,,,
null,"<img src=""stim_listA/marry1.gif""style=""height:400px;""></stim_listA>",,html-keyboard-response,124,554534,0.0-13.0-1.18,20915,List1A,white,woman,,,,null,,,,
null,is marrying,,html-keyboard-response,125,556546,0.0-13.0-2.18,20915,List1A,white,woman,,,,null,,,,
8276,,,survey-text,126,564824,0.0-13.0-3.18,20915,List1A,white,woman,,,,,"{""Q0"":""Mike is marrying Ruth""}","<img src=""stim_listA/marry1.gif""style=""height:400px;""></stim_listA>",is marrying,
null,"<div style=""font-size:60px;"">+</div>",,html-keyboard-response,127,565326,0.0-13.0-0.19,20915,List1A,white,woman,,,,null,,,,
null,"<img src=""stim_listA/talk7.gif""style=""height:400px;""></stim_listA>",,html-keyboard-response,128,567330,0.0-13.0-1.19,20915,List1A,white,woman,,,,null,,,,
null,is talking to,,html-keyboard-response,129,569344,0.0-13.0-2.19,20915,List1A,white,woman,,,,null,,,,
8066,,,survey-text,130,577412,0.0-13.0-3.19,20915,List1A,white,woman,,,,,"{""Q0"":""Beth is talking to Ruth""}","<img src=""stim_listA/talk7.gif""style=""height:400px;""></stim_listA>",is talking to,
9056,"<img src='img/portrait_matrix_list1.jpg' style='width:900px;height:500px;''></img><p>If you have memorised all the portraits and names and are ready to start, press Continue.</p><p><strong>Please note: Your memory of these faces will be tested 4 times during this experiment.</strong></p>",0,html-button-response,131,586469,0.0-14.0-0.0,20915,List1A,white,woman,,,,,,,,
3523,"<img src=""portrait/WW1.jpg""style=""height:400px;""></img>",1,html-button-response,132,590997,0.0-14.0-1.0,20915,List1A,white,woman,,TRUE,1,,,,,
null,CORRECT,,html-keyboard-response,133,592517,0.0-14.0-2.0-0.0,20915,List1A,white,woman,,,,null,,,,
2321,"<img src=""portrait/WM1.jpg""style=""height:400px;""></img>",6,html-button-response,134,594839,0.0-14.0-4.0,20915,List1A,white,woman,,TRUE,6,,,,,
null,CORRECT,,html-keyboard-response,135,596345,0.0-14.0-5.0-0.0,20915,List1A,white,woman,,,,null,,,,
1780,"<img src=""portrait/WM2.jpg""style=""height:400px;""></img>",7,html-button-response,136,598127,0.0-14.0-7.0,20915,List1A,white,woman,,TRUE,7,,,,,
null,CORRECT,,html-keyboard-response,137,599630,0.0-14.0-8.0-0.0,20915,List1A,white,woman,,,,null,,,,
4161,"<img src=""portrait/BW1.jpg""style=""height:400px;""></img>",0,html-button-response,138,603793,0.0-14.0-10.0,20915,List1A,white,woman,,TRUE,0,,,,,
null,CORRECT,,html-keyboard-response,139,605308,0.0-14.0-11.0-0.0,20915,List1A,white,woman,,,,null,,,,
2836,"<img src=""portrait/BM2.jpg""style=""height:400px;""></img>",5,html-button-response,140,608146,0.0-14.0-13.0,20915,List1A,white,woman,,TRUE,5,,,,,
null,CORRECT,,html-keyboard-response,141,609668,0.0-14.0-14.0-0.0,20915,List1A,white,woman,,,,null,,,,
2314,"<img src=""portrait/BM1.jpg""style=""height:400px;""></img>",4,html-button-response,142,611984,0.0-14.0-16.0,20915,List1A,white,woman,,TRUE,4,,,,,
null,CORRECT,,html-keyboard-response,143,613501,0.0-14.0-17.0-0.0,20915,List1A,white,woman,,,,null,,,,
1015,"<img src=""portrait/WW2.jpg""style=""height:400px;""></img>",3,html-button-response,144,614518,0.0-14.0-19.0,20915,List1A,white,woman,,TRUE,3,,,,,
null,CORRECT,,html-keyboard-response,145,616035,0.0-14.0-20.0-0.0,20915,List1A,white,woman,,,,null,,,,
2915,"<img src=""portrait/BW2.jpg""style=""height:400px;""></img>",2,html-button-response,146,618952,0.0-14.0-22.0,20915,List1A,white,woman,,TRUE,2,,,,,
null,CORRECT,,html-keyboard-response,147,620473,0.0-14.0-23.0-0.0,20915,List1A,white,woman,,,,null,,,,
1210,<p>You got 8 out of 8 right first time. Press Continue.</p>,0,html-button-response,148,621686,0.0-14.0-25.0,20915,List1A,white,woman,,,,,,,,
null,"<div style=""font-size:60px;"">+</div>",,html-keyboard-response,149,623193,0.0-15.0-0.0,20915,List1A,white,woman,,,,null,,,,
null,"<img src=""stim_listA/flirt6.gif""style=""height:400px;""></stim_listA>",,html-keyboard-response,150,625199,0.0-15.0-1.0,20915,List1A,white,woman,,,,null,,,,
null,are flirting with each other,,html-keyboard-response,151,627212,0.0-15.0-2.0,20915,List1A,white,woman,,,,null,,,,
11339,,,survey-text,152,638553,0.0-15.0-3.0,20915,List1A,white,woman,,,,,"{""Q0"":""Luke and Mike are flirting with each other""}","<img src=""stim_listA/flirt6.gif""style=""height:400px;""></stim_listA>",are flirting with each other,
null,"<div style=""font-size:60px;"">+</div>",,html-keyboard-response,153,639055,0.0-15.0-0.1,20915,List1A,white,woman,,,,null,,,,
null,"<img src=""stim_listA/marry3.gif""style=""height:400px;""></stim_listA>",,html-keyboard-response,154,641067,0.0-15.0-1.1,20915,List1A,white,woman,,,,null,,,,
null,is marrying,,html-keyboard-response,155,643069,0.0-15.0-2.1,20915,List1A,white,woman,,,,null,,,,
7524,,,survey-text,156,650595,0.0-15.0-3.1,20915,List1A,white,woman,,,,,"{""Q0"":""Dave is marrying Ruth ""}","<img src=""stim_listA/marry3.gif""style=""height:400px;""></stim_listA>",is marrying,
null,"<div style=""font-size:60px;"">+</div>",,html-keyboard-response,157,651101,0.0-15.0-0.2,20915,List1A,white,woman,,,,null,,,,
null,"<img src=""stim_listA/dance2.gif""style=""height:400px;""></stim_listA>",,html-keyboard-response,158,653105,0.0-15.0-1.2,20915,List1A,white,woman,,,,null,,,,
null,are dancing with each other,,html-keyboard-response,159,655106,0.0-15.0-2.2,20915,List1A,white,woman,,,,null,,,,
17283,,,survey-text,160,672391,0.0-15.0-3.2,20915,List1A,white,woman,,,,,"{""Q0"":""Beth and Mike are dancing with each other ""}","<img src=""stim_listA/dance2.gif""style=""height:400px;""></stim_listA>",are dancing with each other,
null,"<div style=""font-size:60px;"">+</div>",,html-keyboard-response,161,672905,0.0-15.0-0.3,20915,List1A,white,woman,,,,null,,,,
null,"<img src=""stim_listA/argue3.gif""style=""height:400px;""></stim_listA>",,html-keyboard-response,162,674911,0.0-15.0-1.3,20915,List1A,white,woman,,,,null,,,,
null,is arguing with,,html-keyboard-response,163,676921,0.0-15.0-2.3,20915,List1A,white,woman,,,,null,,,,
9160,,,survey-text,164,686082,0.0-15.0-3.3,20915,List1A,white,woman,,,,,"{""Q0"":""Dave is arguing with Ruth ""}","<img src=""stim_listA/argue3.gif""style=""height:400px;""></stim_listA>",is arguing with,
null,"<div style=""font-size:60px;"">+</div>",,html-keyboard-response,165,686591,0.0-15.0-0.4,20915,List1A,white,woman,,,,null,,,,
null,"<img src=""stim_listA/touch8.gif""style=""height:400px;""></stim_listA>",,html-keyboard-response,166,688599,0.0-15.0-1.4,20915,List1A,white,woman,,,,null,,,,
null,are touching each other,,html-keyboard-response,167,690611,0.0-15.0-2.4,20915,List1A,white,woman,,,,null,,,,
8312,,,survey-text,168,698924,0.0-15.0-3.4,20915,List1A,white,woman,,,,,"{""Q0"":""Ruth and Beth are touching each other ""}","<img src=""stim_listA/touch8.gif""style=""height:400px;""></stim_listA>",are touching each other,
null,"<div style=""font-size:60px;"">+</div>",,html-keyboard-response,169,699427,0.0-15.0-0.5,20915,List1A,white,woman,,,,null,,,,
null,"<img src=""stim_listA/fight2.gif""style=""height:400px;""></stim_listA>",,html-keyboard-response,170,701430,0.0-15.0-1.5,20915,List1A,white,woman,,,,null,,,,
null,are fighting each other,,html-keyboard-response,171,703440,0.0-15.0-2.5,20915,List1A,white,woman,,,,null,,,,
11542,,,survey-text,172,714984,0.0-15.0-3.5,20915,List1A,white,woman,,,,,"{""Q0"":""Beth and Fred are fighting each other ""}","<img src=""stim_listA/fight2.gif""style=""height:400px;""></stim_listA>",are fighting each other,
null,"<div style=""font-size:60px;"">+</div>",,html-keyboard-response,173,715492,0.0-15.0-0.6,20915,List1A,white,woman,,,,null,,,,
null,"<img src=""stim_listA/marry8.gif""style=""height:400px;""></stim_listA>",,html-keyboard-response,174,717498,0.0-15.0-1.6,20915,List1A,white,woman,,,,null,,,,
null,are marrying each other,,html-keyboard-response,175,719508,0.0-15.0-2.6,20915,List1A,white,woman,,,,null,,,,
7721,,,survey-text,176,727230,0.0-15.0-3.6,20915,List1A,white,woman,,,,,"{""Q0"":""Jane and Beth are marrying each other ""}","<img src=""stim_listA/marry8.gif""style=""height:400px;""></stim_listA>",are marrying each other,
null,"<div style=""font-size:60px;"">+</div>",,html-keyboard-response,177,727734,0.0-15.0-0.7,20915,List1A,white,woman,,,,null,,,,
null,"<img src=""stim_listA/kiss8.gif""style=""height:400px;""></stim_listA>",,html-keyboard-response,178,729738,0.0-15.0-1.7,20915,List1A,white,woman,,,,null,,,,
null,are kissing each other,,html-keyboard-response,179,731744,0.0-15.0-2.7,20915,List1A,white,woman,,,,null,,,,
16622,,,survey-text,180,748368,0.0-15.0-3.7,20915,List1A,white,woman,,,,,"{""Q0"":""Jane and Beth are kissing each other ""}","<img src=""stim_listA/kiss8.gif""style=""height:400px;""></stim_listA>",are kissing each other,
null,"<div style=""font-size:60px;"">+</div>",,html-keyboard-response,181,748882,0.0-15.0-0.8,20915,List1A,white,woman,,,,null,,,,
null,"<img src=""stim_listA/flirt5.gif""style=""height:400px;""></stim_listA>",,html-keyboard-response,182,750887,0.0-15.0-1.8,20915,List1A,white,woman,,,,null,,,,
null,is flirting with,,html-keyboard-response,183,752898,0.0-15.0-2.8,20915,List1A,white,woman,,,,null,,,,
6657,,,survey-text,184,759556,0.0-15.0-3.8,20915,List1A,white,woman,,,,,"{""Q0"":""Fred is flirting with Dave""}","<img src=""stim_listA/flirt5.gif""style=""height:400px;""></stim_listA>",is flirting with,
null,"<div style=""font-size:60px;"">+</div>",,html-keyboard-response,185,760073,0.0-15.0-0.9,20915,List1A,white,woman,,,,null,,,,
null,"<img src=""stim_listA/marry6.gif""style=""height:400px;""></stim_listA>",,html-keyboard-response,186,762079,0.0-15.0-1.9,20915,List1A,white,woman,,,,null,,,,
null,are marrying each other,,html-keyboard-response,187,764090,0.0-15.0-2.9,20915,List1A,white,woman,,,,null,,,,
7444,,,survey-text,188,771536,0.0-15.0-3.9,20915,List1A,white,woman,,,,,"{""Q0"":""Dave and Fred are marrying each other ""}","<img src=""stim_listA/marry6.gif""style=""height:400px;""></stim_listA>",are marrying each other,
null,"<div style=""font-size:60px;"">+</div>",,html-keyboard-response,189,772038,0.0-15.0-0.10,20915,List1A,white,woman,,,,null,,,,
null,"<img src=""stim_listA/fight4.gif""style=""height:400px;""></stim_listA>",,html-keyboard-response,190,774043,0.0-15.0-1.10,20915,List1A,white,woman,,,,null,,,,
null,are fighting each other,,html-keyboard-response,191,776046,0.0-15.0-2.10,20915,List1A,white,woman,,,,null,,,,
10248,,,survey-text,192,786295,0.0-15.0-3.10,20915,List1A,white,woman,,,,,"{""Q0"":""Ruth and Luke are fighting each other ""}","<img src=""stim_listA/fight4.gif""style=""height:400px;""></stim_listA>",are fighting each other,
null,"<div style=""font-size:60px;"">+</div>",,html-keyboard-response,193,786798,0.0-15.0-0.11,20915,List1A,white,woman,,,,null,,,,
null,"<img src=""stim_listA/marry5.gif""style=""height:400px;""></stim_listA>",,html-keyboard-response,194,788804,0.0-15.0-1.11,20915,List1A,white,woman,,,,null,,,,
null,is marrying,,html-keyboard-response,195,790809,0.0-15.0-2.11,20915,List1A,white,woman,,,,null,,,,
8247,,,survey-text,196,799058,0.0-15.0-3.11,20915,List1A,white,woman,,,,,"{""Q0"":""Mike is marrying Luke""}","<img src=""stim_listA/marry5.gif""style=""height:400px;""></stim_listA>",is marrying,
null,"<div style=""font-size:60px;"">+</div>",,html-keyboard-response,197,799563,0.0-15.0-0.12,20915,List1A,white,woman,,,,null,,,,
null,"<img src=""stim_listA/flirt1.gif""style=""height:400px;""></stim_listA>",,html-keyboard-response,198,801580,0.0-15.0-1.12,20915,List1A,white,woman,,,,null,,,,
null,is flirting with,,html-keyboard-response,199,803584,0.0-15.0-2.12,20915,List1A,white,woman,,,,null,,,,
9058,,,survey-text,200,812643,0.0-15.0-3.12,20915,List1A,white,woman,,,,,"{""Q0"":""Fred is flirting with Kate""}","<img src=""stim_listA/flirt1.gif""style=""height:400px;""></stim_listA>",is flirting with,
null,"<div style=""font-size:60px;"">+</div>",,html-keyboard-response,201,813159,0.0-15.0-0.13,20915,List1A,white,woman,,,,null,,,,
null,"<img src=""stim_listA/marry7.gif""style=""height:400px;""></stim_listA>",,html-keyboard-response,202,815163,0.0-15.0-1.13,20915,List1A,white,woman,,,,null,,,,
null,is marrying,,html-keyboard-response,203,817179,0.0-15.0-2.13,20915,List1A,white,woman,,,,null,,,,
6517,,,survey-text,204,823698,0.0-15.0-3.13,20915,List1A,white,woman,,,,,"{""Q0"":""Kate is marrying Ruth ""}","<img src=""stim_listA/marry7.gif""style=""height:400px;""></stim_listA>",is marrying,
null,"<div style=""font-size:60px;"">+</div>",,html-keyboard-response,205,824212,0.0-15.0-0.14,20915,List1A,white,woman,,,,null,,,,
null,"<img src=""stim_listA/shout6.gif""style=""height:400px;""></stim_listA>",,html-keyboard-response,206,826216,0.0-15.0-1.14,20915,List1A,white,woman,,,,null,,,,
null,are shouting at each other,,html-keyboard-response,207,828229,0.0-15.0-2.14,20915,List1A,white,woman,,,,null,,,,
13642,,,survey-text,208,841872,0.0-15.0-3.14,20915,List1A,white,woman,,,,,"{""Q0"":""Mike and Dave are shouting at each other ""}","<img src=""stim_listA/shout6.gif""style=""height:400px;""></stim_listA>",are shouting at each other,
null,"<div style=""font-size:60px;"">+</div>",,html-keyboard-response,209,842382,0.0-15.0-0.15,20915,List1A,white,woman,,,,null,,,,
null,"<img src=""stim_listA/marry2.gif""style=""height:400px;""></stim_listA>",,html-keyboard-response,210,844392,0.0-15.0-1.15,20915,List1A,white,woman,,,,null,,,,
null,are marrying each other,,html-keyboard-response,211,846395,0.0-15.0-2.15,20915,List1A,white,woman,,,,null,,,,
17099,,,survey-text,212,863495,0.0-15.0-3.15,20915,List1A,white,woman,,,,,"{""Q0"":""Kate and Fred are marrying each other""}","<img src=""stim_listA/marry2.gif""style=""height:400px;""></stim_listA>",are marrying each other,
null,"<div style=""font-size:60px;"">+</div>",,html-keyboard-response,213,864003,0.0-15.0-0.16,20915,List1A,white,woman,,,,null,,,,
null,"<img src=""stim_listA/shout1.gif""style=""height:400px;""></stim_listA>",,html-keyboard-response,214,866007,0.0-15.0-1.16,20915,List1A,white,woman,,,,null,,,,
null,is shouting at,,html-keyboard-response,215,868010,0.0-15.0-2.16,20915,List1A,white,woman,,,,null,,,,
6282,,,survey-text,216,874293,0.0-15.0-3.16,20915,List1A,white,woman,,,,,"{""Q0"":""Fred is shouting at Ruth ""}","<img src=""stim_listA/shout1.gif""style=""height:400px;""></stim_listA>",is shouting at,
null,"<div style=""font-size:60px;"">+</div>",,html-keyboard-response,217,874800,0.0-15.0-0.17,20915,List1A,white,woman,,,,null,,,,
null,"<img src=""stim_listA/argue8.gif""style=""height:400px;""></stim_listA>",,html-keyboard-response,218,876806,0.0-15.0-1.17,20915,List1A,white,woman,,,,null,,,,
null,are arguing with each other,,html-keyboard-response,219,878815,0.0-15.0-2.17,20915,List1A,white,woman,,,,null,,,,
16496,,,survey-text,220,895312,0.0-15.0-3.17,20915,List1A,white,woman,,,,,"{""Q0"":""Jane and Beth are arguing with each other ""}","<img src=""stim_listA/argue8.gif""style=""height:400px;""></stim_listA>",are arguing with each other,
null,"<div style=""font-size:60px;"">+</div>",,html-keyboard-response,221,895825,0.0-15.0-0.18,20915,List1A,white,woman,,,,null,,,,
null,"<img src=""stim_listA/kiss1.gif""style=""height:400px;""></stim_listA>",,html-keyboard-response,222,897827,0.0-15.0-1.18,20915,List1A,white,woman,,,,null,,,,
null,is kissing,,html-keyboard-response,223,899835,0.0-15.0-2.18,20915,List1A,white,woman,,,,null,,,,
7555,,,survey-text,224,907392,0.0-15.0-3.18,20915,List1A,white,woman,,,,,"{""Q0"":""Fred is kissing Beth ""}","<img src=""stim_listA/kiss1.gif""style=""height:400px;""></stim_listA>",is kissing,
null,"<div style=""font-size:60px;"">+</div>",,html-keyboard-response,225,907897,0.0-15.0-0.19,20915,List1A,white,woman,,,,null,,,,
null,"<img src=""stim_listA/kiss2.gif""style=""height:400px;""></stim_listA>",,html-keyboard-response,226,909902,0.0-15.0-1.19,20915,List1A,white,woman,,,,null,,,,
null,are kissing each other,,html-keyboard-response,227,911903,0.0-15.0-2.19,20915,List1A,white,woman,,,,null,,,,
10605,,,survey-text,228,922510,0.0-15.0-3.19,20915,List1A,white,woman,,,,,"{""Q0"":""Kate and Mike are kissing each other ""}","<img src=""stim_listA/kiss2.gif""style=""height:400px;""></stim_listA>",are kissing each other,
2070,"<img src='img/portrait_matrix_list1.jpg' style='width:900px;height:500px;''></img><p>If you have memorised all the portraits and names and are ready to start, press Continue.</p><p><strong>Please note: Your memory of these faces will be tested 4 times during this experiment.</strong></p>",0,html-button-response,229,924581,0.0-16.0-0.0,20915,List1A,white,woman,,,,,,,,
2990,"<img src=""portrait/BW2.jpg""style=""height:400px;""></img>",2,html-button-response,230,928586,0.0-16.0-1.0,20915,List1A,white,woman,,TRUE,2,,,,,
null,CORRECT,,html-keyboard-response,231,930112,0.0-16.0-2.0-0.0,20915,List1A,white,woman,,,,null,,,,
2646,"<img src=""portrait/WM2.jpg""style=""height:400px;""></img>",7,html-button-response,232,932761,0.0-16.0-4.0,20915,List1A,white,woman,,TRUE,7,,,,,
null,CORRECT,,html-keyboard-response,233,934283,0.0-16.0-5.0-0.0,20915,List1A,white,woman,,,,null,,,,
2193,"<img src=""portrait/WM1.jpg""style=""height:400px;""></img>",6,html-button-response,234,936479,0.0-16.0-7.0,20915,List1A,white,woman,,TRUE,6,,,,,
null,CORRECT,,html-keyboard-response,235,938003,0.0-16.0-8.0-0.0,20915,List1A,white,woman,,,,null,,,,
2227,"<img src=""portrait/BM1.jpg""style=""height:400px;""></img>",4,html-button-response,236,940232,0.0-16.0-10.0,20915,List1A,white,woman,,TRUE,4,,,,,
null,CORRECT,,html-keyboard-response,237,941750,0.0-16.0-11.0-0.0,20915,List1A,white,woman,,,,null,,,,
1776,"<img src=""portrait/BM2.jpg""style=""height:400px;""></img>",5,html-button-response,238,943528,0.0-16.0-13.0,20915,List1A,white,woman,,TRUE,5,,,,,
null,CORRECT,,html-keyboard-response,239,945038,0.0-16.0-14.0-0.0,20915,List1A,white,woman,,,,null,,,,
2406,"<img src=""portrait/WW1.jpg""style=""height:400px;""></img>",1,html-button-response,240,947446,0.0-16.0-16.0,20915,List1A,white,woman,,TRUE,1,,,,,
null,CORRECT,,html-keyboard-response,241,948978,0.0-16.0-17.0-0.0,20915,List1A,white,woman,,,,null,,,,
3633,"<img src=""portrait/BW1.jpg""style=""height:400px;""></img>",0,html-button-response,242,952612,0.0-16.0-19.0,20915,List1A,white,woman,,TRUE,0,,,,,
null,CORRECT,,html-keyboard-response,243,954114,0.0-16.0-20.0-0.0,20915,List1A,white,woman,,,,null,,,,
2357,"<img src=""portrait/WW2.jpg""style=""height:400px;""></img>",3,html-button-response,244,956474,0.0-16.0-22.0,20915,List1A,white,woman,,TRUE,3,,,,,
null,CORRECT,,html-keyboard-response,245,958004,0.0-16.0-23.0-0.0,20915,List1A,white,woman,,,,null,,,,
1730,<p>You got 8 out of 8 right first time. Press Continue.</p>,0,html-button-response,246,959736,0.0-16.0-25.0,20915,List1A,white,woman,,,,,,,,
null,"<div style=""font-size:60px;"">+</div>",,html-keyboard-response,247,961256,0.0-17.0-0.0,20915,List1A,white,woman,,,,null,,,,
null,"<img src=""stim_listA/marry4.gif""style=""height:400px;""></stim_listA>",,html-keyboard-response,248,963261,0.0-17.0-1.0,20915,List1A,white,woman,,,,null,,,,
null,are marrying each other,,html-keyboard-response,249,965273,0.0-17.0-2.0,20915,List1A,white,woman,,,,null,,,,
10624,,,survey-text,250,975899,0.0-17.0-3.0,20915,List1A,white,woman,,,,,"{""Q0"":""Jane and Luke are marrying each other ""}","<img src=""stim_listA/marry4.gif""style=""height:400px;""></stim_listA>",are marrying each other,
null,"<div style=""font-size:60px;"">+</div>",,html-keyboard-response,251,976409,0.0-17.0-0.1,20915,List1A,white,woman,,,,null,,,,
null,"<img src=""stim_listA/kiss3.gif""style=""height:400px;""></stim_listA>",,html-keyboard-response,252,978416,0.0-17.0-1.1,20915,List1A,white,woman,,,,null,,,,
null,is kissing,,html-keyboard-response,253,980423,0.0-17.0-2.1,20915,List1A,white,woman,,,,null,,,,
5513,,,survey-text,254,985938,0.0-17.0-3.1,20915,List1A,white,woman,,,,,"{""Q0"":""Luke is kissing Ruth ""}","<img src=""stim_listA/kiss3.gif""style=""height:400px;""></stim_listA>",is kissing,
null,"<div style=""font-size:60px;"">+</div>",,html-keyboard-response,255,986443,0.0-17.0-0.2,20915,List1A,white,woman,,,,null,,,,
null,"<img src=""stim_listA/talk4.gif""style=""height:400px;""></stim_listA>",,html-keyboard-response,256,988448,0.0-17.0-1.2,20915,List1A,white,woman,,,,null,,,,
null,are talking to each other,,html-keyboard-response,257,990459,0.0-17.0-2.2,20915,List1A,white,woman,,,,null,,,,
15011,,,survey-text,258,1005472,0.0-17.0-3.2,20915,List1A,white,woman,,,,,"{""Q0"":""Ruth and Dave are talking to each other ""}","<img src=""stim_listA/talk4.gif""style=""height:400px;""></stim_listA>",are talking to each other,
null,"<div style=""font-size:60px;"">+</div>",,html-keyboard-response,259,1005983,0.0-17.0-0.3,20915,List1A,white,woman,,,,null,,,,
null,"<img src=""stim_listA/flirt8.gif""style=""height:400px;""></stim_listA>",,html-keyboard-response,260,1007988,0.0-17.0-1.3,20915,List1A,white,woman,,,,null,,,,
null,are flirting with each other,,html-keyboard-response,261,1009991,0.0-17.0-2.3,20915,List1A,white,woman,,,,null,,,,
17709,,,survey-text,262,1027702,0.0-17.0-3.3,20915,List1A,white,woman,,,,,"{""Q0"":""Ruth and Kate are flirting with each other""}","<img src=""stim_listA/flirt8.gif""style=""height:400px;""></stim_listA>",are flirting with each other,
null,"<div style=""font-size:60px;"">+</div>",,html-keyboard-response,263,1028210,0.0-17.0-0.4,20915,List1A,white,woman,,,,null,,,,
null,"<img src=""stim_listA/fight8.gif""style=""height:400px;""></stim_listA>",,html-keyboard-response,264,1030214,0.0-17.0-1.4,20915,List1A,white,woman,,,,null,,,,
null,are fighting each other,,html-keyboard-response,265,1032224,0.0-17.0-2.4,20915,List1A,white,woman,,,,null,,,,
11148,,,survey-text,266,1043374,0.0-17.0-3.4,20915,List1A,white,woman,,,,,"{""Q0"":""Ruth and Beth are fighting each other""}","<img src=""stim_listA/fight8.gif""style=""height:400px;""></stim_listA>",are fighting each other,
null,"<div style=""font-size:60px;"">+</div>",,html-keyboard-response,267,1043878,0.0-17.0-0.5,20915,List1A,white,woman,,,,null,,,,
null,"<img src=""stim_listA/argue6.gif""style=""height:400px;""></stim_listA>",,html-keyboard-response,268,1045884,0.0-17.0-1.5,20915,List1A,white,woman,,,,null,,,,
null,are arguing with each other,,html-keyboard-response,269,1047887,0.0-17.0-2.5,20915,List1A,white,woman,,,,null,,,,
10862,,,survey-text,270,1058751,0.0-17.0-3.5,20915,List1A,white,woman,,,,,"{""Q0"":""Dave and Fred are arguing with each other""}","<img src=""stim_listA/argue6.gif""style=""height:400px;""></stim_listA>",are arguing with each other,
null,"<div style=""font-size:60px;"">+</div>",,html-keyboard-response,271,1059263,0.0-17.0-0.6,20915,List1A,white,woman,,,,null,,,,
null,"<img src=""stim_listA/fight1.gif""style=""height:400px;""></stim_listA>",,html-keyboard-response,272,1061268,0.0-17.0-1.6,20915,List1A,white,woman,,,,null,,,,
null,is fighting,,html-keyboard-response,273,1063269,0.0-17.0-2.6,20915,List1A,white,woman,,,,null,,,,
4909,,,survey-text,274,1068180,0.0-17.0-3.6,20915,List1A,white,woman,,,,,"{""Q0"":""Mike is fighting Kate""}","<img src=""stim_listA/fight1.gif""style=""height:400px;""></stim_listA>",is fighting,
null,"<div style=""font-size:60px;"">+</div>",,html-keyboard-response,275,1068685,0.0-17.0-0.7,20915,List1A,white,woman,,,,null,,,,
null,"<img src=""stim_listA/flirt7.gif""style=""height:400px;""></stim_listA>",,html-keyboard-response,276,1070690,0.0-17.0-1.7,20915,List1A,white,woman,,,,null,,,,
null,is flirting with,,html-keyboard-response,277,1072699,0.0-17.0-2.7,20915,List1A,white,woman,,,,null,,,,
6802,,,survey-text,278,1079503,0.0-17.0-3.7,20915,List1A,white,woman,,,,,"{""Q0"":""Beth is flirting with Jane ""}","<img src=""stim_listA/flirt7.gif""style=""height:400px;""></stim_listA>",is flirting with,
null,"<div style=""font-size:60px;"">+</div>",,html-keyboard-response,279,1080015,0.0-17.0-0.8,20915,List1A,white,woman,,,,null,,,,
null,"<img src=""stim_listA/talk1.gif""style=""height:400px;""></stim_listA>",,html-keyboard-response,280,1082021,0.0-17.0-1.8,20915,List1A,white,woman,,,,null,,,,
null,is talking to,,html-keyboard-response,281,1084031,0.0-17.0-2.8,20915,List1A,white,woman,,,,null,,,,
12957,,,survey-text,282,1096990,0.0-17.0-3.8,20915,List1A,white,woman,,,,,"{""Q0"":""Kate is talking to Fred""}","<img src=""stim_listA/talk1.gif""style=""height:400px;""></stim_listA>",is talking to,
null,"<div style=""font-size:60px;"">+</div>",,html-keyboard-response,283,1097500,0.0-17.0-0.9,20915,List1A,white,woman,,,,null,,,,
null,"<img src=""stim_listA/fight5.gif""style=""height:400px;""></stim_listA>",,html-keyboard-response,284,1099504,0.0-17.0-1.9,20915,List1A,white,woman,,,,null,,,,
null,is fighting,,html-keyboard-response,285,1101512,0.0-17.0-2.9,20915,List1A,white,woman,,,,null,,,,
6487,,,survey-text,286,1108000,0.0-17.0-3.9,20915,List1A,white,woman,,,,,"{""Q0"":""Mike is fighting Dave ""}","<img src=""stim_listA/fight5.gif""style=""height:400px;""></stim_listA>",is fighting,
null,"<div style=""font-size:60px;"">+</div>",,html-keyboard-response,287,1108510,0.0-17.0-0.10,20915,List1A,white,woman,,,,null,,,,
null,"<img src=""stim_listA/play8.gif""style=""height:400px;""></stim_listA>",,html-keyboard-response,288,1110516,0.0-17.0-1.10,20915,List1A,white,woman,,,,null,,,,
null,are playing with each other,,html-keyboard-response,289,1112526,0.0-17.0-2.10,20915,List1A,white,woman,,,,null,,,,
12111,,,survey-text,290,1124639,0.0-17.0-3.10,20915,List1A,white,woman,,,,,"{""Q0"":""Beth and Ruth are playing together ""}","<img src=""stim_listA/play8.gif""style=""height:400px;""></stim_listA>",are playing with each other,
null,"<div style=""font-size:60px;"">+</div>",,html-keyboard-response,291,1125152,0.0-17.0-0.11,20915,List1A,white,woman,,,,null,,,,
null,"<img src=""stim_listA/shout5.gif""style=""height:400px;""></stim_listA>",,html-keyboard-response,292,1127155,0.0-17.0-1.11,20915,List1A,white,woman,,,,null,,,,
null,is shouting at,,html-keyboard-response,293,1129168,0.0-17.0-2.11,20915,List1A,white,woman,,,,null,,,,
9098,,,survey-text,294,1138268,0.0-17.0-3.11,20915,List1A,white,woman,,,,,"{""Q0"":""Dave is shouting at Luke ""}","<img src=""stim_listA/shout5.gif""style=""height:400px;""></stim_listA>",is shouting at,
null,"<div style=""font-size:60px;"">+</div>",,html-keyboard-response,295,1138773,0.0-17.0-0.12,20915,List1A,white,woman,,,,null,,,,
null,"<img src=""stim_listA/dance8.gif""style=""height:400px;""></stim_listA>",,html-keyboard-response,296,1140779,0.0-17.0-1.12,20915,List1A,white,woman,,,,null,,,,
null,are dancing with each other,,html-keyboard-response,297,1142789,0.0-17.0-2.12,20915,List1A,white,woman,,,,null,,,,
11073,,,survey-text,298,1153863,0.0-17.0-3.12,20915,List1A,white,woman,,,,,"{""Q0"":""Kate and Ruth are dancing with each other ""}","<img src=""stim_listA/dance8.gif""style=""height:400px;""></stim_listA>",are dancing with each other,
null,"<div style=""font-size:60px;"">+</div>",,html-keyboard-response,299,1154376,0.0-17.0-0.13,20915,List1A,white,woman,,,,null,,,,
null,"<img src=""stim_listA/argue1.gif""style=""height:400px;""></stim_listA>",,html-keyboard-response,300,1156383,0.0-17.0-1.13,20915,List1A,white,woman,,,,null,,,,
null,is arguing with,,html-keyboard-response,301,1158385,0.0-17.0-2.13,20915,List1A,white,woman,,,,null,,,,
9447,,,survey-text,302,1167834,0.0-17.0-3.13,20915,List1A,white,woman,,,,,"{""Q0"":""Mike is arguing with Beth""}","<img src=""stim_listA/argue1.gif""style=""height:400px;""></stim_listA>",is arguing with,
null,"<div style=""font-size:60px;"">+</div>",,html-keyboard-response,303,1168345,0.0-17.0-0.14,20915,List1A,white,woman,,,,null,,,,
null,"<img src=""stim_listA/touch5.gif""style=""height:400px;""></stim_listA>",,html-keyboard-response,304,1170351,0.0-17.0-1.14,20915,List1A,white,woman,,,,null,,,,
null,is touching,,html-keyboard-response,305,1172355,0.0-17.0-2.14,20915,List1A,white,woman,,,,null,,,,
4311,,,survey-text,306,1176667,0.0-17.0-3.14,20915,List1A,white,woman,,,,,"{""Q0"":""Mike is touching Dave ""}","<img src=""stim_listA/touch5.gif""style=""height:400px;""></stim_listA>",is touching,
null,"<div style=""font-size:60px;"">+</div>",,html-keyboard-response,307,1177173,0.0-17.0-0.15,20915,List1A,white,woman,,,,null,,,,
null,"<img src=""stim_listA/flirt4.gif""style=""height:400px;""></stim_listA>",,html-keyboard-response,308,1179182,0.0-17.0-1.15,20915,List1A,white,woman,,,,null,,,,
null,are flirting with each other,,html-keyboard-response,309,1181198,0.0-17.0-2.15,20915,List1A,white,woman,,,,null,,,,
13673,,,survey-text,310,1194872,0.0-17.0-3.15,20915,List1A,white,woman,,,,,"{""Q0"":""Ruth and Dave are flirting together ""}","<img src=""stim_listA/flirt4.gif""style=""height:400px;""></stim_listA>",are flirting with each other,
null,"<div style=""font-size:60px;"">+</div>",,html-keyboard-response,311,1195377,0.0-17.0-0.16,20915,List1A,white,woman,,,,null,,,,
null,"<img src=""stim_listA/fight6.gif""style=""height:400px;""></stim_listA>",,html-keyboard-response,312,1197380,0.0-17.0-1.16,20915,List1A,white,woman,,,,null,,,,
null,are fighting each other,,html-keyboard-response,313,1199388,0.0-17.0-2.16,20915,List1A,white,woman,,,,null,,,,
19326,,,survey-text,314,1218715,0.0-17.0-3.16,20915,List1A,white,woman,,,,,"{""Q0"":""Luke and Dave are fighting each other ""}","<img src=""stim_listA/fight6.gif""style=""height:400px;""></stim_listA>",are fighting each other,
null,"<div style=""font-size:60px;"">+</div>",,html-keyboard-response,315,1219227,0.0-17.0-0.17,20915,List1A,white,woman,,,,null,,,,
null,"<img src=""stim_listA/flirt3.gif""style=""height:400px;""></stim_listA>",,html-keyboard-response,316,1221237,0.0-17.0-1.17,20915,List1A,white,woman,,,,null,,,,
null,is flirting with,,html-keyboard-response,317,1223251,0.0-17.0-2.17,20915,List1A,white,woman,,,,null,,,,
10343,,,survey-text,318,1233596,0.0-17.0-3.17,20915,List1A,white,woman,,,,,"{""Q0"":""Luke is flirting with Jane ""}","<img src=""stim_listA/flirt3.gif""style=""height:400px;""></stim_listA>",is flirting with,
null,"<div style=""font-size:60px;"">+</div>",,html-keyboard-response,319,1234104,0.0-17.0-0.18,20915,List1A,white,woman,,,,null,,,,
null,"<img src=""stim_listA/play6.gif""style=""height:400px;""></stim_listA>",,html-keyboard-response,320,1236106,0.0-17.0-1.18,20915,List1A,white,woman,,,,null,,,,
null,are playing with each other,,html-keyboard-response,321,1238113,0.0-17.0-2.18,20915,List1A,white,woman,,,,null,,,,
7893,,,survey-text,322,1246009,0.0-17.0-3.18,20915,List1A,white,woman,,,,,"{""Q0"":""Might and Fred are playing together ""}","<img src=""stim_listA/play6.gif""style=""height:400px;""></stim_listA>",are playing with each other,
null,"<div style=""font-size:60px;"">+</div>",,html-keyboard-response,323,1246520,0.0-17.0-0.19,20915,List1A,white,woman,,,,null,,,,
null,"<img src=""stim_listA/dance4.gif""style=""height:400px;""></stim_listA>",,html-keyboard-response,324,1248522,0.0-17.0-1.19,20915,List1A,white,woman,,,,null,,,,
null,are dancing with each other,,html-keyboard-response,325,1250531,0.0-17.0-2.19,20915,List1A,white,woman,,,,null,,,,
8566,,,survey-text,326,1259098,0.0-17.0-3.19,20915,List1A,white,woman,,,,,"{""Q0"":""Dave and Ruth are dancing together ""}","<img src=""stim_listA/dance4.gif""style=""height:400px;""></stim_listA>",are dancing with each other,
1396,"<img src='img/portrait_matrix_list1.jpg' style='width:900px;height:500px;''></img><p>If you have memorised all the portraits and names and are ready to start, press Continue.</p><p><strong>Please note: Your memory of these faces will be tested 4 times during this experiment.</strong></p>",0,html-button-response,327,1260496,0.0-18.0-0.0,20915,List1A,white,woman,,,,,,,,
1876,"<img src=""portrait/WW2.jpg""style=""height:400px;""></img>",3,html-button-response,328,1263374,0.0-18.0-1.0,20915,List1A,white,woman,,TRUE,3,,,,,
null,CORRECT,,html-keyboard-response,329,1264901,0.0-18.0-2.0-0.0,20915,List1A,white,woman,,,,null,,,,
2507,"<img src=""portrait/BW2.jpg""style=""height:400px;""></img>",2,html-button-response,330,1267409,0.0-18.0-4.0,20915,List1A,white,woman,,TRUE,2,,,,,
null,CORRECT,,html-keyboard-response,331,1268922,0.0-18.0-5.0-0.0,20915,List1A,white,woman,,,,null,,,,
1875,"<img src=""portrait/WM1.jpg""style=""height:400px;""></img>",6,html-button-response,332,1270799,0.0-18.0-7.0,20915,List1A,white,woman,,TRUE,6,,,,,
null,CORRECT,,html-keyboard-response,333,1272327,0.0-18.0-8.0-0.0,20915,List1A,white,woman,,,,null,,,,
2845,"<img src=""portrait/BW1.jpg""style=""height:400px;""></img>",0,html-button-response,334,1275175,0.0-18.0-10.0,20915,List1A,white,woman,,TRUE,0,,,,,
null,CORRECT,,html-keyboard-response,335,1276687,0.0-18.0-11.0-0.0,20915,List1A,white,woman,,,,null,,,,
2095,"<img src=""portrait/BM2.jpg""style=""height:400px;""></img>",5,html-button-response,336,1278786,0.0-18.0-13.0,20915,List1A,white,woman,,TRUE,5,,,,,
null,CORRECT,,html-keyboard-response,337,1280307,0.0-18.0-14.0-0.0,20915,List1A,white,woman,,,,null,,,,
1574,"<img src=""portrait/WM2.jpg""style=""height:400px;""></img>",7,html-button-response,338,1281882,0.0-18.0-16.0,20915,List1A,white,woman,,TRUE,7,,,,,
null,CORRECT,,html-keyboard-response,339,1283395,0.0-18.0-17.0-0.0,20915,List1A,white,woman,,,,null,,,,
1260,"<img src=""portrait/BM1.jpg""style=""height:400px;""></img>",4,html-button-response,340,1284658,0.0-18.0-19.0,20915,List1A,white,woman,,TRUE,4,,,,,
null,CORRECT,,html-keyboard-response,341,1286187,0.0-18.0-20.0-0.0,20915,List1A,white,woman,,,,null,,,,
1379,"<img src=""portrait/WW1.jpg""style=""height:400px;""></img>",1,html-button-response,342,1287567,0.0-18.0-22.0,20915,List1A,white,woman,,TRUE,1,,,,,
null,CORRECT,,html-keyboard-response,343,1289090,0.0-18.0-23.0-0.0,20915,List1A,white,woman,,,,null,,,,
1438,<p>You got 8 out of 8 right first time. Press Continue.</p>,0,html-button-response,344,1290530,0.0-18.0-25.0,20915,List1A,white,woman,,,,,,,,
null,"<div style=""font-size:60px;"">+</div>",,html-keyboard-response,345,1292045,0.0-19.0-0.0,20915,List1A,white,woman,,,,null,,,,
null,"<img src=""stim_listA/shout3.gif""style=""height:400px;""></stim_listA>",,html-keyboard-response,346,1294051,0.0-19.0-1.0,20915,List1A,white,woman,,,,null,,,,
null,is shouting at,,html-keyboard-response,347,1296063,0.0-19.0-2.0,20915,List1A,white,woman,,,,null,,,,
6444,,,survey-text,348,1302508,0.0-19.0-3.0,20915,List1A,white,woman,,,,,"{""Q0"":""ruth is shouting at luke ""}","<img src=""stim_listA/shout3.gif""style=""height:400px;""></stim_listA>",is shouting at,
null,"<div style=""font-size:60px;"">+</div>",,html-keyboard-response,349,1303019,0.0-19.0-0.1,20915,List1A,white,woman,,,,null,,,,
null,"<img src=""stim_listA/talk6.gif""style=""height:400px;""></stim_listA>",,html-keyboard-response,350,1305025,0.0-19.0-1.1,20915,List1A,white,woman,,,,null,,,,
null,are talking to each other,,html-keyboard-response,351,1307041,0.0-19.0-2.1,20915,List1A,white,woman,,,,null,,,,
10353,,,survey-text,352,1317396,0.0-19.0-3.1,20915,List1A,white,woman,,,,,"{""Q0"":""luke and mike are talking ""}","<img src=""stim_listA/talk6.gif""style=""height:400px;""></stim_listA>",are talking to each other,
null,"<div style=""font-size:60px;"">+</div>",,html-keyboard-response,353,1317912,0.0-19.0-0.2,20915,List1A,white,woman,,,,null,,,,
null,"<img src=""stim_listA/shout8.gif""style=""height:400px;""></stim_listA>",,html-keyboard-response,354,1319917,0.0-19.0-1.2,20915,List1A,white,woman,,,,null,,,,
null,are shouting at each other,,html-keyboard-response,355,1321927,0.0-19.0-2.2,20915,List1A,white,woman,,,,null,,,,
6705,,,survey-text,356,1328634,0.0-19.0-3.2,20915,List1A,white,woman,,,,,"{""Q0"":""jane and kate are shouting at each other ""}","<img src=""stim_listA/shout8.gif""style=""height:400px;""></stim_listA>",are shouting at each other,
null,"<div style=""font-size:60px;"">+</div>",,html-keyboard-response,357,1329139,0.0-19.0-0.3,20915,List1A,white,woman,,,,null,,,,
null,"<img src=""stim_listA/talk3.gif""style=""height:400px;""></stim_listA>",,html-keyboard-response,358,1331144,0.0-19.0-1.3,20915,List1A,white,woman,,,,null,,,,
null,is talking to,,html-keyboard-response,359,1333146,0.0-19.0-2.3,20915,List1A,white,woman,,,,null,,,,
5794,,,survey-text,360,1338941,0.0-19.0-3.3,20915,List1A,white,woman,,,,,"{""Q0"":""luke is talking to jane ""}","<img src=""stim_listA/talk3.gif""style=""height:400px;""></stim_listA>",is talking to,
null,"<div style=""font-size:60px;"">+</div>",,html-keyboard-response,361,1339448,0.0-19.0-0.4,20915,List1A,white,woman,,,,null,,,,
null,"<img src=""stim_listA/touch2.gif""style=""height:400px;""></stim_listA>",,html-keyboard-response,362,1341454,0.0-19.0-1.4,20915,List1A,white,woman,,,,null,,,,
null,are touching each other,,html-keyboard-response,363,1343469,0.0-19.0-2.4,20915,List1A,white,woman,,,,null,,,,
12289,,,survey-text,364,1355760,0.0-19.0-3.4,20915,List1A,white,woman,,,,,"{""Q0"":""kate and dave are touching each other ""}","<img src=""stim_listA/touch2.gif""style=""height:400px;""></stim_listA>",are touching each other,
null,"<div style=""font-size:60px;"">+</div>",,html-keyboard-response,365,1356275,0.0-19.0-0.5,20915,List1A,white,woman,,,,null,,,,
null,"<img src=""stim_listA/touch7.gif""style=""height:400px;""></stim_listA>",,html-keyboard-response,366,1358280,0.0-19.0-1.5,20915,List1A,white,woman,,,,null,,,,
null,is touching,,html-keyboard-response,367,1360293,0.0-19.0-2.5,20915,List1A,white,woman,,,,null,,,,
8402,,,survey-text,368,1368696,0.0-19.0-3.5,20915,List1A,white,woman,,,,,"{""Q0"":""Kate is touching jane""}","<img src=""stim_listA/touch7.gif""style=""height:400px;""></stim_listA>",is touching,
null,"<div style=""font-size:60px;"">+</div>",,html-keyboard-response,369,1369208,0.0-19.0-0.6,20915,List1A,white,woman,,,,null,,,,
null,"<img src=""stim_listA/play2.gif""style=""height:400px;""></stim_listA>",,html-keyboard-response,370,1371211,0.0-19.0-1.6,20915,List1A,white,woman,,,,null,,,,
null,are playing with each other,,html-keyboard-response,371,1373222,0.0-19.0-2.6,20915,List1A,white,woman,,,,null,,,,
15762,,,survey-text,372,1388985,0.0-19.0-3.6,20915,List1A,white,woman,,,,,"{""Q0"":""Beth and Dave are playing together ""}","<img src=""stim_listA/play2.gif""style=""height:400px;""></stim_listA>",are playing with each other,
null,"<div style=""font-size:60px;"">+</div>",,html-keyboard-response,373,1389488,0.0-19.0-0.7,20915,List1A,white,woman,,,,null,,,,
null,"<img src=""stim_listA/play1.gif""style=""height:400px;""></stim_listA>",,html-keyboard-response,374,1391494,0.0-19.0-1.7,20915,List1A,white,woman,,,,null,,,,
null,is playing with,,html-keyboard-response,375,1393508,0.0-19.0-2.7,20915,List1A,white,woman,,,,null,,,,
5868,,,survey-text,376,1399378,0.0-19.0-3.7,20915,List1A,white,woman,,,,,"{""Q0"":""Mike is playing with kate ""}","<img src=""stim_listA/play1.gif""style=""height:400px;""></stim_listA>",is playing with,
null,"<div style=""font-size:60px;"">+</div>",,html-keyboard-response,377,1399888,0.0-19.0-0.8,20915,List1A,white,woman,,,,null,,,,
null,"<img src=""stim_listA/shout2.gif""style=""height:400px;""></stim_listA>",,html-keyboard-response,378,1401891,0.0-19.0-1.8,20915,List1A,white,woman,,,,null,,,,
null,are shouting at each other,,html-keyboard-response,379,1403906,0.0-19.0-2.8,20915,List1A,white,woman,,,,null,,,,
9515,,,survey-text,380,1413422,0.0-19.0-3.8,20915,List1A,white,woman,,,,,"{""Q0"":""kate is shouting at mike ""}","<img src=""stim_listA/shout2.gif""style=""height:400px;""></stim_listA>",are shouting at each other,
null,"<div style=""font-size:60px;"">+</div>",,html-keyboard-response,381,1413928,0.0-19.0-0.9,20915,List1A,white,woman,,,,null,,,,
null,"<img src=""stim_listA/talk2.gif""style=""height:400px;""></stim_listA>",,html-keyboard-response,382,1415937,0.0-19.0-1.9,20915,List1A,white,woman,,,,null,,,,
null,are talking to each other,,html-keyboard-response,383,1417951,0.0-19.0-2.9,20915,List1A,white,woman,,,,null,,,,
8960,,,survey-text,384,1426912,0.0-19.0-3.9,20915,List1A,white,woman,,,,,"{""Q0"":""beth and mike are talking ""}","<img src=""stim_listA/talk2.gif""style=""height:400px;""></stim_listA>",are talking to each other,
null,"<div style=""font-size:60px;"">+</div>",,html-keyboard-response,385,1427415,0.0-19.0-0.10,20915,List1A,white,woman,,,,null,,,,
null,"<img src=""stim_listA/kiss6.gif""style=""height:400px;""></stim_listA>",,html-keyboard-response,386,1429426,0.0-19.0-1.10,20915,List1A,white,woman,,,,null,,,,
null,are kissing each other,,html-keyboard-response,387,1431436,0.0-19.0-2.10,20915,List1A,white,woman,,,,null,,,,
6464,,,survey-text,388,1437902,0.0-19.0-3.10,20915,List1A,white,woman,,,,,"{""Q0"":""dave and mike are kissing each other ""}","<img src=""stim_listA/kiss6.gif""style=""height:400px;""></stim_listA>",are kissing each other,
null,"<div style=""font-size:60px;"">+</div>",,html-keyboard-response,389,1438415,0.0-19.0-0.11,20915,List1A,white,woman,,,,null,,,,
null,"<img src=""stim_listA/touch4.gif""style=""height:400px;""></stim_listA>",,html-keyboard-response,390,1440427,0.0-19.0-1.11,20915,List1A,white,woman,,,,null,,,,
null,are touching each other,,html-keyboard-response,391,1442443,0.0-19.0-2.11,20915,List1A,white,woman,,,,null,,,,
9370,,,survey-text,392,1451814,0.0-19.0-3.11,20915,List1A,white,woman,,,,,"{""Q0"":""ruth and mike are touching each other ""}","<img src=""stim_listA/touch4.gif""style=""height:400px;""></stim_listA>",are touching each other,
null,"<div style=""font-size:60px;"">+</div>",,html-keyboard-response,393,1452319,0.0-19.0-0.12,20915,List1A,white,woman,,,,null,,,,
null,"<img src=""stim_listA/argue4.gif""style=""height:400px;""></stim_listA>",,html-keyboard-response,394,1454322,0.0-19.0-1.12,20915,List1A,white,woman,,,,null,,,,
null,are arguing with each other,,html-keyboard-response,395,1456333,0.0-19.0-2.12,20915,List1A,white,woman,,,,null,,,,
9910,,,survey-text,396,1466246,0.0-19.0-3.12,20915,List1A,white,woman,,,,,"{""Q0"":""jane and mike are arguing with each other ""}","<img src=""stim_listA/argue4.gif""style=""height:400px;""></stim_listA>",are arguing with each other,
null,"<div style=""font-size:60px;"">+</div>",,html-keyboard-response,397,1466757,0.0-19.0-0.13,20915,List1A,white,woman,,,,null,,,,
null,"<img src=""stim_listA/dance7.gif""style=""height:400px;""></stim_listA>",,html-keyboard-response,398,1468760,0.0-19.0-1.13,20915,List1A,white,woman,,,,null,,,,
null,is dancing with,,html-keyboard-response,399,1470764,0.0-19.0-2.13,20915,List1A,white,woman,,,,null,,,,
6154,,,survey-text,400,1476919,0.0-19.0-3.13,20915,List1A,white,woman,,,,,"{""Q0"":""jane is dancing with kate ""}","<img src=""stim_listA/dance7.gif""style=""height:400px;""></stim_listA>",is dancing with,
null,"<div style=""font-size:60px;"">+</div>",,html-keyboard-response,401,1477422,0.0-19.0-0.14,20915,List1A,white,woman,,,,null,,,,
null,"<img src=""stim_listA/touch3.gif""style=""height:400px;""></stim_listA>",,html-keyboard-response,402,1479427,0.0-19.0-1.14,20915,List1A,white,woman,,,,null,,,,
null,is touching,,html-keyboard-response,403,1481428,0.0-19.0-2.14,20915,List1A,white,woman,,,,null,,,,
7946,,,survey-text,404,1489376,0.0-19.0-3.14,20915,List1A,white,woman,,,,,"{""Q0"":""dave is touching jane ""}","<img src=""stim_listA/touch3.gif""style=""height:400px;""></stim_listA>",is touching,
null,"<div style=""font-size:60px;"">+</div>",,html-keyboard-response,405,1489888,0.0-19.0-0.15,20915,List1A,white,woman,,,,null,,,,
null,"<img src=""stim_listA/dance1.gif""style=""height:400px;""></stim_listA>",,html-keyboard-response,406,1491894,0.0-19.0-1.15,20915,List1A,white,woman,,,,null,,,,
null,is dancing with,,html-keyboard-response,407,1493901,0.0-19.0-2.15,20915,List1A,white,woman,,,,null,,,,
7497,,,survey-text,408,1501399,0.0-19.0-3.15,20915,List1A,white,woman,,,,,"{""Q0"":""dave is dancing with kate ""}","<img src=""stim_listA/dance1.gif""style=""height:400px;""></stim_listA>",is dancing with,
null,"<div style=""font-size:60px;"">+</div>",,html-keyboard-response,409,1501909,0.0-19.0-0.16,20915,List1A,white,woman,,,,null,,,,
null,"<img src=""stim_listA/play5.gif""style=""height:400px;""></stim_listA>",,html-keyboard-response,410,1503915,0.0-19.0-1.16,20915,List1A,white,woman,,,,null,,,,
null,is playing with,,html-keyboard-response,411,1505916,0.0-19.0-2.16,20915,List1A,white,woman,,,,null,,,,
6243,,,survey-text,412,1512160,0.0-19.0-3.16,20915,List1A,white,woman,,,,,"{""Q0"":""mike is playing with dave ""}","<img src=""stim_listA/play5.gif""style=""height:400px;""></stim_listA>",is playing with,
null,"<div style=""font-size:60px;"">+</div>",,html-keyboard-response,413,1512672,0.0-19.0-0.17,20915,List1A,white,woman,,,,null,,,,
null,"<img src=""stim_listA/fight3.gif""style=""height:400px;""></stim_listA>",,html-keyboard-response,414,1514678,0.0-19.0-1.17,20915,List1A,white,woman,,,,null,,,,
null,is fighting,,html-keyboard-response,415,1516687,0.0-19.0-2.17,20915,List1A,white,woman,,,,null,,,,
7324,,,survey-text,416,1524012,0.0-19.0-3.17,20915,List1A,white,woman,,,,,"{""Q0"":""dave is fighting jane ""}","<img src=""stim_listA/fight3.gif""style=""height:400px;""></stim_listA>",is fighting,
null,"<div style=""font-size:60px;"">+</div>",,html-keyboard-response,417,1524528,0.0-19.0-0.18,20915,List1A,white,woman,,,,null,,,,
null,"<img src=""stim_listA/argue5.gif""style=""height:400px;""></stim_listA>",,html-keyboard-response,418,1526540,0.0-19.0-1.18,20915,List1A,white,woman,,,,null,,,,
null,is arguing with,,html-keyboard-response,419,1528552,0.0-19.0-2.18,20915,List1A,white,woman,,,,null,,,,
8249,,,survey-text,420,1536804,0.0-19.0-3.18,20915,List1A,white,woman,,,,,"{""Q0"":""mike is arguing with luke ""}","<img src=""stim_listA/argue5.gif""style=""height:400px;""></stim_listA>",is arguing with,
null,"<div style=""font-size:60px;"">+</div>",,html-keyboard-response,421,1537317,0.0-19.0-0.19,20915,List1A,white,woman,,,,null,,,,
null,"<img src=""stim_listA/fight7.gif""style=""height:400px;""></stim_listA>",,html-keyboard-response,422,1539322,0.0-19.0-1.19,20915,List1A,white,woman,,,,null,,,,
null,is fighting,,html-keyboard-response,423,1541326,0.0-19.0-2.19,20915,List1A,white,woman,,,,null,,,,
15622,,,survey-text,424,1556949,0.0-19.0-3.19,20915,List1A,white,woman,,,,,"{""Q0"":""kate is fighting jane ""}","<img src=""stim_listA/fight7.gif""style=""height:400px;""></stim_listA>",is fighting,
2352,<p>Thank you for completing that task.</p><p>The final part of this session is a short questionnaire.</p><p>Press Continue.</p>,0,html-button-response,425,1559302,0.0-20.0,20915,List1A,white,woman,,,,,,,,
27094,,,survey-text,426,1587400,0.0-21.0,20915,List1A,white,woman,,,,,"{""Q0"":""27"",""Q1"":""English"",""Q2"":""English "",""Q3"":""England"",""Q4"":""White British "",""Q5"":""female""}",,,demographics
8706,,,survey-likert,427,1596110,0.0-22.0,20915,List1A,white,woman,,,,,"{""Q0"":4}",,,likert_ESS
9196,,,survey-likert,428,1605311,0.0-23.0,20915,List1A,white,woman,,,,,"{""Q0"":4}",,,likert_NSSAL_Q1
7452,,,survey-likert,429,1612769,0.0-24.0,20915,List1A,white,woman,,,,,"{""Q0"":4}",,,likert_NSSAL_Q2
3243,,,survey-likert,430,1616017,0.0-25.0,20915,List1A,white,woman,,,,,"{""Q0"":4}",,,likert_CGRS_Q1
2468,,,survey-likert,431,1618491,0.0-26.0,20915,List1A,white,woman,,,,,"{""Q0"":4}",,,likert_CGRS_Q2
5527,,,survey-likert,432,1624024,0.0-27.0,20915,List1A,white,woman,,,,,"{""Q0"":4}",,,likert_CGRS_Q3
5887,,,survey-text,433,1629916,0.0-28.0,20915,List1A,white,woman,,,,,"{""Q0"":""ccc""}",,,worker_id
3950,,,external-html,434,1634197,0.0-29.0,20915,List1A,white,woman,debrief.html,,,,,,,
