rt,stimulus,button_pressed,trial_type,trial_index,time_elapsed,internal_node_id,subject,list,ppt_race,ppt_gender,url,first_guess,correct,key_press,responses,image_type,phrase_type,test_part
1503,Welcome to the experiment. Press Continue to begin.,0,html-button-response,0,1505,0.0-0.0,21508,List2B,white,man,,,,,,,,
31030,,,external-html,1,33580,0.0-1.0,21508,List2B,white,man,consent.html,,,,,,,
12207,"<p>On the next page, you will see portraits of 8 people and their names.</p><p>Your first task is to take a few minutes to memorise the names of these people.</p><p>You will have to recall their names during the rest of the experiment, so it is</p><p>essential that you try to memorise these people and their names as best as you can.</p><br><p><strong>You will then be tested on your memory of these names and portraits.</strong></p><br><p>The experiment will start after you have completed this memory test.</p><br><p>Ready?</p>",0,html-button-response,2,45789,0.0-2.0,21508,List2B,white,man,,,,,,,,
155511,"<img src='img/portrait_matrix_list2.jpg' style='width:900px;height:500px;''></img><p>If you have memorised all the portraits and names and are ready to start, press Continue.</p><p><strong>Please note: Your memory of these faces will be tested 4 times during this experiment.</strong></p>",0,html-button-response,3,202302,0.0-3.0-0.0,21508,List2B,white,man,,,,,,,,
3001,"<img src=""portrait/WW2.jpg""style=""height:400px;""></img>",3,html-button-response,4,206304,0.0-3.0-1.0,21508,List2B,white,man,,TRUE,3,,,,,
null,CORRECT,,html-keyboard-response,5,207808,0.0-3.0-2.0-0.0,21508,List2B,white,man,,,,null,,,,
1784,"<img src=""portrait/BM2.jpg""style=""height:400px;""></img>",5,html-button-response,6,209593,0.0-3.0-4.0,21508,List2B,white,man,,TRUE,5,,,,,
null,CORRECT,,html-keyboard-response,7,211095,0.0-3.0-5.0-0.0,21508,List2B,white,man,,,,null,,,,
1483,"<img src=""portrait/WM2.jpg""style=""height:400px;""></img>",7,html-button-response,8,212579,0.0-3.0-7.0,21508,List2B,white,man,,TRUE,7,,,,,
null,CORRECT,,html-keyboard-response,9,214081,0.0-3.0-8.0-0.0,21508,List2B,white,man,,,,null,,,,
1796,"<img src=""portrait/BW1.jpg""style=""height:400px;""></img>",0,html-button-response,10,215878,0.0-3.0-10.0,21508,List2B,white,man,,TRUE,0,,,,,
null,CORRECT,,html-keyboard-response,11,217379,0.0-3.0-11.0-0.0,21508,List2B,white,man,,,,null,,,,
2418,"<img src=""portrait/BW2.jpg""style=""height:400px;""></img>",2,html-button-response,12,219799,0.0-3.0-13.0,21508,List2B,white,man,,TRUE,2,,,,,
null,CORRECT,,html-keyboard-response,13,221301,0.0-3.0-14.0-0.0,21508,List2B,white,man,,,,null,,,,
1356,"<img src=""portrait/BM1.jpg""style=""height:400px;""></img>",4,html-button-response,14,222658,0.0-3.0-16.0,21508,List2B,white,man,,TRUE,4,,,,,
null,CORRECT,,html-keyboard-response,15,224160,0.0-3.0-17.0-0.0,21508,List2B,white,man,,,,null,,,,
1607,"<img src=""portrait/WM1.jpg""style=""height:400px;""></img>",6,html-button-response,16,225768,0.0-3.0-19.0,21508,List2B,white,man,,TRUE,6,,,,,
null,CORRECT,,html-keyboard-response,17,227270,0.0-3.0-20.0-0.0,21508,List2B,white,man,,,,null,,,,
2003,"<img src=""portrait/WW1.jpg""style=""height:400px;""></img>",1,html-button-response,18,229274,0.0-3.0-22.0,21508,List2B,white,man,,TRUE,1,,,,,
null,CORRECT,,html-keyboard-response,19,230776,0.0-3.0-23.0-0.0,21508,List2B,white,man,,,,null,,,,
2005,<p>You got 8 out of 8 right first time. Press Continue.</p>,0,html-button-response,20,232783,0.0-3.0-25.0,21508,List2B,white,man,,,,,,,,
32944,"<p>In this experiment, you will view photographs of the people from the memory game interacting.</p><p>By using the <strong>exact</strong> phrase given <i>after</i> the photograph appears and recalling the correct names of the people in the photographs, form a sentence describing the interaction. You do not need to capitalise names.</p><p>Type your answer in the space provided. Please complete every sentence before moving onto the next trial.</p><p>You will only have a few seconds to memorise each given photograph and phrase before you can respond, so try your best to focus.</p><p>An example is given below. Press 'Continue' when you are ready.</p><img src='img/speaking_example.jpg' style='width:800px;height:460px;''></img>",0,html-button-response,21,266728,0.0-4.0,21508,List2B,white,man,,,,,,,,
2626,"<p>Before the experiment starts, you will watch two example trials. Press 'Continue'.</p>",0,html-button-response,22,270356,0.0-5.0,21508,List2B,white,man,,,,,,,,
null,<img src='img/meet_eg.gif' style='height:400px;''></img>,,html-keyboard-response,23,273358,0.0-6.0,21508,List2B,white,man,,,,null,,,,
null,<p>is meeting</p>,,html-keyboard-response,24,275359,0.0-7.0,21508,List2B,white,man,,,,null,,,,
5419,<p><b>Answer:</b> jane is meeting ruth</p>,0,html-button-response,25,280779,0.0-8.0,21508,List2B,white,man,,,,,,,,
null,<img src='img/look_eg.gif' style='height:400px;''></img>,,html-keyboard-response,26,283781,0.0-9.0,21508,List2B,white,man,,,,null,,,,
null,<p>are looking at each other</p>,,html-keyboard-response,27,285782,0.0-10.0,21508,List2B,white,man,,,,null,,,,
5966,<p><b>Answer:</b> fred and mike are looking at each other</p>,0,html-button-response,28,291749,0.0-11.0,21508,List2B,white,man,,,,,,,,
9626,"<p>Ready to start the experiment?</p><br><p><strong>Remember to describe the picture using a full sentence,</strong></p><p><strong>that combines the names of the people with the <i>exact</i> phrase given.</strong></p><p><strong>To receive full payment you must do this correctly.</strong></p><p><strong> You do not need to capitalise names or use punctuation.</strong></p><br><p>Press 'Continue' to begin.</p>",0,html-button-response,29,302376,0.0-12.0,21508,List2B,white,man,,,,,,,,
null,"<div style=""font-size:60px;"">+</div>",,html-keyboard-response,30,303878,0.0-13.0-0.0,21508,List2B,white,man,,,,null,,,,
null,"<img src=""stim_listB/touch1.gif""style=""height:400px;""></stim_listB>",,html-keyboard-response,31,305880,0.0-13.0-1.0,21508,List2B,white,man,,,,null,,,,
null,is touching,,html-keyboard-response,32,307881,0.0-13.0-2.0,21508,List2B,white,man,,,,null,,,,
8826,,,survey-text,33,316707,0.0-13.0-3.0,21508,List2B,white,man,,,,,"{""Q0"":""jane is touching dave""}","<img src=""stim_listB/touch1.gif""style=""height:400px;""></stim_listB>",is touching,
null,"<div style=""font-size:60px;"">+</div>",,html-keyboard-response,34,317209,0.0-13.0-0.1,21508,List2B,white,man,,,,null,,,,
null,"<img src=""stim_listB/kiss8.gif""style=""height:400px;""></stim_listB>",,html-keyboard-response,35,319210,0.0-13.0-1.1,21508,List2B,white,man,,,,null,,,,
null,are kissing each other,,html-keyboard-response,36,321211,0.0-13.0-2.1,21508,List2B,white,man,,,,null,,,,
11664,,,survey-text,37,332876,0.0-13.0-3.1,21508,List2B,white,man,,,,,"{""Q0"":""jane and kate are kissing each other""}","<img src=""stim_listB/kiss8.gif""style=""height:400px;""></stim_listB>",are kissing each other,
null,"<div style=""font-size:60px;"">+</div>",,html-keyboard-response,38,333377,0.0-13.0-0.2,21508,List2B,white,man,,,,null,,,,
null,"<img src=""stim_listB/fight7.gif""style=""height:400px;""></stim_listB>",,html-keyboard-response,39,335378,0.0-13.0-1.2,21508,List2B,white,man,,,,null,,,,
null,is fighting,,html-keyboard-response,40,337379,0.0-13.0-2.2,21508,List2B,white,man,,,,null,,,,
7460,,,survey-text,41,344841,0.0-13.0-3.2,21508,List2B,white,man,,,,,"{""Q0"":""jane is fighting kate""}","<img src=""stim_listB/fight7.gif""style=""height:400px;""></stim_listB>",is fighting,
null,"<div style=""font-size:60px;"">+</div>",,html-keyboard-response,42,345341,0.0-13.0-0.3,21508,List2B,white,man,,,,null,,,,
null,"<img src=""stim_listB/talk1.gif""style=""height:400px;""></stim_listB>",,html-keyboard-response,43,347343,0.0-13.0-1.3,21508,List2B,white,man,,,,null,,,,
null,is talking to,,html-keyboard-response,44,349344,0.0-13.0-2.3,21508,List2B,white,man,,,,null,,,,
7242,,,survey-text,45,356587,0.0-13.0-3.3,21508,List2B,white,man,,,,,"{""Q0"":""jane is talking to luke""}","<img src=""stim_listB/talk1.gif""style=""height:400px;""></stim_listB>",is talking to,
null,"<div style=""font-size:60px;"">+</div>",,html-keyboard-response,46,357088,0.0-13.0-0.4,21508,List2B,white,man,,,,null,,,,
null,"<img src=""stim_listB/play1.gif""style=""height:400px;""></stim_listB>",,html-keyboard-response,47,359089,0.0-13.0-1.4,21508,List2B,white,man,,,,null,,,,
null,is playing with,,html-keyboard-response,48,361090,0.0-13.0-2.4,21508,List2B,white,man,,,,null,,,,
9125,,,survey-text,49,370216,0.0-13.0-3.4,21508,List2B,white,man,,,,,"{""Q0"":""jane is playing with dave""}","<img src=""stim_listB/play1.gif""style=""height:400px;""></stim_listB>",is playing with,
null,"<div style=""font-size:60px;"">+</div>",,html-keyboard-response,50,370718,0.0-13.0-0.5,21508,List2B,white,man,,,,null,,,,
null,"<img src=""stim_listB/fight1.gif""style=""height:400px;""></stim_listB>",,html-keyboard-response,51,372719,0.0-13.0-1.5,21508,List2B,white,man,,,,null,,,,
null,is fighting,,html-keyboard-response,52,374720,0.0-13.0-2.5,21508,List2B,white,man,,,,null,,,,
8413,,,survey-text,53,383133,0.0-13.0-3.5,21508,List2B,white,man,,,,,"{""Q0"":""jane is fighting dave""}","<img src=""stim_listB/fight1.gif""style=""height:400px;""></stim_listB>",is fighting,
null,"<div style=""font-size:60px;"">+</div>",,html-keyboard-response,54,383634,0.0-13.0-0.6,21508,List2B,white,man,,,,null,,,,
null,"<img src=""stim_listB/argue5.gif""style=""height:400px;""></stim_listB>",,html-keyboard-response,55,385636,0.0-13.0-1.6,21508,List2B,white,man,,,,null,,,,
null,is arguing with,,html-keyboard-response,56,387637,0.0-13.0-2.6,21508,List2B,white,man,,,,null,,,,
7148,,,survey-text,57,394786,0.0-13.0-3.6,21508,List2B,white,man,,,,,"{""Q0"":""fred is arguing with dave""}","<img src=""stim_listB/argue5.gif""style=""height:400px;""></stim_listB>",is arguing with,
null,"<div style=""font-size:60px;"">+</div>",,html-keyboard-response,58,395287,0.0-13.0-0.7,21508,List2B,white,man,,,,null,,,,
null,"<img src=""stim_listB/talk6.gif""style=""height:400px;""></stim_listB>",,html-keyboard-response,59,397288,0.0-13.0-1.7,21508,List2B,white,man,,,,null,,,,
null,are talking to each other,,html-keyboard-response,60,399289,0.0-13.0-2.7,21508,List2B,white,man,,,,null,,,,
8296,,,survey-text,61,407587,0.0-13.0-3.7,21508,List2B,white,man,,,,,"{""Q0"":""dave and fred are talking to each other""}","<img src=""stim_listB/talk6.gif""style=""height:400px;""></stim_listB>",are talking to each other,
null,"<div style=""font-size:60px;"">+</div>",,html-keyboard-response,62,408088,0.0-13.0-0.8,21508,List2B,white,man,,,,null,,,,
null,"<img src=""stim_listB/talk4.gif""style=""height:400px;""></stim_listB>",,html-keyboard-response,63,410089,0.0-13.0-1.8,21508,List2B,white,man,,,,null,,,,
null,are talking to each other,,html-keyboard-response,64,412089,0.0-13.0-2.8,21508,List2B,white,man,,,,null,,,,
7980,,,survey-text,65,420071,0.0-13.0-3.8,21508,List2B,white,man,,,,,"{""Q0"":""mike and beth are talking to each other""}","<img src=""stim_listB/talk4.gif""style=""height:400px;""></stim_listB>",are talking to each other,
null,"<div style=""font-size:60px;"">+</div>",,html-keyboard-response,66,420573,0.0-13.0-0.9,21508,List2B,white,man,,,,null,,,,
null,"<img src=""stim_listB/shout8.gif""style=""height:400px;""></stim_listB>",,html-keyboard-response,67,422574,0.0-13.0-1.9,21508,List2B,white,man,,,,null,,,,
null,are shouting at each other,,html-keyboard-response,68,424575,0.0-13.0-2.9,21508,List2B,white,man,,,,null,,,,
8934,,,survey-text,69,433510,0.0-13.0-3.9,21508,List2B,white,man,,,,,"{""Q0"":""jane and kate are shouting at each other""}","<img src=""stim_listB/shout8.gif""style=""height:400px;""></stim_listB>",are shouting at each other,
null,"<div style=""font-size:60px;"">+</div>",,html-keyboard-response,70,434012,0.0-13.0-0.10,21508,List2B,white,man,,,,null,,,,
null,"<img src=""stim_listB/talk7.gif""style=""height:400px;""></stim_listB>",,html-keyboard-response,71,436013,0.0-13.0-1.10,21508,List2B,white,man,,,,null,,,,
null,is talking to,,html-keyboard-response,72,438014,0.0-13.0-2.10,21508,List2B,white,man,,,,null,,,,
7611,,,survey-text,73,445625,0.0-13.0-3.10,21508,List2B,white,man,,,,,"{""Q0"":""kate is talking to ruth""}","<img src=""stim_listB/talk7.gif""style=""height:400px;""></stim_listB>",is talking to,
null,"<div style=""font-size:60px;"">+</div>",,html-keyboard-response,74,446126,0.0-13.0-0.11,21508,List2B,white,man,,,,null,,,,
null,"<img src=""stim_listB/play2.gif""style=""height:400px;""></stim_listB>",,html-keyboard-response,75,448127,0.0-13.0-1.11,21508,List2B,white,man,,,,null,,,,
null,are playing with each other,,html-keyboard-response,76,450128,0.0-13.0-2.11,21508,List2B,white,man,,,,null,,,,
12616,,,survey-text,77,462746,0.0-13.0-3.11,21508,List2B,white,man,,,,,"{""Q0"":""luke and ruth are playing with each other""}","<img src=""stim_listB/play2.gif""style=""height:400px;""></stim_listB>",are playing with each other,
null,"<div style=""font-size:60px;"">+</div>",,html-keyboard-response,78,463247,0.0-13.0-0.12,21508,List2B,white,man,,,,null,,,,
null,"<img src=""stim_listB/marry2.gif""style=""height:400px;""></stim_listB>",,html-keyboard-response,79,465248,0.0-13.0-1.12,21508,List2B,white,man,,,,null,,,,
null,are marrying each other,,html-keyboard-response,80,467249,0.0-13.0-2.12,21508,List2B,white,man,,,,null,,,,
9086,,,survey-text,81,476337,0.0-13.0-3.12,21508,List2B,white,man,,,,,"{""Q0"":""luke and jane are marrying each other""}","<img src=""stim_listB/marry2.gif""style=""height:400px;""></stim_listB>",are marrying each other,
null,"<div style=""font-size:60px;"">+</div>",,html-keyboard-response,82,476838,0.0-13.0-0.13,21508,List2B,white,man,,,,null,,,,
null,"<img src=""stim_listB/argue8.gif""style=""height:400px;""></stim_listB>",,html-keyboard-response,83,478839,0.0-13.0-1.13,21508,List2B,white,man,,,,null,,,,
null,are arguing with each other,,html-keyboard-response,84,480840,0.0-13.0-2.13,21508,List2B,white,man,,,,null,,,,
8746,,,survey-text,85,489586,0.0-13.0-3.13,21508,List2B,white,man,,,,,"{""Q0"":""ruth and kate are arguing with each other""}","<img src=""stim_listB/argue8.gif""style=""height:400px;""></stim_listB>",are arguing with each other,
null,"<div style=""font-size:60px;"">+</div>",,html-keyboard-response,86,490087,0.0-13.0-0.14,21508,List2B,white,man,,,,null,,,,
null,"<img src=""stim_listB/argue2.gif""style=""height:400px;""></stim_listB>",,html-keyboard-response,87,492088,0.0-13.0-1.14,21508,List2B,white,man,,,,null,,,,
null,are arguing with each other,,html-keyboard-response,88,494089,0.0-13.0-2.14,21508,List2B,white,man,,,,null,,,,
8541,,,survey-text,89,502631,0.0-13.0-3.14,21508,List2B,white,man,,,,,"{""Q0"":""luke and jane are arguing with each other""}","<img src=""stim_listB/argue2.gif""style=""height:400px;""></stim_listB>",are arguing with each other,
null,"<div style=""font-size:60px;"">+</div>",,html-keyboard-response,90,503132,0.0-13.0-0.15,21508,List2B,white,man,,,,null,,,,
null,"<img src=""stim_listB/fight8.gif""style=""height:400px;""></stim_listB>",,html-keyboard-response,91,505134,0.0-13.0-1.15,21508,List2B,white,man,,,,null,,,,
null,are fighting each other,,html-keyboard-response,92,507135,0.0-13.0-2.15,21508,List2B,white,man,,,,null,,,,
8937,,,survey-text,93,516073,0.0-13.0-3.15,21508,List2B,white,man,,,,,"{""Q0"":""ruth and beth are fighting each other""}","<img src=""stim_listB/fight8.gif""style=""height:400px;""></stim_listB>",are fighting each other,
null,"<div style=""font-size:60px;"">+</div>",,html-keyboard-response,94,516573,0.0-13.0-0.16,21508,List2B,white,man,,,,null,,,,
null,"<img src=""stim_listB/dance3.gif""style=""height:400px;""></stim_listB>",,html-keyboard-response,95,518574,0.0-13.0-1.16,21508,List2B,white,man,,,,null,,,,
null,is dancing with,,html-keyboard-response,96,520576,0.0-13.0-2.16,21508,List2B,white,man,,,,null,,,,
5055,,,survey-text,97,525631,0.0-13.0-3.16,21508,List2B,white,man,,,,,"{""Q0"":""kate is dancing with fred""}","<img src=""stim_listB/dance3.gif""style=""height:400px;""></stim_listB>",is dancing with,
null,"<div style=""font-size:60px;"">+</div>",,html-keyboard-response,98,526133,0.0-13.0-0.17,21508,List2B,white,man,,,,null,,,,
null,"<img src=""stim_listB/dance6.gif""style=""height:400px;""></stim_listB>",,html-keyboard-response,99,528134,0.0-13.0-1.17,21508,List2B,white,man,,,,null,,,,
null,are dancing with each other,,html-keyboard-response,100,530135,0.0-13.0-2.17,21508,List2B,white,man,,,,null,,,,
11424,,,survey-text,101,541559,0.0-13.0-3.17,21508,List2B,white,man,,,,,"{""Q0"":""dave and fred are dancing with each other""}","<img src=""stim_listB/dance6.gif""style=""height:400px;""></stim_listB>",are dancing with each other,
null,"<div style=""font-size:60px;"">+</div>",,html-keyboard-response,102,542061,0.0-13.0-0.18,21508,List2B,white,man,,,,null,,,,
null,"<img src=""stim_listB/fight6.gif""style=""height:400px;""></stim_listB>",,html-keyboard-response,103,544062,0.0-13.0-1.18,21508,List2B,white,man,,,,null,,,,
null,are fighting each other,,html-keyboard-response,104,546063,0.0-13.0-2.18,21508,List2B,white,man,,,,null,,,,
7595,,,survey-text,105,553658,0.0-13.0-3.18,21508,List2B,white,man,,,,,"{""Q0"":""luke and fred are fighting each other""}","<img src=""stim_listB/fight6.gif""style=""height:400px;""></stim_listB>",are fighting each other,
null,"<div style=""font-size:60px;"">+</div>",,html-keyboard-response,106,554159,0.0-13.0-0.19,21508,List2B,white,man,,,,null,,,,
null,"<img src=""stim_listB/talk3.gif""style=""height:400px;""></stim_listB>",,html-keyboard-response,107,556160,0.0-13.0-1.19,21508,List2B,white,man,,,,null,,,,
null,is talking to,,html-keyboard-response,108,558161,0.0-13.0-2.19,21508,List2B,white,man,,,,null,,,,
9262,,,survey-text,109,567424,0.0-13.0-3.19,21508,List2B,white,man,,,,,"{""Q0"":""kate is talking with fred""}","<img src=""stim_listB/talk3.gif""style=""height:400px;""></stim_listB>",is talking to,
9768,"<img src='img/portrait_matrix_list2.jpg' style='width:900px;height:500px;''></img><p>If you have memorised all the portraits and names and are ready to start, press Continue.</p><p><strong>Please note: Your memory of these faces will be tested 4 times during this experiment.</strong></p>",0,html-button-response,110,577193,0.0-14.0-0.0,21508,List2B,white,man,,,,,,,,
2120,"<img src=""portrait/WM1.jpg""style=""height:400px;""></img>",6,html-button-response,111,580314,0.0-14.0-1.0,21508,List2B,white,man,,TRUE,6,,,,,
null,CORRECT,,html-keyboard-response,112,581817,0.0-14.0-2.0-0.0,21508,List2B,white,man,,,,null,,,,
1289,"<img src=""portrait/BM1.jpg""style=""height:400px;""></img>",4,html-button-response,113,583106,0.0-14.0-4.0,21508,List2B,white,man,,TRUE,4,,,,,
null,CORRECT,,html-keyboard-response,114,584608,0.0-14.0-5.0-0.0,21508,List2B,white,man,,,,null,,,,
1722,"<img src=""portrait/WW1.jpg""style=""height:400px;""></img>",1,html-button-response,115,586331,0.0-14.0-7.0,21508,List2B,white,man,,TRUE,1,,,,,
null,CORRECT,,html-keyboard-response,116,587833,0.0-14.0-8.0-0.0,21508,List2B,white,man,,,,null,,,,
1571,"<img src=""portrait/WW2.jpg""style=""height:400px;""></img>",3,html-button-response,117,589405,0.0-14.0-10.0,21508,List2B,white,man,,TRUE,3,,,,,
null,CORRECT,,html-keyboard-response,118,590907,0.0-14.0-11.0-0.0,21508,List2B,white,man,,,,null,,,,
3084,"<img src=""portrait/BW1.jpg""style=""height:400px;""></img>",0,html-button-response,119,593993,0.0-14.0-13.0,21508,List2B,white,man,,TRUE,0,,,,,
null,CORRECT,,html-keyboard-response,120,595495,0.0-14.0-14.0-0.0,21508,List2B,white,man,,,,null,,,,
1250,"<img src=""portrait/WM2.jpg""style=""height:400px;""></img>",7,html-button-response,121,596746,0.0-14.0-16.0,21508,List2B,white,man,,TRUE,7,,,,,
null,CORRECT,,html-keyboard-response,122,598248,0.0-14.0-17.0-0.0,21508,List2B,white,man,,,,null,,,,
1921,"<img src=""portrait/BW2.jpg""style=""height:400px;""></img>",2,html-button-response,123,600170,0.0-14.0-19.0,21508,List2B,white,man,,TRUE,2,,,,,
null,CORRECT,,html-keyboard-response,124,601672,0.0-14.0-20.0-0.0,21508,List2B,white,man,,,,null,,,,
1319,"<img src=""portrait/BM2.jpg""style=""height:400px;""></img>",5,html-button-response,125,602992,0.0-14.0-22.0,21508,List2B,white,man,,TRUE,5,,,,,
null,CORRECT,,html-keyboard-response,126,604494,0.0-14.0-23.0-0.0,21508,List2B,white,man,,,,null,,,,
1326,<p>You got 8 out of 8 right first time. Press Continue.</p>,0,html-button-response,127,605822,0.0-14.0-25.0,21508,List2B,white,man,,,,,,,,
null,"<div style=""font-size:60px;"">+</div>",,html-keyboard-response,128,607324,0.0-15.0-0.0,21508,List2B,white,man,,,,null,,,,
null,"<img src=""stim_listB/dance7.gif""style=""height:400px;""></stim_listB>",,html-keyboard-response,129,609325,0.0-15.0-1.0,21508,List2B,white,man,,,,null,,,,
null,is dancing with,,html-keyboard-response,130,611326,0.0-15.0-2.0,21508,List2B,white,man,,,,null,,,,
9460,,,survey-text,131,620787,0.0-15.0-3.0,21508,List2B,white,man,,,,,"{""Q0"":""kate is dancing with ruth""}","<img src=""stim_listB/dance7.gif""style=""height:400px;""></stim_listB>",is dancing with,
null,"<div style=""font-size:60px;"">+</div>",,html-keyboard-response,132,621289,0.0-15.0-0.1,21508,List2B,white,man,,,,null,,,,
null,"<img src=""stim_listB/fight3.gif""style=""height:400px;""></stim_listB>",,html-keyboard-response,133,623290,0.0-15.0-1.1,21508,List2B,white,man,,,,null,,,,
null,is fighting,,html-keyboard-response,134,625292,0.0-15.0-2.1,21508,List2B,white,man,,,,null,,,,
6535,,,survey-text,135,631827,0.0-15.0-3.1,21508,List2B,white,man,,,,,"{""Q0"":""kate is fighting with mike""}","<img src=""stim_listB/fight3.gif""style=""height:400px;""></stim_listB>",is fighting,
null,"<div style=""font-size:60px;"">+</div>",,html-keyboard-response,136,632328,0.0-15.0-0.2,21508,List2B,white,man,,,,null,,,,
null,"<img src=""stim_listB/flirt5.gif""style=""height:400px;""></stim_listB>",,html-keyboard-response,137,634330,0.0-15.0-1.2,21508,List2B,white,man,,,,null,,,,
null,is flirting with,,html-keyboard-response,138,636331,0.0-15.0-2.2,21508,List2B,white,man,,,,null,,,,
8904,,,survey-text,139,645235,0.0-15.0-3.2,21508,List2B,white,man,,,,,"{""Q0"":""mike is flirting with luke""}","<img src=""stim_listB/flirt5.gif""style=""height:400px;""></stim_listB>",is flirting with,
null,"<div style=""font-size:60px;"">+</div>",,html-keyboard-response,140,645736,0.0-15.0-0.3,21508,List2B,white,man,,,,null,,,,
null,"<img src=""stim_listB/shout6.gif""style=""height:400px;""></stim_listB>",,html-keyboard-response,141,647737,0.0-15.0-1.3,21508,List2B,white,man,,,,null,,,,
null,are shouting at each other,,html-keyboard-response,142,649738,0.0-15.0-2.3,21508,List2B,white,man,,,,null,,,,
7462,,,survey-text,143,657201,0.0-15.0-3.3,21508,List2B,white,man,,,,,"{""Q0"":""dave and mike are shouting at each other""}","<img src=""stim_listB/shout6.gif""style=""height:400px;""></stim_listB>",are shouting at each other,
null,"<div style=""font-size:60px;"">+</div>",,html-keyboard-response,144,657702,0.0-15.0-0.4,21508,List2B,white,man,,,,null,,,,
null,"<img src=""stim_listB/flirt3.gif""style=""height:400px;""></stim_listB>",,html-keyboard-response,145,659703,0.0-15.0-1.4,21508,List2B,white,man,,,,null,,,,
null,is flirting with,,html-keyboard-response,146,661704,0.0-15.0-2.4,21508,List2B,white,man,,,,null,,,,
6216,,,survey-text,147,667921,0.0-15.0-3.4,21508,List2B,white,man,,,,,"{""Q0"":""kate is flirting with fred""}","<img src=""stim_listB/flirt3.gif""style=""height:400px;""></stim_listB>",is flirting with,
null,"<div style=""font-size:60px;"">+</div>",,html-keyboard-response,148,668422,0.0-15.0-0.5,21508,List2B,white,man,,,,null,,,,
null,"<img src=""stim_listB/play8.gif""style=""height:400px;""></stim_listB>",,html-keyboard-response,149,670423,0.0-15.0-1.5,21508,List2B,white,man,,,,null,,,,
null,are playing with each other,,html-keyboard-response,150,672424,0.0-15.0-2.5,21508,List2B,white,man,,,,null,,,,
9631,,,survey-text,151,682057,0.0-15.0-3.5,21508,List2B,white,man,,,,,"{""Q0"":""ruth and beth are playing with each other""}","<img src=""stim_listB/play8.gif""style=""height:400px;""></stim_listB>",are playing with each other,
null,"<div style=""font-size:60px;"">+</div>",,html-keyboard-response,152,682558,0.0-15.0-0.6,21508,List2B,white,man,,,,null,,,,
null,"<img src=""stim_listB/shout1.gif""style=""height:400px;""></stim_listB>",,html-keyboard-response,153,684559,0.0-15.0-1.6,21508,List2B,white,man,,,,null,,,,
null,is shouting at,,html-keyboard-response,154,686561,0.0-15.0-2.6,21508,List2B,white,man,,,,null,,,,
6383,,,survey-text,155,692944,0.0-15.0-3.6,21508,List2B,white,man,,,,,"{""Q0"":""ruth is shouting at luke""}","<img src=""stim_listB/shout1.gif""style=""height:400px;""></stim_listB>",is shouting at,
null,"<div style=""font-size:60px;"">+</div>",,html-keyboard-response,156,693445,0.0-15.0-0.7,21508,List2B,white,man,,,,null,,,,
null,"<img src=""stim_listB/dance8.gif""style=""height:400px;""></stim_listB>",,html-keyboard-response,157,695446,0.0-15.0-1.7,21508,List2B,white,man,,,,null,,,,
null,are dancing with each other,,html-keyboard-response,158,697447,0.0-15.0-2.7,21508,List2B,white,man,,,,null,,,,
7919,,,survey-text,159,705367,0.0-15.0-3.7,21508,List2B,white,man,,,,,"{""Q0"":""jane and beth are dancing with each other""}","<img src=""stim_listB/dance8.gif""style=""height:400px;""></stim_listB>",are dancing with each other,
null,"<div style=""font-size:60px;"">+</div>",,html-keyboard-response,160,705868,0.0-15.0-0.8,21508,List2B,white,man,,,,null,,,,
null,"<img src=""stim_listB/talk8.gif""style=""height:400px;""></stim_listB>",,html-keyboard-response,161,707869,0.0-15.0-1.8,21508,List2B,white,man,,,,null,,,,
null,are talking to each other,,html-keyboard-response,162,709870,0.0-15.0-2.8,21508,List2B,white,man,,,,null,,,,
6823,,,survey-text,163,716693,0.0-15.0-3.8,21508,List2B,white,man,,,,,"{""Q0"":""jane and beth are talking to each other""}","<img src=""stim_listB/talk8.gif""style=""height:400px;""></stim_listB>",are talking to each other,
null,"<div style=""font-size:60px;"">+</div>",,html-keyboard-response,164,717194,0.0-15.0-0.9,21508,List2B,white,man,,,,null,,,,
null,"<img src=""stim_listB/kiss3.gif""style=""height:400px;""></stim_listB>",,html-keyboard-response,165,719195,0.0-15.0-1.9,21508,List2B,white,man,,,,null,,,,
null,is kissing,,html-keyboard-response,166,721196,0.0-15.0-2.9,21508,List2B,white,man,,,,null,,,,
9926,,,survey-text,167,731123,0.0-15.0-3.9,21508,List2B,white,man,,,,,"{""Q0"":""beth is kissing fred""}","<img src=""stim_listB/kiss3.gif""style=""height:400px;""></stim_listB>",is kissing,
null,"<div style=""font-size:60px;"">+</div>",,html-keyboard-response,168,731625,0.0-15.0-0.10,21508,List2B,white,man,,,,null,,,,
null,"<img src=""stim_listB/touch6.gif""style=""height:400px;""></stim_listB>",,html-keyboard-response,169,733626,0.0-15.0-1.10,21508,List2B,white,man,,,,null,,,,
null,are touching each other,,html-keyboard-response,170,735627,0.0-15.0-2.10,21508,List2B,white,man,,,,null,,,,
7533,,,survey-text,171,743160,0.0-15.0-3.10,21508,List2B,white,man,,,,,"{""Q0"":""luke and fred are touching each other""}","<img src=""stim_listB/touch6.gif""style=""height:400px;""></stim_listB>",are touching each other,
null,"<div style=""font-size:60px;"">+</div>",,html-keyboard-response,172,743661,0.0-15.0-0.11,21508,List2B,white,man,,,,null,,,,
null,"<img src=""stim_listB/argue1.gif""style=""height:400px;""></stim_listB>",,html-keyboard-response,173,745663,0.0-15.0-1.11,21508,List2B,white,man,,,,null,,,,
null,is arguing with,,html-keyboard-response,174,747664,0.0-15.0-2.11,21508,List2B,white,man,,,,null,,,,
8847,,,survey-text,175,756511,0.0-15.0-3.11,21508,List2B,white,man,,,,,"{""Q0"":""ruth is arguing with dave""}","<img src=""stim_listB/argue1.gif""style=""height:400px;""></stim_listB>",is arguing with,
null,"<div style=""font-size:60px;"">+</div>",,html-keyboard-response,176,757012,0.0-15.0-0.12,21508,List2B,white,man,,,,null,,,,
null,"<img src=""stim_listB/argue6.gif""style=""height:400px;""></stim_listB>",,html-keyboard-response,177,759014,0.0-15.0-1.12,21508,List2B,white,man,,,,null,,,,
null,are arguing with each other,,html-keyboard-response,178,761015,0.0-15.0-2.12,21508,List2B,white,man,,,,null,,,,
7356,,,survey-text,179,768371,0.0-15.0-3.12,21508,List2B,white,man,,,,,"{""Q0"":""mike and luke are arguing with each other""}","<img src=""stim_listB/argue6.gif""style=""height:400px;""></stim_listB>",are arguing with each other,
null,"<div style=""font-size:60px;"">+</div>",,html-keyboard-response,180,768872,0.0-15.0-0.13,21508,List2B,white,man,,,,null,,,,
null,"<img src=""stim_listB/marry4.gif""style=""height:400px;""></stim_listB>",,html-keyboard-response,181,770873,0.0-15.0-1.13,21508,List2B,white,man,,,,null,,,,
null,are marrying each other,,html-keyboard-response,182,772874,0.0-15.0-2.13,21508,List2B,white,man,,,,null,,,,
6904,,,survey-text,183,779779,0.0-15.0-3.13,21508,List2B,white,man,,,,,"{""Q0"":""fred and kate are marrying each other""}","<img src=""stim_listB/marry4.gif""style=""height:400px;""></stim_listB>",are marrying each other,
null,"<div style=""font-size:60px;"">+</div>",,html-keyboard-response,184,780281,0.0-15.0-0.14,21508,List2B,white,man,,,,null,,,,
null,"<img src=""stim_listB/kiss1.gif""style=""height:400px;""></stim_listB>",,html-keyboard-response,185,782282,0.0-15.0-1.14,21508,List2B,white,man,,,,null,,,,
null,is kissing,,html-keyboard-response,186,784283,0.0-15.0-2.14,21508,List2B,white,man,,,,null,,,,
4644,,,survey-text,187,788927,0.0-15.0-3.14,21508,List2B,white,man,,,,,"{""Q0"":""luke is kissing ruth""}","<img src=""stim_listB/kiss1.gif""style=""height:400px;""></stim_listB>",is kissing,
null,"<div style=""font-size:60px;"">+</div>",,html-keyboard-response,188,789428,0.0-15.0-0.15,21508,List2B,white,man,,,,null,,,,
null,"<img src=""stim_listB/dance4.gif""style=""height:400px;""></stim_listB>",,html-keyboard-response,189,791429,0.0-15.0-1.15,21508,List2B,white,man,,,,null,,,,
null,are dancing with each other,,html-keyboard-response,190,793430,0.0-15.0-2.15,21508,List2B,white,man,,,,null,,,,
7376,,,survey-text,191,800808,0.0-15.0-3.15,21508,List2B,white,man,,,,,"{""Q0"":""mike and beth are dancing with each other""}","<img src=""stim_listB/dance4.gif""style=""height:400px;""></stim_listB>",are dancing with each other,
null,"<div style=""font-size:60px;"">+</div>",,html-keyboard-response,192,801309,0.0-15.0-0.16,21508,List2B,white,man,,,,null,,,,
null,"<img src=""stim_listB/marry3.gif""style=""height:400px;""></stim_listB>",,html-keyboard-response,193,803310,0.0-15.0-1.16,21508,List2B,white,man,,,,null,,,,
null,is marrying,,html-keyboard-response,194,805311,0.0-15.0-2.16,21508,List2B,white,man,,,,null,,,,
5333,,,survey-text,195,810644,0.0-15.0-3.16,21508,List2B,white,man,,,,,"{""Q0"":""beth is marrying mike""}","<img src=""stim_listB/marry3.gif""style=""height:400px;""></stim_listB>",is marrying,
null,"<div style=""font-size:60px;"">+</div>",,html-keyboard-response,196,811145,0.0-15.0-0.17,21508,List2B,white,man,,,,null,,,,
null,"<img src=""stim_listB/flirt7.gif""style=""height:400px;""></stim_listB>",,html-keyboard-response,197,813146,0.0-15.0-1.17,21508,List2B,white,man,,,,null,,,,
null,is flirting with,,html-keyboard-response,198,815147,0.0-15.0-2.17,21508,List2B,white,man,,,,null,,,,
5794,,,survey-text,199,820943,0.0-15.0-3.17,21508,List2B,white,man,,,,,"{""Q0"":""kate is flirting with ruth""}","<img src=""stim_listB/flirt7.gif""style=""height:400px;""></stim_listB>",is flirting with,
null,"<div style=""font-size:60px;"">+</div>",,html-keyboard-response,200,821444,0.0-15.0-0.18,21508,List2B,white,man,,,,null,,,,
null,"<img src=""stim_listB/fight2.gif""style=""height:400px;""></stim_listB>",,html-keyboard-response,201,823445,0.0-15.0-1.18,21508,List2B,white,man,,,,null,,,,
null,are fighting each other,,html-keyboard-response,202,825446,0.0-15.0-2.18,21508,List2B,white,man,,,,null,,,,
8092,,,survey-text,203,833540,0.0-15.0-3.18,21508,List2B,white,man,,,,,"{""Q0"":""luke and ruth are fighting each other""}","<img src=""stim_listB/fight2.gif""style=""height:400px;""></stim_listB>",are fighting each other,
null,"<div style=""font-size:60px;"">+</div>",,html-keyboard-response,204,834041,0.0-15.0-0.19,21508,List2B,white,man,,,,null,,,,
null,"<img src=""stim_listB/marry7.gif""style=""height:400px;""></stim_listB>",,html-keyboard-response,205,836042,0.0-15.0-1.19,21508,List2B,white,man,,,,null,,,,
null,is marrying,,html-keyboard-response,206,838043,0.0-15.0-2.19,21508,List2B,white,man,,,,null,,,,
4535,,,survey-text,207,842579,0.0-15.0-3.19,21508,List2B,white,man,,,,,"{""Q0"":""beth is marrying jane""}","<img src=""stim_listB/marry7.gif""style=""height:400px;""></stim_listB>",is marrying,
6609,"<img src='img/portrait_matrix_list2.jpg' style='width:900px;height:500px;''></img><p>If you have memorised all the portraits and names and are ready to start, press Continue.</p><p><strong>Please note: Your memory of these faces will be tested 4 times during this experiment.</strong></p>",0,html-button-response,208,849188,0.0-16.0-0.0,21508,List2B,white,man,,,,,,,,
2932,"<img src=""portrait/BW1.jpg""style=""height:400px;""></img>",0,html-button-response,209,853123,0.0-16.0-1.0,21508,List2B,white,man,,TRUE,0,,,,,
null,CORRECT,,html-keyboard-response,210,854625,0.0-16.0-2.0-0.0,21508,List2B,white,man,,,,null,,,,
1425,"<img src=""portrait/WM1.jpg""style=""height:400px;""></img>",6,html-button-response,211,856051,0.0-16.0-4.0,21508,List2B,white,man,,TRUE,6,,,,,
null,CORRECT,,html-keyboard-response,212,857552,0.0-16.0-5.0-0.0,21508,List2B,white,man,,,,null,,,,
1002,"<img src=""portrait/WM2.jpg""style=""height:400px;""></img>",7,html-button-response,213,858555,0.0-16.0-7.0,21508,List2B,white,man,,TRUE,7,,,,,
null,CORRECT,,html-keyboard-response,214,860056,0.0-16.0-8.0-0.0,21508,List2B,white,man,,,,null,,,,
1791,"<img src=""portrait/WW1.jpg""style=""height:400px;""></img>",1,html-button-response,215,861848,0.0-16.0-10.0,21508,List2B,white,man,,TRUE,1,,,,,
null,CORRECT,,html-keyboard-response,216,863350,0.0-16.0-11.0-0.0,21508,List2B,white,man,,,,null,,,,
1736,"<img src=""portrait/BM2.jpg""style=""height:400px;""></img>",5,html-button-response,217,865087,0.0-16.0-13.0,21508,List2B,white,man,,TRUE,5,,,,,
null,CORRECT,,html-keyboard-response,218,866589,0.0-16.0-14.0-0.0,21508,List2B,white,man,,,,null,,,,
1874,"<img src=""portrait/BW2.jpg""style=""height:400px;""></img>",2,html-button-response,219,868464,0.0-16.0-16.0,21508,List2B,white,man,,TRUE,2,,,,,
null,CORRECT,,html-keyboard-response,220,869966,0.0-16.0-17.0-0.0,21508,List2B,white,man,,,,null,,,,
1803,"<img src=""portrait/WW2.jpg""style=""height:400px;""></img>",3,html-button-response,221,871770,0.0-16.0-19.0,21508,List2B,white,man,,TRUE,3,,,,,
null,CORRECT,,html-keyboard-response,222,873272,0.0-16.0-20.0-0.0,21508,List2B,white,man,,,,null,,,,
1689,"<img src=""portrait/BM1.jpg""style=""height:400px;""></img>",4,html-button-response,223,874961,0.0-16.0-22.0,21508,List2B,white,man,,TRUE,4,,,,,
null,CORRECT,,html-keyboard-response,224,876463,0.0-16.0-23.0-0.0,21508,List2B,white,man,,,,null,,,,
1220,<p>You got 8 out of 8 right first time. Press Continue.</p>,0,html-button-response,225,877683,0.0-16.0-25.0,21508,List2B,white,man,,,,,,,,
null,"<div style=""font-size:60px;"">+</div>",,html-keyboard-response,226,879185,0.0-17.0-0.0,21508,List2B,white,man,,,,null,,,,
null,"<img src=""stim_listB/talk5.gif""style=""height:400px;""></stim_listB>",,html-keyboard-response,227,881186,0.0-17.0-1.0,21508,List2B,white,man,,,,null,,,,
null,is talking to,,html-keyboard-response,228,883187,0.0-17.0-2.0,21508,List2B,white,man,,,,null,,,,
5260,,,survey-text,229,888449,0.0-17.0-3.0,21508,List2B,white,man,,,,,"{""Q0"":""luke is talking to mike""}","<img src=""stim_listB/talk5.gif""style=""height:400px;""></stim_listB>",is talking to,
null,"<div style=""font-size:60px;"">+</div>",,html-keyboard-response,230,888950,0.0-17.0-0.1,21508,List2B,white,man,,,,null,,,,
null,"<img src=""stim_listB/argue3.gif""style=""height:400px;""></stim_listB>",,html-keyboard-response,231,890952,0.0-17.0-1.1,21508,List2B,white,man,,,,null,,,,
null,is arguing with,,html-keyboard-response,232,892953,0.0-17.0-2.1,21508,List2B,white,man,,,,null,,,,
6618,,,survey-text,233,899572,0.0-17.0-3.1,21508,List2B,white,man,,,,,"{""Q0"":""beth is arguing with mike""}","<img src=""stim_listB/argue3.gif""style=""height:400px;""></stim_listB>",is arguing with,
null,"<div style=""font-size:60px;"">+</div>",,html-keyboard-response,234,900073,0.0-17.0-0.2,21508,List2B,white,man,,,,null,,,,
null,"<img src=""stim_listB/marry1.gif""style=""height:400px;""></stim_listB>",,html-keyboard-response,235,902074,0.0-17.0-1.2,21508,List2B,white,man,,,,null,,,,
null,is marrying,,html-keyboard-response,236,904075,0.0-17.0-2.2,21508,List2B,white,man,,,,null,,,,
5762,,,survey-text,237,909838,0.0-17.0-3.2,21508,List2B,white,man,,,,,"{""Q0"":""ruth is marrying dave""}","<img src=""stim_listB/marry1.gif""style=""height:400px;""></stim_listB>",is marrying,
null,"<div style=""font-size:60px;"">+</div>",,html-keyboard-response,238,910339,0.0-17.0-0.3,21508,List2B,white,man,,,,null,,,,
null,"<img src=""stim_listB/dance2.gif""style=""height:400px;""></stim_listB>",,html-keyboard-response,239,912341,0.0-17.0-1.3,21508,List2B,white,man,,,,null,,,,
null,are dancing with each other,,html-keyboard-response,240,914342,0.0-17.0-2.3,21508,List2B,white,man,,,,null,,,,
7099,,,survey-text,241,921441,0.0-17.0-3.3,21508,List2B,white,man,,,,,"{""Q0"":""dave and ruth are dancing with each other""}","<img src=""stim_listB/dance2.gif""style=""height:400px;""></stim_listB>",are dancing with each other,
null,"<div style=""font-size:60px;"">+</div>",,html-keyboard-response,242,921942,0.0-17.0-0.4,21508,List2B,white,man,,,,null,,,,
null,"<img src=""stim_listB/touch5.gif""style=""height:400px;""></stim_listB>",,html-keyboard-response,243,923943,0.0-17.0-1.4,21508,List2B,white,man,,,,null,,,,
null,is touching,,html-keyboard-response,244,925944,0.0-17.0-2.4,21508,List2B,white,man,,,,null,,,,
5049,,,survey-text,245,930994,0.0-17.0-3.4,21508,List2B,white,man,,,,,"{""Q0"":""mike is touching dave""}","<img src=""stim_listB/touch5.gif""style=""height:400px;""></stim_listB>",is touching,
null,"<div style=""font-size:60px;"">+</div>",,html-keyboard-response,246,931495,0.0-17.0-0.5,21508,List2B,white,man,,,,null,,,,
null,"<img src=""stim_listB/kiss6.gif""style=""height:400px;""></stim_listB>",,html-keyboard-response,247,933496,0.0-17.0-1.5,21508,List2B,white,man,,,,null,,,,
null,are kissing each other,,html-keyboard-response,248,935497,0.0-17.0-2.5,21508,List2B,white,man,,,,null,,,,
6551,,,survey-text,249,942050,0.0-17.0-3.5,21508,List2B,white,man,,,,,"{""Q0"":""mike and dave are kissing each other""}","<img src=""stim_listB/kiss6.gif""style=""height:400px;""></stim_listB>",are kissing each other,
null,"<div style=""font-size:60px;"">+</div>",,html-keyboard-response,250,942551,0.0-17.0-0.6,21508,List2B,white,man,,,,null,,,,
null,"<img src=""stim_listB/shout3.gif""style=""height:400px;""></stim_listB>",,html-keyboard-response,251,944552,0.0-17.0-1.6,21508,List2B,white,man,,,,null,,,,
null,is shouting at,,html-keyboard-response,252,946553,0.0-17.0-2.6,21508,List2B,white,man,,,,null,,,,
6369,,,survey-text,253,952923,0.0-17.0-3.6,21508,List2B,white,man,,,,,"{""Q0"":""beth is shouting at fred""}","<img src=""stim_listB/shout3.gif""style=""height:400px;""></stim_listB>",is shouting at,
null,"<div style=""font-size:60px;"">+</div>",,html-keyboard-response,254,953423,0.0-17.0-0.7,21508,List2B,white,man,,,,null,,,,
null,"<img src=""stim_listB/touch4.gif""style=""height:400px;""></stim_listB>",,html-keyboard-response,255,955424,0.0-17.0-1.7,21508,List2B,white,man,,,,null,,,,
null,are touching each other,,html-keyboard-response,256,957425,0.0-17.0-2.7,21508,List2B,white,man,,,,null,,,,
6456,,,survey-text,257,963881,0.0-17.0-3.7,21508,List2B,white,man,,,,,"{""Q0"":""fred and beth are touching each other""}","<img src=""stim_listB/touch4.gif""style=""height:400px;""></stim_listB>",are touching each other,
null,"<div style=""font-size:60px;"">+</div>",,html-keyboard-response,258,964382,0.0-17.0-0.8,21508,List2B,white,man,,,,null,,,,
null,"<img src=""stim_listB/kiss7.gif""style=""height:400px;""></stim_listB>",,html-keyboard-response,259,966383,0.0-17.0-1.8,21508,List2B,white,man,,,,null,,,,
null,is kissing,,html-keyboard-response,260,968384,0.0-17.0-2.8,21508,List2B,white,man,,,,null,,,,
4062,,,survey-text,261,972446,0.0-17.0-3.8,21508,List2B,white,man,,,,,"{""Q0"":""beth is kissing ruth""}","<img src=""stim_listB/kiss7.gif""style=""height:400px;""></stim_listB>",is kissing,
null,"<div style=""font-size:60px;"">+</div>",,html-keyboard-response,262,972947,0.0-17.0-0.9,21508,List2B,white,man,,,,null,,,,
null,"<img src=""stim_listB/play4.gif""style=""height:400px;""></stim_listB>",,html-keyboard-response,263,974948,0.0-17.0-1.9,21508,List2B,white,man,,,,null,,,,
null,are playing with each other,,html-keyboard-response,264,976950,0.0-17.0-2.9,21508,List2B,white,man,,,,null,,,,
8424,,,survey-text,265,985374,0.0-17.0-3.9,21508,List2B,white,man,,,,,"{""Q0"":""fred and beth are playing with each other""}","<img src=""stim_listB/play4.gif""style=""height:400px;""></stim_listB>",are playing with each other,
null,"<div style=""font-size:60px;"">+</div>",,html-keyboard-response,266,985875,0.0-17.0-0.10,21508,List2B,white,man,,,,null,,,,
null,"<img src=""stim_listB/play6.gif""style=""height:400px;""></stim_listB>",,html-keyboard-response,267,987876,0.0-17.0-1.10,21508,List2B,white,man,,,,null,,,,
null,are playing with each other,,html-keyboard-response,268,989877,0.0-17.0-2.10,21508,List2B,white,man,,,,null,,,,
6960,,,survey-text,269,996838,0.0-17.0-3.10,21508,List2B,white,man,,,,,"{""Q0"":""luke and fred are playing with each other""}","<img src=""stim_listB/play6.gif""style=""height:400px;""></stim_listB>",are playing with each other,
null,"<div style=""font-size:60px;"">+</div>",,html-keyboard-response,270,997340,0.0-17.0-0.11,21508,List2B,white,man,,,,null,,,,
null,"<img src=""stim_listB/marry5.gif""style=""height:400px;""></stim_listB>",,html-keyboard-response,271,999341,0.0-17.0-1.11,21508,List2B,white,man,,,,null,,,,
null,is marrying,,html-keyboard-response,272,1001342,0.0-17.0-2.11,21508,List2B,white,man,,,,null,,,,
6533,,,survey-text,273,1007876,0.0-17.0-3.11,21508,List2B,white,man,,,,,"{""Q0"":""fred is marrying dave""}","<img src=""stim_listB/marry5.gif""style=""height:400px;""></stim_listB>",is marrying,
null,"<div style=""font-size:60px;"">+</div>",,html-keyboard-response,274,1008378,0.0-17.0-0.12,21508,List2B,white,man,,,,null,,,,
null,"<img src=""stim_listB/touch7.gif""style=""height:400px;""></stim_listB>",,html-keyboard-response,275,1010379,0.0-17.0-1.12,21508,List2B,white,man,,,,null,,,,
null,is touching,,html-keyboard-response,276,1012380,0.0-17.0-2.12,21508,List2B,white,man,,,,null,,,,
5432,,,survey-text,277,1017812,0.0-17.0-3.12,21508,List2B,white,man,,,,,"{""Q0"":""kate is touching jane""}","<img src=""stim_listB/touch7.gif""style=""height:400px;""></stim_listB>",is touching,
null,"<div style=""font-size:60px;"">+</div>",,html-keyboard-response,278,1018313,0.0-17.0-0.13,21508,List2B,white,man,,,,null,,,,
null,"<img src=""stim_listB/argue7.gif""style=""height:400px;""></stim_listB>",,html-keyboard-response,279,1020314,0.0-17.0-1.13,21508,List2B,white,man,,,,null,,,,
null,is arguing with,,html-keyboard-response,280,1022315,0.0-17.0-2.13,21508,List2B,white,man,,,,null,,,,
5408,,,survey-text,281,1027724,0.0-17.0-3.13,21508,List2B,white,man,,,,,"{""Q0"":""beth is arguing with jane""}","<img src=""stim_listB/argue7.gif""style=""height:400px;""></stim_listB>",is arguing with,
null,"<div style=""font-size:60px;"">+</div>",,html-keyboard-response,282,1028225,0.0-17.0-0.14,21508,List2B,white,man,,,,null,,,,
null,"<img src=""stim_listB/play3.gif""style=""height:400px;""></stim_listB>",,html-keyboard-response,283,1030226,0.0-17.0-1.14,21508,List2B,white,man,,,,null,,,,
null,is playing with,,html-keyboard-response,284,1032227,0.0-17.0-2.14,21508,List2B,white,man,,,,null,,,,
4990,,,survey-text,285,1037217,0.0-17.0-3.14,21508,List2B,white,man,,,,,"{""Q0"":""kate is playing with mike""}","<img src=""stim_listB/play3.gif""style=""height:400px;""></stim_listB>",is playing with,
null,"<div style=""font-size:60px;"">+</div>",,html-keyboard-response,286,1037718,0.0-17.0-0.15,21508,List2B,white,man,,,,null,,,,
null,"<img src=""stim_listB/dance5.gif""style=""height:400px;""></stim_listB>",,html-keyboard-response,287,1039719,0.0-17.0-1.15,21508,List2B,white,man,,,,null,,,,
null,is dancing with,,html-keyboard-response,288,1041720,0.0-17.0-2.15,21508,List2B,white,man,,,,null,,,,
5935,,,survey-text,289,1047657,0.0-17.0-3.15,21508,List2B,white,man,,,,,"{""Q0"":""mike is dancing with luke""}","<img src=""stim_listB/dance5.gif""style=""height:400px;""></stim_listB>",is dancing with,
null,"<div style=""font-size:60px;"">+</div>",,html-keyboard-response,290,1048158,0.0-17.0-0.16,21508,List2B,white,man,,,,null,,,,
null,"<img src=""stim_listB/flirt6.gif""style=""height:400px;""></stim_listB>",,html-keyboard-response,291,1050159,0.0-17.0-1.16,21508,List2B,white,man,,,,null,,,,
null,are flirting with each other,,html-keyboard-response,292,1052160,0.0-17.0-2.16,21508,List2B,white,man,,,,null,,,,
8041,,,survey-text,293,1060202,0.0-17.0-3.16,21508,List2B,white,man,,,,,"{""Q0"":""fred and dave are flirting with each other""}","<img src=""stim_listB/flirt6.gif""style=""height:400px;""></stim_listB>",are flirting with each other,
null,"<div style=""font-size:60px;"">+</div>",,html-keyboard-response,294,1060703,0.0-17.0-0.17,21508,List2B,white,man,,,,null,,,,
null,"<img src=""stim_listB/fight5.gif""style=""height:400px;""></stim_listB>",,html-keyboard-response,295,1062704,0.0-17.0-1.17,21508,List2B,white,man,,,,null,,,,
null,is fighting,,html-keyboard-response,296,1064705,0.0-17.0-2.17,21508,List2B,white,man,,,,null,,,,
5243,,,survey-text,297,1069949,0.0-17.0-3.17,21508,List2B,white,man,,,,,"{""Q0"":""mike is fighting dave""}","<img src=""stim_listB/fight5.gif""style=""height:400px;""></stim_listB>",is fighting,
null,"<div style=""font-size:60px;"">+</div>",,html-keyboard-response,298,1070450,0.0-17.0-0.18,21508,List2B,white,man,,,,null,,,,
null,"<img src=""stim_listB/shout2.gif""style=""height:400px;""></stim_listB>",,html-keyboard-response,299,1072452,0.0-17.0-1.18,21508,List2B,white,man,,,,null,,,,
null,are shouting at each other,,html-keyboard-response,300,1074453,0.0-17.0-2.18,21508,List2B,white,man,,,,null,,,,
8217,,,survey-text,301,1082670,0.0-17.0-3.18,21508,List2B,white,man,,,,,"{""Q0"":""dave and jane are shouting at each other""}","<img src=""stim_listB/shout2.gif""style=""height:400px;""></stim_listB>",are shouting at each other,
null,"<div style=""font-size:60px;"">+</div>",,html-keyboard-response,302,1083171,0.0-17.0-0.19,21508,List2B,white,man,,,,null,,,,
null,"<img src=""stim_listB/fight4.gif""style=""height:400px;""></stim_listB>",,html-keyboard-response,303,1085172,0.0-17.0-1.19,21508,List2B,white,man,,,,null,,,,
null,are fighting each other,,html-keyboard-response,304,1087173,0.0-17.0-2.19,21508,List2B,white,man,,,,null,,,,
6638,,,survey-text,305,1093813,0.0-17.0-3.19,21508,List2B,white,man,,,,,"{""Q0"":""fred and beth are fighting each other""}","<img src=""stim_listB/fight4.gif""style=""height:400px;""></stim_listB>",are fighting each other,
15985,"<img src='img/portrait_matrix_list2.jpg' style='width:900px;height:500px;''></img><p>If you have memorised all the portraits and names and are ready to start, press Continue.</p><p><strong>Please note: Your memory of these faces will be tested 4 times during this experiment.</strong></p>",0,html-button-response,306,1109799,0.0-18.0-0.0,21508,List2B,white,man,,,,,,,,
3946,"<img src=""portrait/BM1.jpg""style=""height:400px;""></img>",4,html-button-response,307,1114746,0.0-18.0-1.0,21508,List2B,white,man,,TRUE,4,,,,,
null,CORRECT,,html-keyboard-response,308,1116248,0.0-18.0-2.0-0.0,21508,List2B,white,man,,,,null,,,,
968,"<img src=""portrait/BM2.jpg""style=""height:400px;""></img>",5,html-button-response,309,1117218,0.0-18.0-4.0,21508,List2B,white,man,,TRUE,5,,,,,
null,CORRECT,,html-keyboard-response,310,1118720,0.0-18.0-5.0-0.0,21508,List2B,white,man,,,,null,,,,
1293,"<img src=""portrait/WM2.jpg""style=""height:400px;""></img>",7,html-button-response,311,1120014,0.0-18.0-7.0,21508,List2B,white,man,,TRUE,7,,,,,
null,CORRECT,,html-keyboard-response,312,1121516,0.0-18.0-8.0-0.0,21508,List2B,white,man,,,,null,,,,
1228,"<img src=""portrait/WW2.jpg""style=""height:400px;""></img>",3,html-button-response,313,1122746,0.0-18.0-10.0,21508,List2B,white,man,,TRUE,3,,,,,
null,CORRECT,,html-keyboard-response,314,1124248,0.0-18.0-11.0-0.0,21508,List2B,white,man,,,,null,,,,
1219,"<img src=""portrait/WM1.jpg""style=""height:400px;""></img>",6,html-button-response,315,1125468,0.0-18.0-13.0,21508,List2B,white,man,,TRUE,6,,,,,
null,CORRECT,,html-keyboard-response,316,1126970,0.0-18.0-14.0-0.0,21508,List2B,white,man,,,,null,,,,
1565,"<img src=""portrait/WW1.jpg""style=""height:400px;""></img>",1,html-button-response,317,1128536,0.0-18.0-16.0,21508,List2B,white,man,,TRUE,1,,,,,
null,CORRECT,,html-keyboard-response,318,1130038,0.0-18.0-17.0-0.0,21508,List2B,white,man,,,,null,,,,
3565,"<img src=""portrait/BW1.jpg""style=""height:400px;""></img>",0,html-button-response,319,1133604,0.0-18.0-19.0,21508,List2B,white,man,,TRUE,0,,,,,
null,CORRECT,,html-keyboard-response,320,1135106,0.0-18.0-20.0-0.0,21508,List2B,white,man,,,,null,,,,
2022,"<img src=""portrait/BW2.jpg""style=""height:400px;""></img>",2,html-button-response,321,1137130,0.0-18.0-22.0,21508,List2B,white,man,,TRUE,2,,,,,
null,CORRECT,,html-keyboard-response,322,1138631,0.0-18.0-23.0-0.0,21508,List2B,white,man,,,,null,,,,
1107,<p>You got 8 out of 8 right first time. Press Continue.</p>,0,html-button-response,323,1139740,0.0-18.0-25.0,21508,List2B,white,man,,,,,,,,
null,"<div style=""font-size:60px;"">+</div>",,html-keyboard-response,324,1141241,0.0-19.0-0.0,21508,List2B,white,man,,,,null,,,,
null,"<img src=""stim_listB/touch8.gif""style=""height:400px;""></stim_listB>",,html-keyboard-response,325,1143242,0.0-19.0-1.0,21508,List2B,white,man,,,,null,,,,
null,are touching each other,,html-keyboard-response,326,1145244,0.0-19.0-2.0,21508,List2B,white,man,,,,null,,,,
18277,,,survey-text,327,1163521,0.0-19.0-3.0,21508,List2B,white,man,,,,,"{""Q0"":""ruth and beth are touching each other""}","<img src=""stim_listB/touch8.gif""style=""height:400px;""></stim_listB>",are touching each other,
null,"<div style=""font-size:60px;"">+</div>",,html-keyboard-response,328,1164022,0.0-19.0-0.1,21508,List2B,white,man,,,,null,,,,
null,"<img src=""stim_listB/flirt4.gif""style=""height:400px;""></stim_listB>",,html-keyboard-response,329,1166024,0.0-19.0-1.1,21508,List2B,white,man,,,,null,,,,
null,are flirting with each other,,html-keyboard-response,330,1168025,0.0-19.0-2.1,21508,List2B,white,man,,,,null,,,,
8914,,,survey-text,331,1176940,0.0-19.0-3.1,21508,List2B,white,man,,,,,"{""Q0"":""mike and beth are flirting with each other""}","<img src=""stim_listB/flirt4.gif""style=""height:400px;""></stim_listB>",are flirting with each other,
null,"<div style=""font-size:60px;"">+</div>",,html-keyboard-response,332,1177441,0.0-19.0-0.2,21508,List2B,white,man,,,,null,,,,
null,"<img src=""stim_listB/kiss2.gif""style=""height:400px;""></stim_listB>",,html-keyboard-response,333,1179442,0.0-19.0-1.2,21508,List2B,white,man,,,,null,,,,
null,are kissing each other,,html-keyboard-response,334,1181443,0.0-19.0-2.2,21508,List2B,white,man,,,,null,,,,
6556,,,survey-text,335,1188000,0.0-19.0-3.2,21508,List2B,white,man,,,,,"{""Q0"":""dave and jane are kissing each other""}","<img src=""stim_listB/kiss2.gif""style=""height:400px;""></stim_listB>",are kissing each other,
null,"<div style=""font-size:60px;"">+</div>",,html-keyboard-response,336,1188500,0.0-19.0-0.3,21508,List2B,white,man,,,,null,,,,
null,"<img src=""stim_listB/marry8.gif""style=""height:400px;""></stim_listB>",,html-keyboard-response,337,1190502,0.0-19.0-1.3,21508,List2B,white,man,,,,null,,,,
null,are marrying each other,,html-keyboard-response,338,1192503,0.0-19.0-2.3,21508,List2B,white,man,,,,null,,,,
8635,,,survey-text,339,1201138,0.0-19.0-3.3,21508,List2B,white,man,,,,,"{""Q0"":""ruth and kate are marrying each other""}","<img src=""stim_listB/marry8.gif""style=""height:400px;""></stim_listB>",are marrying each other,
null,"<div style=""font-size:60px;"">+</div>",,html-keyboard-response,340,1201639,0.0-19.0-0.4,21508,List2B,white,man,,,,null,,,,
null,"<img src=""stim_listB/flirt8.gif""style=""height:400px;""></stim_listB>",,html-keyboard-response,341,1203640,0.0-19.0-1.4,21508,List2B,white,man,,,,null,,,,
null,are flirting with each other,,html-keyboard-response,342,1205641,0.0-19.0-2.4,21508,List2B,white,man,,,,null,,,,
7371,,,survey-text,343,1213013,0.0-19.0-3.4,21508,List2B,white,man,,,,,"{""Q0"":""jane and beth are flirting with each other""}","<img src=""stim_listB/flirt8.gif""style=""height:400px;""></stim_listB>",are flirting with each other,
null,"<div style=""font-size:60px;"">+</div>",,html-keyboard-response,344,1213515,0.0-19.0-0.5,21508,List2B,white,man,,,,null,,,,
null,"<img src=""stim_listB/shout5.gif""style=""height:400px;""></stim_listB>",,html-keyboard-response,345,1215516,0.0-19.0-1.5,21508,List2B,white,man,,,,null,,,,
null,is shouting at,,html-keyboard-response,346,1217517,0.0-19.0-2.5,21508,List2B,white,man,,,,null,,,,
5309,,,survey-text,347,1222826,0.0-19.0-3.5,21508,List2B,white,man,,,,,"{""Q0"":""fred is shouting at luke""}","<img src=""stim_listB/shout5.gif""style=""height:400px;""></stim_listB>",is shouting at,
null,"<div style=""font-size:60px;"">+</div>",,html-keyboard-response,348,1223327,0.0-19.0-0.6,21508,List2B,white,man,,,,null,,,,
null,"<img src=""stim_listB/shout4.gif""style=""height:400px;""></stim_listB>",,html-keyboard-response,349,1225328,0.0-19.0-1.6,21508,List2B,white,man,,,,null,,,,
null,are shouting at each other,,html-keyboard-response,350,1227329,0.0-19.0-2.6,21508,List2B,white,man,,,,null,,,,
8989,,,survey-text,351,1236319,0.0-19.0-3.6,21508,List2B,white,man,,,,,"{""Q0"":""mike and kate are shouting at each other""}","<img src=""stim_listB/shout4.gif""style=""height:400px;""></stim_listB>",are shouting at each other,
null,"<div style=""font-size:60px;"">+</div>",,html-keyboard-response,352,1236820,0.0-19.0-0.7,21508,List2B,white,man,,,,null,,,,
null,"<img src=""stim_listB/kiss4.gif""style=""height:400px;""></stim_listB>",,html-keyboard-response,353,1238821,0.0-19.0-1.7,21508,List2B,white,man,,,,null,,,,
null,are kissing each other,,html-keyboard-response,354,1240822,0.0-19.0-2.7,21508,List2B,white,man,,,,null,,,,
7342,,,survey-text,355,1248165,0.0-19.0-3.7,21508,List2B,white,man,,,,,"{""Q0"":""mike and kate are kissing each other""}","<img src=""stim_listB/kiss4.gif""style=""height:400px;""></stim_listB>",are kissing each other,
null,"<div style=""font-size:60px;"">+</div>",,html-keyboard-response,356,1248667,0.0-19.0-0.8,21508,List2B,white,man,,,,null,,,,
null,"<img src=""stim_listB/talk2.gif""style=""height:400px;""></stim_listB>",,html-keyboard-response,357,1250668,0.0-19.0-1.8,21508,List2B,white,man,,,,null,,,,
null,are talking to each other,,html-keyboard-response,358,1252669,0.0-19.0-2.8,21508,List2B,white,man,,,,null,,,,
7032,,,survey-text,359,1259701,0.0-19.0-3.8,21508,List2B,white,man,,,,,"{""Q0"":""dave and ruth are talking to each other""}","<img src=""stim_listB/talk2.gif""style=""height:400px;""></stim_listB>",are talking to each other,
null,"<div style=""font-size:60px;"">+</div>",,html-keyboard-response,360,1260202,0.0-19.0-0.9,21508,List2B,white,man,,,,null,,,,
null,"<img src=""stim_listB/flirt1.gif""style=""height:400px;""></stim_listB>",,html-keyboard-response,361,1262203,0.0-19.0-1.9,21508,List2B,white,man,,,,null,,,,
null,is flirting with,,html-keyboard-response,362,1264205,0.0-19.0-2.9,21508,List2B,white,man,,,,null,,,,
5675,,,survey-text,363,1269881,0.0-19.0-3.9,21508,List2B,white,man,,,,,"{""Q0"":""jane is flirting with luke""}","<img src=""stim_listB/flirt1.gif""style=""height:400px;""></stim_listB>",is flirting with,
null,"<div style=""font-size:60px;"">+</div>",,html-keyboard-response,364,1270382,0.0-19.0-0.10,21508,List2B,white,man,,,,null,,,,
null,"<img src=""stim_listB/touch3.gif""style=""height:400px;""></stim_listB>",,html-keyboard-response,365,1272383,0.0-19.0-1.10,21508,List2B,white,man,,,,null,,,,
null,is touching,,html-keyboard-response,366,1274384,0.0-19.0-2.10,21508,List2B,white,man,,,,null,,,,
4828,,,survey-text,367,1279213,0.0-19.0-3.10,21508,List2B,white,man,,,,,"{""Q0"":""kate is touching mike""}","<img src=""stim_listB/touch3.gif""style=""height:400px;""></stim_listB>",is touching,
null,"<div style=""font-size:60px;"">+</div>",,html-keyboard-response,368,1279713,0.0-19.0-0.11,21508,List2B,white,man,,,,null,,,,
null,"<img src=""stim_listB/flirt2.gif""style=""height:400px;""></stim_listB>",,html-keyboard-response,369,1281714,0.0-19.0-1.11,21508,List2B,white,man,,,,null,,,,
null,are flirting with each other,,html-keyboard-response,370,1283716,0.0-19.0-2.11,21508,List2B,white,man,,,,null,,,,
9830,,,survey-text,371,1293546,0.0-19.0-3.11,21508,List2B,white,man,,,,,"{""Q0"":""dave and ruth are flirting with each other""}","<img src=""stim_listB/flirt2.gif""style=""height:400px;""></stim_listB>",are flirting with each other,
null,"<div style=""font-size:60px;"">+</div>",,html-keyboard-response,372,1294047,0.0-19.0-0.12,21508,List2B,white,man,,,,null,,,,
null,"<img src=""stim_listB/touch2.gif""style=""height:400px;""></stim_listB>",,html-keyboard-response,373,1296048,0.0-19.0-1.12,21508,List2B,white,man,,,,null,,,,
null,are touching each other,,html-keyboard-response,374,1298049,0.0-19.0-2.12,21508,List2B,white,man,,,,null,,,,
6546,,,survey-text,375,1304596,0.0-19.0-3.12,21508,List2B,white,man,,,,,"{""Q0"":""luke and ruth are touching each other""}","<img src=""stim_listB/touch2.gif""style=""height:400px;""></stim_listB>",are touching each other,
null,"<div style=""font-size:60px;"">+</div>",,html-keyboard-response,376,1305098,0.0-19.0-0.13,21508,List2B,white,man,,,,null,,,,
null,"<img src=""stim_listB/shout7.gif""style=""height:400px;""></stim_listB>",,html-keyboard-response,377,1307099,0.0-19.0-1.13,21508,List2B,white,man,,,,null,,,,
null,is shouting at,,html-keyboard-response,378,1309100,0.0-19.0-2.13,21508,List2B,white,man,,,,null,,,,
6026,,,survey-text,379,1315126,0.0-19.0-3.13,21508,List2B,white,man,,,,,"{""Q0"":""beth is shouting at ruth""}","<img src=""stim_listB/shout7.gif""style=""height:400px;""></stim_listB>",is shouting at,
null,"<div style=""font-size:60px;"">+</div>",,html-keyboard-response,380,1315627,0.0-19.0-0.14,21508,List2B,white,man,,,,null,,,,
null,"<img src=""stim_listB/play5.gif""style=""height:400px;""></stim_listB>",,html-keyboard-response,381,1317628,0.0-19.0-1.14,21508,List2B,white,man,,,,null,,,,
null,is playing with,,html-keyboard-response,382,1319630,0.0-19.0-2.14,21508,List2B,white,man,,,,null,,,,
6745,,,survey-text,383,1326375,0.0-19.0-3.14,21508,List2B,white,man,,,,,"{""Q0"":""mike is playing with dave""}","<img src=""stim_listB/play5.gif""style=""height:400px;""></stim_listB>",is playing with,
null,"<div style=""font-size:60px;"">+</div>",,html-keyboard-response,384,1326876,0.0-19.0-0.15,21508,List2B,white,man,,,,null,,,,
null,"<img src=""stim_listB/play7.gif""style=""height:400px;""></stim_listB>",,html-keyboard-response,385,1328877,0.0-19.0-1.15,21508,List2B,white,man,,,,null,,,,
null,is playing with,,html-keyboard-response,386,1330878,0.0-19.0-2.15,21508,List2B,white,man,,,,null,,,,
5187,,,survey-text,387,1336066,0.0-19.0-3.15,21508,List2B,white,man,,,,,"{""Q0"":""kate is playing with jane""}","<img src=""stim_listB/play7.gif""style=""height:400px;""></stim_listB>",is playing with,
null,"<div style=""font-size:60px;"">+</div>",,html-keyboard-response,388,1336567,0.0-19.0-0.16,21508,List2B,white,man,,,,null,,,,
null,"<img src=""stim_listB/kiss5.gif""style=""height:400px;""></stim_listB>",,html-keyboard-response,389,1338569,0.0-19.0-1.16,21508,List2B,white,man,,,,null,,,,
null,is kissing,,html-keyboard-response,390,1340570,0.0-19.0-2.16,21508,List2B,white,man,,,,null,,,,
5859,,,survey-text,391,1346429,0.0-19.0-3.16,21508,List2B,white,man,,,,,"{""Q0"":""fred is kissing luke""}","<img src=""stim_listB/kiss5.gif""style=""height:400px;""></stim_listB>",is kissing,
null,"<div style=""font-size:60px;"">+</div>",,html-keyboard-response,392,1346930,0.0-19.0-0.17,21508,List2B,white,man,,,,null,,,,
null,"<img src=""stim_listB/dance1.gif""style=""height:400px;""></stim_listB>",,html-keyboard-response,393,1348931,0.0-19.0-1.17,21508,List2B,white,man,,,,null,,,,
null,is dancing with,,html-keyboard-response,394,1350932,0.0-19.0-2.17,21508,List2B,white,man,,,,null,,,,
5621,,,survey-text,395,1356554,0.0-19.0-3.17,21508,List2B,white,man,,,,,"{""Q0"":""jane is dancing with luke""}","<img src=""stim_listB/dance1.gif""style=""height:400px;""></stim_listB>",is dancing with,
null,"<div style=""font-size:60px;"">+</div>",,html-keyboard-response,396,1357055,0.0-19.0-0.18,21508,List2B,white,man,,,,null,,,,
null,"<img src=""stim_listB/argue4.gif""style=""height:400px;""></stim_listB>",,html-keyboard-response,397,1359056,0.0-19.0-1.18,21508,List2B,white,man,,,,null,,,,
null,are arguing with each other,,html-keyboard-response,398,1361057,0.0-19.0-2.18,21508,List2B,white,man,,,,null,,,,
8316,,,survey-text,399,1369373,0.0-19.0-3.18,21508,List2B,white,man,,,,,"{""Q0"":""fred and kate are arguing with each other""}","<img src=""stim_listB/argue4.gif""style=""height:400px;""></stim_listB>",are arguing with each other,
null,"<div style=""font-size:60px;"">+</div>",,html-keyboard-response,400,1369874,0.0-19.0-0.19,21508,List2B,white,man,,,,null,,,,
null,"<img src=""stim_listB/marry6.gif""style=""height:400px;""></stim_listB>",,html-keyboard-response,401,1371876,0.0-19.0-1.19,21508,List2B,white,man,,,,null,,,,
null,are marrying each other,,html-keyboard-response,402,1373877,0.0-19.0-2.19,21508,List2B,white,man,,,,null,,,,
7231,,,survey-text,403,1381109,0.0-19.0-3.19,21508,List2B,white,man,,,,,"{""Q0"":""luke and mike are marrying each other""}","<img src=""stim_listB/marry6.gif""style=""height:400px;""></stim_listB>",are marrying each other,
2080,<p>Thank you for completing that task.</p><p>The final part of this session is a short questionnaire.</p><p>Press Continue.</p>,0,html-button-response,404,1383190,0.0-20.0,21508,List2B,white,man,,,,,,,,
20591,,,survey-text,405,1404783,0.0-21.0,21508,List2B,white,man,,,,,"{""Q0"":""21"",""Q1"":""English"",""Q2"":""English"",""Q3"":""UK"",""Q4"":""White"",""Q5"":""Male""}",,,demographics
7692,,,survey-likert,406,1412477,0.0-22.0,21508,List2B,white,man,,,,,"{""Q0"":4}",,,likert_ESS
7008,,,survey-likert,407,1419489,0.0-23.0,21508,List2B,white,man,,,,,"{""Q0"":4}",,,likert_NSSAL_Q1
3944,,,survey-likert,408,1423437,0.0-24.0,21508,List2B,white,man,,,,,"{""Q0"":4}",,,likert_NSSAL_Q2
12786,,,survey-likert,409,1436227,0.0-25.0,21508,List2B,white,man,,,,,"{""Q0"":4}",,,likert_CGRS_Q1
2592,,,survey-likert,410,1438823,0.0-26.0,21508,List2B,white,man,,,,,"{""Q0"":4}",,,likert_CGRS_Q2
1993,,,survey-likert,411,1440820,0.0-27.0,21508,List2B,white,man,,,,,"{""Q0"":4}",,,likert_CGRS_Q3
14491,,,survey-text,412,1455314,0.0-28.0,21508,List2B,white,man,,,,,"{""Q0"":""ccc""}",,,worker_id
68457,,,external-html,413,1523841,0.0-29.0,21508,List2B,white,man,debrief.html,,,,,,,
