rt,stimulus,button_pressed,trial_type,trial_index,time_elapsed,internal_node_id,subject,list,ppt_race,ppt_gender,url,first_guess,correct,key_press,responses,image_type,phrase_type,test_part
4230,Welcome to the experiment. Press Continue to begin.,0,html-button-response,0,4234,0.0-0.0,22502,List2B,white,man,,,,,,,,
135041,,,external-html,1,140372,0.0-1.0,22502,List2B,white,man,consent.html,,,,,,,
12527,"<p>On the next page, you will see portraits of 8 people and their names.</p><p>Your first task is to take a few minutes to memorise the names of these people.</p><p>You will have to recall their names during the rest of the experiment, so it is</p><p>essential that you try to memorise these people and their names as best as you can.</p><br><p><strong>You will then be tested on your memory of these names and portraits.</strong></p><br><p>The experiment will start after you have completed this memory test.</p><br><p>Ready?</p>",0,html-button-response,2,152901,0.0-2.0,22502,List2B,white,man,,,,,,,,
132604,"<img src='img/portrait_matrix_list2.jpg' style='width:900px;height:500px;''></img><p>If you have memorised all the portraits and names and are ready to start, press Continue.</p><p><strong>Please note: Your memory of these faces will be tested 4 times during this experiment.</strong></p>",0,html-button-response,3,286509,0.0-3.0-0.0,22502,List2B,white,man,,,,,,,,
5637,"<img src=""portrait/WM1.jpg""style=""height:400px;""></img>",6,html-button-response,4,293149,0.0-3.0-1.0,22502,List2B,white,man,,TRUE,6,,,,,
null,CORRECT,,html-keyboard-response,5,294654,0.0-3.0-2.0-0.0,22502,List2B,white,man,,,,null,,,,
2760,"<img src=""portrait/BM1.jpg""style=""height:400px;""></img>",4,html-button-response,6,297416,0.0-3.0-4.0,22502,List2B,white,man,,TRUE,4,,,,,
null,CORRECT,,html-keyboard-response,7,298918,0.0-3.0-5.0-0.0,22502,List2B,white,man,,,,null,,,,
2501,"<img src=""portrait/WW1.jpg""style=""height:400px;""></img>",1,html-button-response,8,301420,0.0-3.0-7.0,22502,List2B,white,man,,TRUE,1,,,,,
null,CORRECT,,html-keyboard-response,9,302923,0.0-3.0-8.0-0.0,22502,List2B,white,man,,,,null,,,,
1688,"<img src=""portrait/WW2.jpg""style=""height:400px;""></img>",3,html-button-response,10,304613,0.0-3.0-10.0,22502,List2B,white,man,,TRUE,3,,,,,
null,CORRECT,,html-keyboard-response,11,306116,0.0-3.0-11.0-0.0,22502,List2B,white,man,,,,null,,,,
4597,"<img src=""portrait/BM2.jpg""style=""height:400px;""></img>",5,html-button-response,12,310714,0.0-3.0-13.0,22502,List2B,white,man,,TRUE,5,,,,,
null,CORRECT,,html-keyboard-response,13,312216,0.0-3.0-14.0-0.0,22502,List2B,white,man,,,,null,,,,
7091,"<img src=""portrait/BW2.jpg""style=""height:400px;""></img>",2,html-button-response,14,319308,0.0-3.0-16.0,22502,List2B,white,man,,TRUE,2,,,,,
null,CORRECT,,html-keyboard-response,15,320811,0.0-3.0-17.0-0.0,22502,List2B,white,man,,,,null,,,,
1551,"<img src=""portrait/BW1.jpg""style=""height:400px;""></img>",0,html-button-response,16,322362,0.0-3.0-19.0,22502,List2B,white,man,,TRUE,0,,,,,
null,CORRECT,,html-keyboard-response,17,323864,0.0-3.0-20.0-0.0,22502,List2B,white,man,,,,null,,,,
5921,"<img src=""portrait/WM2.jpg""style=""height:400px;""></img>",7,html-button-response,18,329787,0.0-3.0-22.0,22502,List2B,white,man,,TRUE,7,,,,,
null,CORRECT,,html-keyboard-response,19,331290,0.0-3.0-23.0-0.0,22502,List2B,white,man,,,,null,,,,
5336,<p>You got 8 out of 8 right first time. Press Continue.</p>,0,html-button-response,20,336628,0.0-3.0-25.0,22502,List2B,white,man,,,,,,,,
42808,"<p>In this experiment, you will view photographs of the people from the memory game interacting.</p><p>By using the <strong>exact</strong> phrase given <i>after</i> the photograph appears and recalling the correct names of the people in the photographs, form a sentence describing the interaction. You do not need to capitalise names.</p><p>Type your answer in the space provided. Please complete every sentence before moving onto the next trial.</p><p>You will only have a few seconds to memorise each given photograph and phrase before you can respond, so try your best to focus.</p><p>An example is given below. Press 'Continue' when you are ready.</p><img src='img/speaking_example.jpg' style='width:800px;height:460px;''></img>",0,html-button-response,21,380439,0.0-4.0,22502,List2B,white,man,,,,,,,,
3177,"<p>Before the experiment starts, you will watch two example trials. Press 'Continue'.</p>",0,html-button-response,22,384618,0.0-5.0,22502,List2B,white,man,,,,,,,,
null,<img src='img/meet_eg.gif' style='height:400px;''></img>,,html-keyboard-response,23,387619,0.0-6.0,22502,List2B,white,man,,,,null,,,,
null,<p>is meeting</p>,,html-keyboard-response,24,389620,0.0-7.0,22502,List2B,white,man,,,,null,,,,
5592,<p><b>Answer:</b> jane is meeting ruth</p>,0,html-button-response,25,395214,0.0-8.0,22502,List2B,white,man,,,,,,,,
null,<img src='img/look_eg.gif' style='height:400px;''></img>,,html-keyboard-response,26,398217,0.0-9.0,22502,List2B,white,man,,,,null,,,,
null,<p>are looking at each other</p>,,html-keyboard-response,27,400219,0.0-10.0,22502,List2B,white,man,,,,null,,,,
3235,<p><b>Answer:</b> fred and mike are looking at each other</p>,0,html-button-response,28,403455,0.0-11.0,22502,List2B,white,man,,,,,,,,
8886,"<p>Ready to start the experiment?</p><br><p><strong>Remember to describe the picture using a full sentence,</strong></p><p><strong>that combines the names of the people with the <i>exact</i> phrase given.</strong></p><p><strong>To receive full payment you must do this correctly.</strong></p><p><strong> You do not need to capitalise names or use punctuation.</strong></p><br><p>Press 'Continue' to begin.</p>",0,html-button-response,29,413343,0.0-12.0,22502,List2B,white,man,,,,,,,,
null,"<div style=""font-size:60px;"">+</div>",,html-keyboard-response,30,414845,0.0-13.0-0.0,22502,List2B,white,man,,,,null,,,,
null,"<img src=""stim_listB/marry7.gif""style=""height:400px;""></stim_listB>",,html-keyboard-response,31,416846,0.0-13.0-1.0,22502,List2B,white,man,,,,null,,,,
null,is marrying,,html-keyboard-response,32,418847,0.0-13.0-2.0,22502,List2B,white,man,,,,null,,,,
7025,,,survey-text,33,425873,0.0-13.0-3.0,22502,List2B,white,man,,,,,"{""Q0"":""beth is marrying jane""}","<img src=""stim_listB/marry7.gif""style=""height:400px;""></stim_listB>",is marrying,
null,"<div style=""font-size:60px;"">+</div>",,html-keyboard-response,34,426375,0.0-13.0-0.1,22502,List2B,white,man,,,,null,,,,
null,"<img src=""stim_listB/argue4.gif""style=""height:400px;""></stim_listB>",,html-keyboard-response,35,428376,0.0-13.0-1.1,22502,List2B,white,man,,,,null,,,,
null,are arguing with each other,,html-keyboard-response,36,430379,0.0-13.0-2.1,22502,List2B,white,man,,,,null,,,,
14640,,,survey-text,37,445019,0.0-13.0-3.1,22502,List2B,white,man,,,,,"{""Q0"":""kate is arguing with fred""}","<img src=""stim_listB/argue4.gif""style=""height:400px;""></stim_listB>",are arguing with each other,
null,"<div style=""font-size:60px;"">+</div>",,html-keyboard-response,38,445521,0.0-13.0-0.2,22502,List2B,white,man,,,,null,,,,
null,"<img src=""stim_listB/touch2.gif""style=""height:400px;""></stim_listB>",,html-keyboard-response,39,447522,0.0-13.0-1.2,22502,List2B,white,man,,,,null,,,,
null,are touching each other,,html-keyboard-response,40,449523,0.0-13.0-2.2,22502,List2B,white,man,,,,null,,,,
9867,,,survey-text,41,459391,0.0-13.0-3.2,22502,List2B,white,man,,,,,"{""Q0"":""ruth and mike are touching each other""}","<img src=""stim_listB/touch2.gif""style=""height:400px;""></stim_listB>",are touching each other,
null,"<div style=""font-size:60px;"">+</div>",,html-keyboard-response,42,459892,0.0-13.0-0.3,22502,List2B,white,man,,,,null,,,,
null,"<img src=""stim_listB/dance3.gif""style=""height:400px;""></stim_listB>",,html-keyboard-response,43,461894,0.0-13.0-1.3,22502,List2B,white,man,,,,null,,,,
null,is dancing with,,html-keyboard-response,44,463895,0.0-13.0-2.3,22502,List2B,white,man,,,,null,,,,
5608,,,survey-text,45,469504,0.0-13.0-3.3,22502,List2B,white,man,,,,,"{""Q0"":""fred is dancing with kate""}","<img src=""stim_listB/dance3.gif""style=""height:400px;""></stim_listB>",is dancing with,
null,"<div style=""font-size:60px;"">+</div>",,html-keyboard-response,46,470006,0.0-13.0-0.4,22502,List2B,white,man,,,,null,,,,
null,"<img src=""stim_listB/flirt1.gif""style=""height:400px;""></stim_listB>",,html-keyboard-response,47,472008,0.0-13.0-1.4,22502,List2B,white,man,,,,null,,,,
null,is flirting with,,html-keyboard-response,48,474009,0.0-13.0-2.4,22502,List2B,white,man,,,,null,,,,
5893,,,survey-text,49,479902,0.0-13.0-3.4,22502,List2B,white,man,,,,,"{""Q0"":""jane is flirting with mike""}","<img src=""stim_listB/flirt1.gif""style=""height:400px;""></stim_listB>",is flirting with,
null,"<div style=""font-size:60px;"">+</div>",,html-keyboard-response,50,480404,0.0-13.0-0.5,22502,List2B,white,man,,,,null,,,,
null,"<img src=""stim_listB/talk4.gif""style=""height:400px;""></stim_listB>",,html-keyboard-response,51,482405,0.0-13.0-1.5,22502,List2B,white,man,,,,null,,,,
null,are talking to each other,,html-keyboard-response,52,484407,0.0-13.0-2.5,22502,List2B,white,man,,,,null,,,,
26809,,,survey-text,53,511218,0.0-13.0-3.5,22502,List2B,white,man,,,,,"{""Q0"":""mike is talking to beth""}","<img src=""stim_listB/talk4.gif""style=""height:400px;""></stim_listB>",are talking to each other,
null,"<div style=""font-size:60px;"">+</div>",,html-keyboard-response,54,511720,0.0-13.0-0.6,22502,List2B,white,man,,,,null,,,,
null,"<img src=""stim_listB/dance7.gif""style=""height:400px;""></stim_listB>",,html-keyboard-response,55,513722,0.0-13.0-1.6,22502,List2B,white,man,,,,null,,,,
null,is dancing with,,html-keyboard-response,56,515723,0.0-13.0-2.6,22502,List2B,white,man,,,,null,,,,
11310,,,survey-text,57,527034,0.0-13.0-3.6,22502,List2B,white,man,,,,,"{""Q0"":""kate is dancing with ruth""}","<img src=""stim_listB/dance7.gif""style=""height:400px;""></stim_listB>",is dancing with,
null,"<div style=""font-size:60px;"">+</div>",,html-keyboard-response,58,527535,0.0-13.0-0.7,22502,List2B,white,man,,,,null,,,,
null,"<img src=""stim_listB/fight6.gif""style=""height:400px;""></stim_listB>",,html-keyboard-response,59,529537,0.0-13.0-1.7,22502,List2B,white,man,,,,null,,,,
null,are fighting each other,,html-keyboard-response,60,531539,0.0-13.0-2.7,22502,List2B,white,man,,,,null,,,,
22138,,,survey-text,61,553678,0.0-13.0-3.7,22502,List2B,white,man,,,,,"{""Q0"":""fred and luke are fighting each other""}","<img src=""stim_listB/fight6.gif""style=""height:400px;""></stim_listB>",are fighting each other,
null,"<div style=""font-size:60px;"">+</div>",,html-keyboard-response,62,554179,0.0-13.0-0.8,22502,List2B,white,man,,,,null,,,,
null,"<img src=""stim_listB/kiss7.gif""style=""height:400px;""></stim_listB>",,html-keyboard-response,63,556181,0.0-13.0-1.8,22502,List2B,white,man,,,,null,,,,
null,is kissing,,html-keyboard-response,64,558184,0.0-13.0-2.8,22502,List2B,white,man,,,,null,,,,
7074,,,survey-text,65,565259,0.0-13.0-3.8,22502,List2B,white,man,,,,,"{""Q0"":""jane is kissing beth""}","<img src=""stim_listB/kiss7.gif""style=""height:400px;""></stim_listB>",is kissing,
null,"<div style=""font-size:60px;"">+</div>",,html-keyboard-response,66,565761,0.0-13.0-0.9,22502,List2B,white,man,,,,null,,,,
null,"<img src=""stim_listB/dance6.gif""style=""height:400px;""></stim_listB>",,html-keyboard-response,67,567763,0.0-13.0-1.9,22502,List2B,white,man,,,,null,,,,
null,are dancing with each other,,html-keyboard-response,68,569764,0.0-13.0-2.9,22502,List2B,white,man,,,,null,,,,
8699,,,survey-text,69,578465,0.0-13.0-3.9,22502,List2B,white,man,,,,,"{""Q0"":""fred and dave are dancing with each other""}","<img src=""stim_listB/dance6.gif""style=""height:400px;""></stim_listB>",are dancing with each other,
null,"<div style=""font-size:60px;"">+</div>",,html-keyboard-response,70,578966,0.0-13.0-0.10,22502,List2B,white,man,,,,null,,,,
null,"<img src=""stim_listB/shout5.gif""style=""height:400px;""></stim_listB>",,html-keyboard-response,71,580967,0.0-13.0-1.10,22502,List2B,white,man,,,,null,,,,
null,is shouting at,,html-keyboard-response,72,582968,0.0-13.0-2.10,22502,List2B,white,man,,,,null,,,,
9335,,,survey-text,73,592305,0.0-13.0-3.10,22502,List2B,white,man,,,,,"{""Q0"":""luke is shouting at fred""}","<img src=""stim_listB/shout5.gif""style=""height:400px;""></stim_listB>",is shouting at,
null,"<div style=""font-size:60px;"">+</div>",,html-keyboard-response,74,592806,0.0-13.0-0.11,22502,List2B,white,man,,,,null,,,,
null,"<img src=""stim_listB/marry3.gif""style=""height:400px;""></stim_listB>",,html-keyboard-response,75,594807,0.0-13.0-1.11,22502,List2B,white,man,,,,null,,,,
null,is marrying,,html-keyboard-response,76,596808,0.0-13.0-2.11,22502,List2B,white,man,,,,null,,,,
14818,,,survey-text,77,611627,0.0-13.0-3.11,22502,List2B,white,man,,,,,"{""Q0"":""mike is marrying kate""}","<img src=""stim_listB/marry3.gif""style=""height:400px;""></stim_listB>",is marrying,
null,"<div style=""font-size:60px;"">+</div>",,html-keyboard-response,78,612128,0.0-13.0-0.12,22502,List2B,white,man,,,,null,,,,
null,"<img src=""stim_listB/flirt2.gif""style=""height:400px;""></stim_listB>",,html-keyboard-response,79,614129,0.0-13.0-1.12,22502,List2B,white,man,,,,null,,,,
null,are flirting with each other,,html-keyboard-response,80,616130,0.0-13.0-2.12,22502,List2B,white,man,,,,null,,,,
14316,,,survey-text,81,630448,0.0-13.0-3.12,22502,List2B,white,man,,,,,"{""Q0"":""ruth is flirting with fred""}","<img src=""stim_listB/flirt2.gif""style=""height:400px;""></stim_listB>",are flirting with each other,
null,"<div style=""font-size:60px;"">+</div>",,html-keyboard-response,82,630949,0.0-13.0-0.13,22502,List2B,white,man,,,,null,,,,
null,"<img src=""stim_listB/touch4.gif""style=""height:400px;""></stim_listB>",,html-keyboard-response,83,632951,0.0-13.0-1.13,22502,List2B,white,man,,,,null,,,,
null,are touching each other,,html-keyboard-response,84,634952,0.0-13.0-2.13,22502,List2B,white,man,,,,null,,,,
12251,,,survey-text,85,647203,0.0-13.0-3.13,22502,List2B,white,man,,,,,"{""Q0"":""fred and beth are touching each other""}","<img src=""stim_listB/touch4.gif""style=""height:400px;""></stim_listB>",are touching each other,
null,"<div style=""font-size:60px;"">+</div>",,html-keyboard-response,86,647704,0.0-13.0-0.14,22502,List2B,white,man,,,,null,,,,
null,"<img src=""stim_listB/talk1.gif""style=""height:400px;""></stim_listB>",,html-keyboard-response,87,649706,0.0-13.0-1.14,22502,List2B,white,man,,,,null,,,,
null,is talking to,,html-keyboard-response,88,651708,0.0-13.0-2.14,22502,List2B,white,man,,,,null,,,,
8266,,,survey-text,89,659975,0.0-13.0-3.14,22502,List2B,white,man,,,,,"{""Q0"":""jane is talking to luke""}","<img src=""stim_listB/talk1.gif""style=""height:400px;""></stim_listB>",is talking to,
null,"<div style=""font-size:60px;"">+</div>",,html-keyboard-response,90,660476,0.0-13.0-0.15,22502,List2B,white,man,,,,null,,,,
null,"<img src=""stim_listB/talk6.gif""style=""height:400px;""></stim_listB>",,html-keyboard-response,91,662478,0.0-13.0-1.15,22502,List2B,white,man,,,,null,,,,
null,are talking to each other,,html-keyboard-response,92,664480,0.0-13.0-2.15,22502,List2B,white,man,,,,null,,,,
8662,,,survey-text,93,673143,0.0-13.0-3.15,22502,List2B,white,man,,,,,"{""Q0"":""fred and dave are talking to each other""}","<img src=""stim_listB/talk6.gif""style=""height:400px;""></stim_listB>",are talking to each other,
null,"<div style=""font-size:60px;"">+</div>",,html-keyboard-response,94,673644,0.0-13.0-0.16,22502,List2B,white,man,,,,null,,,,
null,"<img src=""stim_listB/argue7.gif""style=""height:400px;""></stim_listB>",,html-keyboard-response,95,675646,0.0-13.0-1.16,22502,List2B,white,man,,,,null,,,,
null,is arguing with,,html-keyboard-response,96,677647,0.0-13.0-2.16,22502,List2B,white,man,,,,null,,,,
5707,,,survey-text,97,683355,0.0-13.0-3.16,22502,List2B,white,man,,,,,"{""Q0"":""beth is arguing with jane""}","<img src=""stim_listB/argue7.gif""style=""height:400px;""></stim_listB>",is arguing with,
null,"<div style=""font-size:60px;"">+</div>",,html-keyboard-response,98,683856,0.0-13.0-0.17,22502,List2B,white,man,,,,null,,,,
null,"<img src=""stim_listB/play8.gif""style=""height:400px;""></stim_listB>",,html-keyboard-response,99,685859,0.0-13.0-1.17,22502,List2B,white,man,,,,null,,,,
null,are playing with each other,,html-keyboard-response,100,687860,0.0-13.0-2.17,22502,List2B,white,man,,,,null,,,,
8478,,,survey-text,101,696339,0.0-13.0-3.17,22502,List2B,white,man,,,,,"{""Q0"":""beth and ruth are playing cards""}","<img src=""stim_listB/play8.gif""style=""height:400px;""></stim_listB>",are playing with each other,
null,"<div style=""font-size:60px;"">+</div>",,html-keyboard-response,102,696840,0.0-13.0-0.18,22502,List2B,white,man,,,,null,,,,
null,"<img src=""stim_listB/argue1.gif""style=""height:400px;""></stim_listB>",,html-keyboard-response,103,698842,0.0-13.0-1.18,22502,List2B,white,man,,,,null,,,,
null,is arguing with,,html-keyboard-response,104,700842,0.0-13.0-2.18,22502,List2B,white,man,,,,null,,,,
5042,,,survey-text,105,705884,0.0-13.0-3.18,22502,List2B,white,man,,,,,"{""Q0"":""jane is arguing with dave""}","<img src=""stim_listB/argue1.gif""style=""height:400px;""></stim_listB>",is arguing with,
null,"<div style=""font-size:60px;"">+</div>",,html-keyboard-response,106,706386,0.0-13.0-0.19,22502,List2B,white,man,,,,null,,,,
null,"<img src=""stim_listB/flirt4.gif""style=""height:400px;""></stim_listB>",,html-keyboard-response,107,708387,0.0-13.0-1.19,22502,List2B,white,man,,,,null,,,,
null,are flirting with each other,,html-keyboard-response,108,710388,0.0-13.0-2.19,22502,List2B,white,man,,,,null,,,,
13660,,,survey-text,109,724050,0.0-13.0-3.19,22502,List2B,white,man,,,,,"{""Q0"":""mike and kate are flirting with each other""}","<img src=""stim_listB/flirt4.gif""style=""height:400px;""></stim_listB>",are flirting with each other,
24977,"<img src='img/portrait_matrix_list2.jpg' style='width:900px;height:500px;''></img><p>If you have memorised all the portraits and names and are ready to start, press Continue.</p><p><strong>Please note: Your memory of these faces will be tested 4 times during this experiment.</strong></p>",0,html-button-response,110,749029,0.0-14.0-0.0,22502,List2B,white,man,,,,,,,,
2374,"<img src=""portrait/BM1.jpg""style=""height:400px;""></img>",4,html-button-response,111,752406,0.0-14.0-1.0,22502,List2B,white,man,,TRUE,4,,,,,
null,CORRECT,,html-keyboard-response,112,753909,0.0-14.0-2.0-0.0,22502,List2B,white,man,,,,null,,,,
2519,"<img src=""portrait/WW1.jpg""style=""height:400px;""></img>",1,html-button-response,113,756430,0.0-14.0-4.0,22502,List2B,white,man,,TRUE,1,,,,,
null,CORRECT,,html-keyboard-response,114,757932,0.0-14.0-5.0-0.0,22502,List2B,white,man,,,,null,,,,
2125,"<img src=""portrait/WW2.jpg""style=""height:400px;""></img>",3,html-button-response,115,760058,0.0-14.0-7.0,22502,List2B,white,man,,TRUE,3,,,,,
null,CORRECT,,html-keyboard-response,116,761562,0.0-14.0-8.0-0.0,22502,List2B,white,man,,,,null,,,,
1545,"<img src=""portrait/BW2.jpg""style=""height:400px;""></img>",2,html-button-response,117,763108,0.0-14.0-10.0,22502,List2B,white,man,,TRUE,2,,,,,
null,CORRECT,,html-keyboard-response,118,764611,0.0-14.0-11.0-0.0,22502,List2B,white,man,,,,null,,,,
2434,"<img src=""portrait/BM2.jpg""style=""height:400px;""></img>",5,html-button-response,119,767047,0.0-14.0-13.0,22502,List2B,white,man,,TRUE,5,,,,,
null,CORRECT,,html-keyboard-response,120,768550,0.0-14.0-14.0-0.0,22502,List2B,white,man,,,,null,,,,
1599,"<img src=""portrait/WM1.jpg""style=""height:400px;""></img>",6,html-button-response,121,770151,0.0-14.0-16.0,22502,List2B,white,man,,TRUE,6,,,,,
null,CORRECT,,html-keyboard-response,122,771654,0.0-14.0-17.0-0.0,22502,List2B,white,man,,,,null,,,,
2566,"<img src=""portrait/BW1.jpg""style=""height:400px;""></img>",0,html-button-response,123,774221,0.0-14.0-19.0,22502,List2B,white,man,,TRUE,0,,,,,
null,CORRECT,,html-keyboard-response,124,775724,0.0-14.0-20.0-0.0,22502,List2B,white,man,,,,null,,,,
2264,"<img src=""portrait/WM2.jpg""style=""height:400px;""></img>",7,html-button-response,125,777990,0.0-14.0-22.0,22502,List2B,white,man,,TRUE,7,,,,,
null,CORRECT,,html-keyboard-response,126,779492,0.0-14.0-23.0-0.0,22502,List2B,white,man,,,,null,,,,
1331,<p>You got 8 out of 8 right first time. Press Continue.</p>,0,html-button-response,127,780825,0.0-14.0-25.0,22502,List2B,white,man,,,,,,,,
null,"<div style=""font-size:60px;"">+</div>",,html-keyboard-response,128,782326,0.0-15.0-0.0,22502,List2B,white,man,,,,null,,,,
null,"<img src=""stim_listB/shout2.gif""style=""height:400px;""></stim_listB>",,html-keyboard-response,129,784328,0.0-15.0-1.0,22502,List2B,white,man,,,,null,,,,
null,are shouting at each other,,html-keyboard-response,130,786329,0.0-15.0-2.0,22502,List2B,white,man,,,,null,,,,
6349,,,survey-text,131,792678,0.0-15.0-3.0,22502,List2B,white,man,,,,,"{""Q0"":""dave and jane are shouting at each other""}","<img src=""stim_listB/shout2.gif""style=""height:400px;""></stim_listB>",are shouting at each other,
null,"<div style=""font-size:60px;"">+</div>",,html-keyboard-response,132,793181,0.0-15.0-0.1,22502,List2B,white,man,,,,null,,,,
null,"<img src=""stim_listB/dance4.gif""style=""height:400px;""></stim_listB>",,html-keyboard-response,133,795182,0.0-15.0-1.1,22502,List2B,white,man,,,,null,,,,
null,are dancing with each other,,html-keyboard-response,134,797183,0.0-15.0-2.1,22502,List2B,white,man,,,,null,,,,
8607,,,survey-text,135,805791,0.0-15.0-3.1,22502,List2B,white,man,,,,,"{""Q0"":""beth and mike are dancing with each other""}","<img src=""stim_listB/dance4.gif""style=""height:400px;""></stim_listB>",are dancing with each other,
null,"<div style=""font-size:60px;"">+</div>",,html-keyboard-response,136,806292,0.0-15.0-0.2,22502,List2B,white,man,,,,null,,,,
null,"<img src=""stim_listB/shout3.gif""style=""height:400px;""></stim_listB>",,html-keyboard-response,137,808294,0.0-15.0-1.2,22502,List2B,white,man,,,,null,,,,
null,is shouting at,,html-keyboard-response,138,810294,0.0-15.0-2.2,22502,List2B,white,man,,,,null,,,,
5591,,,survey-text,139,815886,0.0-15.0-3.2,22502,List2B,white,man,,,,,"{""Q0"":""beth is shouting at fred""}","<img src=""stim_listB/shout3.gif""style=""height:400px;""></stim_listB>",is shouting at,
null,"<div style=""font-size:60px;"">+</div>",,html-keyboard-response,140,816389,0.0-15.0-0.3,22502,List2B,white,man,,,,null,,,,
null,"<img src=""stim_listB/shout6.gif""style=""height:400px;""></stim_listB>",,html-keyboard-response,141,818390,0.0-15.0-1.3,22502,List2B,white,man,,,,null,,,,
null,are shouting at each other,,html-keyboard-response,142,820391,0.0-15.0-2.3,22502,List2B,white,man,,,,null,,,,
8122,,,survey-text,143,828513,0.0-15.0-3.3,22502,List2B,white,man,,,,,"{""Q0"":""dave and mike are shouting at each other""}","<img src=""stim_listB/shout6.gif""style=""height:400px;""></stim_listB>",are shouting at each other,
null,"<div style=""font-size:60px;"">+</div>",,html-keyboard-response,144,829015,0.0-15.0-0.4,22502,List2B,white,man,,,,null,,,,
null,"<img src=""stim_listB/kiss6.gif""style=""height:400px;""></stim_listB>",,html-keyboard-response,145,831016,0.0-15.0-1.4,22502,List2B,white,man,,,,null,,,,
null,are kissing each other,,html-keyboard-response,146,833017,0.0-15.0-2.4,22502,List2B,white,man,,,,null,,,,
7973,,,survey-text,147,840990,0.0-15.0-3.4,22502,List2B,white,man,,,,,"{""Q0"":""dave and mike are kissing each other""}","<img src=""stim_listB/kiss6.gif""style=""height:400px;""></stim_listB>",are kissing each other,
null,"<div style=""font-size:60px;"">+</div>",,html-keyboard-response,148,841492,0.0-15.0-0.5,22502,List2B,white,man,,,,null,,,,
null,"<img src=""stim_listB/touch6.gif""style=""height:400px;""></stim_listB>",,html-keyboard-response,149,843493,0.0-15.0-1.5,22502,List2B,white,man,,,,null,,,,
null,are touching each other,,html-keyboard-response,150,845495,0.0-15.0-2.5,22502,List2B,white,man,,,,null,,,,
7719,,,survey-text,151,853214,0.0-15.0-3.5,22502,List2B,white,man,,,,,"{""Q0"":""fred and luke are touching each other""}","<img src=""stim_listB/touch6.gif""style=""height:400px;""></stim_listB>",are touching each other,
null,"<div style=""font-size:60px;"">+</div>",,html-keyboard-response,152,853717,0.0-15.0-0.6,22502,List2B,white,man,,,,null,,,,
null,"<img src=""stim_listB/play6.gif""style=""height:400px;""></stim_listB>",,html-keyboard-response,153,855719,0.0-15.0-1.6,22502,List2B,white,man,,,,null,,,,
null,are playing with each other,,html-keyboard-response,154,857720,0.0-15.0-2.6,22502,List2B,white,man,,,,null,,,,
12766,,,survey-text,155,870486,0.0-15.0-3.6,22502,List2B,white,man,,,,,"{""Q0"":""fred and luke are playing with each other""}","<img src=""stim_listB/play6.gif""style=""height:400px;""></stim_listB>",are playing with each other,
null,"<div style=""font-size:60px;"">+</div>",,html-keyboard-response,156,870988,0.0-15.0-0.7,22502,List2B,white,man,,,,null,,,,
null,"<img src=""stim_listB/talk5.gif""style=""height:400px;""></stim_listB>",,html-keyboard-response,157,872990,0.0-15.0-1.7,22502,List2B,white,man,,,,null,,,,
null,is talking to,,html-keyboard-response,158,874992,0.0-15.0-2.7,22502,List2B,white,man,,,,null,,,,
5425,,,survey-text,159,880419,0.0-15.0-3.7,22502,List2B,white,man,,,,,"{""Q0"":""mike is talking to luke""}","<img src=""stim_listB/talk5.gif""style=""height:400px;""></stim_listB>",is talking to,
null,"<div style=""font-size:60px;"">+</div>",,html-keyboard-response,160,880922,0.0-15.0-0.8,22502,List2B,white,man,,,,null,,,,
null,"<img src=""stim_listB/argue2.gif""style=""height:400px;""></stim_listB>",,html-keyboard-response,161,882924,0.0-15.0-1.8,22502,List2B,white,man,,,,null,,,,
null,are arguing with each other,,html-keyboard-response,162,884926,0.0-15.0-2.8,22502,List2B,white,man,,,,null,,,,
9675,,,survey-text,163,894602,0.0-15.0-3.8,22502,List2B,white,man,,,,,"{""Q0"":""luke and jane are arguing with each other""}","<img src=""stim_listB/argue2.gif""style=""height:400px;""></stim_listB>",are arguing with each other,
null,"<div style=""font-size:60px;"">+</div>",,html-keyboard-response,164,895104,0.0-15.0-0.9,22502,List2B,white,man,,,,null,,,,
null,"<img src=""stim_listB/marry8.gif""style=""height:400px;""></stim_listB>",,html-keyboard-response,165,897105,0.0-15.0-1.9,22502,List2B,white,man,,,,null,,,,
null,are marrying each other,,html-keyboard-response,166,899107,0.0-15.0-2.9,22502,List2B,white,man,,,,null,,,,
8042,,,survey-text,167,907149,0.0-15.0-3.9,22502,List2B,white,man,,,,,"{""Q0"":""ruth and kate are marrying each other""}","<img src=""stim_listB/marry8.gif""style=""height:400px;""></stim_listB>",are marrying each other,
null,"<div style=""font-size:60px;"">+</div>",,html-keyboard-response,168,907651,0.0-15.0-0.10,22502,List2B,white,man,,,,null,,,,
null,"<img src=""stim_listB/kiss5.gif""style=""height:400px;""></stim_listB>",,html-keyboard-response,169,909652,0.0-15.0-1.10,22502,List2B,white,man,,,,null,,,,
null,is kissing,,html-keyboard-response,170,911654,0.0-15.0-2.10,22502,List2B,white,man,,,,null,,,,
9354,,,survey-text,171,921010,0.0-15.0-3.10,22502,List2B,white,man,,,,,"{""Q0"":""luke is kissing fred""}","<img src=""stim_listB/kiss5.gif""style=""height:400px;""></stim_listB>",is kissing,
null,"<div style=""font-size:60px;"">+</div>",,html-keyboard-response,172,921512,0.0-15.0-0.11,22502,List2B,white,man,,,,null,,,,
null,"<img src=""stim_listB/marry2.gif""style=""height:400px;""></stim_listB>",,html-keyboard-response,173,923515,0.0-15.0-1.11,22502,List2B,white,man,,,,null,,,,
null,are marrying each other,,html-keyboard-response,174,925516,0.0-15.0-2.11,22502,List2B,white,man,,,,null,,,,
11718,,,survey-text,175,937236,0.0-15.0-3.11,22502,List2B,white,man,,,,,"{""Q0"":""luke and jane are marrying each other""}","<img src=""stim_listB/marry2.gif""style=""height:400px;""></stim_listB>",are marrying each other,
null,"<div style=""font-size:60px;"">+</div>",,html-keyboard-response,176,937737,0.0-15.0-0.12,22502,List2B,white,man,,,,null,,,,
null,"<img src=""stim_listB/fight7.gif""style=""height:400px;""></stim_listB>",,html-keyboard-response,177,939739,0.0-15.0-1.12,22502,List2B,white,man,,,,null,,,,
null,is fighting,,html-keyboard-response,178,941741,0.0-15.0-2.12,22502,List2B,white,man,,,,null,,,,
6483,,,survey-text,179,948226,0.0-15.0-3.12,22502,List2B,white,man,,,,,"{""Q0"":""jane is fighting kate""}","<img src=""stim_listB/fight7.gif""style=""height:400px;""></stim_listB>",is fighting,
null,"<div style=""font-size:60px;"">+</div>",,html-keyboard-response,180,948728,0.0-15.0-0.13,22502,List2B,white,man,,,,null,,,,
null,"<img src=""stim_listB/flirt8.gif""style=""height:400px;""></stim_listB>",,html-keyboard-response,181,950729,0.0-15.0-1.13,22502,List2B,white,man,,,,null,,,,
null,are flirting with each other,,html-keyboard-response,182,952730,0.0-15.0-2.13,22502,List2B,white,man,,,,null,,,,
8723,,,survey-text,183,961454,0.0-15.0-3.13,22502,List2B,white,man,,,,,"{""Q0"":""ruth and jane are flirting with each other""}","<img src=""stim_listB/flirt8.gif""style=""height:400px;""></stim_listB>",are flirting with each other,
null,"<div style=""font-size:60px;"">+</div>",,html-keyboard-response,184,961955,0.0-15.0-0.14,22502,List2B,white,man,,,,null,,,,
null,"<img src=""stim_listB/talk3.gif""style=""height:400px;""></stim_listB>",,html-keyboard-response,185,963956,0.0-15.0-1.14,22502,List2B,white,man,,,,null,,,,
null,is talking to,,html-keyboard-response,186,965957,0.0-15.0-2.14,22502,List2B,white,man,,,,null,,,,
7063,,,survey-text,187,973021,0.0-15.0-3.14,22502,List2B,white,man,,,,,"{""Q0"":""kate is talking to fred""}","<img src=""stim_listB/talk3.gif""style=""height:400px;""></stim_listB>",is talking to,
null,"<div style=""font-size:60px;"">+</div>",,html-keyboard-response,188,973523,0.0-15.0-0.15,22502,List2B,white,man,,,,null,,,,
null,"<img src=""stim_listB/kiss3.gif""style=""height:400px;""></stim_listB>",,html-keyboard-response,189,975525,0.0-15.0-1.15,22502,List2B,white,man,,,,null,,,,
null,is kissing,,html-keyboard-response,190,977527,0.0-15.0-2.15,22502,List2B,white,man,,,,null,,,,
5032,,,survey-text,191,982560,0.0-15.0-3.15,22502,List2B,white,man,,,,,"{""Q0"":""ruth is kissing fred""}","<img src=""stim_listB/kiss3.gif""style=""height:400px;""></stim_listB>",is kissing,
null,"<div style=""font-size:60px;"">+</div>",,html-keyboard-response,192,983062,0.0-15.0-0.16,22502,List2B,white,man,,,,null,,,,
null,"<img src=""stim_listB/argue6.gif""style=""height:400px;""></stim_listB>",,html-keyboard-response,193,985064,0.0-15.0-1.16,22502,List2B,white,man,,,,null,,,,
null,are arguing with each other,,html-keyboard-response,194,987065,0.0-15.0-2.16,22502,List2B,white,man,,,,null,,,,
10685,,,survey-text,195,997752,0.0-15.0-3.16,22502,List2B,white,man,,,,,"{""Q0"":""luke and mike are arguing with each other""}","<img src=""stim_listB/argue6.gif""style=""height:400px;""></stim_listB>",are arguing with each other,
null,"<div style=""font-size:60px;"">+</div>",,html-keyboard-response,196,998254,0.0-15.0-0.17,22502,List2B,white,man,,,,null,,,,
null,"<img src=""stim_listB/kiss2.gif""style=""height:400px;""></stim_listB>",,html-keyboard-response,197,1000256,0.0-15.0-1.17,22502,List2B,white,man,,,,null,,,,
null,are kissing each other,,html-keyboard-response,198,1002257,0.0-15.0-2.17,22502,List2B,white,man,,,,null,,,,
6461,,,survey-text,199,1008719,0.0-15.0-3.17,22502,List2B,white,man,,,,,"{""Q0"":""dave and jane are kissing each other""}","<img src=""stim_listB/kiss2.gif""style=""height:400px;""></stim_listB>",are kissing each other,
null,"<div style=""font-size:60px;"">+</div>",,html-keyboard-response,200,1009221,0.0-15.0-0.18,22502,List2B,white,man,,,,null,,,,
null,"<img src=""stim_listB/talk8.gif""style=""height:400px;""></stim_listB>",,html-keyboard-response,201,1011223,0.0-15.0-1.18,22502,List2B,white,man,,,,null,,,,
null,are talking to each other,,html-keyboard-response,202,1013225,0.0-15.0-2.18,22502,List2B,white,man,,,,null,,,,
9402,,,survey-text,203,1022627,0.0-15.0-3.18,22502,List2B,white,man,,,,,"{""Q0"":""jane and beth are talking to each other""}","<img src=""stim_listB/talk8.gif""style=""height:400px;""></stim_listB>",are talking to each other,
null,"<div style=""font-size:60px;"">+</div>",,html-keyboard-response,204,1023128,0.0-15.0-0.19,22502,List2B,white,man,,,,null,,,,
null,"<img src=""stim_listB/kiss1.gif""style=""height:400px;""></stim_listB>",,html-keyboard-response,205,1025130,0.0-15.0-1.19,22502,List2B,white,man,,,,null,,,,
null,is kissing,,html-keyboard-response,206,1027131,0.0-15.0-2.19,22502,List2B,white,man,,,,null,,,,
7600,,,survey-text,207,1034733,0.0-15.0-3.19,22502,List2B,white,man,,,,,"{""Q0"":""ruth is kissing luke""}","<img src=""stim_listB/kiss1.gif""style=""height:400px;""></stim_listB>",is kissing,
3218,"<img src='img/portrait_matrix_list2.jpg' style='width:900px;height:500px;''></img><p>If you have memorised all the portraits and names and are ready to start, press Continue.</p><p><strong>Please note: Your memory of these faces will be tested 4 times during this experiment.</strong></p>",0,html-button-response,208,1037951,0.0-16.0-0.0,22502,List2B,white,man,,,,,,,,
2453,"<img src=""portrait/BW2.jpg""style=""height:400px;""></img>",2,html-button-response,209,1041406,0.0-16.0-1.0,22502,List2B,white,man,,TRUE,2,,,,,
null,CORRECT,,html-keyboard-response,210,1042908,0.0-16.0-2.0-0.0,22502,List2B,white,man,,,,null,,,,
1448,"<img src=""portrait/WW1.jpg""style=""height:400px;""></img>",1,html-button-response,211,1044357,0.0-16.0-4.0,22502,List2B,white,man,,TRUE,1,,,,,
null,CORRECT,,html-keyboard-response,212,1045860,0.0-16.0-5.0-0.0,22502,List2B,white,man,,,,null,,,,
1808,"<img src=""portrait/WM1.jpg""style=""height:400px;""></img>",6,html-button-response,213,1047669,0.0-16.0-7.0,22502,List2B,white,man,,TRUE,6,,,,,
null,CORRECT,,html-keyboard-response,214,1049171,0.0-16.0-8.0-0.0,22502,List2B,white,man,,,,null,,,,
1430,"<img src=""portrait/WW2.jpg""style=""height:400px;""></img>",3,html-button-response,215,1050601,0.0-16.0-10.0,22502,List2B,white,man,,TRUE,3,,,,,
null,CORRECT,,html-keyboard-response,216,1052104,0.0-16.0-11.0-0.0,22502,List2B,white,man,,,,null,,,,
1579,"<img src=""portrait/WM2.jpg""style=""height:400px;""></img>",7,html-button-response,217,1053684,0.0-16.0-13.0,22502,List2B,white,man,,TRUE,7,,,,,
null,CORRECT,,html-keyboard-response,218,1055187,0.0-16.0-14.0-0.0,22502,List2B,white,man,,,,null,,,,
2576,"<img src=""portrait/BW1.jpg""style=""height:400px;""></img>",0,html-button-response,219,1057764,0.0-16.0-16.0,22502,List2B,white,man,,TRUE,0,,,,,
null,CORRECT,,html-keyboard-response,220,1059267,0.0-16.0-17.0-0.0,22502,List2B,white,man,,,,null,,,,
1600,"<img src=""portrait/BM1.jpg""style=""height:400px;""></img>",4,html-button-response,221,1060868,0.0-16.0-19.0,22502,List2B,white,man,,TRUE,4,,,,,
null,CORRECT,,html-keyboard-response,222,1062372,0.0-16.0-20.0-0.0,22502,List2B,white,man,,,,null,,,,
1960,"<img src=""portrait/BM2.jpg""style=""height:400px;""></img>",5,html-button-response,223,1064334,0.0-16.0-22.0,22502,List2B,white,man,,TRUE,5,,,,,
null,CORRECT,,html-keyboard-response,224,1065836,0.0-16.0-23.0-0.0,22502,List2B,white,man,,,,null,,,,
1333,<p>You got 8 out of 8 right first time. Press Continue.</p>,0,html-button-response,225,1067170,0.0-16.0-25.0,22502,List2B,white,man,,,,,,,,
null,"<div style=""font-size:60px;"">+</div>",,html-keyboard-response,226,1068673,0.0-17.0-0.0,22502,List2B,white,man,,,,null,,,,
null,"<img src=""stim_listB/touch7.gif""style=""height:400px;""></stim_listB>",,html-keyboard-response,227,1070674,0.0-17.0-1.0,22502,List2B,white,man,,,,null,,,,
null,is touching,,html-keyboard-response,228,1072675,0.0-17.0-2.0,22502,List2B,white,man,,,,null,,,,
8617,,,survey-text,229,1081293,0.0-17.0-3.0,22502,List2B,white,man,,,,,"{""Q0"":""jane is touching kate""}","<img src=""stim_listB/touch7.gif""style=""height:400px;""></stim_listB>",is touching,
null,"<div style=""font-size:60px;"">+</div>",,html-keyboard-response,230,1081796,0.0-17.0-0.1,22502,List2B,white,man,,,,null,,,,
null,"<img src=""stim_listB/shout1.gif""style=""height:400px;""></stim_listB>",,html-keyboard-response,231,1083797,0.0-17.0-1.1,22502,List2B,white,man,,,,null,,,,
null,is shouting at,,html-keyboard-response,232,1085797,0.0-17.0-2.1,22502,List2B,white,man,,,,null,,,,
4814,,,survey-text,233,1090612,0.0-17.0-3.1,22502,List2B,white,man,,,,,"{""Q0"":""luke is shouting at beth""}","<img src=""stim_listB/shout1.gif""style=""height:400px;""></stim_listB>",is shouting at,
null,"<div style=""font-size:60px;"">+</div>",,html-keyboard-response,234,1091114,0.0-17.0-0.2,22502,List2B,white,man,,,,null,,,,
null,"<img src=""stim_listB/touch8.gif""style=""height:400px;""></stim_listB>",,html-keyboard-response,235,1093116,0.0-17.0-1.2,22502,List2B,white,man,,,,null,,,,
null,are touching each other,,html-keyboard-response,236,1095118,0.0-17.0-2.2,22502,List2B,white,man,,,,null,,,,
6591,,,survey-text,237,1101710,0.0-17.0-3.2,22502,List2B,white,man,,,,,"{""Q0"":""beth and ruth are touching each other""}","<img src=""stim_listB/touch8.gif""style=""height:400px;""></stim_listB>",are touching each other,
null,"<div style=""font-size:60px;"">+</div>",,html-keyboard-response,238,1102211,0.0-17.0-0.3,22502,List2B,white,man,,,,null,,,,
null,"<img src=""stim_listB/fight8.gif""style=""height:400px;""></stim_listB>",,html-keyboard-response,239,1104213,0.0-17.0-1.3,22502,List2B,white,man,,,,null,,,,
null,are fighting each other,,html-keyboard-response,240,1106216,0.0-17.0-2.3,22502,List2B,white,man,,,,null,,,,
8372,,,survey-text,241,1114588,0.0-17.0-3.3,22502,List2B,white,man,,,,,"{""Q0"":""beth and ruth are fighting each other""}","<img src=""stim_listB/fight8.gif""style=""height:400px;""></stim_listB>",are fighting each other,
null,"<div style=""font-size:60px;"">+</div>",,html-keyboard-response,242,1115089,0.0-17.0-0.4,22502,List2B,white,man,,,,null,,,,
null,"<img src=""stim_listB/fight1.gif""style=""height:400px;""></stim_listB>",,html-keyboard-response,243,1117090,0.0-17.0-1.4,22502,List2B,white,man,,,,null,,,,
null,is fighting,,html-keyboard-response,244,1119092,0.0-17.0-2.4,22502,List2B,white,man,,,,null,,,,
5009,,,survey-text,245,1124101,0.0-17.0-3.4,22502,List2B,white,man,,,,,"{""Q0"":""jane is fighting dave""}","<img src=""stim_listB/fight1.gif""style=""height:400px;""></stim_listB>",is fighting,
null,"<div style=""font-size:60px;"">+</div>",,html-keyboard-response,246,1124603,0.0-17.0-0.5,22502,List2B,white,man,,,,null,,,,
null,"<img src=""stim_listB/argue8.gif""style=""height:400px;""></stim_listB>",,html-keyboard-response,247,1126607,0.0-17.0-1.5,22502,List2B,white,man,,,,null,,,,
null,are arguing with each other,,html-keyboard-response,248,1128609,0.0-17.0-2.5,22502,List2B,white,man,,,,null,,,,
12945,,,survey-text,249,1141554,0.0-17.0-3.5,22502,List2B,white,man,,,,,"{""Q0"":""kate and jane are arguing with each other""}","<img src=""stim_listB/argue8.gif""style=""height:400px;""></stim_listB>",are arguing with each other,
null,"<div style=""font-size:60px;"">+</div>",,html-keyboard-response,250,1142055,0.0-17.0-0.6,22502,List2B,white,man,,,,null,,,,
null,"<img src=""stim_listB/argue5.gif""style=""height:400px;""></stim_listB>",,html-keyboard-response,251,1144057,0.0-17.0-1.6,22502,List2B,white,man,,,,null,,,,
null,is arguing with,,html-keyboard-response,252,1146058,0.0-17.0-2.6,22502,List2B,white,man,,,,null,,,,
8355,,,survey-text,253,1154414,0.0-17.0-3.6,22502,List2B,white,man,,,,,"{""Q0"":""dave is arguing with fred""}","<img src=""stim_listB/argue5.gif""style=""height:400px;""></stim_listB>",is arguing with,
null,"<div style=""font-size:60px;"">+</div>",,html-keyboard-response,254,1154915,0.0-17.0-0.7,22502,List2B,white,man,,,,null,,,,
null,"<img src=""stim_listB/play3.gif""style=""height:400px;""></stim_listB>",,html-keyboard-response,255,1156917,0.0-17.0-1.7,22502,List2B,white,man,,,,null,,,,
null,is playing with,,html-keyboard-response,256,1158918,0.0-17.0-2.7,22502,List2B,white,man,,,,null,,,,
6554,,,survey-text,257,1165473,0.0-17.0-3.7,22502,List2B,white,man,,,,,"{""Q0"":""mike is playing with kate""}","<img src=""stim_listB/play3.gif""style=""height:400px;""></stim_listB>",is playing with,
null,"<div style=""font-size:60px;"">+</div>",,html-keyboard-response,258,1165975,0.0-17.0-0.8,22502,List2B,white,man,,,,null,,,,
null,"<img src=""stim_listB/fight3.gif""style=""height:400px;""></stim_listB>",,html-keyboard-response,259,1167977,0.0-17.0-1.8,22502,List2B,white,man,,,,null,,,,
null,is fighting,,html-keyboard-response,260,1169977,0.0-17.0-2.8,22502,List2B,white,man,,,,null,,,,
4878,,,survey-text,261,1174857,0.0-17.0-3.8,22502,List2B,white,man,,,,,"{""Q0"":""mike is fighting kate""}","<img src=""stim_listB/fight3.gif""style=""height:400px;""></stim_listB>",is fighting,
null,"<div style=""font-size:60px;"">+</div>",,html-keyboard-response,262,1175358,0.0-17.0-0.9,22502,List2B,white,man,,,,null,,,,
null,"<img src=""stim_listB/kiss8.gif""style=""height:400px;""></stim_listB>",,html-keyboard-response,263,1177360,0.0-17.0-1.9,22502,List2B,white,man,,,,null,,,,
null,are kissing each other,,html-keyboard-response,264,1179361,0.0-17.0-2.9,22502,List2B,white,man,,,,null,,,,
5854,,,survey-text,265,1185216,0.0-17.0-3.9,22502,List2B,white,man,,,,,"{""Q0"":""kate and jane are kissing each other""}","<img src=""stim_listB/kiss8.gif""style=""height:400px;""></stim_listB>",are kissing each other,
null,"<div style=""font-size:60px;"">+</div>",,html-keyboard-response,266,1185718,0.0-17.0-0.10,22502,List2B,white,man,,,,null,,,,
null,"<img src=""stim_listB/dance2.gif""style=""height:400px;""></stim_listB>",,html-keyboard-response,267,1187719,0.0-17.0-1.10,22502,List2B,white,man,,,,null,,,,
null,are dancing with each other,,html-keyboard-response,268,1189720,0.0-17.0-2.10,22502,List2B,white,man,,,,null,,,,
8613,,,survey-text,269,1198335,0.0-17.0-3.10,22502,List2B,white,man,,,,,"{""Q0"":""dave and ruth are dancing with each other""}","<img src=""stim_listB/dance2.gif""style=""height:400px;""></stim_listB>",are dancing with each other,
null,"<div style=""font-size:60px;"">+</div>",,html-keyboard-response,270,1198837,0.0-17.0-0.11,22502,List2B,white,man,,,,null,,,,
null,"<img src=""stim_listB/talk7.gif""style=""height:400px;""></stim_listB>",,html-keyboard-response,271,1200838,0.0-17.0-1.11,22502,List2B,white,man,,,,null,,,,
null,is talking to,,html-keyboard-response,272,1202839,0.0-17.0-2.11,22502,List2B,white,man,,,,null,,,,
7136,,,survey-text,273,1209977,0.0-17.0-3.11,22502,List2B,white,man,,,,,"{""Q0"":""ruth is taking to kate""}","<img src=""stim_listB/talk7.gif""style=""height:400px;""></stim_listB>",is talking to,
null,"<div style=""font-size:60px;"">+</div>",,html-keyboard-response,274,1210478,0.0-17.0-0.12,22502,List2B,white,man,,,,null,,,,
null,"<img src=""stim_listB/talk2.gif""style=""height:400px;""></stim_listB>",,html-keyboard-response,275,1212480,0.0-17.0-1.12,22502,List2B,white,man,,,,null,,,,
null,are talking to each other,,html-keyboard-response,276,1214483,0.0-17.0-2.12,22502,List2B,white,man,,,,null,,,,
8501,,,survey-text,277,1222985,0.0-17.0-3.12,22502,List2B,white,man,,,,,"{""Q0"":""dave and ruth are talking to each other""}","<img src=""stim_listB/talk2.gif""style=""height:400px;""></stim_listB>",are talking to each other,
null,"<div style=""font-size:60px;"">+</div>",,html-keyboard-response,278,1223487,0.0-17.0-0.13,22502,List2B,white,man,,,,null,,,,
null,"<img src=""stim_listB/fight2.gif""style=""height:400px;""></stim_listB>",,html-keyboard-response,279,1225488,0.0-17.0-1.13,22502,List2B,white,man,,,,null,,,,
null,are fighting each other,,html-keyboard-response,280,1227490,0.0-17.0-2.13,22502,List2B,white,man,,,,null,,,,
10173,,,survey-text,281,1237665,0.0-17.0-3.13,22502,List2B,white,man,,,,,"{""Q0"":""luke and ruth are fighting each other""}","<img src=""stim_listB/fight2.gif""style=""height:400px;""></stim_listB>",are fighting each other,
null,"<div style=""font-size:60px;"">+</div>",,html-keyboard-response,282,1238166,0.0-17.0-0.14,22502,List2B,white,man,,,,null,,,,
null,"<img src=""stim_listB/marry6.gif""style=""height:400px;""></stim_listB>",,html-keyboard-response,283,1240168,0.0-17.0-1.14,22502,List2B,white,man,,,,null,,,,
null,are marrying each other,,html-keyboard-response,284,1242169,0.0-17.0-2.14,22502,List2B,white,man,,,,null,,,,
10318,,,survey-text,285,1252487,0.0-17.0-3.14,22502,List2B,white,man,,,,,"{""Q0"":""luke and fred are marrying each other""}","<img src=""stim_listB/marry6.gif""style=""height:400px;""></stim_listB>",are marrying each other,
null,"<div style=""font-size:60px;"">+</div>",,html-keyboard-response,286,1252988,0.0-17.0-0.15,22502,List2B,white,man,,,,null,,,,
null,"<img src=""stim_listB/play7.gif""style=""height:400px;""></stim_listB>",,html-keyboard-response,287,1254990,0.0-17.0-1.15,22502,List2B,white,man,,,,null,,,,
null,is playing with,,html-keyboard-response,288,1256991,0.0-17.0-2.15,22502,List2B,white,man,,,,null,,,,
6348,,,survey-text,289,1263340,0.0-17.0-3.15,22502,List2B,white,man,,,,,"{""Q0"":""kate is playing with jane""}","<img src=""stim_listB/play7.gif""style=""height:400px;""></stim_listB>",is playing with,
null,"<div style=""font-size:60px;"">+</div>",,html-keyboard-response,290,1263842,0.0-17.0-0.16,22502,List2B,white,man,,,,null,,,,
null,"<img src=""stim_listB/play2.gif""style=""height:400px;""></stim_listB>",,html-keyboard-response,291,1265844,0.0-17.0-1.16,22502,List2B,white,man,,,,null,,,,
null,are playing with each other,,html-keyboard-response,292,1267846,0.0-17.0-2.16,22502,List2B,white,man,,,,null,,,,
10423,,,survey-text,293,1278270,0.0-17.0-3.16,22502,List2B,white,man,,,,,"{""Q0"":""luke and ruth are playing with each other""}","<img src=""stim_listB/play2.gif""style=""height:400px;""></stim_listB>",are playing with each other,
null,"<div style=""font-size:60px;"">+</div>",,html-keyboard-response,294,1278771,0.0-17.0-0.17,22502,List2B,white,man,,,,null,,,,
null,"<img src=""stim_listB/shout4.gif""style=""height:400px;""></stim_listB>",,html-keyboard-response,295,1280772,0.0-17.0-1.17,22502,List2B,white,man,,,,null,,,,
null,are shouting at each other,,html-keyboard-response,296,1282773,0.0-17.0-2.17,22502,List2B,white,man,,,,null,,,,
11663,,,survey-text,297,1294438,0.0-17.0-3.17,22502,List2B,white,man,,,,,"{""Q0"":""mike and kate are shouting at each other""}","<img src=""stim_listB/shout4.gif""style=""height:400px;""></stim_listB>",are shouting at each other,
null,"<div style=""font-size:60px;"">+</div>",,html-keyboard-response,298,1294939,0.0-17.0-0.18,22502,List2B,white,man,,,,null,,,,
null,"<img src=""stim_listB/flirt3.gif""style=""height:400px;""></stim_listB>",,html-keyboard-response,299,1296940,0.0-17.0-1.18,22502,List2B,white,man,,,,null,,,,
null,is flirting with,,html-keyboard-response,300,1298941,0.0-17.0-2.18,22502,List2B,white,man,,,,null,,,,
6412,,,survey-text,301,1305355,0.0-17.0-3.18,22502,List2B,white,man,,,,,"{""Q0"":""fred is flirting with kate""}","<img src=""stim_listB/flirt3.gif""style=""height:400px;""></stim_listB>",is flirting with,
null,"<div style=""font-size:60px;"">+</div>",,html-keyboard-response,302,1305856,0.0-17.0-0.19,22502,List2B,white,man,,,,null,,,,
null,"<img src=""stim_listB/flirt5.gif""style=""height:400px;""></stim_listB>",,html-keyboard-response,303,1307858,0.0-17.0-1.19,22502,List2B,white,man,,,,null,,,,
null,is flirting with,,html-keyboard-response,304,1309860,0.0-17.0-2.19,22502,List2B,white,man,,,,null,,,,
7291,,,survey-text,305,1317151,0.0-17.0-3.19,22502,List2B,white,man,,,,,"{""Q0"":""mike is flirting with luke""}","<img src=""stim_listB/flirt5.gif""style=""height:400px;""></stim_listB>",is flirting with,
3082,"<img src='img/portrait_matrix_list2.jpg' style='width:900px;height:500px;''></img><p>If you have memorised all the portraits and names and are ready to start, press Continue.</p><p><strong>Please note: Your memory of these faces will be tested 4 times during this experiment.</strong></p>",0,html-button-response,306,1320234,0.0-18.0-0.0,22502,List2B,white,man,,,,,,,,
2852,"<img src=""portrait/BM1.jpg""style=""height:400px;""></img>",4,html-button-response,307,1324089,0.0-18.0-1.0,22502,List2B,white,man,,TRUE,4,,,,,
null,CORRECT,,html-keyboard-response,308,1325592,0.0-18.0-2.0-0.0,22502,List2B,white,man,,,,null,,,,
1784,"<img src=""portrait/BW2.jpg""style=""height:400px;""></img>",2,html-button-response,309,1327377,0.0-18.0-4.0,22502,List2B,white,man,,TRUE,2,,,,,
null,CORRECT,,html-keyboard-response,310,1328879,0.0-18.0-5.0-0.0,22502,List2B,white,man,,,,null,,,,
1565,"<img src=""portrait/WM1.jpg""style=""height:400px;""></img>",6,html-button-response,311,1330446,0.0-18.0-7.0,22502,List2B,white,man,,TRUE,6,,,,,
null,CORRECT,,html-keyboard-response,312,1331948,0.0-18.0-8.0-0.0,22502,List2B,white,man,,,,null,,,,
1777,"<img src=""portrait/WW2.jpg""style=""height:400px;""></img>",3,html-button-response,313,1333726,0.0-18.0-10.0,22502,List2B,white,man,,TRUE,3,,,,,
null,CORRECT,,html-keyboard-response,314,1335228,0.0-18.0-11.0-0.0,22502,List2B,white,man,,,,null,,,,
3470,"<img src=""portrait/WM2.jpg""style=""height:400px;""></img>",7,html-button-response,315,1338700,0.0-18.0-13.0,22502,List2B,white,man,,TRUE,7,,,,,
null,CORRECT,,html-keyboard-response,316,1340203,0.0-18.0-14.0-0.0,22502,List2B,white,man,,,,null,,,,
1992,"<img src=""portrait/WW1.jpg""style=""height:400px;""></img>",1,html-button-response,317,1342196,0.0-18.0-16.0,22502,List2B,white,man,,TRUE,1,,,,,
null,CORRECT,,html-keyboard-response,318,1343698,0.0-18.0-17.0-0.0,22502,List2B,white,man,,,,null,,,,
1757,"<img src=""portrait/BM2.jpg""style=""height:400px;""></img>",5,html-button-response,319,1345456,0.0-18.0-19.0,22502,List2B,white,man,,TRUE,5,,,,,
null,CORRECT,,html-keyboard-response,320,1346959,0.0-18.0-20.0-0.0,22502,List2B,white,man,,,,null,,,,
3271,"<img src=""portrait/BW1.jpg""style=""height:400px;""></img>",0,html-button-response,321,1350231,0.0-18.0-22.0,22502,List2B,white,man,,TRUE,0,,,,,
null,CORRECT,,html-keyboard-response,322,1351734,0.0-18.0-23.0-0.0,22502,List2B,white,man,,,,null,,,,
1422,<p>You got 8 out of 8 right first time. Press Continue.</p>,0,html-button-response,323,1353158,0.0-18.0-25.0,22502,List2B,white,man,,,,,,,,
null,"<div style=""font-size:60px;"">+</div>",,html-keyboard-response,324,1354661,0.0-19.0-0.0,22502,List2B,white,man,,,,null,,,,
null,"<img src=""stim_listB/play5.gif""style=""height:400px;""></stim_listB>",,html-keyboard-response,325,1356662,0.0-19.0-1.0,22502,List2B,white,man,,,,null,,,,
null,is playing with,,html-keyboard-response,326,1358664,0.0-19.0-2.0,22502,List2B,white,man,,,,null,,,,
8709,,,survey-text,327,1367374,0.0-19.0-3.0,22502,List2B,white,man,,,,,"{""Q0"":""mike is playing with dave""}","<img src=""stim_listB/play5.gif""style=""height:400px;""></stim_listB>",is playing with,
null,"<div style=""font-size:60px;"">+</div>",,html-keyboard-response,328,1367875,0.0-19.0-0.1,22502,List2B,white,man,,,,null,,,,
null,"<img src=""stim_listB/fight5.gif""style=""height:400px;""></stim_listB>",,html-keyboard-response,329,1369876,0.0-19.0-1.1,22502,List2B,white,man,,,,null,,,,
null,is fighting,,html-keyboard-response,330,1371878,0.0-19.0-2.1,22502,List2B,white,man,,,,null,,,,
5625,,,survey-text,331,1377504,0.0-19.0-3.1,22502,List2B,white,man,,,,,"{""Q0"":""mike is fighting dave""}","<img src=""stim_listB/fight5.gif""style=""height:400px;""></stim_listB>",is fighting,
null,"<div style=""font-size:60px;"">+</div>",,html-keyboard-response,332,1378006,0.0-19.0-0.2,22502,List2B,white,man,,,,null,,,,
null,"<img src=""stim_listB/flirt7.gif""style=""height:400px;""></stim_listB>",,html-keyboard-response,333,1380007,0.0-19.0-1.2,22502,List2B,white,man,,,,null,,,,
null,is flirting with,,html-keyboard-response,334,1382008,0.0-19.0-2.2,22502,List2B,white,man,,,,null,,,,
5226,,,survey-text,335,1387235,0.0-19.0-3.2,22502,List2B,white,man,,,,,"{""Q0"":""kate is flirting with ruth""}","<img src=""stim_listB/flirt7.gif""style=""height:400px;""></stim_listB>",is flirting with,
null,"<div style=""font-size:60px;"">+</div>",,html-keyboard-response,336,1387737,0.0-19.0-0.3,22502,List2B,white,man,,,,null,,,,
null,"<img src=""stim_listB/play4.gif""style=""height:400px;""></stim_listB>",,html-keyboard-response,337,1389739,0.0-19.0-1.3,22502,List2B,white,man,,,,null,,,,
null,are playing with each other,,html-keyboard-response,338,1391742,0.0-19.0-2.3,22502,List2B,white,man,,,,null,,,,
10463,,,survey-text,339,1402206,0.0-19.0-3.3,22502,List2B,white,man,,,,,"{""Q0"":""beth and fred are playing with each other""}","<img src=""stim_listB/play4.gif""style=""height:400px;""></stim_listB>",are playing with each other,
null,"<div style=""font-size:60px;"">+</div>",,html-keyboard-response,340,1402708,0.0-19.0-0.4,22502,List2B,white,man,,,,null,,,,
null,"<img src=""stim_listB/touch1.gif""style=""height:400px;""></stim_listB>",,html-keyboard-response,341,1404709,0.0-19.0-1.4,22502,List2B,white,man,,,,null,,,,
null,is touching,,html-keyboard-response,342,1406711,0.0-19.0-2.4,22502,List2B,white,man,,,,null,,,,
4290,,,survey-text,343,1411002,0.0-19.0-3.4,22502,List2B,white,man,,,,,"{""Q0"":""jane is touching dave""}","<img src=""stim_listB/touch1.gif""style=""height:400px;""></stim_listB>",is touching,
null,"<div style=""font-size:60px;"">+</div>",,html-keyboard-response,344,1411503,0.0-19.0-0.5,22502,List2B,white,man,,,,null,,,,
null,"<img src=""stim_listB/shout7.gif""style=""height:400px;""></stim_listB>",,html-keyboard-response,345,1413505,0.0-19.0-1.5,22502,List2B,white,man,,,,null,,,,
null,is shouting at,,html-keyboard-response,346,1415507,0.0-19.0-2.5,22502,List2B,white,man,,,,null,,,,
8017,,,survey-text,347,1423524,0.0-19.0-3.5,22502,List2B,white,man,,,,,"{""Q0"":""beth is shouting at ruth""}","<img src=""stim_listB/shout7.gif""style=""height:400px;""></stim_listB>",is shouting at,
null,"<div style=""font-size:60px;"">+</div>",,html-keyboard-response,348,1424026,0.0-19.0-0.6,22502,List2B,white,man,,,,null,,,,
null,"<img src=""stim_listB/touch5.gif""style=""height:400px;""></stim_listB>",,html-keyboard-response,349,1426027,0.0-19.0-1.6,22502,List2B,white,man,,,,null,,,,
null,is touching,,html-keyboard-response,350,1428028,0.0-19.0-2.6,22502,List2B,white,man,,,,null,,,,
8287,,,survey-text,351,1436316,0.0-19.0-3.6,22502,List2B,white,man,,,,,"{""Q0"":""mike is touching dave""}","<img src=""stim_listB/touch5.gif""style=""height:400px;""></stim_listB>",is touching,
null,"<div style=""font-size:60px;"">+</div>",,html-keyboard-response,352,1436818,0.0-19.0-0.7,22502,List2B,white,man,,,,null,,,,
null,"<img src=""stim_listB/play1.gif""style=""height:400px;""></stim_listB>",,html-keyboard-response,353,1438819,0.0-19.0-1.7,22502,List2B,white,man,,,,null,,,,
null,is playing with,,html-keyboard-response,354,1440821,0.0-19.0-2.7,22502,List2B,white,man,,,,null,,,,
5232,,,survey-text,355,1446053,0.0-19.0-3.7,22502,List2B,white,man,,,,,"{""Q0"":""jane is playing with dave""}","<img src=""stim_listB/play1.gif""style=""height:400px;""></stim_listB>",is playing with,
null,"<div style=""font-size:60px;"">+</div>",,html-keyboard-response,356,1446555,0.0-19.0-0.8,22502,List2B,white,man,,,,null,,,,
null,"<img src=""stim_listB/dance5.gif""style=""height:400px;""></stim_listB>",,html-keyboard-response,357,1448556,0.0-19.0-1.8,22502,List2B,white,man,,,,null,,,,
null,is dancing with,,html-keyboard-response,358,1450557,0.0-19.0-2.8,22502,List2B,white,man,,,,null,,,,
6140,,,survey-text,359,1456699,0.0-19.0-3.8,22502,List2B,white,man,,,,,"{""Q0"":""mike is dancing with luke""}","<img src=""stim_listB/dance5.gif""style=""height:400px;""></stim_listB>",is dancing with,
null,"<div style=""font-size:60px;"">+</div>",,html-keyboard-response,360,1457200,0.0-19.0-0.9,22502,List2B,white,man,,,,null,,,,
null,"<img src=""stim_listB/marry5.gif""style=""height:400px;""></stim_listB>",,html-keyboard-response,361,1459201,0.0-19.0-1.9,22502,List2B,white,man,,,,null,,,,
null,is marrying,,html-keyboard-response,362,1461203,0.0-19.0-2.9,22502,List2B,white,man,,,,null,,,,
4277,,,survey-text,363,1465480,0.0-19.0-3.9,22502,List2B,white,man,,,,,"{""Q0"":""fred is marrying dave""}","<img src=""stim_listB/marry5.gif""style=""height:400px;""></stim_listB>",is marrying,
null,"<div style=""font-size:60px;"">+</div>",,html-keyboard-response,364,1465982,0.0-19.0-0.10,22502,List2B,white,man,,,,null,,,,
null,"<img src=""stim_listB/dance1.gif""style=""height:400px;""></stim_listB>",,html-keyboard-response,365,1467983,0.0-19.0-1.10,22502,List2B,white,man,,,,null,,,,
null,is dancing with,,html-keyboard-response,366,1469984,0.0-19.0-2.10,22502,List2B,white,man,,,,null,,,,
7228,,,survey-text,367,1477212,0.0-19.0-3.10,22502,List2B,white,man,,,,,"{""Q0"":""jane is dancing with luke""}","<img src=""stim_listB/dance1.gif""style=""height:400px;""></stim_listB>",is dancing with,
null,"<div style=""font-size:60px;"">+</div>",,html-keyboard-response,368,1477714,0.0-19.0-0.11,22502,List2B,white,man,,,,null,,,,
null,"<img src=""stim_listB/marry4.gif""style=""height:400px;""></stim_listB>",,html-keyboard-response,369,1479715,0.0-19.0-1.11,22502,List2B,white,man,,,,null,,,,
null,are marrying each other,,html-keyboard-response,370,1481716,0.0-19.0-2.11,22502,List2B,white,man,,,,null,,,,
7816,,,survey-text,371,1489532,0.0-19.0-3.11,22502,List2B,white,man,,,,,"{""Q0"":""fred and kate are marrying each other""}","<img src=""stim_listB/marry4.gif""style=""height:400px;""></stim_listB>",are marrying each other,
null,"<div style=""font-size:60px;"">+</div>",,html-keyboard-response,372,1490033,0.0-19.0-0.12,22502,List2B,white,man,,,,null,,,,
null,"<img src=""stim_listB/dance8.gif""style=""height:400px;""></stim_listB>",,html-keyboard-response,373,1492035,0.0-19.0-1.12,22502,List2B,white,man,,,,null,,,,
null,are dancing with each other,,html-keyboard-response,374,1494036,0.0-19.0-2.12,22502,List2B,white,man,,,,null,,,,
7720,,,survey-text,375,1501757,0.0-19.0-3.12,22502,List2B,white,man,,,,,"{""Q0"":""jane and beth are dancing with each other""}","<img src=""stim_listB/dance8.gif""style=""height:400px;""></stim_listB>",are dancing with each other,
null,"<div style=""font-size:60px;"">+</div>",,html-keyboard-response,376,1502259,0.0-19.0-0.13,22502,List2B,white,man,,,,null,,,,
null,"<img src=""stim_listB/fight4.gif""style=""height:400px;""></stim_listB>",,html-keyboard-response,377,1504262,0.0-19.0-1.13,22502,List2B,white,man,,,,null,,,,
null,are fighting each other,,html-keyboard-response,378,1506263,0.0-19.0-2.13,22502,List2B,white,man,,,,null,,,,
10071,,,survey-text,379,1516335,0.0-19.0-3.13,22502,List2B,white,man,,,,,"{""Q0"":""beth and fred are fighting each other""}","<img src=""stim_listB/fight4.gif""style=""height:400px;""></stim_listB>",are fighting each other,
null,"<div style=""font-size:60px;"">+</div>",,html-keyboard-response,380,1516836,0.0-19.0-0.14,22502,List2B,white,man,,,,null,,,,
null,"<img src=""stim_listB/argue3.gif""style=""height:400px;""></stim_listB>",,html-keyboard-response,381,1518838,0.0-19.0-1.14,22502,List2B,white,man,,,,null,,,,
null,is arguing with,,html-keyboard-response,382,1520838,0.0-19.0-2.14,22502,List2B,white,man,,,,null,,,,
6017,,,survey-text,383,1526857,0.0-19.0-3.14,22502,List2B,white,man,,,,,"{""Q0"":""beth is arguing with mike""}","<img src=""stim_listB/argue3.gif""style=""height:400px;""></stim_listB>",is arguing with,
null,"<div style=""font-size:60px;"">+</div>",,html-keyboard-response,384,1527358,0.0-19.0-0.15,22502,List2B,white,man,,,,null,,,,
null,"<img src=""stim_listB/touch3.gif""style=""height:400px;""></stim_listB>",,html-keyboard-response,385,1529360,0.0-19.0-1.15,22502,List2B,white,man,,,,null,,,,
null,is touching,,html-keyboard-response,386,1531361,0.0-19.0-2.15,22502,List2B,white,man,,,,null,,,,
6416,,,survey-text,387,1537778,0.0-19.0-3.15,22502,List2B,white,man,,,,,"{""Q0"":""kate is touching mike""}","<img src=""stim_listB/touch3.gif""style=""height:400px;""></stim_listB>",is touching,
null,"<div style=""font-size:60px;"">+</div>",,html-keyboard-response,388,1538280,0.0-19.0-0.16,22502,List2B,white,man,,,,null,,,,
null,"<img src=""stim_listB/shout8.gif""style=""height:400px;""></stim_listB>",,html-keyboard-response,389,1540281,0.0-19.0-1.16,22502,List2B,white,man,,,,null,,,,
null,are shouting at each other,,html-keyboard-response,390,1542282,0.0-19.0-2.16,22502,List2B,white,man,,,,null,,,,
7895,,,survey-text,391,1550177,0.0-19.0-3.16,22502,List2B,white,man,,,,,"{""Q0"":""jane and kate are shouting at each other""}","<img src=""stim_listB/shout8.gif""style=""height:400px;""></stim_listB>",are shouting at each other,
null,"<div style=""font-size:60px;"">+</div>",,html-keyboard-response,392,1550679,0.0-19.0-0.17,22502,List2B,white,man,,,,null,,,,
null,"<img src=""stim_listB/marry1.gif""style=""height:400px;""></stim_listB>",,html-keyboard-response,393,1552681,0.0-19.0-1.17,22502,List2B,white,man,,,,null,,,,
null,is marrying,,html-keyboard-response,394,1554682,0.0-19.0-2.17,22502,List2B,white,man,,,,null,,,,
4717,,,survey-text,395,1559400,0.0-19.0-3.17,22502,List2B,white,man,,,,,"{""Q0"":""dave is marrying ruth""}","<img src=""stim_listB/marry1.gif""style=""height:400px;""></stim_listB>",is marrying,
null,"<div style=""font-size:60px;"">+</div>",,html-keyboard-response,396,1559901,0.0-19.0-0.18,22502,List2B,white,man,,,,null,,,,
null,"<img src=""stim_listB/flirt6.gif""style=""height:400px;""></stim_listB>",,html-keyboard-response,397,1561904,0.0-19.0-1.18,22502,List2B,white,man,,,,null,,,,
null,are flirting with each other,,html-keyboard-response,398,1563905,0.0-19.0-2.18,22502,List2B,white,man,,,,null,,,,
8145,,,survey-text,399,1572051,0.0-19.0-3.18,22502,List2B,white,man,,,,,"{""Q0"":""dave and fred are flirting with each other""}","<img src=""stim_listB/flirt6.gif""style=""height:400px;""></stim_listB>",are flirting with each other,
null,"<div style=""font-size:60px;"">+</div>",,html-keyboard-response,400,1572552,0.0-19.0-0.19,22502,List2B,white,man,,,,null,,,,
null,"<img src=""stim_listB/kiss4.gif""style=""height:400px;""></stim_listB>",,html-keyboard-response,401,1574554,0.0-19.0-1.19,22502,List2B,white,man,,,,null,,,,
null,are kissing each other,,html-keyboard-response,402,1576556,0.0-19.0-2.19,22502,List2B,white,man,,,,null,,,,
8032,,,survey-text,403,1584588,0.0-19.0-3.19,22502,List2B,white,man,,,,,"{""Q0"":""mike and kate are kissing each other""}","<img src=""stim_listB/kiss4.gif""style=""height:400px;""></stim_listB>",are kissing each other,
1851,<p>Thank you for completing that task.</p><p>The final part of this session is a short questionnaire.</p><p>Press Continue.</p>,0,html-button-response,404,1586440,0.0-20.0,22502,List2B,white,man,,,,,,,,
20418,,,survey-text,405,1607861,0.0-21.0,22502,List2B,white,man,,,,,"{""Q0"":""22"",""Q1"":""English"",""Q2"":""English"",""Q3"":""England"",""Q4"":""White British"",""Q5"":""Male""}",,,demographics
6150,,,survey-likert,406,1614014,0.0-22.0,22502,List2B,white,man,,,,,"{""Q0"":4}",,,likert_ESS
5854,,,survey-likert,407,1619869,0.0-23.0,22502,List2B,white,man,,,,,"{""Q0"":4}",,,likert_NSSAL_Q1
2863,,,survey-likert,408,1622733,0.0-24.0,22502,List2B,white,man,,,,,"{""Q0"":4}",,,likert_NSSAL_Q2
7305,,,survey-likert,409,1630040,0.0-25.0,22502,List2B,white,man,,,,,"{""Q0"":4}",,,likert_CGRS_Q1
3443,,,survey-likert,410,1633484,0.0-26.0,22502,List2B,white,man,,,,,"{""Q0"":4}",,,likert_CGRS_Q2
1894,,,survey-likert,411,1635379,0.0-27.0,22502,List2B,white,man,,,,,"{""Q0"":4}",,,likert_CGRS_Q3
7071,,,survey-text,412,1642452,0.0-28.0,22502,List2B,white,man,,,,,"{""Q0"":""ccc""}",,,worker_id
25202,,,external-html,413,1667746,0.0-29.0,22502,List2B,white,man,debrief.html,,,,,,,
