rt,stimulus,button_pressed,trial_type,trial_index,time_elapsed,internal_node_id,subject,list,ppt_race,ppt_gender,url,first_guess,correct,key_press,responses,image_type,phrase_type,test_part
2707,Welcome to the experiment. Press Continue to begin.,0,html-button-response,0,2713,0.0-0.0,22510,List2B,black,woman,,,,,,,,
52057,,,external-html,1,55991,0.0-1.0,22510,List2B,black,woman,consent.html,,,,,,,
15309,"<p>On the next page, you will see portraits of 8 people and their names.</p><p>Your first task is to take a few minutes to memorise the names of these people.</p><p>You will have to recall their names during the rest of the experiment, so it is</p><p>essential that you try to memorise these people and their names as best as you can.</p><br><p><strong>You will then be tested on your memory of these names and portraits.</strong></p><br><p>The experiment will start after you have completed this memory test.</p><br><p>Ready?</p>",0,html-button-response,2,71306,0.0-2.0,22510,List2B,black,woman,,,,,,,,
214385,"<img src='img/portrait_matrix_list2.jpg' style='width:900px;height:500px;''></img><p>If you have memorised all the portraits and names and are ready to start, press Continue.</p><p><strong>Please note: Your memory of these faces will be tested 4 times during this experiment.</strong></p>",0,html-button-response,3,286702,0.0-3.0-0.0,22510,List2B,black,woman,,,,,,,,
9912,"<img src=""portrait/WM1.jpg""style=""height:400px;""></img>",6,html-button-response,4,297622,0.0-3.0-1.0,22510,List2B,black,woman,,TRUE,6,,,,,
null,CORRECT,,html-keyboard-response,5,299137,0.0-3.0-2.0-0.0,22510,List2B,black,woman,,,,null,,,,
6579,"<img src=""portrait/WM2.jpg""style=""height:400px;""></img>",7,html-button-response,6,305718,0.0-3.0-4.0,22510,List2B,black,woman,,TRUE,7,,,,,
null,CORRECT,,html-keyboard-response,7,307224,0.0-3.0-5.0-0.0,22510,List2B,black,woman,,,,null,,,,
10540,"<img src=""portrait/WW1.jpg""style=""height:400px;""></img>",3,html-button-response,8,317767,0.0-3.0-7.0,22510,List2B,black,woman,,TRUE,1,,,,,
5348,"<img src=""portrait/WW1.jpg""style=""height:400px;""></img>",1,html-button-response,9,324121,0.0-3.0-9.0-0.0,22510,List2B,black,woman,,FALSE,1,,,,,
null,CORRECT,,html-keyboard-response,10,325633,0.0-3.0-9.0-1.0-0.0,22510,List2B,black,woman,,,,null,,,,
5549,"<img src=""portrait/BW2.jpg""style=""height:400px;""></img>",2,html-button-response,11,331184,0.0-3.0-10.0,22510,List2B,black,woman,,TRUE,2,,,,,
null,CORRECT,,html-keyboard-response,12,332697,0.0-3.0-11.0-0.0,22510,List2B,black,woman,,,,null,,,,
9540,"<img src=""portrait/BW1.jpg""style=""height:400px;""></img>",0,html-button-response,13,342241,0.0-3.0-13.0,22510,List2B,black,woman,,TRUE,0,,,,,
null,CORRECT,,html-keyboard-response,14,343750,0.0-3.0-14.0-0.0,22510,List2B,black,woman,,,,null,,,,
6345,"<img src=""portrait/BM2.jpg""style=""height:400px;""></img>",5,html-button-response,15,350097,0.0-3.0-16.0,22510,List2B,black,woman,,TRUE,5,,,,,
null,CORRECT,,html-keyboard-response,16,351605,0.0-3.0-17.0-0.0,22510,List2B,black,woman,,,,null,,,,
15446,"<img src=""portrait/BM1.jpg""style=""height:400px;""></img>",4,html-button-response,17,367053,0.0-3.0-19.0,22510,List2B,black,woman,,TRUE,4,,,,,
null,CORRECT,,html-keyboard-response,18,368568,0.0-3.0-20.0-0.0,22510,List2B,black,woman,,,,null,,,,
11082,"<img src=""portrait/WW2.jpg""style=""height:400px;""></img>",3,html-button-response,19,379653,0.0-3.0-22.0,22510,List2B,black,woman,,TRUE,3,,,,,
null,CORRECT,,html-keyboard-response,20,381163,0.0-3.0-23.0-0.0,22510,List2B,black,woman,,,,null,,,,
1752,<p>You got 7 out of 8 right first time. Press Continue.</p>,0,html-button-response,21,382918,0.0-3.0-25.0,22510,List2B,black,woman,,,,,,,,
3126,"As you did not score 100%, the memory game will repeat. Press Continue.",0,html-button-response,22,387049,0.0-3.0-26.0-0.0,22510,List2B,black,woman,,,,,,,,
46168,"<img src='img/portrait_matrix_list2.jpg' style='width:900px;height:500px;''></img><p>If you have memorised all the portraits and names and are ready to start, press Continue.</p><p><strong>Please note: Your memory of these faces will be tested 4 times during this experiment.</strong></p>",0,html-button-response,23,434233,0.0-3.1-0.1,22510,List2B,black,woman,,,,,,,,
8105,"<img src=""portrait/WM1.jpg""style=""height:400px;""></img>",6,html-button-response,24,443344,0.0-3.1-1.1,22510,List2B,black,woman,,TRUE,6,,,,,
null,CORRECT,,html-keyboard-response,25,444858,0.0-3.1-2.1-0.1,22510,List2B,black,woman,,,,null,,,,
15679,"<img src=""portrait/WM2.jpg""style=""height:400px;""></img>",7,html-button-response,26,460539,0.0-3.1-4.1,22510,List2B,black,woman,,TRUE,7,,,,,
null,CORRECT,,html-keyboard-response,27,462048,0.0-3.1-5.1-0.1,22510,List2B,black,woman,,,,null,,,,
7681,"<img src=""portrait/WW1.jpg""style=""height:400px;""></img>",1,html-button-response,28,469732,0.0-3.1-7.1,22510,List2B,black,woman,,TRUE,1,,,,,
null,CORRECT,,html-keyboard-response,29,471238,0.0-3.1-8.1-0.1,22510,List2B,black,woman,,,,null,,,,
4961,"<img src=""portrait/BW2.jpg""style=""height:400px;""></img>",0,html-button-response,30,476202,0.0-3.1-10.1,22510,List2B,black,woman,,TRUE,2,,,,,
2356,"<img src=""portrait/BW2.jpg""style=""height:400px;""></img>",2,html-button-response,31,479565,0.0-3.1-12.1-0.1,22510,List2B,black,woman,,FALSE,2,,,,,
null,CORRECT,,html-keyboard-response,32,481071,0.0-3.1-12.1-1.1-0.1,22510,List2B,black,woman,,,,null,,,,
1964,"<img src=""portrait/BW1.jpg""style=""height:400px;""></img>",0,html-button-response,33,483037,0.0-3.1-13.1,22510,List2B,black,woman,,TRUE,0,,,,,
null,CORRECT,,html-keyboard-response,34,484542,0.0-3.1-14.1-0.1,22510,List2B,black,woman,,,,null,,,,
13931,"<img src=""portrait/BM2.jpg""style=""height:400px;""></img>",4,html-button-response,35,498476,0.0-3.1-16.1,22510,List2B,black,woman,,TRUE,5,,,,,
2297,"<img src=""portrait/BM2.jpg""style=""height:400px;""></img>",5,html-button-response,36,501780,0.0-3.1-18.1-0.1,22510,List2B,black,woman,,FALSE,5,,,,,
null,CORRECT,,html-keyboard-response,37,503287,0.0-3.1-18.1-1.1-0.1,22510,List2B,black,woman,,,,null,,,,
6335,"<img src=""portrait/BM1.jpg""style=""height:400px;""></img>",4,html-button-response,38,509625,0.0-3.1-19.1,22510,List2B,black,woman,,TRUE,4,,,,,
null,CORRECT,,html-keyboard-response,39,511131,0.0-3.1-20.1-0.1,22510,List2B,black,woman,,,,null,,,,
1530,"<img src=""portrait/WW2.jpg""style=""height:400px;""></img>",3,html-button-response,40,512664,0.0-3.1-22.1,22510,List2B,black,woman,,TRUE,3,,,,,
null,CORRECT,,html-keyboard-response,41,514170,0.0-3.1-23.1-0.1,22510,List2B,black,woman,,,,null,,,,
1627,<p>You got 6 out of 8 right first time. Press Continue.</p>,0,html-button-response,42,515800,0.0-3.1-25.1,22510,List2B,black,woman,,,,,,,,
1540,"As you did not score 100%, the memory game will repeat. Press Continue.",0,html-button-response,43,518347,0.0-3.1-26.1-0.1,22510,List2B,black,woman,,,,,,,,
36330,"<img src='img/portrait_matrix_list2.jpg' style='width:900px;height:500px;''></img><p>If you have memorised all the portraits and names and are ready to start, press Continue.</p><p><strong>Please note: Your memory of these faces will be tested 4 times during this experiment.</strong></p>",0,html-button-response,44,555683,0.0-3.2-0.2,22510,List2B,black,woman,,,,,,,,
3318,"<img src=""portrait/WM1.jpg""style=""height:400px;""></img>",6,html-button-response,45,560010,0.0-3.2-1.2,22510,List2B,black,woman,,TRUE,6,,,,,
null,CORRECT,,html-keyboard-response,46,561516,0.0-3.2-2.2-0.2,22510,List2B,black,woman,,,,null,,,,
3565,"<img src=""portrait/WM2.jpg""style=""height:400px;""></img>",7,html-button-response,47,565084,0.0-3.2-4.2,22510,List2B,black,woman,,TRUE,7,,,,,
null,CORRECT,,html-keyboard-response,48,566594,0.0-3.2-5.2-0.2,22510,List2B,black,woman,,,,null,,,,
4120,"<img src=""portrait/WW1.jpg""style=""height:400px;""></img>",3,html-button-response,49,570718,0.0-3.2-7.2,22510,List2B,black,woman,,TRUE,1,,,,,
2417,"<img src=""portrait/WW1.jpg""style=""height:400px;""></img>",1,html-button-response,50,574144,0.0-3.2-9.2-0.2,22510,List2B,black,woman,,FALSE,1,,,,,
null,CORRECT,,html-keyboard-response,51,575656,0.0-3.2-9.2-1.2-0.2,22510,List2B,black,woman,,,,null,,,,
1982,"<img src=""portrait/BW2.jpg""style=""height:400px;""></img>",2,html-button-response,52,577647,0.0-3.2-10.2,22510,List2B,black,woman,,TRUE,2,,,,,
null,CORRECT,,html-keyboard-response,53,579155,0.0-3.2-11.2-0.2,22510,List2B,black,woman,,,,null,,,,
2046,"<img src=""portrait/BW1.jpg""style=""height:400px;""></img>",0,html-button-response,54,581210,0.0-3.2-13.2,22510,List2B,black,woman,,TRUE,0,,,,,
null,CORRECT,,html-keyboard-response,55,582720,0.0-3.2-14.2-0.2,22510,List2B,black,woman,,,,null,,,,
14694,"<img src=""portrait/BM2.jpg""style=""height:400px;""></img>",5,html-button-response,56,597416,0.0-3.2-16.2,22510,List2B,black,woman,,TRUE,5,,,,,
null,CORRECT,,html-keyboard-response,57,598925,0.0-3.2-17.2-0.2,22510,List2B,black,woman,,,,null,,,,
6158,"<img src=""portrait/BM1.jpg""style=""height:400px;""></img>",4,html-button-response,58,605088,0.0-3.2-19.2,22510,List2B,black,woman,,TRUE,4,,,,,
null,CORRECT,,html-keyboard-response,59,606605,0.0-3.2-20.2-0.2,22510,List2B,black,woman,,,,null,,,,
1983,"<img src=""portrait/WW2.jpg""style=""height:400px;""></img>",3,html-button-response,60,608594,0.0-3.2-22.2,22510,List2B,black,woman,,TRUE,3,,,,,
null,CORRECT,,html-keyboard-response,61,610104,0.0-3.2-23.2-0.2,22510,List2B,black,woman,,,,null,,,,
2177,<p>You got 7 out of 8 right first time. Press Continue.</p>,0,html-button-response,62,612288,0.0-3.2-25.2,22510,List2B,black,woman,,,,,,,,
1524,"As you did not score 100%, the memory game will repeat. Press Continue.",0,html-button-response,63,614821,0.0-3.2-26.2-0.2,22510,List2B,black,woman,,,,,,,,
24365,"<img src='img/portrait_matrix_list2.jpg' style='width:900px;height:500px;''></img><p>If you have memorised all the portraits and names and are ready to start, press Continue.</p><p><strong>Please note: Your memory of these faces will be tested 4 times during this experiment.</strong></p>",0,html-button-response,64,640195,0.0-3.3-0.3,22510,List2B,black,woman,,,,,,,,
7086,"<img src=""portrait/WM1.jpg""style=""height:400px;""></img>",6,html-button-response,65,648289,0.0-3.3-1.3,22510,List2B,black,woman,,TRUE,6,,,,,
null,CORRECT,,html-keyboard-response,66,649797,0.0-3.3-2.3-0.3,22510,List2B,black,woman,,,,null,,,,
4713,"<img src=""portrait/WM2.jpg""style=""height:400px;""></img>",7,html-button-response,67,654514,0.0-3.3-4.3,22510,List2B,black,woman,,TRUE,7,,,,,
null,CORRECT,,html-keyboard-response,68,656020,0.0-3.3-5.3-0.3,22510,List2B,black,woman,,,,null,,,,
7007,"<img src=""portrait/WW1.jpg""style=""height:400px;""></img>",1,html-button-response,69,663029,0.0-3.3-7.3,22510,List2B,black,woman,,TRUE,1,,,,,
null,CORRECT,,html-keyboard-response,70,664534,0.0-3.3-8.3-0.3,22510,List2B,black,woman,,,,null,,,,
2101,"<img src=""portrait/BW2.jpg""style=""height:400px;""></img>",2,html-button-response,71,666637,0.0-3.3-10.3,22510,List2B,black,woman,,TRUE,2,,,,,
null,CORRECT,,html-keyboard-response,72,668145,0.0-3.3-11.3-0.3,22510,List2B,black,woman,,,,null,,,,
1863,"<img src=""portrait/BW1.jpg""style=""height:400px;""></img>",0,html-button-response,73,670010,0.0-3.3-13.3,22510,List2B,black,woman,,TRUE,0,,,,,
null,CORRECT,,html-keyboard-response,74,671518,0.0-3.3-14.3-0.3,22510,List2B,black,woman,,,,null,,,,
4143,"<img src=""portrait/BM2.jpg""style=""height:400px;""></img>",5,html-button-response,75,675663,0.0-3.3-16.3,22510,List2B,black,woman,,TRUE,5,,,,,
null,CORRECT,,html-keyboard-response,76,677169,0.0-3.3-17.3-0.3,22510,List2B,black,woman,,,,null,,,,
2357,"<img src=""portrait/BM1.jpg""style=""height:400px;""></img>",4,html-button-response,77,679528,0.0-3.3-19.3,22510,List2B,black,woman,,TRUE,4,,,,,
null,CORRECT,,html-keyboard-response,78,681037,0.0-3.3-20.3-0.3,22510,List2B,black,woman,,,,null,,,,
7346,"<img src=""portrait/WW2.jpg""style=""height:400px;""></img>",3,html-button-response,79,688389,0.0-3.3-22.3,22510,List2B,black,woman,,TRUE,3,,,,,
null,CORRECT,,html-keyboard-response,80,689895,0.0-3.3-23.3-0.3,22510,List2B,black,woman,,,,null,,,,
1281,<p>You got 8 out of 8 right first time. Press Continue.</p>,0,html-button-response,81,691180,0.0-3.3-25.3,22510,List2B,black,woman,,,,,,,,
11559,"<p>In this experiment, you will view photographs of the people from the memory game interacting.</p><p>By using the <strong>exact</strong> phrase given <i>after</i> the photograph appears and recalling the correct names of the people in the photographs, form a sentence describing the interaction. You do not need to capitalise names.</p><p>Type your answer in the space provided. Please complete every sentence before moving onto the next trial.</p><p>You will only have a few seconds to memorise each given photograph and phrase before you can respond, so try your best to focus.</p><p>An example is given below. Press 'Continue' when you are ready.</p><img src='img/speaking_example.jpg' style='width:800px;height:460px;''></img>",0,html-button-response,82,703749,0.0-4.0,22510,List2B,black,woman,,,,,,,,
2399,"<p>Before the experiment starts, you will watch two example trials. Press 'Continue'.</p>",0,html-button-response,83,707152,0.0-5.0,22510,List2B,black,woman,,,,,,,,
null,<img src='img/meet_eg.gif' style='height:400px;''></img>,,html-keyboard-response,84,710162,0.0-6.0,22510,List2B,black,woman,,,,null,,,,
null,<p>is meeting</p>,,html-keyboard-response,85,712170,0.0-7.0,22510,List2B,black,woman,,,,null,,,,
4046,<p><b>Answer:</b> jane is meeting ruth</p>,0,html-button-response,86,716218,0.0-8.0,22510,List2B,black,woman,,,,,,,,
null,<img src='img/look_eg.gif' style='height:400px;''></img>,,html-keyboard-response,87,719226,0.0-9.0,22510,List2B,black,woman,,,,null,,,,
null,<p>are looking at each other</p>,,html-keyboard-response,88,721228,0.0-10.0,22510,List2B,black,woman,,,,null,,,,
3928,<p><b>Answer:</b> fred and mike are looking at each other</p>,0,html-button-response,89,725158,0.0-11.0,22510,List2B,black,woman,,,,,,,,
7744,"<p>Ready to start the experiment?</p><br><p><strong>Remember to describe the picture using a full sentence,</strong></p><p><strong>that combines the names of the people with the <i>exact</i> phrase given.</strong></p><p><strong>To receive full payment you must do this correctly.</strong></p><p><strong> You do not need to capitalise names or use punctuation.</strong></p><br><p>Press 'Continue' to begin.</p>",0,html-button-response,90,733913,0.0-12.0,22510,List2B,black,woman,,,,,,,,
null,"<div style=""font-size:60px;"">+</div>",,html-keyboard-response,91,735420,0.0-13.0-0.0,22510,List2B,black,woman,,,,null,,,,
null,"<img src=""stim_listB/argue1.gif""style=""height:400px;""></stim_listB>",,html-keyboard-response,92,737426,0.0-13.0-1.0,22510,List2B,black,woman,,,,null,,,,
null,is arguing with,,html-keyboard-response,93,739429,0.0-13.0-2.0,22510,List2B,black,woman,,,,null,,,,
20831,,,survey-text,94,760263,0.0-13.0-3.0,22510,List2B,black,woman,,,,,"{""Q0"":""Dave is arguing with Ruth""}","<img src=""stim_listB/argue1.gif""style=""height:400px;""></stim_listB>",is arguing with,
null,"<div style=""font-size:60px;"">+</div>",,html-keyboard-response,95,760770,0.0-13.0-0.1,22510,List2B,black,woman,,,,null,,,,
null,"<img src=""stim_listB/touch2.gif""style=""height:400px;""></stim_listB>",,html-keyboard-response,96,762777,0.0-13.0-1.1,22510,List2B,black,woman,,,,null,,,,
null,are touching each other,,html-keyboard-response,97,764784,0.0-13.0-2.1,22510,List2B,black,woman,,,,null,,,,
12085,,,survey-text,98,776871,0.0-13.0-3.1,22510,List2B,black,woman,,,,,"{""Q0"":""Ruth and Luke are touching each other""}","<img src=""stim_listB/touch2.gif""style=""height:400px;""></stim_listB>",are touching each other,
null,"<div style=""font-size:60px;"">+</div>",,html-keyboard-response,99,777373,0.0-13.0-0.2,22510,List2B,black,woman,,,,null,,,,
null,"<img src=""stim_listB/play4.gif""style=""height:400px;""></stim_listB>",,html-keyboard-response,100,779378,0.0-13.0-1.2,22510,List2B,black,woman,,,,null,,,,
null,are playing with each other,,html-keyboard-response,101,781381,0.0-13.0-2.2,22510,List2B,black,woman,,,,null,,,,
22864,,,survey-text,102,804246,0.0-13.0-3.2,22510,List2B,black,woman,,,,,"{""Q0"":""Beth and Fred are looking at each other""}","<img src=""stim_listB/play4.gif""style=""height:400px;""></stim_listB>",are playing with each other,
null,"<div style=""font-size:60px;"">+</div>",,html-keyboard-response,103,804752,0.0-13.0-0.3,22510,List2B,black,woman,,,,null,,,,
null,"<img src=""stim_listB/shout7.gif""style=""height:400px;""></stim_listB>",,html-keyboard-response,104,806758,0.0-13.0-1.3,22510,List2B,black,woman,,,,null,,,,
null,is shouting at,,html-keyboard-response,105,808764,0.0-13.0-2.3,22510,List2B,black,woman,,,,null,,,,
27989,,,survey-text,106,836757,0.0-13.0-3.3,22510,List2B,black,woman,,,,,"{""Q0"":""Beth and Ruth are shouting at each other""}","<img src=""stim_listB/shout7.gif""style=""height:400px;""></stim_listB>",is shouting at,
null,"<div style=""font-size:60px;"">+</div>",,html-keyboard-response,107,837262,0.0-13.0-0.4,22510,List2B,black,woman,,,,null,,,,
null,"<img src=""stim_listB/fight4.gif""style=""height:400px;""></stim_listB>",,html-keyboard-response,108,839265,0.0-13.0-1.4,22510,List2B,black,woman,,,,null,,,,
null,are fighting each other,,html-keyboard-response,109,841270,0.0-13.0-2.4,22510,List2B,black,woman,,,,null,,,,
16117,,,survey-text,110,857389,0.0-13.0-3.4,22510,List2B,black,woman,,,,,"{""Q0"":""Fred and Beth are fighting with each other""}","<img src=""stim_listB/fight4.gif""style=""height:400px;""></stim_listB>",are fighting each other,
null,"<div style=""font-size:60px;"">+</div>",,html-keyboard-response,111,857900,0.0-13.0-0.5,22510,List2B,black,woman,,,,null,,,,
null,"<img src=""stim_listB/play6.gif""style=""height:400px;""></stim_listB>",,html-keyboard-response,112,859907,0.0-13.0-1.5,22510,List2B,black,woman,,,,null,,,,
null,are playing with each other,,html-keyboard-response,113,861911,0.0-13.0-2.5,22510,List2B,black,woman,,,,null,,,,
13967,,,survey-text,114,875880,0.0-13.0-3.5,22510,List2B,black,woman,,,,,"{""Q0"":""Luke and Fred are playing with each other""}","<img src=""stim_listB/play6.gif""style=""height:400px;""></stim_listB>",are playing with each other,
null,"<div style=""font-size:60px;"">+</div>",,html-keyboard-response,115,876387,0.0-13.0-0.6,22510,List2B,black,woman,,,,null,,,,
null,"<img src=""stim_listB/play3.gif""style=""height:400px;""></stim_listB>",,html-keyboard-response,116,878393,0.0-13.0-1.6,22510,List2B,black,woman,,,,null,,,,
null,is playing with,,html-keyboard-response,117,880397,0.0-13.0-2.6,22510,List2B,black,woman,,,,null,,,,
14808,,,survey-text,118,895207,0.0-13.0-3.6,22510,List2B,black,woman,,,,,"{""Q0"":""Mike and Kate are playing with each other""}","<img src=""stim_listB/play3.gif""style=""height:400px;""></stim_listB>",is playing with,
null,"<div style=""font-size:60px;"">+</div>",,html-keyboard-response,119,895711,0.0-13.0-0.7,22510,List2B,black,woman,,,,null,,,,
null,"<img src=""stim_listB/argue4.gif""style=""height:400px;""></stim_listB>",,html-keyboard-response,120,897718,0.0-13.0-1.7,22510,List2B,black,woman,,,,null,,,,
null,are arguing with each other,,html-keyboard-response,121,899724,0.0-13.0-2.7,22510,List2B,black,woman,,,,null,,,,
10688,,,survey-text,122,910414,0.0-13.0-3.7,22510,List2B,black,woman,,,,,"{""Q0"":""Kate and Fred are arguing with each other""}","<img src=""stim_listB/argue4.gif""style=""height:400px;""></stim_listB>",are arguing with each other,
null,"<div style=""font-size:60px;"">+</div>",,html-keyboard-response,123,910918,0.0-13.0-0.8,22510,List2B,black,woman,,,,null,,,,
null,"<img src=""stim_listB/talk5.gif""style=""height:400px;""></stim_listB>",,html-keyboard-response,124,912921,0.0-13.0-1.8,22510,List2B,black,woman,,,,null,,,,
null,is talking to,,html-keyboard-response,125,914928,0.0-13.0-2.8,22510,List2B,black,woman,,,,null,,,,
18232,,,survey-text,126,933162,0.0-13.0-3.8,22510,List2B,black,woman,,,,,"{""Q0"":""Luke is talking to Mike""}","<img src=""stim_listB/talk5.gif""style=""height:400px;""></stim_listB>",is talking to,
null,"<div style=""font-size:60px;"">+</div>",,html-keyboard-response,127,933667,0.0-13.0-0.9,22510,List2B,black,woman,,,,null,,,,
null,"<img src=""stim_listB/touch5.gif""style=""height:400px;""></stim_listB>",,html-keyboard-response,128,935673,0.0-13.0-1.9,22510,List2B,black,woman,,,,null,,,,
null,is touching,,html-keyboard-response,129,937676,0.0-13.0-2.9,22510,List2B,black,woman,,,,null,,,,
15377,,,survey-text,130,953055,0.0-13.0-3.9,22510,List2B,black,woman,,,,,"{""Q0"":""Mike is touching Dave""}","<img src=""stim_listB/touch5.gif""style=""height:400px;""></stim_listB>",is touching,
null,"<div style=""font-size:60px;"">+</div>",,html-keyboard-response,131,953561,0.0-13.0-0.10,22510,List2B,black,woman,,,,null,,,,
null,"<img src=""stim_listB/fight2.gif""style=""height:400px;""></stim_listB>",,html-keyboard-response,132,955565,0.0-13.0-1.10,22510,List2B,black,woman,,,,null,,,,
null,are fighting each other,,html-keyboard-response,133,957572,0.0-13.0-2.10,22510,List2B,black,woman,,,,null,,,,
16064,,,survey-text,134,973638,0.0-13.0-3.10,22510,List2B,black,woman,,,,,"{""Q0"":""Luke and Ruth are fighting each other""}","<img src=""stim_listB/fight2.gif""style=""height:400px;""></stim_listB>",are fighting each other,
null,"<div style=""font-size:60px;"">+</div>",,html-keyboard-response,135,974141,0.0-13.0-0.11,22510,List2B,black,woman,,,,null,,,,
null,"<img src=""stim_listB/shout5.gif""style=""height:400px;""></stim_listB>",,html-keyboard-response,136,976147,0.0-13.0-1.11,22510,List2B,black,woman,,,,null,,,,
null,is shouting at,,html-keyboard-response,137,978151,0.0-13.0-2.11,22510,List2B,black,woman,,,,null,,,,
17348,,,survey-text,138,995502,0.0-13.0-3.11,22510,List2B,black,woman,,,,,"{""Q0"":""Luke is shouting at Fred""}","<img src=""stim_listB/shout5.gif""style=""height:400px;""></stim_listB>",is shouting at,
null,"<div style=""font-size:60px;"">+</div>",,html-keyboard-response,139,996008,0.0-13.0-0.12,22510,List2B,black,woman,,,,null,,,,
null,"<img src=""stim_listB/marry1.gif""style=""height:400px;""></stim_listB>",,html-keyboard-response,140,998011,0.0-13.0-1.12,22510,List2B,black,woman,,,,null,,,,
null,is marrying,,html-keyboard-response,141,1000015,0.0-13.0-2.12,22510,List2B,black,woman,,,,null,,,,
24121,,,survey-text,142,1024138,0.0-13.0-3.12,22510,List2B,black,woman,,,,,"{""Q0"":""Ruth is marrying Dave""}","<img src=""stim_listB/marry1.gif""style=""height:400px;""></stim_listB>",is marrying,
null,"<div style=""font-size:60px;"">+</div>",,html-keyboard-response,143,1024643,0.0-13.0-0.13,22510,List2B,black,woman,,,,null,,,,
null,"<img src=""stim_listB/flirt6.gif""style=""height:400px;""></stim_listB>",,html-keyboard-response,144,1026647,0.0-13.0-1.13,22510,List2B,black,woman,,,,null,,,,
null,are flirting with each other,,html-keyboard-response,145,1028651,0.0-13.0-2.13,22510,List2B,black,woman,,,,null,,,,
12786,,,survey-text,146,1041440,0.0-13.0-3.13,22510,List2B,black,woman,,,,,"{""Q0"":""Fred and Dave are flirting with each other""}","<img src=""stim_listB/flirt6.gif""style=""height:400px;""></stim_listB>",are flirting with each other,
null,"<div style=""font-size:60px;"">+</div>",,html-keyboard-response,147,1041945,0.0-13.0-0.14,22510,List2B,black,woman,,,,null,,,,
null,"<img src=""stim_listB/marry3.gif""style=""height:400px;""></stim_listB>",,html-keyboard-response,148,1043951,0.0-13.0-1.14,22510,List2B,black,woman,,,,null,,,,
null,is marrying,,html-keyboard-response,149,1045965,0.0-13.0-2.14,22510,List2B,black,woman,,,,null,,,,
11581,,,survey-text,150,1057548,0.0-13.0-3.14,22510,List2B,black,woman,,,,,"{""Q0"":""Mike is marrying Beth""}","<img src=""stim_listB/marry3.gif""style=""height:400px;""></stim_listB>",is marrying,
null,"<div style=""font-size:60px;"">+</div>",,html-keyboard-response,151,1058051,0.0-13.0-0.15,22510,List2B,black,woman,,,,null,,,,
null,"<img src=""stim_listB/flirt8.gif""style=""height:400px;""></stim_listB>",,html-keyboard-response,152,1060054,0.0-13.0-1.15,22510,List2B,black,woman,,,,null,,,,
null,are flirting with each other,,html-keyboard-response,153,1062056,0.0-13.0-2.15,22510,List2B,black,woman,,,,null,,,,
14642,,,survey-text,154,1076702,0.0-13.0-3.15,22510,List2B,black,woman,,,,,"{""Q0"":""Beth and Jane are flirting with each other""}","<img src=""stim_listB/flirt8.gif""style=""height:400px;""></stim_listB>",are flirting with each other,
null,"<div style=""font-size:60px;"">+</div>",,html-keyboard-response,155,1077212,0.0-13.0-0.16,22510,List2B,black,woman,,,,null,,,,
null,"<img src=""stim_listB/marry7.gif""style=""height:400px;""></stim_listB>",,html-keyboard-response,156,1079219,0.0-13.0-1.16,22510,List2B,black,woman,,,,null,,,,
null,is marrying,,html-keyboard-response,157,1081222,0.0-13.0-2.16,22510,List2B,black,woman,,,,null,,,,
40598,,,survey-text,158,1121824,0.0-13.0-3.16,22510,List2B,black,woman,,,,,"{""Q0"":""Beth is marrying Jane ""}","<img src=""stim_listB/marry7.gif""style=""height:400px;""></stim_listB>",is marrying,
null,"<div style=""font-size:60px;"">+</div>",,html-keyboard-response,159,1122329,0.0-13.0-0.17,22510,List2B,black,woman,,,,null,,,,
null,"<img src=""stim_listB/talk3.gif""style=""height:400px;""></stim_listB>",,html-keyboard-response,160,1124333,0.0-13.0-1.17,22510,List2B,black,woman,,,,null,,,,
null,is talking to,,html-keyboard-response,161,1126340,0.0-13.0-2.17,22510,List2B,black,woman,,,,null,,,,
7319,,,survey-text,162,1133662,0.0-13.0-3.17,22510,List2B,black,woman,,,,,"{""Q0"":""Kate is talking to Fred""}","<img src=""stim_listB/talk3.gif""style=""height:400px;""></stim_listB>",is talking to,
null,"<div style=""font-size:60px;"">+</div>",,html-keyboard-response,163,1134169,0.0-13.0-0.18,22510,List2B,black,woman,,,,null,,,,
null,"<img src=""stim_listB/dance8.gif""style=""height:400px;""></stim_listB>",,html-keyboard-response,164,1136176,0.0-13.0-1.18,22510,List2B,black,woman,,,,null,,,,
null,are dancing with each other,,html-keyboard-response,165,1138188,0.0-13.0-2.18,22510,List2B,black,woman,,,,null,,,,
31795,,,survey-text,166,1169985,0.0-13.0-3.18,22510,List2B,black,woman,,,,,"{""Q0"":""Jane and Beth are dancing with each other""}","<img src=""stim_listB/dance8.gif""style=""height:400px;""></stim_listB>",are dancing with each other,
null,"<div style=""font-size:60px;"">+</div>",,html-keyboard-response,167,1170488,0.0-13.0-0.19,22510,List2B,black,woman,,,,null,,,,
null,"<img src=""stim_listB/talk8.gif""style=""height:400px;""></stim_listB>",,html-keyboard-response,168,1172494,0.0-13.0-1.19,22510,List2B,black,woman,,,,null,,,,
null,are talking to each other,,html-keyboard-response,169,1174497,0.0-13.0-2.19,22510,List2B,black,woman,,,,null,,,,
19646,,,survey-text,170,1194145,0.0-13.0-3.19,22510,List2B,black,woman,,,,,"{""Q0"":""Jane and Beth are talking to each other""}","<img src=""stim_listB/talk8.gif""style=""height:400px;""></stim_listB>",are talking to each other,
4584,"<img src='img/portrait_matrix_list2.jpg' style='width:900px;height:500px;''></img><p>If you have memorised all the portraits and names and are ready to start, press Continue.</p><p><strong>Please note: Your memory of these faces will be tested 4 times during this experiment.</strong></p>",0,html-button-response,171,1198732,0.0-14.0-0.0,22510,List2B,black,woman,,,,,,,,
5987,"<img src=""portrait/BW1.jpg""style=""height:400px;""></img>",0,html-button-response,172,1205725,0.0-14.0-1.0,22510,List2B,black,woman,,TRUE,0,,,,,
null,CORRECT,,html-keyboard-response,173,1207235,0.0-14.0-2.0-0.0,22510,List2B,black,woman,,,,null,,,,
1920,"<img src=""portrait/BM1.jpg""style=""height:400px;""></img>",4,html-button-response,174,1209158,0.0-14.0-4.0,22510,List2B,black,woman,,TRUE,4,,,,,
null,CORRECT,,html-keyboard-response,175,1210668,0.0-14.0-5.0-0.0,22510,List2B,black,woman,,,,null,,,,
2217,"<img src=""portrait/BM2.jpg""style=""height:400px;""></img>",5,html-button-response,176,1212887,0.0-14.0-7.0,22510,List2B,black,woman,,TRUE,5,,,,,
null,CORRECT,,html-keyboard-response,177,1214412,0.0-14.0-8.0-0.0,22510,List2B,black,woman,,,,null,,,,
10534,"<img src=""portrait/WM2.jpg""style=""height:400px;""></img>",7,html-button-response,178,1224951,0.0-14.0-10.0,22510,List2B,black,woman,,TRUE,7,,,,,
null,CORRECT,,html-keyboard-response,179,1226457,0.0-14.0-11.0-0.0,22510,List2B,black,woman,,,,null,,,,
2700,"<img src=""portrait/WM1.jpg""style=""height:400px;""></img>",6,html-button-response,180,1229160,0.0-14.0-13.0,22510,List2B,black,woman,,TRUE,6,,,,,
null,CORRECT,,html-keyboard-response,181,1230667,0.0-14.0-14.0-0.0,22510,List2B,black,woman,,,,null,,,,
26940,"<img src=""portrait/WW1.jpg""style=""height:400px;""></img>",3,html-button-response,182,1257610,0.0-14.0-16.0,22510,List2B,black,woman,,TRUE,1,,,,,
2238,"<img src=""portrait/WW1.jpg""style=""height:400px;""></img>",1,html-button-response,183,1260857,0.0-14.0-18.0-0.0,22510,List2B,black,woman,,FALSE,1,,,,,
null,CORRECT,,html-keyboard-response,184,1262364,0.0-14.0-18.0-1.0-0.0,22510,List2B,black,woman,,,,null,,,,
2494,"<img src=""portrait/BW2.jpg""style=""height:400px;""></img>",2,html-button-response,185,1264860,0.0-14.0-19.0,22510,List2B,black,woman,,TRUE,2,,,,,
null,CORRECT,,html-keyboard-response,186,1266370,0.0-14.0-20.0-0.0,22510,List2B,black,woman,,,,null,,,,
1842,"<img src=""portrait/WW2.jpg""style=""height:400px;""></img>",3,html-button-response,187,1268215,0.0-14.0-22.0,22510,List2B,black,woman,,TRUE,3,,,,,
null,CORRECT,,html-keyboard-response,188,1269723,0.0-14.0-23.0-0.0,22510,List2B,black,woman,,,,null,,,,
1106,<p>You got 7 out of 8 right first time. Press Continue.</p>,0,html-button-response,189,1270832,0.0-14.0-25.0,22510,List2B,black,woman,,,,,,,,
1611,"As you did not score 100%, the memory game will repeat. Press Continue.",0,html-button-response,190,1273449,0.0-14.0-26.0-0.0,22510,List2B,black,woman,,,,,,,,
2909,"<img src='img/portrait_matrix_list2.jpg' style='width:900px;height:500px;''></img><p>If you have memorised all the portraits and names and are ready to start, press Continue.</p><p><strong>Please note: Your memory of these faces will be tested 4 times during this experiment.</strong></p>",0,html-button-response,191,1277366,0.0-14.1-0.1,22510,List2B,black,woman,,,,,,,,
2682,"<img src=""portrait/BW1.jpg""style=""height:400px;""></img>",0,html-button-response,192,1281056,0.0-14.1-1.1,22510,List2B,black,woman,,TRUE,0,,,,,
null,CORRECT,,html-keyboard-response,193,1282579,0.0-14.1-2.1-0.1,22510,List2B,black,woman,,,,null,,,,
1600,"<img src=""portrait/BM1.jpg""style=""height:400px;""></img>",4,html-button-response,194,1284181,0.0-14.1-4.1,22510,List2B,black,woman,,TRUE,4,,,,,
null,CORRECT,,html-keyboard-response,195,1285697,0.0-14.1-5.1-0.1,22510,List2B,black,woman,,,,null,,,,
2458,"<img src=""portrait/BM2.jpg""style=""height:400px;""></img>",5,html-button-response,196,1288157,0.0-14.1-7.1,22510,List2B,black,woman,,TRUE,5,,,,,
null,CORRECT,,html-keyboard-response,197,1289664,0.0-14.1-8.1-0.1,22510,List2B,black,woman,,,,null,,,,
1598,"<img src=""portrait/WM2.jpg""style=""height:400px;""></img>",7,html-button-response,198,1291267,0.0-14.1-10.1,22510,List2B,black,woman,,TRUE,7,,,,,
null,CORRECT,,html-keyboard-response,199,1292774,0.0-14.1-11.1-0.1,22510,List2B,black,woman,,,,null,,,,
1903,"<img src=""portrait/WM1.jpg""style=""height:400px;""></img>",6,html-button-response,200,1294679,0.0-14.1-13.1,22510,List2B,black,woman,,TRUE,6,,,,,
null,CORRECT,,html-keyboard-response,201,1296186,0.0-14.1-14.1-0.1,22510,List2B,black,woman,,,,null,,,,
17379,"<img src=""portrait/WW1.jpg""style=""height:400px;""></img>",1,html-button-response,202,1313568,0.0-14.1-16.1,22510,List2B,black,woman,,TRUE,1,,,,,
null,CORRECT,,html-keyboard-response,203,1315075,0.0-14.1-17.1-0.1,22510,List2B,black,woman,,,,null,,,,
1629,"<img src=""portrait/BW2.jpg""style=""height:400px;""></img>",2,html-button-response,204,1316706,0.0-14.1-19.1,22510,List2B,black,woman,,TRUE,2,,,,,
null,CORRECT,,html-keyboard-response,205,1318215,0.0-14.1-20.1-0.1,22510,List2B,black,woman,,,,null,,,,
2629,"<img src=""portrait/WW2.jpg""style=""height:400px;""></img>",3,html-button-response,206,1320848,0.0-14.1-22.1,22510,List2B,black,woman,,TRUE,3,,,,,
null,CORRECT,,html-keyboard-response,207,1322361,0.0-14.1-23.1-0.1,22510,List2B,black,woman,,,,null,,,,
1237,<p>You got 8 out of 8 right first time. Press Continue.</p>,0,html-button-response,208,1323602,0.0-14.1-25.1,22510,List2B,black,woman,,,,,,,,
null,"<div style=""font-size:60px;"">+</div>",,html-keyboard-response,209,1325113,0.0-15.0-0.0,22510,List2B,black,woman,,,,null,,,,
null,"<img src=""stim_listB/fight8.gif""style=""height:400px;""></stim_listB>",,html-keyboard-response,210,1327119,0.0-15.0-1.0,22510,List2B,black,woman,,,,null,,,,
null,are fighting each other,,html-keyboard-response,211,1329122,0.0-15.0-2.0,22510,List2B,black,woman,,,,null,,,,
13196,,,survey-text,212,1342320,0.0-15.0-3.0,22510,List2B,black,woman,,,,,"{""Q0"":""Ruth and Beth are fighting each other""}","<img src=""stim_listB/fight8.gif""style=""height:400px;""></stim_listB>",are fighting each other,
null,"<div style=""font-size:60px;"">+</div>",,html-keyboard-response,213,1342826,0.0-15.0-0.1,22510,List2B,black,woman,,,,null,,,,
null,"<img src=""stim_listB/kiss6.gif""style=""height:400px;""></stim_listB>",,html-keyboard-response,214,1344830,0.0-15.0-1.1,22510,List2B,black,woman,,,,null,,,,
null,are kissing each other,,html-keyboard-response,215,1346835,0.0-15.0-2.1,22510,List2B,black,woman,,,,null,,,,
11857,,,survey-text,216,1358695,0.0-15.0-3.1,22510,List2B,black,woman,,,,,"{""Q0"":""Dave and Mike are kissing each other""}","<img src=""stim_listB/kiss6.gif""style=""height:400px;""></stim_listB>",are kissing each other,
null,"<div style=""font-size:60px;"">+</div>",,html-keyboard-response,217,1359202,0.0-15.0-0.2,22510,List2B,black,woman,,,,null,,,,
null,"<img src=""stim_listB/play2.gif""style=""height:400px;""></stim_listB>",,html-keyboard-response,218,1361207,0.0-15.0-1.2,22510,List2B,black,woman,,,,null,,,,
null,are playing with each other,,html-keyboard-response,219,1363211,0.0-15.0-2.2,22510,List2B,black,woman,,,,null,,,,
16243,,,survey-text,220,1379455,0.0-15.0-3.2,22510,List2B,black,woman,,,,,"{""Q0"":""Ruth and Luke are playing with each other""}","<img src=""stim_listB/play2.gif""style=""height:400px;""></stim_listB>",are playing with each other,
null,"<div style=""font-size:60px;"">+</div>",,html-keyboard-response,221,1379957,0.0-15.0-0.3,22510,List2B,black,woman,,,,null,,,,
null,"<img src=""stim_listB/talk4.gif""style=""height:400px;""></stim_listB>",,html-keyboard-response,222,1381961,0.0-15.0-1.3,22510,List2B,black,woman,,,,null,,,,
null,are talking to each other,,html-keyboard-response,223,1383963,0.0-15.0-2.3,22510,List2B,black,woman,,,,null,,,,
10338,,,survey-text,224,1394303,0.0-15.0-3.3,22510,List2B,black,woman,,,,,"{""Q0"":""Beth and Mike are talking to each other""}","<img src=""stim_listB/talk4.gif""style=""height:400px;""></stim_listB>",are talking to each other,
null,"<div style=""font-size:60px;"">+</div>",,html-keyboard-response,225,1394807,0.0-15.0-0.4,22510,List2B,black,woman,,,,null,,,,
null,"<img src=""stim_listB/talk1.gif""style=""height:400px;""></stim_listB>",,html-keyboard-response,226,1396813,0.0-15.0-1.4,22510,List2B,black,woman,,,,null,,,,
null,is talking to,,html-keyboard-response,227,1398816,0.0-15.0-2.4,22510,List2B,black,woman,,,,null,,,,
13131,,,survey-text,228,1411949,0.0-15.0-3.4,22510,List2B,black,woman,,,,,"{""Q0"":""Jane is talking to Luke""}","<img src=""stim_listB/talk1.gif""style=""height:400px;""></stim_listB>",is talking to,
null,"<div style=""font-size:60px;"">+</div>",,html-keyboard-response,229,1412454,0.0-15.0-0.5,22510,List2B,black,woman,,,,null,,,,
null,"<img src=""stim_listB/play5.gif""style=""height:400px;""></stim_listB>",,html-keyboard-response,230,1414459,0.0-15.0-1.5,22510,List2B,black,woman,,,,null,,,,
null,is playing with,,html-keyboard-response,231,1416463,0.0-15.0-2.5,22510,List2B,black,woman,,,,null,,,,
9384,,,survey-text,232,1425849,0.0-15.0-3.5,22510,List2B,black,woman,,,,,"{""Q0"":""Dave is playing with Mike""}","<img src=""stim_listB/play5.gif""style=""height:400px;""></stim_listB>",is playing with,
null,"<div style=""font-size:60px;"">+</div>",,html-keyboard-response,233,1426353,0.0-15.0-0.6,22510,List2B,black,woman,,,,null,,,,
null,"<img src=""stim_listB/argue2.gif""style=""height:400px;""></stim_listB>",,html-keyboard-response,234,1428356,0.0-15.0-1.6,22510,List2B,black,woman,,,,null,,,,
null,are arguing with each other,,html-keyboard-response,235,1430359,0.0-15.0-2.6,22510,List2B,black,woman,,,,null,,,,
9663,,,survey-text,236,1440025,0.0-15.0-3.6,22510,List2B,black,woman,,,,,"{""Q0"":""Jane and Luke are arguing with each other""}","<img src=""stim_listB/argue2.gif""style=""height:400px;""></stim_listB>",are arguing with each other,
null,"<div style=""font-size:60px;"">+</div>",,html-keyboard-response,237,1440527,0.0-15.0-0.7,22510,List2B,black,woman,,,,null,,,,
null,"<img src=""stim_listB/argue5.gif""style=""height:400px;""></stim_listB>",,html-keyboard-response,238,1442531,0.0-15.0-1.7,22510,List2B,black,woman,,,,null,,,,
null,is arguing with,,html-keyboard-response,239,1444534,0.0-15.0-2.7,22510,List2B,black,woman,,,,null,,,,
15641,,,survey-text,240,1460177,0.0-15.0-3.7,22510,List2B,black,woman,,,,,"{""Q0"":""Dave and Fred are arguing with each other""}","<img src=""stim_listB/argue5.gif""style=""height:400px;""></stim_listB>",is arguing with,
null,"<div style=""font-size:60px;"">+</div>",,html-keyboard-response,241,1460684,0.0-15.0-0.8,22510,List2B,black,woman,,,,null,,,,
null,"<img src=""stim_listB/dance1.gif""style=""height:400px;""></stim_listB>",,html-keyboard-response,242,1462688,0.0-15.0-1.8,22510,List2B,black,woman,,,,null,,,,
null,is dancing with,,html-keyboard-response,243,1464691,0.0-15.0-2.8,22510,List2B,black,woman,,,,null,,,,
11398,,,survey-text,244,1476091,0.0-15.0-3.8,22510,List2B,black,woman,,,,,"{""Q0"":""Luke is dancing with Jane ""}","<img src=""stim_listB/dance1.gif""style=""height:400px;""></stim_listB>",is dancing with,
null,"<div style=""font-size:60px;"">+</div>",,html-keyboard-response,245,1476596,0.0-15.0-0.9,22510,List2B,black,woman,,,,null,,,,
null,"<img src=""stim_listB/marry4.gif""style=""height:400px;""></stim_listB>",,html-keyboard-response,246,1478602,0.0-15.0-1.9,22510,List2B,black,woman,,,,null,,,,
null,are marrying each other,,html-keyboard-response,247,1480603,0.0-15.0-2.9,22510,List2B,black,woman,,,,null,,,,
13176,,,survey-text,248,1493781,0.0-15.0-3.9,22510,List2B,black,woman,,,,,"{""Q0"":""Fred and Kate are marrying each other""}","<img src=""stim_listB/marry4.gif""style=""height:400px;""></stim_listB>",are marrying each other,
null,"<div style=""font-size:60px;"">+</div>",,html-keyboard-response,249,1494287,0.0-15.0-0.10,22510,List2B,black,woman,,,,null,,,,
null,"<img src=""stim_listB/kiss7.gif""style=""height:400px;""></stim_listB>",,html-keyboard-response,250,1496293,0.0-15.0-1.10,22510,List2B,black,woman,,,,null,,,,
null,is kissing,,html-keyboard-response,251,1498302,0.0-15.0-2.10,22510,List2B,black,woman,,,,null,,,,
13620,,,survey-text,252,1511928,0.0-15.0-3.10,22510,List2B,black,woman,,,,,"{""Q0"":""Ruth is kissing Beth""}","<img src=""stim_listB/kiss7.gif""style=""height:400px;""></stim_listB>",is kissing,
null,"<div style=""font-size:60px;"">+</div>",,html-keyboard-response,253,1512434,0.0-15.0-0.11,22510,List2B,black,woman,,,,null,,,,
null,"<img src=""stim_listB/argue6.gif""style=""height:400px;""></stim_listB>",,html-keyboard-response,254,1514437,0.0-15.0-1.11,22510,List2B,black,woman,,,,null,,,,
null,are arguing with each other,,html-keyboard-response,255,1516440,0.0-15.0-2.11,22510,List2B,black,woman,,,,null,,,,
9999,,,survey-text,256,1526442,0.0-15.0-3.11,22510,List2B,black,woman,,,,,"{""Q0"":""Mike and Luke are arguing with each other""}","<img src=""stim_listB/argue6.gif""style=""height:400px;""></stim_listB>",are arguing with each other,
null,"<div style=""font-size:60px;"">+</div>",,html-keyboard-response,257,1526947,0.0-15.0-0.12,22510,List2B,black,woman,,,,null,,,,
null,"<img src=""stim_listB/touch7.gif""style=""height:400px;""></stim_listB>",,html-keyboard-response,258,1528951,0.0-15.0-1.12,22510,List2B,black,woman,,,,null,,,,
null,is touching,,html-keyboard-response,259,1530952,0.0-15.0-2.12,22510,List2B,black,woman,,,,null,,,,
6675,,,survey-text,260,1537629,0.0-15.0-3.12,22510,List2B,black,woman,,,,,"{""Q0"":""Kate is touching Jane""}","<img src=""stim_listB/touch7.gif""style=""height:400px;""></stim_listB>",is touching,
null,"<div style=""font-size:60px;"">+</div>",,html-keyboard-response,261,1538136,0.0-15.0-0.13,22510,List2B,black,woman,,,,null,,,,
null,"<img src=""stim_listB/dance6.gif""style=""height:400px;""></stim_listB>",,html-keyboard-response,262,1540144,0.0-15.0-1.13,22510,List2B,black,woman,,,,null,,,,
null,are dancing with each other,,html-keyboard-response,263,1542149,0.0-15.0-2.13,22510,List2B,black,woman,,,,null,,,,
11510,,,survey-text,264,1553661,0.0-15.0-3.13,22510,List2B,black,woman,,,,,"{""Q0"":""Fred and Dave are dancing with each other""}","<img src=""stim_listB/dance6.gif""style=""height:400px;""></stim_listB>",are dancing with each other,
null,"<div style=""font-size:60px;"">+</div>",,html-keyboard-response,265,1554166,0.0-15.0-0.14,22510,List2B,black,woman,,,,null,,,,
null,"<img src=""stim_listB/flirt1.gif""style=""height:400px;""></stim_listB>",,html-keyboard-response,266,1556174,0.0-15.0-1.14,22510,List2B,black,woman,,,,null,,,,
null,is flirting with,,html-keyboard-response,267,1558177,0.0-15.0-2.14,22510,List2B,black,woman,,,,null,,,,
7642,,,survey-text,268,1565821,0.0-15.0-3.14,22510,List2B,black,woman,,,,,"{""Q0"":""Luke is flirting with Jane""}","<img src=""stim_listB/flirt1.gif""style=""height:400px;""></stim_listB>",is flirting with,
null,"<div style=""font-size:60px;"">+</div>",,html-keyboard-response,269,1566326,0.0-15.0-0.15,22510,List2B,black,woman,,,,null,,,,
null,"<img src=""stim_listB/marry2.gif""style=""height:400px;""></stim_listB>",,html-keyboard-response,270,1568339,0.0-15.0-1.15,22510,List2B,black,woman,,,,null,,,,
null,are marrying each other,,html-keyboard-response,271,1570342,0.0-15.0-2.15,22510,List2B,black,woman,,,,null,,,,
9104,,,survey-text,272,1579448,0.0-15.0-3.15,22510,List2B,black,woman,,,,,"{""Q0"":""Luke and Jane are marrying each other""}","<img src=""stim_listB/marry2.gif""style=""height:400px;""></stim_listB>",are marrying each other,
null,"<div style=""font-size:60px;"">+</div>",,html-keyboard-response,273,1579951,0.0-15.0-0.16,22510,List2B,black,woman,,,,null,,,,
null,"<img src=""stim_listB/marry5.gif""style=""height:400px;""></stim_listB>",,html-keyboard-response,274,1581956,0.0-15.0-1.16,22510,List2B,black,woman,,,,null,,,,
null,is marrying,,html-keyboard-response,275,1583959,0.0-15.0-2.16,22510,List2B,black,woman,,,,null,,,,
13134,,,survey-text,276,1597095,0.0-15.0-3.16,22510,List2B,black,woman,,,,,"{""Q0"":""Fred is marrying Dave""}","<img src=""stim_listB/marry5.gif""style=""height:400px;""></stim_listB>",is marrying,
null,"<div style=""font-size:60px;"">+</div>",,html-keyboard-response,277,1597598,0.0-15.0-0.17,22510,List2B,black,woman,,,,null,,,,
null,"<img src=""stim_listB/argue7.gif""style=""height:400px;""></stim_listB>",,html-keyboard-response,278,1599602,0.0-15.0-1.17,22510,List2B,black,woman,,,,null,,,,
null,is arguing with,,html-keyboard-response,279,1601607,0.0-15.0-2.17,22510,List2B,black,woman,,,,null,,,,
8559,,,survey-text,280,1610169,0.0-15.0-3.17,22510,List2B,black,woman,,,,,"{""Q0"":""Beth is arguing with Jane""}","<img src=""stim_listB/argue7.gif""style=""height:400px;""></stim_listB>",is arguing with,
null,"<div style=""font-size:60px;"">+</div>",,html-keyboard-response,281,1610674,0.0-15.0-0.18,22510,List2B,black,woman,,,,null,,,,
null,"<img src=""stim_listB/kiss2.gif""style=""height:400px;""></stim_listB>",,html-keyboard-response,282,1612679,0.0-15.0-1.18,22510,List2B,black,woman,,,,null,,,,
null,are kissing each other,,html-keyboard-response,283,1614684,0.0-15.0-2.18,22510,List2B,black,woman,,,,null,,,,
8450,,,survey-text,284,1623136,0.0-15.0-3.18,22510,List2B,black,woman,,,,,"{""Q0"":""Jane and Dave are kissing each other""}","<img src=""stim_listB/kiss2.gif""style=""height:400px;""></stim_listB>",are kissing each other,
null,"<div style=""font-size:60px;"">+</div>",,html-keyboard-response,285,1623644,0.0-15.0-0.19,22510,List2B,black,woman,,,,null,,,,
null,"<img src=""stim_listB/kiss4.gif""style=""height:400px;""></stim_listB>",,html-keyboard-response,286,1625649,0.0-15.0-1.19,22510,List2B,black,woman,,,,null,,,,
null,are kissing each other,,html-keyboard-response,287,1627650,0.0-15.0-2.19,22510,List2B,black,woman,,,,null,,,,
9958,,,survey-text,288,1637610,0.0-15.0-3.19,22510,List2B,black,woman,,,,,"{""Q0"":""Mike and Kate are kissing each other""}","<img src=""stim_listB/kiss4.gif""style=""height:400px;""></stim_listB>",are kissing each other,
3961,"<img src='img/portrait_matrix_list2.jpg' style='width:900px;height:500px;''></img><p>If you have memorised all the portraits and names and are ready to start, press Continue.</p><p><strong>Please note: Your memory of these faces will be tested 4 times during this experiment.</strong></p>",0,html-button-response,289,1641574,0.0-16.0-0.0,22510,List2B,black,woman,,,,,,,,
5061,"<img src=""portrait/WW1.jpg""style=""height:400px;""></img>",1,html-button-response,290,1647643,0.0-16.0-1.0,22510,List2B,black,woman,,TRUE,1,,,,,
null,CORRECT,,html-keyboard-response,291,1649148,0.0-16.0-2.0-0.0,22510,List2B,black,woman,,,,null,,,,
1769,"<img src=""portrait/BW2.jpg""style=""height:400px;""></img>",2,html-button-response,292,1650920,0.0-16.0-4.0,22510,List2B,black,woman,,TRUE,2,,,,,
null,CORRECT,,html-keyboard-response,293,1652428,0.0-16.0-5.0-0.0,22510,List2B,black,woman,,,,null,,,,
1561,"<img src=""portrait/WM2.jpg""style=""height:400px;""></img>",7,html-button-response,294,1653993,0.0-16.0-7.0,22510,List2B,black,woman,,TRUE,7,,,,,
null,CORRECT,,html-keyboard-response,295,1655502,0.0-16.0-8.0-0.0,22510,List2B,black,woman,,,,null,,,,
1480,"<img src=""portrait/BM2.jpg""style=""height:400px;""></img>",5,html-button-response,296,1656989,0.0-16.0-10.0,22510,List2B,black,woman,,TRUE,5,,,,,
null,CORRECT,,html-keyboard-response,297,1658509,0.0-16.0-11.0-0.0,22510,List2B,black,woman,,,,null,,,,
3533,"<img src=""portrait/BM1.jpg""style=""height:400px;""></img>",4,html-button-response,298,1662048,0.0-16.0-13.0,22510,List2B,black,woman,,TRUE,4,,,,,
null,CORRECT,,html-keyboard-response,299,1663556,0.0-16.0-14.0-0.0,22510,List2B,black,woman,,,,null,,,,
2297,"<img src=""portrait/WM1.jpg""style=""height:400px;""></img>",6,html-button-response,300,1665856,0.0-16.0-16.0,22510,List2B,black,woman,,TRUE,6,,,,,
null,CORRECT,,html-keyboard-response,301,1667366,0.0-16.0-17.0-0.0,22510,List2B,black,woman,,,,null,,,,
1611,"<img src=""portrait/WW2.jpg""style=""height:400px;""></img>",3,html-button-response,302,1668980,0.0-16.0-19.0,22510,List2B,black,woman,,TRUE,3,,,,,
null,CORRECT,,html-keyboard-response,303,1670490,0.0-16.0-20.0-0.0,22510,List2B,black,woman,,,,null,,,,
2751,"<img src=""portrait/BW1.jpg""style=""height:400px;""></img>",0,html-button-response,304,1673244,0.0-16.0-22.0,22510,List2B,black,woman,,TRUE,0,,,,,
null,CORRECT,,html-keyboard-response,305,1674754,0.0-16.0-23.0-0.0,22510,List2B,black,woman,,,,null,,,,
1571,<p>You got 8 out of 8 right first time. Press Continue.</p>,0,html-button-response,306,1676328,0.0-16.0-25.0,22510,List2B,black,woman,,,,,,,,
null,"<div style=""font-size:60px;"">+</div>",,html-keyboard-response,307,1677840,0.0-17.0-0.0,22510,List2B,black,woman,,,,null,,,,
null,"<img src=""stim_listB/shout1.gif""style=""height:400px;""></stim_listB>",,html-keyboard-response,308,1679849,0.0-17.0-1.0,22510,List2B,black,woman,,,,null,,,,
null,is shouting at,,html-keyboard-response,309,1681851,0.0-17.0-2.0,22510,List2B,black,woman,,,,null,,,,
10329,,,survey-text,310,1692182,0.0-17.0-3.0,22510,List2B,black,woman,,,,,"{""Q0"":""Luke is shouting at Ruth""}","<img src=""stim_listB/shout1.gif""style=""height:400px;""></stim_listB>",is shouting at,
null,"<div style=""font-size:60px;"">+</div>",,html-keyboard-response,311,1692686,0.0-17.0-0.1,22510,List2B,black,woman,,,,null,,,,
null,"<img src=""stim_listB/fight1.gif""style=""height:400px;""></stim_listB>",,html-keyboard-response,312,1694692,0.0-17.0-1.1,22510,List2B,black,woman,,,,null,,,,
null,is fighting,,html-keyboard-response,313,1696695,0.0-17.0-2.1,22510,List2B,black,woman,,,,null,,,,
9227,,,survey-text,314,1705923,0.0-17.0-3.1,22510,List2B,black,woman,,,,,"{""Q0"":""Jane is fighting Dave""}","<img src=""stim_listB/fight1.gif""style=""height:400px;""></stim_listB>",is fighting,
null,"<div style=""font-size:60px;"">+</div>",,html-keyboard-response,315,1706428,0.0-17.0-0.2,22510,List2B,black,woman,,,,null,,,,
null,"<img src=""stim_listB/play1.gif""style=""height:400px;""></stim_listB>",,html-keyboard-response,316,1708436,0.0-17.0-1.2,22510,List2B,black,woman,,,,null,,,,
null,is playing with,,html-keyboard-response,317,1710439,0.0-17.0-2.2,22510,List2B,black,woman,,,,null,,,,
7548,,,survey-text,318,1717989,0.0-17.0-3.2,22510,List2B,black,woman,,,,,"{""Q0"":""Jane is playing with Dave""}","<img src=""stim_listB/play1.gif""style=""height:400px;""></stim_listB>",is playing with,
null,"<div style=""font-size:60px;"">+</div>",,html-keyboard-response,319,1718492,0.0-17.0-0.3,22510,List2B,black,woman,,,,null,,,,
null,"<img src=""stim_listB/talk6.gif""style=""height:400px;""></stim_listB>",,html-keyboard-response,320,1720498,0.0-17.0-1.3,22510,List2B,black,woman,,,,null,,,,
null,are talking to each other,,html-keyboard-response,321,1722507,0.0-17.0-2.3,22510,List2B,black,woman,,,,null,,,,
9225,,,survey-text,322,1731734,0.0-17.0-3.3,22510,List2B,black,woman,,,,,"{""Q0"":""Fred and Dave are talking to each other""}","<img src=""stim_listB/talk6.gif""style=""height:400px;""></stim_listB>",are talking to each other,
null,"<div style=""font-size:60px;"">+</div>",,html-keyboard-response,323,1732239,0.0-17.0-0.4,22510,List2B,black,woman,,,,null,,,,
null,"<img src=""stim_listB/shout3.gif""style=""height:400px;""></stim_listB>",,html-keyboard-response,324,1734242,0.0-17.0-1.4,22510,List2B,black,woman,,,,null,,,,
null,is shouting at,,html-keyboard-response,325,1736248,0.0-17.0-2.4,22510,List2B,black,woman,,,,null,,,,
9700,,,survey-text,326,1745950,0.0-17.0-3.4,22510,List2B,black,woman,,,,,"{""Q0"":""Fred is shouting at Beth""}","<img src=""stim_listB/shout3.gif""style=""height:400px;""></stim_listB>",is shouting at,
null,"<div style=""font-size:60px;"">+</div>",,html-keyboard-response,327,1746454,0.0-17.0-0.5,22510,List2B,black,woman,,,,null,,,,
null,"<img src=""stim_listB/touch4.gif""style=""height:400px;""></stim_listB>",,html-keyboard-response,328,1748459,0.0-17.0-1.5,22510,List2B,black,woman,,,,null,,,,
null,are touching each other,,html-keyboard-response,329,1750464,0.0-17.0-2.5,22510,List2B,black,woman,,,,null,,,,
12013,,,survey-text,330,1762480,0.0-17.0-3.5,22510,List2B,black,woman,,,,,"{""Q0"":""Fred and Beth are touching each other""}","<img src=""stim_listB/touch4.gif""style=""height:400px;""></stim_listB>",are touching each other,
null,"<div style=""font-size:60px;"">+</div>",,html-keyboard-response,331,1762984,0.0-17.0-0.6,22510,List2B,black,woman,,,,null,,,,
null,"<img src=""stim_listB/dance5.gif""style=""height:400px;""></stim_listB>",,html-keyboard-response,332,1764987,0.0-17.0-1.6,22510,List2B,black,woman,,,,null,,,,
null,is dancing with,,html-keyboard-response,333,1766990,0.0-17.0-2.6,22510,List2B,black,woman,,,,null,,,,
6840,,,survey-text,334,1773832,0.0-17.0-3.6,22510,List2B,black,woman,,,,,"{""Q0"":""Luke is dancing with Mike""}","<img src=""stim_listB/dance5.gif""style=""height:400px;""></stim_listB>",is dancing with,
null,"<div style=""font-size:60px;"">+</div>",,html-keyboard-response,335,1774337,0.0-17.0-0.7,22510,List2B,black,woman,,,,null,,,,
null,"<img src=""stim_listB/argue8.gif""style=""height:400px;""></stim_listB>",,html-keyboard-response,336,1776343,0.0-17.0-1.7,22510,List2B,black,woman,,,,null,,,,
null,are arguing with each other,,html-keyboard-response,337,1778348,0.0-17.0-2.7,22510,List2B,black,woman,,,,null,,,,
15263,,,survey-text,338,1793613,0.0-17.0-3.7,22510,List2B,black,woman,,,,,"{""Q0"":""Ruth and Kate are arguing with each other""}","<img src=""stim_listB/argue8.gif""style=""height:400px;""></stim_listB>",are arguing with each other,
null,"<div style=""font-size:60px;"">+</div>",,html-keyboard-response,339,1794119,0.0-17.0-0.8,22510,List2B,black,woman,,,,null,,,,
null,"<img src=""stim_listB/flirt3.gif""style=""height:400px;""></stim_listB>",,html-keyboard-response,340,1796127,0.0-17.0-1.8,22510,List2B,black,woman,,,,null,,,,
null,is flirting with,,html-keyboard-response,341,1798131,0.0-17.0-2.8,22510,List2B,black,woman,,,,null,,,,
10859,,,survey-text,342,1808993,0.0-17.0-3.8,22510,List2B,black,woman,,,,,"{""Q0"":""Kate is flirting with Fred""}","<img src=""stim_listB/flirt3.gif""style=""height:400px;""></stim_listB>",is flirting with,
null,"<div style=""font-size:60px;"">+</div>",,html-keyboard-response,343,1809497,0.0-17.0-0.9,22510,List2B,black,woman,,,,null,,,,
null,"<img src=""stim_listB/flirt4.gif""style=""height:400px;""></stim_listB>",,html-keyboard-response,344,1811501,0.0-17.0-1.9,22510,List2B,black,woman,,,,null,,,,
null,are flirting with each other,,html-keyboard-response,345,1813506,0.0-17.0-2.9,22510,List2B,black,woman,,,,null,,,,
11316,,,survey-text,346,1824825,0.0-17.0-3.9,22510,List2B,black,woman,,,,,"{""Q0"":""Beth and Mike are flirting with each other""}","<img src=""stim_listB/flirt4.gif""style=""height:400px;""></stim_listB>",are flirting with each other,
null,"<div style=""font-size:60px;"">+</div>",,html-keyboard-response,347,1825331,0.0-17.0-0.10,22510,List2B,black,woman,,,,null,,,,
null,"<img src=""stim_listB/flirt5.gif""style=""height:400px;""></stim_listB>",,html-keyboard-response,348,1827351,0.0-17.0-1.10,22510,List2B,black,woman,,,,null,,,,
null,is flirting with,,html-keyboard-response,349,1829357,0.0-17.0-2.10,22510,List2B,black,woman,,,,null,,,,
7738,,,survey-text,350,1837098,0.0-17.0-3.10,22510,List2B,black,woman,,,,,"{""Q0"":""Luke is flirting with Mike ""}","<img src=""stim_listB/flirt5.gif""style=""height:400px;""></stim_listB>",is flirting with,
null,"<div style=""font-size:60px;"">+</div>",,html-keyboard-response,351,1837604,0.0-17.0-0.11,22510,List2B,black,woman,,,,null,,,,
null,"<img src=""stim_listB/shout2.gif""style=""height:400px;""></stim_listB>",,html-keyboard-response,352,1839616,0.0-17.0-1.11,22510,List2B,black,woman,,,,null,,,,
null,are shouting at each other,,html-keyboard-response,353,1841620,0.0-17.0-2.11,22510,List2B,black,woman,,,,null,,,,
17290,,,survey-text,354,1858914,0.0-17.0-3.11,22510,List2B,black,woman,,,,,"{""Q0"":""Jane and Dave are shouting at each other""}","<img src=""stim_listB/shout2.gif""style=""height:400px;""></stim_listB>",are shouting at each other,
null,"<div style=""font-size:60px;"">+</div>",,html-keyboard-response,355,1859421,0.0-17.0-0.12,22510,List2B,black,woman,,,,null,,,,
null,"<img src=""stim_listB/kiss3.gif""style=""height:400px;""></stim_listB>",,html-keyboard-response,356,1861431,0.0-17.0-1.12,22510,List2B,black,woman,,,,null,,,,
null,is kissing,,html-keyboard-response,357,1863438,0.0-17.0-2.12,22510,List2B,black,woman,,,,null,,,,
6809,,,survey-text,358,1870250,0.0-17.0-3.12,22510,List2B,black,woman,,,,,"{""Q0"":""Fred is kissing Beth""}","<img src=""stim_listB/kiss3.gif""style=""height:400px;""></stim_listB>",is kissing,
null,"<div style=""font-size:60px;"">+</div>",,html-keyboard-response,359,1870757,0.0-17.0-0.13,22510,List2B,black,woman,,,,null,,,,
null,"<img src=""stim_listB/flirt2.gif""style=""height:400px;""></stim_listB>",,html-keyboard-response,360,1872763,0.0-17.0-1.13,22510,List2B,black,woman,,,,null,,,,
null,are flirting with each other,,html-keyboard-response,361,1874767,0.0-17.0-2.13,22510,List2B,black,woman,,,,null,,,,
10536,,,survey-text,362,1885306,0.0-17.0-3.13,22510,List2B,black,woman,,,,,"{""Q0"":""Ruth and Dave are flirting with each other ""}","<img src=""stim_listB/flirt2.gif""style=""height:400px;""></stim_listB>",are flirting with each other,
null,"<div style=""font-size:60px;"">+</div>",,html-keyboard-response,363,1885814,0.0-17.0-0.14,22510,List2B,black,woman,,,,null,,,,
null,"<img src=""stim_listB/fight5.gif""style=""height:400px;""></stim_listB>",,html-keyboard-response,364,1887822,0.0-17.0-1.14,22510,List2B,black,woman,,,,null,,,,
null,is fighting,,html-keyboard-response,365,1889826,0.0-17.0-2.14,22510,List2B,black,woman,,,,null,,,,
9943,,,survey-text,366,1899771,0.0-17.0-3.14,22510,List2B,black,woman,,,,,"{""Q0"":""Dave is fighting Mike ""}","<img src=""stim_listB/fight5.gif""style=""height:400px;""></stim_listB>",is fighting,
null,"<div style=""font-size:60px;"">+</div>",,html-keyboard-response,367,1900276,0.0-17.0-0.15,22510,List2B,black,woman,,,,null,,,,
null,"<img src=""stim_listB/dance2.gif""style=""height:400px;""></stim_listB>",,html-keyboard-response,368,1902282,0.0-17.0-1.15,22510,List2B,black,woman,,,,null,,,,
null,are dancing with each other,,html-keyboard-response,369,1904286,0.0-17.0-2.15,22510,List2B,black,woman,,,,null,,,,
9377,,,survey-text,370,1913665,0.0-17.0-3.15,22510,List2B,black,woman,,,,,"{""Q0"":""Dave and Ruth are dancing with each other""}","<img src=""stim_listB/dance2.gif""style=""height:400px;""></stim_listB>",are dancing with each other,
null,"<div style=""font-size:60px;"">+</div>",,html-keyboard-response,371,1914171,0.0-17.0-0.16,22510,List2B,black,woman,,,,null,,,,
null,"<img src=""stim_listB/kiss1.gif""style=""height:400px;""></stim_listB>",,html-keyboard-response,372,1916177,0.0-17.0-1.16,22510,List2B,black,woman,,,,null,,,,
null,is kissing,,html-keyboard-response,373,1918181,0.0-17.0-2.16,22510,List2B,black,woman,,,,null,,,,
6353,,,survey-text,374,1924536,0.0-17.0-3.16,22510,List2B,black,woman,,,,,"{""Q0"":""Luke is kissing Ruth""}","<img src=""stim_listB/kiss1.gif""style=""height:400px;""></stim_listB>",is kissing,
null,"<div style=""font-size:60px;"">+</div>",,html-keyboard-response,375,1925042,0.0-17.0-0.17,22510,List2B,black,woman,,,,null,,,,
null,"<img src=""stim_listB/touch1.gif""style=""height:400px;""></stim_listB>",,html-keyboard-response,376,1927049,0.0-17.0-1.17,22510,List2B,black,woman,,,,null,,,,
null,is touching,,html-keyboard-response,377,1929054,0.0-17.0-2.17,22510,List2B,black,woman,,,,null,,,,
6313,,,survey-text,378,1935369,0.0-17.0-3.17,22510,List2B,black,woman,,,,,"{""Q0"":""Jane is touching Dave""}","<img src=""stim_listB/touch1.gif""style=""height:400px;""></stim_listB>",is touching,
null,"<div style=""font-size:60px;"">+</div>",,html-keyboard-response,379,1935876,0.0-17.0-0.18,22510,List2B,black,woman,,,,null,,,,
null,"<img src=""stim_listB/dance4.gif""style=""height:400px;""></stim_listB>",,html-keyboard-response,380,1937885,0.0-17.0-1.18,22510,List2B,black,woman,,,,null,,,,
null,are dancing with each other,,html-keyboard-response,381,1939889,0.0-17.0-2.18,22510,List2B,black,woman,,,,null,,,,
10613,,,survey-text,382,1950505,0.0-17.0-3.18,22510,List2B,black,woman,,,,,"{""Q0"":""Beth and Mike are dancing with each other ""}","<img src=""stim_listB/dance4.gif""style=""height:400px;""></stim_listB>",are dancing with each other,
null,"<div style=""font-size:60px;"">+</div>",,html-keyboard-response,383,1951011,0.0-17.0-0.19,22510,List2B,black,woman,,,,null,,,,
null,"<img src=""stim_listB/touch8.gif""style=""height:400px;""></stim_listB>",,html-keyboard-response,384,1953016,0.0-17.0-1.19,22510,List2B,black,woman,,,,null,,,,
null,are touching each other,,html-keyboard-response,385,1955025,0.0-17.0-2.19,22510,List2B,black,woman,,,,null,,,,
9991,,,survey-text,386,1965019,0.0-17.0-3.19,22510,List2B,black,woman,,,,,"{""Q0"":""Beth and Ruth are touching each other ""}","<img src=""stim_listB/touch8.gif""style=""height:400px;""></stim_listB>",are touching each other,
3360,"<img src='img/portrait_matrix_list2.jpg' style='width:900px;height:500px;''></img><p>If you have memorised all the portraits and names and are ready to start, press Continue.</p><p><strong>Please note: Your memory of these faces will be tested 4 times during this experiment.</strong></p>",0,html-button-response,387,1968387,0.0-18.0-0.0,22510,List2B,black,woman,,,,,,,,
2374,"<img src=""portrait/WM2.jpg""style=""height:400px;""></img>",7,html-button-response,388,1971770,0.0-18.0-1.0,22510,List2B,black,woman,,TRUE,7,,,,,
null,CORRECT,,html-keyboard-response,389,1973278,0.0-18.0-2.0-0.0,22510,List2B,black,woman,,,,null,,,,
1528,"<img src=""portrait/WW2.jpg""style=""height:400px;""></img>",3,html-button-response,390,1974809,0.0-18.0-4.0,22510,List2B,black,woman,,TRUE,3,,,,,
null,CORRECT,,html-keyboard-response,391,1976317,0.0-18.0-5.0-0.0,22510,List2B,black,woman,,,,null,,,,
1718,"<img src=""portrait/WM1.jpg""style=""height:400px;""></img>",6,html-button-response,392,1978039,0.0-18.0-7.0,22510,List2B,black,woman,,TRUE,6,,,,,
null,CORRECT,,html-keyboard-response,393,1979549,0.0-18.0-8.0-0.0,22510,List2B,black,woman,,,,null,,,,
1528,"<img src=""portrait/BM2.jpg""style=""height:400px;""></img>",5,html-button-response,394,1981082,0.0-18.0-10.0,22510,List2B,black,woman,,TRUE,5,,,,,
null,CORRECT,,html-keyboard-response,395,1982600,0.0-18.0-11.0-0.0,22510,List2B,black,woman,,,,null,,,,
1320,"<img src=""portrait/BM1.jpg""style=""height:400px;""></img>",4,html-button-response,396,1983924,0.0-18.0-13.0,22510,List2B,black,woman,,TRUE,4,,,,,
null,CORRECT,,html-keyboard-response,397,1985439,0.0-18.0-14.0-0.0,22510,List2B,black,woman,,,,null,,,,
1545,"<img src=""portrait/BW2.jpg""style=""height:400px;""></img>",2,html-button-response,398,1986988,0.0-18.0-16.0,22510,List2B,black,woman,,TRUE,2,,,,,
null,CORRECT,,html-keyboard-response,399,1988497,0.0-18.0-17.0-0.0,22510,List2B,black,woman,,,,null,,,,
1932,"<img src=""portrait/BW1.jpg""style=""height:400px;""></img>",0,html-button-response,400,1990434,0.0-18.0-19.0,22510,List2B,black,woman,,TRUE,0,,,,,
null,CORRECT,,html-keyboard-response,401,1991941,0.0-18.0-20.0-0.0,22510,List2B,black,woman,,,,null,,,,
2542,"<img src=""portrait/WW1.jpg""style=""height:400px;""></img>",1,html-button-response,402,1994487,0.0-18.0-22.0,22510,List2B,black,woman,,TRUE,1,,,,,
null,CORRECT,,html-keyboard-response,403,1995996,0.0-18.0-23.0-0.0,22510,List2B,black,woman,,,,null,,,,
1213,<p>You got 8 out of 8 right first time. Press Continue.</p>,0,html-button-response,404,1997215,0.0-18.0-25.0,22510,List2B,black,woman,,,,,,,,
null,"<div style=""font-size:60px;"">+</div>",,html-keyboard-response,405,1998725,0.0-19.0-0.0,22510,List2B,black,woman,,,,null,,,,
null,"<img src=""stim_listB/flirt7.gif""style=""height:400px;""></stim_listB>",,html-keyboard-response,406,2000738,0.0-19.0-1.0,22510,List2B,black,woman,,,,null,,,,
null,is flirting with,,html-keyboard-response,407,2002743,0.0-19.0-2.0,22510,List2B,black,woman,,,,null,,,,
8423,,,survey-text,408,2011169,0.0-19.0-3.0,22510,List2B,black,woman,,,,,"{""Q0"":""Kate is flirting with Ruth""}","<img src=""stim_listB/flirt7.gif""style=""height:400px;""></stim_listB>",is flirting with,
null,"<div style=""font-size:60px;"">+</div>",,html-keyboard-response,409,2011676,0.0-19.0-0.1,22510,List2B,black,woman,,,,null,,,,
null,"<img src=""stim_listB/play7.gif""style=""height:400px;""></stim_listB>",,html-keyboard-response,410,2013683,0.0-19.0-1.1,22510,List2B,black,woman,,,,null,,,,
null,is playing with,,html-keyboard-response,411,2015687,0.0-19.0-2.1,22510,List2B,black,woman,,,,null,,,,
8776,,,survey-text,412,2024466,0.0-19.0-3.1,22510,List2B,black,woman,,,,,"{""Q0"":""Jane is playing with Kate ""}","<img src=""stim_listB/play7.gif""style=""height:400px;""></stim_listB>",is playing with,
null,"<div style=""font-size:60px;"">+</div>",,html-keyboard-response,413,2024972,0.0-19.0-0.2,22510,List2B,black,woman,,,,null,,,,
null,"<img src=""stim_listB/kiss5.gif""style=""height:400px;""></stim_listB>",,html-keyboard-response,414,2026977,0.0-19.0-1.2,22510,List2B,black,woman,,,,null,,,,
null,is kissing,,html-keyboard-response,415,2028980,0.0-19.0-2.2,22510,List2B,black,woman,,,,null,,,,
6949,,,survey-text,416,2035931,0.0-19.0-3.2,22510,List2B,black,woman,,,,,"{""Q0"":""Luke is kissing Fred""}","<img src=""stim_listB/kiss5.gif""style=""height:400px;""></stim_listB>",is kissing,
null,"<div style=""font-size:60px;"">+</div>",,html-keyboard-response,417,2036435,0.0-19.0-0.3,22510,List2B,black,woman,,,,null,,,,
null,"<img src=""stim_listB/shout4.gif""style=""height:400px;""></stim_listB>",,html-keyboard-response,418,2038440,0.0-19.0-1.3,22510,List2B,black,woman,,,,null,,,,
null,are shouting at each other,,html-keyboard-response,419,2040445,0.0-19.0-2.3,22510,List2B,black,woman,,,,null,,,,
9981,,,survey-text,420,2050429,0.0-19.0-3.3,22510,List2B,black,woman,,,,,"{""Q0"":""Mike and Kate are shouting at each other""}","<img src=""stim_listB/shout4.gif""style=""height:400px;""></stim_listB>",are shouting at each other,
null,"<div style=""font-size:60px;"">+</div>",,html-keyboard-response,421,2050933,0.0-19.0-0.4,22510,List2B,black,woman,,,,null,,,,
null,"<img src=""stim_listB/play8.gif""style=""height:400px;""></stim_listB>",,html-keyboard-response,422,2052941,0.0-19.0-1.4,22510,List2B,black,woman,,,,null,,,,
null,are playing with each other,,html-keyboard-response,423,2054945,0.0-19.0-2.4,22510,List2B,black,woman,,,,null,,,,
10348,,,survey-text,424,2065297,0.0-19.0-3.4,22510,List2B,black,woman,,,,,"{""Q0"":""Beth and Ruth are playing with each other""}","<img src=""stim_listB/play8.gif""style=""height:400px;""></stim_listB>",are playing with each other,
null,"<div style=""font-size:60px;"">+</div>",,html-keyboard-response,425,2065802,0.0-19.0-0.5,22510,List2B,black,woman,,,,null,,,,
null,"<img src=""stim_listB/fight7.gif""style=""height:400px;""></stim_listB>",,html-keyboard-response,426,2067806,0.0-19.0-1.5,22510,List2B,black,woman,,,,null,,,,
null,is fighting,,html-keyboard-response,427,2069809,0.0-19.0-2.5,22510,List2B,black,woman,,,,null,,,,
6506,,,survey-text,428,2076318,0.0-19.0-3.5,22510,List2B,black,woman,,,,,"{""Q0"":""Jane is fighting Kate ""}","<img src=""stim_listB/fight7.gif""style=""height:400px;""></stim_listB>",is fighting,
null,"<div style=""font-size:60px;"">+</div>",,html-keyboard-response,429,2076822,0.0-19.0-0.6,22510,List2B,black,woman,,,,null,,,,
null,"<img src=""stim_listB/argue3.gif""style=""height:400px;""></stim_listB>",,html-keyboard-response,430,2078827,0.0-19.0-1.6,22510,List2B,black,woman,,,,null,,,,
null,is arguing with,,html-keyboard-response,431,2080831,0.0-19.0-2.6,22510,List2B,black,woman,,,,null,,,,
7076,,,survey-text,432,2087909,0.0-19.0-3.6,22510,List2B,black,woman,,,,,"{""Q0"":""Mike is arguing with Beth""}","<img src=""stim_listB/argue3.gif""style=""height:400px;""></stim_listB>",is arguing with,
null,"<div style=""font-size:60px;"">+</div>",,html-keyboard-response,433,2088416,0.0-19.0-0.7,22510,List2B,black,woman,,,,null,,,,
null,"<img src=""stim_listB/marry6.gif""style=""height:400px;""></stim_listB>",,html-keyboard-response,434,2090419,0.0-19.0-1.7,22510,List2B,black,woman,,,,null,,,,
null,are marrying each other,,html-keyboard-response,435,2092424,0.0-19.0-2.7,22510,List2B,black,woman,,,,null,,,,
11894,,,survey-text,436,2104321,0.0-19.0-3.7,22510,List2B,black,woman,,,,,"{""Q0"":""Mike and Luke are marrying each other""}","<img src=""stim_listB/marry6.gif""style=""height:400px;""></stim_listB>",are marrying each other,
null,"<div style=""font-size:60px;"">+</div>",,html-keyboard-response,437,2104836,0.0-19.0-0.8,22510,List2B,black,woman,,,,null,,,,
null,"<img src=""stim_listB/shout8.gif""style=""height:400px;""></stim_listB>",,html-keyboard-response,438,2106840,0.0-19.0-1.8,22510,List2B,black,woman,,,,null,,,,
null,are shouting at each other,,html-keyboard-response,439,2108845,0.0-19.0-2.8,22510,List2B,black,woman,,,,null,,,,
13954,,,survey-text,440,2122802,0.0-19.0-3.8,22510,List2B,black,woman,,,,,"{""Q0"":""Kate and Jane are shouting at each other ""}","<img src=""stim_listB/shout8.gif""style=""height:400px;""></stim_listB>",are shouting at each other,
null,"<div style=""font-size:60px;"">+</div>",,html-keyboard-response,441,2123309,0.0-19.0-0.9,22510,List2B,black,woman,,,,null,,,,
null,"<img src=""stim_listB/marry8.gif""style=""height:400px;""></stim_listB>",,html-keyboard-response,442,2125315,0.0-19.0-1.9,22510,List2B,black,woman,,,,null,,,,
null,are marrying each other,,html-keyboard-response,443,2127317,0.0-19.0-2.9,22510,List2B,black,woman,,,,null,,,,
10137,,,survey-text,444,2137456,0.0-19.0-3.9,22510,List2B,black,woman,,,,,"{""Q0"":""Kate and Ruth are marrying each other""}","<img src=""stim_listB/marry8.gif""style=""height:400px;""></stim_listB>",are marrying each other,
null,"<div style=""font-size:60px;"">+</div>",,html-keyboard-response,445,2137964,0.0-19.0-0.10,22510,List2B,black,woman,,,,null,,,,
null,"<img src=""stim_listB/fight6.gif""style=""height:400px;""></stim_listB>",,html-keyboard-response,446,2139967,0.0-19.0-1.10,22510,List2B,black,woman,,,,null,,,,
null,are fighting each other,,html-keyboard-response,447,2141972,0.0-19.0-2.10,22510,List2B,black,woman,,,,null,,,,
8659,,,survey-text,448,2150635,0.0-19.0-3.10,22510,List2B,black,woman,,,,,"{""Q0"":""Luke and Fred are fighting each other ""}","<img src=""stim_listB/fight6.gif""style=""height:400px;""></stim_listB>",are fighting each other,
null,"<div style=""font-size:60px;"">+</div>",,html-keyboard-response,449,2151138,0.0-19.0-0.11,22510,List2B,black,woman,,,,null,,,,
null,"<img src=""stim_listB/touch3.gif""style=""height:400px;""></stim_listB>",,html-keyboard-response,450,2153144,0.0-19.0-1.11,22510,List2B,black,woman,,,,null,,,,
null,is touching,,html-keyboard-response,451,2155152,0.0-19.0-2.11,22510,List2B,black,woman,,,,null,,,,
6323,,,survey-text,452,2161478,0.0-19.0-3.11,22510,List2B,black,woman,,,,,"{""Q0"":""Mike is touching Kate ""}","<img src=""stim_listB/touch3.gif""style=""height:400px;""></stim_listB>",is touching,
null,"<div style=""font-size:60px;"">+</div>",,html-keyboard-response,453,2161983,0.0-19.0-0.12,22510,List2B,black,woman,,,,null,,,,
null,"<img src=""stim_listB/dance3.gif""style=""height:400px;""></stim_listB>",,html-keyboard-response,454,2163988,0.0-19.0-1.12,22510,List2B,black,woman,,,,null,,,,
null,is dancing with,,html-keyboard-response,455,2165992,0.0-19.0-2.12,22510,List2B,black,woman,,,,null,,,,
6948,,,survey-text,456,2172943,0.0-19.0-3.12,22510,List2B,black,woman,,,,,"{""Q0"":""Fred is dancing with Kate ""}","<img src=""stim_listB/dance3.gif""style=""height:400px;""></stim_listB>",is dancing with,
null,"<div style=""font-size:60px;"">+</div>",,html-keyboard-response,457,2173452,0.0-19.0-0.13,22510,List2B,black,woman,,,,null,,,,
null,"<img src=""stim_listB/fight3.gif""style=""height:400px;""></stim_listB>",,html-keyboard-response,458,2175457,0.0-19.0-1.13,22510,List2B,black,woman,,,,null,,,,
null,is fighting,,html-keyboard-response,459,2177461,0.0-19.0-2.13,22510,List2B,black,woman,,,,null,,,,
7211,,,survey-text,460,2184674,0.0-19.0-3.13,22510,List2B,black,woman,,,,,"{""Q0"":""Mike is fighting Kate ""}","<img src=""stim_listB/fight3.gif""style=""height:400px;""></stim_listB>",is fighting,
null,"<div style=""font-size:60px;"">+</div>",,html-keyboard-response,461,2185180,0.0-19.0-0.14,22510,List2B,black,woman,,,,null,,,,
null,"<img src=""stim_listB/dance7.gif""style=""height:400px;""></stim_listB>",,html-keyboard-response,462,2187187,0.0-19.0-1.14,22510,List2B,black,woman,,,,null,,,,
null,is dancing with,,html-keyboard-response,463,2189188,0.0-19.0-2.14,22510,List2B,black,woman,,,,null,,,,
6701,,,survey-text,464,2195894,0.0-19.0-3.14,22510,List2B,black,woman,,,,,"{""Q0"":""Kate is dancing with Ruth""}","<img src=""stim_listB/dance7.gif""style=""height:400px;""></stim_listB>",is dancing with,
null,"<div style=""font-size:60px;"">+</div>",,html-keyboard-response,465,2196403,0.0-19.0-0.15,22510,List2B,black,woman,,,,null,,,,
null,"<img src=""stim_listB/talk7.gif""style=""height:400px;""></stim_listB>",,html-keyboard-response,466,2198410,0.0-19.0-1.15,22510,List2B,black,woman,,,,null,,,,
null,is talking to,,html-keyboard-response,467,2200412,0.0-19.0-2.15,22510,List2B,black,woman,,,,null,,,,
6080,,,survey-text,468,2206494,0.0-19.0-3.15,22510,List2B,black,woman,,,,,"{""Q0"":""Ruth is talking to Kate ""}","<img src=""stim_listB/talk7.gif""style=""height:400px;""></stim_listB>",is talking to,
null,"<div style=""font-size:60px;"">+</div>",,html-keyboard-response,469,2206999,0.0-19.0-0.16,22510,List2B,black,woman,,,,null,,,,
null,"<img src=""stim_listB/touch6.gif""style=""height:400px;""></stim_listB>",,html-keyboard-response,470,2209006,0.0-19.0-1.16,22510,List2B,black,woman,,,,null,,,,
null,are touching each other,,html-keyboard-response,471,2211011,0.0-19.0-2.16,22510,List2B,black,woman,,,,null,,,,
25362,,,survey-text,472,2236376,0.0-19.0-3.16,22510,List2B,black,woman,,,,,"{""Q0"":""Fred and Luke are touching each other ""}","<img src=""stim_listB/touch6.gif""style=""height:400px;""></stim_listB>",are touching each other,
null,"<div style=""font-size:60px;"">+</div>",,html-keyboard-response,473,2236880,0.0-19.0-0.17,22510,List2B,black,woman,,,,null,,,,
null,"<img src=""stim_listB/shout6.gif""style=""height:400px;""></stim_listB>",,html-keyboard-response,474,2238883,0.0-19.0-1.17,22510,List2B,black,woman,,,,null,,,,
null,are shouting at each other,,html-keyboard-response,475,2240886,0.0-19.0-2.17,22510,List2B,black,woman,,,,null,,,,
13825,,,survey-text,476,2254713,0.0-19.0-3.17,22510,List2B,black,woman,,,,,"{""Q0"":""Mike and Dave are shouting at each other ""}","<img src=""stim_listB/shout6.gif""style=""height:400px;""></stim_listB>",are shouting at each other,
null,"<div style=""font-size:60px;"">+</div>",,html-keyboard-response,477,2255225,0.0-19.0-0.18,22510,List2B,black,woman,,,,null,,,,
null,"<img src=""stim_listB/talk2.gif""style=""height:400px;""></stim_listB>",,html-keyboard-response,478,2257230,0.0-19.0-1.18,22510,List2B,black,woman,,,,null,,,,
null,are talking to each other,,html-keyboard-response,479,2259238,0.0-19.0-2.18,22510,List2B,black,woman,,,,null,,,,
11051,,,survey-text,480,2270291,0.0-19.0-3.18,22510,List2B,black,woman,,,,,"{""Q0"":""Ruth and Dave are talking to each other ""}","<img src=""stim_listB/talk2.gif""style=""height:400px;""></stim_listB>",are talking to each other,
null,"<div style=""font-size:60px;"">+</div>",,html-keyboard-response,481,2270795,0.0-19.0-0.19,22510,List2B,black,woman,,,,null,,,,
null,"<img src=""stim_listB/kiss8.gif""style=""height:400px;""></stim_listB>",,html-keyboard-response,482,2272798,0.0-19.0-1.19,22510,List2B,black,woman,,,,null,,,,
null,are kissing each other,,html-keyboard-response,483,2274800,0.0-19.0-2.19,22510,List2B,black,woman,,,,null,,,,
10477,,,survey-text,484,2285278,0.0-19.0-3.19,22510,List2B,black,woman,,,,,"{""Q0"":""Kate and Jane are kissing each other ""}","<img src=""stim_listB/kiss8.gif""style=""height:400px;""></stim_listB>",are kissing each other,
2585,<p>Thank you for completing that task.</p><p>The final part of this session is a short questionnaire.</p><p>Press Continue.</p>,0,html-button-response,485,2287866,0.0-20.0,22510,List2B,black,woman,,,,,,,,
42933,,,survey-text,486,2331807,0.0-21.0,22510,List2B,black,woman,,,,,"{""Q0"":""27"",""Q1"":""English"",""Q2"":""English"",""Q3"":""England"",""Q4"":""Black British"",""Q5"":""Female ""}",,,demographics
16754,,,survey-likert,487,2348567,0.0-22.0,22510,List2B,black,woman,,,,,"{""Q0"":3}",,,likert_ESS
12814,,,survey-likert,488,2361385,0.0-23.0,22510,List2B,black,woman,,,,,"{""Q0"":4}",,,likert_NSSAL_Q1
5960,,,survey-likert,489,2367349,0.0-24.0,22510,List2B,black,woman,,,,,"{""Q0"":4}",,,likert_NSSAL_Q2
7328,,,survey-likert,490,2374682,0.0-25.0,22510,List2B,black,woman,,,,,"{""Q0"":4}",,,likert_CGRS_Q1
2868,,,survey-likert,491,2377555,0.0-26.0,22510,List2B,black,woman,,,,,"{""Q0"":4}",,,likert_CGRS_Q2
2810,,,survey-likert,492,2380369,0.0-27.0,22510,List2B,black,woman,,,,,"{""Q0"":4}",,,likert_CGRS_Q3
12295,,,survey-text,493,2392669,0.0-28.0,22510,List2B,black,woman,,,,,"{""Q0"":""ccc""}",,,worker_id
24828,,,external-html,494,2418050,0.0-29.0,22510,List2B,black,woman,debrief.html,,,,,,,
