rt,stimulus,button_pressed,trial_type,trial_index,time_elapsed,internal_node_id,subject,list,ppt_race,ppt_gender,url,first_guess,correct,key_press,responses,image_type,phrase_type,test_part
2381,Welcome to the experiment. Press Continue to begin.,0,html-button-response,0,2388,0.0-0.0,22952,List1A,white,woman,,,,,,,,
30985,,,external-html,1,34698,0.0-1.0,22952,List1A,white,woman,consent.html,,,,,,,
19076,"<p>On the next page, you will see portraits of 8 people and their names.</p><p>Your first task is to take a few minutes to memorise the names of these people.</p><p>You will have to recall their names during the rest of the experiment, so it is</p><p>essential that you try to memorise these people and their names as best as you can.</p><br><p><strong>You will then be tested on your memory of these names and portraits.</strong></p><br><p>The experiment will start after you have completed this memory test.</p><br><p>Ready?</p>",0,html-button-response,2,53777,0.0-2.0,22952,List1A,white,woman,,,,,,,,
115824,"<img src='img/portrait_matrix_list1.jpg' style='width:900px;height:500px;''></img><p>If you have memorised all the portraits and names and are ready to start, press Continue.</p><p><strong>Please note: Your memory of these faces will be tested 4 times during this experiment.</strong></p>",0,html-button-response,3,170612,0.0-3.0-0.0,22952,List1A,white,woman,,,,,,,,
14712,"<img src=""portrait/BW1.jpg""style=""height:400px;""></img>",0,html-button-response,4,186330,0.0-3.0-1.0,22952,List1A,white,woman,,TRUE,0,,,,,
null,CORRECT,,html-keyboard-response,5,187849,0.0-3.0-2.0-0.0,22952,List1A,white,woman,,,,null,,,,
5052,"<img src=""portrait/BM1.jpg""style=""height:400px;""></img>",4,html-button-response,6,192904,0.0-3.0-4.0,22952,List1A,white,woman,,TRUE,4,,,,,
null,CORRECT,,html-keyboard-response,7,194437,0.0-3.0-5.0-0.0,22952,List1A,white,woman,,,,null,,,,
5120,"<img src=""portrait/BW2.jpg""style=""height:400px;""></img>",2,html-button-response,8,199561,0.0-3.0-7.0,22952,List1A,white,woman,,TRUE,2,,,,,
null,CORRECT,,html-keyboard-response,9,201081,0.0-3.0-8.0-0.0,22952,List1A,white,woman,,,,null,,,,
7937,"<img src=""portrait/WW1.jpg""style=""height:400px;""></img>",1,html-button-response,10,209023,0.0-3.0-10.0,22952,List1A,white,woman,,TRUE,1,,,,,
null,CORRECT,,html-keyboard-response,11,210554,0.0-3.0-11.0-0.0,22952,List1A,white,woman,,,,null,,,,
11347,"<img src=""portrait/WM2.jpg""style=""height:400px;""></img>",5,html-button-response,12,221906,0.0-3.0-13.0,22952,List1A,white,woman,,TRUE,7,,,,,
5157,"<img src=""portrait/WM2.jpg""style=""height:400px;""></img>",7,html-button-response,13,228072,0.0-3.0-15.0-0.0,22952,List1A,white,woman,,FALSE,7,,,,,
null,CORRECT,,html-keyboard-response,14,229600,0.0-3.0-15.0-1.0-0.0,22952,List1A,white,woman,,,,null,,,,
6915,"<img src=""portrait/WW2.jpg""style=""height:400px;""></img>",3,html-button-response,15,236519,0.0-3.0-16.0,22952,List1A,white,woman,,TRUE,3,,,,,
null,CORRECT,,html-keyboard-response,16,238030,0.0-3.0-17.0-0.0,22952,List1A,white,woman,,,,null,,,,
15117,"<img src=""portrait/WM1.jpg""style=""height:400px;""></img>",6,html-button-response,17,253149,0.0-3.0-19.0,22952,List1A,white,woman,,TRUE,6,,,,,
null,CORRECT,,html-keyboard-response,18,254656,0.0-3.0-20.0-0.0,22952,List1A,white,woman,,,,null,,,,
5274,"<img src=""portrait/BM2.jpg""style=""height:400px;""></img>",5,html-button-response,19,259934,0.0-3.0-22.0,22952,List1A,white,woman,,TRUE,5,,,,,
null,CORRECT,,html-keyboard-response,20,261460,0.0-3.0-23.0-0.0,22952,List1A,white,woman,,,,null,,,,
2097,<p>You got 7 out of 8 right first time. Press Continue.</p>,0,html-button-response,21,263559,0.0-3.0-25.0,22952,List1A,white,woman,,,,,,,,
2982,"As you did not score 100%, the memory game will repeat. Press Continue.",0,html-button-response,22,267558,0.0-3.0-26.0-0.0,22952,List1A,white,woman,,,,,,,,
13026,"<img src='img/portrait_matrix_list1.jpg' style='width:900px;height:500px;''></img><p>If you have memorised all the portraits and names and are ready to start, press Continue.</p><p><strong>Please note: Your memory of these faces will be tested 4 times during this experiment.</strong></p>",0,html-button-response,23,281601,0.0-3.1-0.1,22952,List1A,white,woman,,,,,,,,
4512,"<img src=""portrait/BW1.jpg""style=""height:400px;""></img>",0,html-button-response,24,287126,0.0-3.1-1.1,22952,List1A,white,woman,,TRUE,0,,,,,
null,CORRECT,,html-keyboard-response,25,288647,0.0-3.1-2.1-0.1,22952,List1A,white,woman,,,,null,,,,
3357,"<img src=""portrait/BM1.jpg""style=""height:400px;""></img>",4,html-button-response,26,292008,0.0-3.1-4.1,22952,List1A,white,woman,,TRUE,4,,,,,
null,CORRECT,,html-keyboard-response,27,293526,0.0-3.1-5.1-0.1,22952,List1A,white,woman,,,,null,,,,
3236,"<img src=""portrait/BW2.jpg""style=""height:400px;""></img>",2,html-button-response,28,296766,0.0-3.1-7.1,22952,List1A,white,woman,,TRUE,2,,,,,
null,CORRECT,,html-keyboard-response,29,298299,0.0-3.1-8.1-0.1,22952,List1A,white,woman,,,,null,,,,
5585,"<img src=""portrait/WW1.jpg""style=""height:400px;""></img>",1,html-button-response,30,303888,0.0-3.1-10.1,22952,List1A,white,woman,,TRUE,1,,,,,
null,CORRECT,,html-keyboard-response,31,305413,0.0-3.1-11.1-0.1,22952,List1A,white,woman,,,,null,,,,
3839,"<img src=""portrait/WM2.jpg""style=""height:400px;""></img>",7,html-button-response,32,309256,0.0-3.1-13.1,22952,List1A,white,woman,,TRUE,7,,,,,
null,CORRECT,,html-keyboard-response,33,310775,0.0-3.1-14.1-0.1,22952,List1A,white,woman,,,,null,,,,
2825,"<img src=""portrait/WW2.jpg""style=""height:400px;""></img>",3,html-button-response,34,313604,0.0-3.1-16.1,22952,List1A,white,woman,,TRUE,3,,,,,
null,CORRECT,,html-keyboard-response,35,315128,0.0-3.1-17.1-0.1,22952,List1A,white,woman,,,,null,,,,
3065,"<img src=""portrait/WM1.jpg""style=""height:400px;""></img>",6,html-button-response,36,318198,0.0-3.1-19.1,22952,List1A,white,woman,,TRUE,6,,,,,
null,CORRECT,,html-keyboard-response,37,319723,0.0-3.1-20.1-0.1,22952,List1A,white,woman,,,,null,,,,
3179,"<img src=""portrait/BM2.jpg""style=""height:400px;""></img>",5,html-button-response,38,322907,0.0-3.1-22.1,22952,List1A,white,woman,,TRUE,5,,,,,
null,CORRECT,,html-keyboard-response,39,324434,0.0-3.1-23.1-0.1,22952,List1A,white,woman,,,,null,,,,
1723,<p>You got 8 out of 8 right first time. Press Continue.</p>,0,html-button-response,40,326160,0.0-3.1-25.1,22952,List1A,white,woman,,,,,,,,
79600,"<p>In this experiment, you will view photographs of the people from the memory game interacting.</p><p>By using the <strong>exact</strong> phrase given <i>after</i> the photograph appears and recalling the correct names of the people in the photographs, form a sentence describing the interaction. You do not need to capitalise names.</p><p>Type your answer in the space provided. Please complete every sentence before moving onto the next trial.</p><p>You will only have a few seconds to memorise each given photograph and phrase before you can respond, so try your best to focus.</p><p>An example is given below. Press 'Continue' when you are ready.</p><img src='img/speaking_example.jpg' style='width:800px;height:460px;''></img>",0,html-button-response,41,406764,0.0-4.0,22952,List1A,white,woman,,,,,,,,
2923,"<p>Before the experiment starts, you will watch two example trials. Press 'Continue'.</p>",0,html-button-response,42,410692,0.0-5.0,22952,List1A,white,woman,,,,,,,,
null,<img src='img/meet_eg.gif' style='height:400px;''></img>,,html-keyboard-response,43,413699,0.0-6.0,22952,List1A,white,woman,,,,null,,,,
null,<p>is meeting</p>,,html-keyboard-response,44,415705,0.0-7.0,22952,List1A,white,woman,,,,null,,,,
4960,<p><b>Answer:</b> kate is meeting beth</p>,0,html-button-response,45,420668,0.0-8.0,22952,List1A,white,woman,,,,,,,,
null,<img src='img/look_eg.gif' style='height:400px;''></img>,,html-keyboard-response,46,423683,0.0-9.0,22952,List1A,white,woman,,,,null,,,,
null,<p>are looking at each other</p>,,html-keyboard-response,47,425695,0.0-10.0,22952,List1A,white,woman,,,,null,,,,
40808,<p><b>Answer:</b> luke and dave are looking at each other</p>,0,html-button-response,48,466505,0.0-11.0,22952,List1A,white,woman,,,,,,,,
20445,"<p>Ready to start the experiment?</p><br><p><strong>Remember to describe the picture using a full sentence,</strong></p><p><strong>that combines the names of the people with the <i>exact</i> phrase given.</strong></p><p><strong>To receive full payment you must do this correctly.</strong></p><p><strong> You do not need to capitalise names or use punctuation.</strong></p><br><p>Press 'Continue' to begin.</p>",0,html-button-response,49,487960,0.0-12.0,22952,List1A,white,woman,,,,,,,,
null,"<div style=""font-size:60px;"">+</div>",,html-keyboard-response,50,489470,0.0-13.0-0.0,22952,List1A,white,woman,,,,null,,,,
null,"<img src=""stim_listA/fight3.gif""style=""height:400px;""></stim_listA>",,html-keyboard-response,51,491472,0.0-13.0-1.0,22952,List1A,white,woman,,,,null,,,,
null,is fighting,,html-keyboard-response,52,493484,0.0-13.0-2.0,22952,List1A,white,woman,,,,null,,,,
19378,,,survey-text,53,512864,0.0-13.0-3.0,22952,List1A,white,woman,,,,,"{""Q0"":""""}","<img src=""stim_listA/fight3.gif""style=""height:400px;""></stim_listA>",is fighting,
null,"<div style=""font-size:60px;"">+</div>",,html-keyboard-response,54,513378,0.0-13.0-0.1,22952,List1A,white,woman,,,,null,,,,
null,"<img src=""stim_listA/argue3.gif""style=""height:400px;""></stim_listA>",,html-keyboard-response,55,515384,0.0-13.0-1.1,22952,List1A,white,woman,,,,null,,,,
null,is arguing with,,html-keyboard-response,56,517390,0.0-13.0-2.1,22952,List1A,white,woman,,,,null,,,,
7395,,,survey-text,57,524789,0.0-13.0-3.1,22952,List1A,white,woman,,,,,"{""Q0"":""""}","<img src=""stim_listA/argue3.gif""style=""height:400px;""></stim_listA>",is arguing with,
null,"<div style=""font-size:60px;"">+</div>",,html-keyboard-response,58,525298,0.0-13.0-0.2,22952,List1A,white,woman,,,,null,,,,
null,"<img src=""stim_listA/shout5.gif""style=""height:400px;""></stim_listA>",,html-keyboard-response,59,527306,0.0-13.0-1.2,22952,List1A,white,woman,,,,null,,,,
null,is shouting at,,html-keyboard-response,60,529311,0.0-13.0-2.2,22952,List1A,white,woman,,,,null,,,,
11473,,,survey-text,61,540786,0.0-13.0-3.2,22952,List1A,white,woman,,,,,"{""Q0"":""fred and luke""}","<img src=""stim_listA/shout5.gif""style=""height:400px;""></stim_listA>",is shouting at,
null,"<div style=""font-size:60px;"">+</div>",,html-keyboard-response,62,541298,0.0-13.0-0.3,22952,List1A,white,woman,,,,null,,,,
null,"<img src=""stim_listA/fight8.gif""style=""height:400px;""></stim_listA>",,html-keyboard-response,63,543303,0.0-13.0-1.3,22952,List1A,white,woman,,,,null,,,,
null,are fighting each other,,html-keyboard-response,64,545312,0.0-13.0-2.3,22952,List1A,white,woman,,,,null,,,,
22504,,,survey-text,65,567819,0.0-13.0-3.3,22952,List1A,white,woman,,,,,"{""Q0"":""ruth and beth are fighting each other""}","<img src=""stim_listA/fight8.gif""style=""height:400px;""></stim_listA>",are fighting each other,
null,"<div style=""font-size:60px;"">+</div>",,html-keyboard-response,66,568336,0.0-13.0-0.4,22952,List1A,white,woman,,,,null,,,,
null,"<img src=""stim_listA/talk1.gif""style=""height:400px;""></stim_listA>",,html-keyboard-response,67,570339,0.0-13.0-1.4,22952,List1A,white,woman,,,,null,,,,
null,is talking to,,html-keyboard-response,68,572352,0.0-13.0-2.4,22952,List1A,white,woman,,,,null,,,,
26517,,,survey-text,69,598871,0.0-13.0-3.4,22952,List1A,white,woman,,,,,"{""Q0"":""fred and kate are talking to each other""}","<img src=""stim_listA/talk1.gif""style=""height:400px;""></stim_listA>",is talking to,
null,"<div style=""font-size:60px;"">+</div>",,html-keyboard-response,70,599378,0.0-13.0-0.5,22952,List1A,white,woman,,,,null,,,,
null,"<img src=""stim_listA/dance3.gif""style=""height:400px;""></stim_listA>",,html-keyboard-response,71,601381,0.0-13.0-1.5,22952,List1A,white,woman,,,,null,,,,
null,is dancing with,,html-keyboard-response,72,603395,0.0-13.0-2.5,22952,List1A,white,woman,,,,null,,,,
26053,,,survey-text,73,629450,0.0-13.0-3.5,22952,List1A,white,woman,,,,,"{""Q0"":""jane is dancing with luke""}","<img src=""stim_listA/dance3.gif""style=""height:400px;""></stim_listA>",is dancing with,
null,"<div style=""font-size:60px;"">+</div>",,html-keyboard-response,74,629962,0.0-13.0-0.6,22952,List1A,white,woman,,,,null,,,,
null,"<img src=""stim_listA/play1.gif""style=""height:400px;""></stim_listA>",,html-keyboard-response,75,631965,0.0-13.0-1.6,22952,List1A,white,woman,,,,null,,,,
null,is playing with,,html-keyboard-response,76,633976,0.0-13.0-2.6,22952,List1A,white,woman,,,,null,,,,
15286,,,survey-text,77,649264,0.0-13.0-3.6,22952,List1A,white,woman,,,,,"{""Q0"":""kate is playing with mike""}","<img src=""stim_listA/play1.gif""style=""height:400px;""></stim_listA>",is playing with,
null,"<div style=""font-size:60px;"">+</div>",,html-keyboard-response,78,649771,0.0-13.0-0.7,22952,List1A,white,woman,,,,null,,,,
null,"<img src=""stim_listA/fight7.gif""style=""height:400px;""></stim_listA>",,html-keyboard-response,79,651776,0.0-13.0-1.7,22952,List1A,white,woman,,,,null,,,,
null,is fighting,,html-keyboard-response,80,653782,0.0-13.0-2.7,22952,List1A,white,woman,,,,null,,,,
26397,,,survey-text,81,680181,0.0-13.0-3.7,22952,List1A,white,woman,,,,,"{""Q0"":""jane and kate are fighting with each other""}","<img src=""stim_listA/fight7.gif""style=""height:400px;""></stim_listA>",is fighting,
null,"<div style=""font-size:60px;"">+</div>",,html-keyboard-response,82,680689,0.0-13.0-0.8,22952,List1A,white,woman,,,,null,,,,
null,"<img src=""stim_listA/marry4.gif""style=""height:400px;""></stim_listA>",,html-keyboard-response,83,682694,0.0-13.0-1.8,22952,List1A,white,woman,,,,null,,,,
null,are marrying each other,,html-keyboard-response,84,684698,0.0-13.0-2.8,22952,List1A,white,woman,,,,null,,,,
17837,,,survey-text,85,702538,0.0-13.0-3.8,22952,List1A,white,woman,,,,,"{""Q0"":""luke and jane are marrying each other""}","<img src=""stim_listA/marry4.gif""style=""height:400px;""></stim_listA>",are marrying each other,
null,"<div style=""font-size:60px;"">+</div>",,html-keyboard-response,86,703047,0.0-13.0-0.9,22952,List1A,white,woman,,,,null,,,,
null,"<img src=""stim_listA/kiss4.gif""style=""height:400px;""></stim_listA>",,html-keyboard-response,87,705051,0.0-13.0-1.9,22952,List1A,white,woman,,,,null,,,,
null,are kissing each other,,html-keyboard-response,88,707061,0.0-13.0-2.9,22952,List1A,white,woman,,,,null,,,,
15935,,,survey-text,89,722999,0.0-13.0-3.9,22952,List1A,white,woman,,,,,"{""Q0"":""jane and dave are kissing each other""}","<img src=""stim_listA/kiss4.gif""style=""height:400px;""></stim_listA>",are kissing each other,
null,"<div style=""font-size:60px;"">+</div>",,html-keyboard-response,90,723514,0.0-13.0-0.10,22952,List1A,white,woman,,,,null,,,,
null,"<img src=""stim_listA/kiss1.gif""style=""height:400px;""></stim_listA>",,html-keyboard-response,91,725517,0.0-13.0-1.10,22952,List1A,white,woman,,,,null,,,,
null,is kissing,,html-keyboard-response,92,727528,0.0-13.0-2.10,22952,List1A,white,woman,,,,null,,,,
19854,,,survey-text,93,747386,0.0-13.0-3.10,22952,List1A,white,woman,,,,,"{""Q0"":""fred is kissing beth""}","<img src=""stim_listA/kiss1.gif""style=""height:400px;""></stim_listA>",is kissing,
null,"<div style=""font-size:60px;"">+</div>",,html-keyboard-response,94,747905,0.0-13.0-0.11,22952,List1A,white,woman,,,,null,,,,
null,"<img src=""stim_listA/flirt1.gif""style=""height:400px;""></stim_listA>",,html-keyboard-response,95,749909,0.0-13.0-1.11,22952,List1A,white,woman,,,,null,,,,
null,is flirting with,,html-keyboard-response,96,751920,0.0-13.0-2.11,22952,List1A,white,woman,,,,null,,,,
26060,,,survey-text,97,777983,0.0-13.0-3.11,22952,List1A,white,woman,,,,,"{""Q0"":""fred is flirting with kate""}","<img src=""stim_listA/flirt1.gif""style=""height:400px;""></stim_listA>",is flirting with,
null,"<div style=""font-size:60px;"">+</div>",,html-keyboard-response,98,778500,0.0-13.0-0.12,22952,List1A,white,woman,,,,null,,,,
null,"<img src=""stim_listA/shout7.gif""style=""height:400px;""></stim_listA>",,html-keyboard-response,99,780518,0.0-13.0-1.12,22952,List1A,white,woman,,,,null,,,,
null,is shouting at,,html-keyboard-response,100,782520,0.0-13.0-2.12,22952,List1A,white,woman,,,,null,,,,
27551,,,survey-text,101,810073,0.0-13.0-3.12,22952,List1A,white,woman,,,,,"{""Q0"":""beth is shouting at ruth""}","<img src=""stim_listA/shout7.gif""style=""height:400px;""></stim_listA>",is shouting at,
null,"<div style=""font-size:60px;"">+</div>",,html-keyboard-response,102,810584,0.0-13.0-0.13,22952,List1A,white,woman,,,,null,,,,
null,"<img src=""stim_listA/marry8.gif""style=""height:400px;""></stim_listA>",,html-keyboard-response,103,812587,0.0-13.0-1.13,22952,List1A,white,woman,,,,null,,,,
null,are marrying each other,,html-keyboard-response,104,814599,0.0-13.0-2.13,22952,List1A,white,woman,,,,null,,,,
28561,,,survey-text,105,843163,0.0-13.0-3.13,22952,List1A,white,woman,,,,,"{""Q0"":""beth and jane are marrying each other""}","<img src=""stim_listA/marry8.gif""style=""height:400px;""></stim_listA>",are marrying each other,
null,"<div style=""font-size:60px;"">+</div>",,html-keyboard-response,106,843675,0.0-13.0-0.14,22952,List1A,white,woman,,,,null,,,,
null,"<img src=""stim_listA/shout6.gif""style=""height:400px;""></stim_listA>",,html-keyboard-response,107,845679,0.0-13.0-1.14,22952,List1A,white,woman,,,,null,,,,
null,are shouting at each other,,html-keyboard-response,108,847686,0.0-13.0-2.14,22952,List1A,white,woman,,,,null,,,,
30388,,,survey-text,109,878076,0.0-13.0-3.14,22952,List1A,white,woman,,,,,"{""Q0"":""mike and dave are shouting at each other""}","<img src=""stim_listA/shout6.gif""style=""height:400px;""></stim_listA>",are shouting at each other,
null,"<div style=""font-size:60px;"">+</div>",,html-keyboard-response,110,878587,0.0-13.0-0.15,22952,List1A,white,woman,,,,null,,,,
null,"<img src=""stim_listA/dance6.gif""style=""height:400px;""></stim_listA>",,html-keyboard-response,111,880590,0.0-13.0-1.15,22952,List1A,white,woman,,,,null,,,,
null,are dancing with each other,,html-keyboard-response,112,882602,0.0-13.0-2.15,22952,List1A,white,woman,,,,null,,,,
26842,,,survey-text,113,909447,0.0-13.0-3.15,22952,List1A,white,woman,,,,,"{""Q0"":""mike and luke are dancing with each other""}","<img src=""stim_listA/dance6.gif""style=""height:400px;""></stim_listA>",are dancing with each other,
null,"<div style=""font-size:60px;"">+</div>",,html-keyboard-response,114,909953,0.0-13.0-0.16,22952,List1A,white,woman,,,,null,,,,
null,"<img src=""stim_listA/talk5.gif""style=""height:400px;""></stim_listA>",,html-keyboard-response,115,911957,0.0-13.0-1.16,22952,List1A,white,woman,,,,null,,,,
null,is talking to,,html-keyboard-response,116,913965,0.0-13.0-2.16,22952,List1A,white,woman,,,,null,,,,
14198,,,survey-text,117,928165,0.0-13.0-3.16,22952,List1A,white,woman,,,,,"{""Q0"":""fred and dave are talking to each other""}","<img src=""stim_listA/talk5.gif""style=""height:400px;""></stim_listA>",is talking to,
null,"<div style=""font-size:60px;"">+</div>",,html-keyboard-response,118,928671,0.0-13.0-0.17,22952,List1A,white,woman,,,,null,,,,
null,"<img src=""stim_listA/touch6.gif""style=""height:400px;""></stim_listA>",,html-keyboard-response,119,930688,0.0-13.0-1.17,22952,List1A,white,woman,,,,null,,,,
null,are touching each other,,html-keyboard-response,120,932690,0.0-13.0-2.17,22952,List1A,white,woman,,,,null,,,,
22314,,,survey-text,121,955007,0.0-13.0-3.17,22952,List1A,white,woman,,,,,"{""Q0"":""fred and luke are touching each other""}","<img src=""stim_listA/touch6.gif""style=""height:400px;""></stim_listA>",are touching each other,
null,"<div style=""font-size:60px;"">+</div>",,html-keyboard-response,122,955521,0.0-13.0-0.18,22952,List1A,white,woman,,,,null,,,,
null,"<img src=""stim_listA/fight4.gif""style=""height:400px;""></stim_listA>",,html-keyboard-response,123,957531,0.0-13.0-1.18,22952,List1A,white,woman,,,,null,,,,
null,are fighting each other,,html-keyboard-response,124,959543,0.0-13.0-2.18,22952,List1A,white,woman,,,,null,,,,
28261,,,survey-text,125,987807,0.0-13.0-3.18,22952,List1A,white,woman,,,,,"{""Q0"":""ruth and luke are fighting each other""}","<img src=""stim_listA/fight4.gif""style=""height:400px;""></stim_listA>",are fighting each other,
null,"<div style=""font-size:60px;"">+</div>",,html-keyboard-response,126,988324,0.0-13.0-0.19,22952,List1A,white,woman,,,,null,,,,
null,"<img src=""stim_listA/shout2.gif""style=""height:400px;""></stim_listA>",,html-keyboard-response,127,990327,0.0-13.0-1.19,22952,List1A,white,woman,,,,null,,,,
null,are shouting at each other,,html-keyboard-response,128,992343,0.0-13.0-2.19,22952,List1A,white,woman,,,,null,,,,
20467,,,survey-text,129,1012812,0.0-13.0-3.19,22952,List1A,white,woman,,,,,"{""Q0"":""kate and mike are shouting at each other""}","<img src=""stim_listA/shout2.gif""style=""height:400px;""></stim_listA>",are shouting at each other,
14690,"<img src='img/portrait_matrix_list1.jpg' style='width:900px;height:500px;''></img><p>If you have memorised all the portraits and names and are ready to start, press Continue.</p><p><strong>Please note: Your memory of these faces will be tested 4 times during this experiment.</strong></p>",0,html-button-response,130,1027505,0.0-14.0-0.0,22952,List1A,white,woman,,,,,,,,
2711,"<img src=""portrait/WM1.jpg""style=""height:400px;""></img>",6,html-button-response,131,1031225,0.0-14.0-1.0,22952,List1A,white,woman,,TRUE,6,,,,,
null,CORRECT,,html-keyboard-response,132,1032809,0.0-14.0-2.0-0.0,22952,List1A,white,woman,,,,null,,,,
5198,"<img src=""portrait/BW1.jpg""style=""height:400px;""></img>",0,html-button-response,133,1038009,0.0-14.0-4.0,22952,List1A,white,woman,,TRUE,0,,,,,
null,CORRECT,,html-keyboard-response,134,1039533,0.0-14.0-5.0-0.0,22952,List1A,white,woman,,,,null,,,,
3987,"<img src=""portrait/WM2.jpg""style=""height:400px;""></img>",7,html-button-response,135,1043524,0.0-14.0-7.0,22952,List1A,white,woman,,TRUE,7,,,,,
null,CORRECT,,html-keyboard-response,136,1045043,0.0-14.0-8.0-0.0,22952,List1A,white,woman,,,,null,,,,
2615,"<img src=""portrait/WW1.jpg""style=""height:400px;""></img>",1,html-button-response,137,1047662,0.0-14.0-10.0,22952,List1A,white,woman,,TRUE,1,,,,,
null,CORRECT,,html-keyboard-response,138,1049188,0.0-14.0-11.0-0.0,22952,List1A,white,woman,,,,null,,,,
3160,"<img src=""portrait/WW2.jpg""style=""height:400px;""></img>",3,html-button-response,139,1052351,0.0-14.0-13.0,22952,List1A,white,woman,,TRUE,3,,,,,
null,CORRECT,,html-keyboard-response,140,1053871,0.0-14.0-14.0-0.0,22952,List1A,white,woman,,,,null,,,,
2443,"<img src=""portrait/BM2.jpg""style=""height:400px;""></img>",5,html-button-response,141,1056318,0.0-14.0-16.0,22952,List1A,white,woman,,TRUE,5,,,,,
null,CORRECT,,html-keyboard-response,142,1057846,0.0-14.0-17.0-0.0,22952,List1A,white,woman,,,,null,,,,
5576,"<img src=""portrait/BW2.jpg""style=""height:400px;""></img>",2,html-button-response,143,1063425,0.0-14.0-19.0,22952,List1A,white,woman,,TRUE,2,,,,,
null,CORRECT,,html-keyboard-response,144,1064971,0.0-14.0-20.0-0.0,22952,List1A,white,woman,,,,null,,,,
3669,"<img src=""portrait/BM1.jpg""style=""height:400px;""></img>",4,html-button-response,145,1068643,0.0-14.0-22.0,22952,List1A,white,woman,,TRUE,4,,,,,
null,CORRECT,,html-keyboard-response,146,1070166,0.0-14.0-23.0-0.0,22952,List1A,white,woman,,,,null,,,,
1538,<p>You got 8 out of 8 right first time. Press Continue.</p>,0,html-button-response,147,1071708,0.0-14.0-25.0,22952,List1A,white,woman,,,,,,,,
null,"<div style=""font-size:60px;"">+</div>",,html-keyboard-response,148,1073230,0.0-15.0-0.0,22952,List1A,white,woman,,,,null,,,,
null,"<img src=""stim_listA/shout3.gif""style=""height:400px;""></stim_listA>",,html-keyboard-response,149,1075233,0.0-15.0-1.0,22952,List1A,white,woman,,,,null,,,,
null,is shouting at,,html-keyboard-response,150,1077237,0.0-15.0-2.0,22952,List1A,white,woman,,,,null,,,,
18656,,,survey-text,151,1095895,0.0-15.0-3.0,22952,List1A,white,woman,,,,,"{""Q0"":""ruth is shouting at luke""}","<img src=""stim_listA/shout3.gif""style=""height:400px;""></stim_listA>",is shouting at,
null,"<div style=""font-size:60px;"">+</div>",,html-keyboard-response,152,1096401,0.0-15.0-0.1,22952,List1A,white,woman,,,,null,,,,
null,"<img src=""stim_listA/dance8.gif""style=""height:400px;""></stim_listA>",,html-keyboard-response,153,1098403,0.0-15.0-1.1,22952,List1A,white,woman,,,,null,,,,
null,are dancing with each other,,html-keyboard-response,154,1100405,0.0-15.0-2.1,22952,List1A,white,woman,,,,null,,,,
22824,,,survey-text,155,1123232,0.0-15.0-3.1,22952,List1A,white,woman,,,,,"{""Q0"":""ruth and kate are dancing with each other""}","<img src=""stim_listA/dance8.gif""style=""height:400px;""></stim_listA>",are dancing with each other,
null,"<div style=""font-size:60px;"">+</div>",,html-keyboard-response,156,1123739,0.0-15.0-0.2,22952,List1A,white,woman,,,,null,,,,
null,"<img src=""stim_listA/touch1.gif""style=""height:400px;""></stim_listA>",,html-keyboard-response,157,1125744,0.0-15.0-1.2,22952,List1A,white,woman,,,,null,,,,
null,is touching,,html-keyboard-response,158,1127751,0.0-15.0-2.2,22952,List1A,white,woman,,,,null,,,,
12359,,,survey-text,159,1140111,0.0-15.0-3.2,22952,List1A,white,woman,,,,,"{""Q0"":""kate is touching mike""}","<img src=""stim_listA/touch1.gif""style=""height:400px;""></stim_listA>",is touching,
null,"<div style=""font-size:60px;"">+</div>",,html-keyboard-response,160,1140619,0.0-15.0-0.3,22952,List1A,white,woman,,,,null,,,,
null,"<img src=""stim_listA/talk3.gif""style=""height:400px;""></stim_listA>",,html-keyboard-response,161,1142622,0.0-15.0-1.3,22952,List1A,white,woman,,,,null,,,,
null,is talking to,,html-keyboard-response,162,1144634,0.0-15.0-2.3,22952,List1A,white,woman,,,,null,,,,
30638,,,survey-text,163,1175275,0.0-15.0-3.3,22952,List1A,white,woman,,,,,"{""Q0"":""jane is talking to luke""}","<img src=""stim_listA/talk3.gif""style=""height:400px;""></stim_listA>",is talking to,
null,"<div style=""font-size:60px;"">+</div>",,html-keyboard-response,164,1175780,0.0-15.0-0.4,22952,List1A,white,woman,,,,null,,,,
null,"<img src=""stim_listA/argue5.gif""style=""height:400px;""></stim_listA>",,html-keyboard-response,165,1177785,0.0-15.0-1.4,22952,List1A,white,woman,,,,null,,,,
null,is arguing with,,html-keyboard-response,166,1179786,0.0-15.0-2.4,22952,List1A,white,woman,,,,null,,,,
18777,,,survey-text,167,1198567,0.0-15.0-3.4,22952,List1A,white,woman,,,,,"{""Q0"":""luke is arguing with mike""}","<img src=""stim_listA/argue5.gif""style=""height:400px;""></stim_listA>",is arguing with,
null,"<div style=""font-size:60px;"">+</div>",,html-keyboard-response,168,1199073,0.0-15.0-0.5,22952,List1A,white,woman,,,,null,,,,
null,"<img src=""stim_listA/talk7.gif""style=""height:400px;""></stim_listA>",,html-keyboard-response,169,1201092,0.0-15.0-1.5,22952,List1A,white,woman,,,,null,,,,
null,is talking to,,html-keyboard-response,170,1203094,0.0-15.0-2.5,22952,List1A,white,woman,,,,null,,,,
16533,,,survey-text,171,1219629,0.0-15.0-3.5,22952,List1A,white,woman,,,,,"{""Q0"":""jane is talking to beth""}","<img src=""stim_listA/talk7.gif""style=""height:400px;""></stim_listA>",is talking to,
null,"<div style=""font-size:60px;"">+</div>",,html-keyboard-response,172,1220147,0.0-15.0-0.6,22952,List1A,white,woman,,,,null,,,,
null,"<img src=""stim_listA/argue2.gif""style=""height:400px;""></stim_listA>",,html-keyboard-response,173,1222149,0.0-15.0-1.6,22952,List1A,white,woman,,,,null,,,,
null,are arguing with each other,,html-keyboard-response,174,1224159,0.0-15.0-2.6,22952,List1A,white,woman,,,,null,,,,
21467,,,survey-text,175,1245629,0.0-15.0-3.6,22952,List1A,white,woman,,,,,"{""Q0"":""fred and kate are arguing with each other""}","<img src=""stim_listA/argue2.gif""style=""height:400px;""></stim_listA>",are arguing with each other,
null,"<div style=""font-size:60px;"">+</div>",,html-keyboard-response,176,1246138,0.0-15.0-0.7,22952,List1A,white,woman,,,,null,,,,
null,"<img src=""stim_listA/marry3.gif""style=""height:400px;""></stim_listA>",,html-keyboard-response,177,1248142,0.0-15.0-1.7,22952,List1A,white,woman,,,,null,,,,
null,is marrying,,html-keyboard-response,178,1250148,0.0-15.0-2.7,22952,List1A,white,woman,,,,null,,,,
14942,,,survey-text,179,1265092,0.0-15.0-3.7,22952,List1A,white,woman,,,,,"{""Q0"":""dave is marrying ruth""}","<img src=""stim_listA/marry3.gif""style=""height:400px;""></stim_listA>",is marrying,
null,"<div style=""font-size:60px;"">+</div>",,html-keyboard-response,180,1265608,0.0-15.0-0.8,22952,List1A,white,woman,,,,null,,,,
null,"<img src=""stim_listA/kiss3.gif""style=""height:400px;""></stim_listA>",,html-keyboard-response,181,1267611,0.0-15.0-1.8,22952,List1A,white,woman,,,,null,,,,
null,is kissing,,html-keyboard-response,182,1269627,0.0-15.0-2.8,22952,List1A,white,woman,,,,null,,,,
24266,,,survey-text,183,1293895,0.0-15.0-3.8,22952,List1A,white,woman,,,,,"{""Q0"":""luke is kissing ruth""}","<img src=""stim_listA/kiss3.gif""style=""height:400px;""></stim_listA>",is kissing,
null,"<div style=""font-size:60px;"">+</div>",,html-keyboard-response,184,1294411,0.0-15.0-0.9,22952,List1A,white,woman,,,,null,,,,
null,"<img src=""stim_listA/play6.gif""style=""height:400px;""></stim_listA>",,html-keyboard-response,185,1296415,0.0-15.0-1.9,22952,List1A,white,woman,,,,null,,,,
null,are playing with each other,,html-keyboard-response,186,1298423,0.0-15.0-2.9,22952,List1A,white,woman,,,,null,,,,
22770,,,survey-text,187,1321195,0.0-15.0-3.9,22952,List1A,white,woman,,,,,"{""Q0"":""fred and luke are playing with each other""}","<img src=""stim_listA/play6.gif""style=""height:400px;""></stim_listA>",are playing with each other,
null,"<div style=""font-size:60px;"">+</div>",,html-keyboard-response,188,1321702,0.0-15.0-0.10,22952,List1A,white,woman,,,,null,,,,
null,"<img src=""stim_listA/dance1.gif""style=""height:400px;""></stim_listA>",,html-keyboard-response,189,1323706,0.0-15.0-1.10,22952,List1A,white,woman,,,,null,,,,
null,is dancing with,,html-keyboard-response,190,1325718,0.0-15.0-2.10,22952,List1A,white,woman,,,,null,,,,
11428,,,survey-text,191,1337149,0.0-15.0-3.10,22952,List1A,white,woman,,,,,"{""Q0"":""fred is dancing with kate""}","<img src=""stim_listA/dance1.gif""style=""height:400px;""></stim_listA>",is dancing with,
null,"<div style=""font-size:60px;"">+</div>",,html-keyboard-response,192,1337654,0.0-15.0-0.11,22952,List1A,white,woman,,,,null,,,,
null,"<img src=""stim_listA/marry6.gif""style=""height:400px;""></stim_listA>",,html-keyboard-response,193,1339657,0.0-15.0-1.11,22952,List1A,white,woman,,,,null,,,,
null,are marrying each other,,html-keyboard-response,194,1341671,0.0-15.0-2.11,22952,List1A,white,woman,,,,null,,,,
16019,,,survey-text,195,1357694,0.0-15.0-3.11,22952,List1A,white,woman,,,,,"{""Q0"":""fred and dave are marrying each other""}","<img src=""stim_listA/marry6.gif""style=""height:400px;""></stim_listA>",are marrying each other,
null,"<div style=""font-size:60px;"">+</div>",,html-keyboard-response,196,1358198,0.0-15.0-0.12,22952,List1A,white,woman,,,,null,,,,
null,"<img src=""stim_listA/play4.gif""style=""height:400px;""></stim_listA>",,html-keyboard-response,197,1360200,0.0-15.0-1.12,22952,List1A,white,woman,,,,null,,,,
null,are playing with each other,,html-keyboard-response,198,1362211,0.0-15.0-2.12,22952,List1A,white,woman,,,,null,,,,
17740,,,survey-text,199,1379954,0.0-15.0-3.12,22952,List1A,white,woman,,,,,"{""Q0"":""luke and ruth are playing with each other""}","<img src=""stim_listA/play4.gif""style=""height:400px;""></stim_listA>",are playing with each other,
null,"<div style=""font-size:60px;"">+</div>",,html-keyboard-response,200,1380459,0.0-15.0-0.13,22952,List1A,white,woman,,,,null,,,,
null,"<img src=""stim_listA/talk6.gif""style=""height:400px;""></stim_listA>",,html-keyboard-response,201,1382463,0.0-15.0-1.13,22952,List1A,white,woman,,,,null,,,,
null,are talking to each other,,html-keyboard-response,202,1384471,0.0-15.0-2.13,22952,List1A,white,woman,,,,null,,,,
17683,,,survey-text,203,1402156,0.0-15.0-3.13,22952,List1A,white,woman,,,,,"{""Q0"":""luke and mike are talking to each other""}","<img src=""stim_listA/talk6.gif""style=""height:400px;""></stim_listA>",are talking to each other,
null,"<div style=""font-size:60px;"">+</div>",,html-keyboard-response,204,1402675,0.0-15.0-0.14,22952,List1A,white,woman,,,,null,,,,
null,"<img src=""stim_listA/fight2.gif""style=""height:400px;""></stim_listA>",,html-keyboard-response,205,1404693,0.0-15.0-1.14,22952,List1A,white,woman,,,,null,,,,
null,are fighting each other,,html-keyboard-response,206,1406695,0.0-15.0-2.14,22952,List1A,white,woman,,,,null,,,,
18397,,,survey-text,207,1425095,0.0-15.0-3.14,22952,List1A,white,woman,,,,,"{""Q0"":""fred and beth are fighting each other""}","<img src=""stim_listA/fight2.gif""style=""height:400px;""></stim_listA>",are fighting each other,
null,"<div style=""font-size:60px;"">+</div>",,html-keyboard-response,208,1425602,0.0-15.0-0.15,22952,List1A,white,woman,,,,null,,,,
null,"<img src=""stim_listA/argue4.gif""style=""height:400px;""></stim_listA>",,html-keyboard-response,209,1427608,0.0-15.0-1.15,22952,List1A,white,woman,,,,null,,,,
null,are arguing with each other,,html-keyboard-response,210,1429623,0.0-15.0-2.15,22952,List1A,white,woman,,,,null,,,,
21022,,,survey-text,211,1450647,0.0-15.0-3.15,22952,List1A,white,woman,,,,,"{""Q0"":""luke and jane are arguing with each other""}","<img src=""stim_listA/argue4.gif""style=""height:400px;""></stim_listA>",are arguing with each other,
null,"<div style=""font-size:60px;"">+</div>",,html-keyboard-response,212,1451155,0.0-15.0-0.16,22952,List1A,white,woman,,,,null,,,,
null,"<img src=""stim_listA/play7.gif""style=""height:400px;""></stim_listA>",,html-keyboard-response,213,1453159,0.0-15.0-1.16,22952,List1A,white,woman,,,,null,,,,
null,is playing with,,html-keyboard-response,214,1455161,0.0-15.0-2.16,22952,List1A,white,woman,,,,null,,,,
17106,,,survey-text,215,1472270,0.0-15.0-3.16,22952,List1A,white,woman,,,,,"{""Q0"":""jane is playing with kate""}","<img src=""stim_listA/play7.gif""style=""height:400px;""></stim_listA>",is playing with,
null,"<div style=""font-size:60px;"">+</div>",,html-keyboard-response,216,1472784,0.0-15.0-0.17,22952,List1A,white,woman,,,,null,,,,
null,"<img src=""stim_listA/dance7.gif""style=""height:400px;""></stim_listA>",,html-keyboard-response,217,1474787,0.0-15.0-1.17,22952,List1A,white,woman,,,,null,,,,
null,is dancing with,,html-keyboard-response,218,1476790,0.0-15.0-2.17,22952,List1A,white,woman,,,,null,,,,
12571,,,survey-text,219,1489363,0.0-15.0-3.17,22952,List1A,white,woman,,,,,"{""Q0"":""jane is dancing with beth""}","<img src=""stim_listA/dance7.gif""style=""height:400px;""></stim_listA>",is dancing with,
null,"<div style=""font-size:60px;"">+</div>",,html-keyboard-response,220,1489879,0.0-15.0-0.18,22952,List1A,white,woman,,,,null,,,,
null,"<img src=""stim_listA/kiss5.gif""style=""height:400px;""></stim_listA>",,html-keyboard-response,221,1491883,0.0-15.0-1.18,22952,List1A,white,woman,,,,null,,,,
null,is kissing,,html-keyboard-response,222,1493892,0.0-15.0-2.18,22952,List1A,white,woman,,,,null,,,,
8703,,,survey-text,223,1502597,0.0-15.0-3.18,22952,List1A,white,woman,,,,,"{""Q0"":""fred is kissing luke""}","<img src=""stim_listA/kiss5.gif""style=""height:400px;""></stim_listA>",is kissing,
null,"<div style=""font-size:60px;"">+</div>",,html-keyboard-response,224,1503102,0.0-15.0-0.19,22952,List1A,white,woman,,,,null,,,,
null,"<img src=""stim_listA/kiss2.gif""style=""height:400px;""></stim_listA>",,html-keyboard-response,225,1505105,0.0-15.0-1.19,22952,List1A,white,woman,,,,null,,,,
null,are kissing each other,,html-keyboard-response,226,1507127,0.0-15.0-2.19,22952,List1A,white,woman,,,,null,,,,
17108,,,survey-text,227,1524237,0.0-15.0-3.19,22952,List1A,white,woman,,,,,"{""Q0"":""kate and mike are kissing each other""}","<img src=""stim_listA/kiss2.gif""style=""height:400px;""></stim_listA>",are kissing each other,
5769,"<img src='img/portrait_matrix_list1.jpg' style='width:900px;height:500px;''></img><p>If you have memorised all the portraits and names and are ready to start, press Continue.</p><p><strong>Please note: Your memory of these faces will be tested 4 times during this experiment.</strong></p>",0,html-button-response,228,1530010,0.0-16.0-0.0,22952,List1A,white,woman,,,,,,,,
3726,"<img src=""portrait/BM1.jpg""style=""height:400px;""></img>",4,html-button-response,229,1534746,0.0-16.0-1.0,22952,List1A,white,woman,,TRUE,4,,,,,
null,CORRECT,,html-keyboard-response,230,1536277,0.0-16.0-2.0-0.0,22952,List1A,white,woman,,,,null,,,,
6491,"<img src=""portrait/BW1.jpg""style=""height:400px;""></img>",0,html-button-response,231,1542770,0.0-16.0-4.0,22952,List1A,white,woman,,TRUE,0,,,,,
null,CORRECT,,html-keyboard-response,232,1544300,0.0-16.0-5.0-0.0,22952,List1A,white,woman,,,,null,,,,
2468,"<img src=""portrait/WM1.jpg""style=""height:400px;""></img>",6,html-button-response,233,1546772,0.0-16.0-7.0,22952,List1A,white,woman,,TRUE,6,,,,,
null,CORRECT,,html-keyboard-response,234,1548296,0.0-16.0-8.0-0.0,22952,List1A,white,woman,,,,null,,,,
2405,"<img src=""portrait/WW1.jpg""style=""height:400px;""></img>",1,html-button-response,235,1550703,0.0-16.0-10.0,22952,List1A,white,woman,,TRUE,1,,,,,
null,CORRECT,,html-keyboard-response,236,1552225,0.0-16.0-11.0-0.0,22952,List1A,white,woman,,,,null,,,,
2938,"<img src=""portrait/WM2.jpg""style=""height:400px;""></img>",7,html-button-response,237,1555166,0.0-16.0-13.0,22952,List1A,white,woman,,TRUE,7,,,,,
null,CORRECT,,html-keyboard-response,238,1556687,0.0-16.0-14.0-0.0,22952,List1A,white,woman,,,,null,,,,
1836,"<img src=""portrait/BM2.jpg""style=""height:400px;""></img>",5,html-button-response,239,1558528,0.0-16.0-16.0,22952,List1A,white,woman,,TRUE,5,,,,,
null,CORRECT,,html-keyboard-response,240,1560050,0.0-16.0-17.0-0.0,22952,List1A,white,woman,,,,null,,,,
3542,"<img src=""portrait/WW2.jpg""style=""height:400px;""></img>",3,html-button-response,241,1563596,0.0-16.0-19.0,22952,List1A,white,woman,,TRUE,3,,,,,
null,CORRECT,,html-keyboard-response,242,1565126,0.0-16.0-20.0-0.0,22952,List1A,white,woman,,,,null,,,,
1827,"<img src=""portrait/BW2.jpg""style=""height:400px;""></img>",2,html-button-response,243,1566957,0.0-16.0-22.0,22952,List1A,white,woman,,TRUE,2,,,,,
null,CORRECT,,html-keyboard-response,244,1568491,0.0-16.0-23.0-0.0,22952,List1A,white,woman,,,,null,,,,
1977,<p>You got 8 out of 8 right first time. Press Continue.</p>,0,html-button-response,245,1570470,0.0-16.0-25.0,22952,List1A,white,woman,,,,,,,,
null,"<div style=""font-size:60px;"">+</div>",,html-keyboard-response,246,1571988,0.0-17.0-0.0,22952,List1A,white,woman,,,,null,,,,
null,"<img src=""stim_listA/dance2.gif""style=""height:400px;""></stim_listA>",,html-keyboard-response,247,1574000,0.0-17.0-1.0,22952,List1A,white,woman,,,,null,,,,
null,are dancing with each other,,html-keyboard-response,248,1576016,0.0-17.0-2.0,22952,List1A,white,woman,,,,null,,,,
20203,,,survey-text,249,1596221,0.0-17.0-3.0,22952,List1A,white,woman,,,,,"{""Q0"":""beth and mike are dancing with each other""}","<img src=""stim_listA/dance2.gif""style=""height:400px;""></stim_listA>",are dancing with each other,
null,"<div style=""font-size:60px;"">+</div>",,html-keyboard-response,250,1596728,0.0-17.0-0.1,22952,List1A,white,woman,,,,null,,,,
null,"<img src=""stim_listA/shout1.gif""style=""height:400px;""></stim_listA>",,html-keyboard-response,251,1598732,0.0-17.0-1.1,22952,List1A,white,woman,,,,null,,,,
null,is shouting at,,html-keyboard-response,252,1600741,0.0-17.0-2.1,22952,List1A,white,woman,,,,null,,,,
15610,,,survey-text,253,1616353,0.0-17.0-3.1,22952,List1A,white,woman,,,,,"{""Q0"":""beth is shouting at fred""}","<img src=""stim_listA/shout1.gif""style=""height:400px;""></stim_listA>",is shouting at,
null,"<div style=""font-size:60px;"">+</div>",,html-keyboard-response,254,1616873,0.0-17.0-0.2,22952,List1A,white,woman,,,,null,,,,
null,"<img src=""stim_listA/flirt7.gif""style=""height:400px;""></stim_listA>",,html-keyboard-response,255,1618876,0.0-17.0-1.2,22952,List1A,white,woman,,,,null,,,,
null,is flirting with,,html-keyboard-response,256,1620889,0.0-17.0-2.2,22952,List1A,white,woman,,,,null,,,,
10711,,,survey-text,257,1631602,0.0-17.0-3.2,22952,List1A,white,woman,,,,,"{""Q0"":""beth is flirting with jane""}","<img src=""stim_listA/flirt7.gif""style=""height:400px;""></stim_listA>",is flirting with,
null,"<div style=""font-size:60px;"">+</div>",,html-keyboard-response,258,1632114,0.0-17.0-0.3,22952,List1A,white,woman,,,,null,,,,
null,"<img src=""stim_listA/marry1.gif""style=""height:400px;""></stim_listA>",,html-keyboard-response,259,1634130,0.0-17.0-1.3,22952,List1A,white,woman,,,,null,,,,
null,is marrying,,html-keyboard-response,260,1636132,0.0-17.0-2.3,22952,List1A,white,woman,,,,null,,,,
9786,,,survey-text,261,1645920,0.0-17.0-3.3,22952,List1A,white,woman,,,,,"{""Q0"":""beth is marrying mike""}","<img src=""stim_listA/marry1.gif""style=""height:400px;""></stim_listA>",is marrying,
null,"<div style=""font-size:60px;"">+</div>",,html-keyboard-response,262,1646431,0.0-17.0-0.4,22952,List1A,white,woman,,,,null,,,,
null,"<img src=""stim_listA/play5.gif""style=""height:400px;""></stim_listA>",,html-keyboard-response,263,1648433,0.0-17.0-1.4,22952,List1A,white,woman,,,,null,,,,
null,is playing with,,html-keyboard-response,264,1650445,0.0-17.0-2.4,22952,List1A,white,woman,,,,null,,,,
11616,,,survey-text,265,1662064,0.0-17.0-3.4,22952,List1A,white,woman,,,,,"{""Q0"":""mike is playing with dave""}","<img src=""stim_listA/play5.gif""style=""height:400px;""></stim_listA>",is playing with,
null,"<div style=""font-size:60px;"">+</div>",,html-keyboard-response,266,1662578,0.0-17.0-0.5,22952,List1A,white,woman,,,,null,,,,
null,"<img src=""stim_listA/kiss8.gif""style=""height:400px;""></stim_listA>",,html-keyboard-response,267,1664581,0.0-17.0-1.5,22952,List1A,white,woman,,,,null,,,,
null,are kissing each other,,html-keyboard-response,268,1666584,0.0-17.0-2.5,22952,List1A,white,woman,,,,null,,,,
19414,,,survey-text,269,1686000,0.0-17.0-3.5,22952,List1A,white,woman,,,,,"{""Q0"":""kate and jane are kissing each other""}","<img src=""stim_listA/kiss8.gif""style=""height:400px;""></stim_listA>",are kissing each other,
null,"<div style=""font-size:60px;"">+</div>",,html-keyboard-response,270,1686507,0.0-17.0-0.6,22952,List1A,white,woman,,,,null,,,,
null,"<img src=""stim_listA/touch8.gif""style=""height:400px;""></stim_listA>",,html-keyboard-response,271,1688523,0.0-17.0-1.6,22952,List1A,white,woman,,,,null,,,,
null,are touching each other,,html-keyboard-response,272,1690525,0.0-17.0-2.6,22952,List1A,white,woman,,,,null,,,,
18381,,,survey-text,273,1708909,0.0-17.0-3.6,22952,List1A,white,woman,,,,,"{""Q0"":""beth and ruth are touching each other""}","<img src=""stim_listA/touch8.gif""style=""height:400px;""></stim_listA>",are touching each other,
null,"<div style=""font-size:60px;"">+</div>",,html-keyboard-response,274,1709426,0.0-17.0-0.7,22952,List1A,white,woman,,,,null,,,,
null,"<img src=""stim_listA/play8.gif""style=""height:400px;""></stim_listA>",,html-keyboard-response,275,1711431,0.0-17.0-1.7,22952,List1A,white,woman,,,,null,,,,
null,are playing with each other,,html-keyboard-response,276,1713447,0.0-17.0-2.7,22952,List1A,white,woman,,,,null,,,,
21196,,,survey-text,277,1734646,0.0-17.0-3.7,22952,List1A,white,woman,,,,,"{""Q0"":""beth and ruth are playing with each other""}","<img src=""stim_listA/play8.gif""style=""height:400px;""></stim_listA>",are playing with each other,
null,"<div style=""font-size:60px;"">+</div>",,html-keyboard-response,278,1735152,0.0-17.0-0.8,22952,List1A,white,woman,,,,null,,,,
null,"<img src=""stim_listA/play2.gif""style=""height:400px;""></stim_listA>",,html-keyboard-response,279,1737155,0.0-17.0-1.8,22952,List1A,white,woman,,,,null,,,,
null,are playing with each other,,html-keyboard-response,280,1739157,0.0-17.0-2.8,22952,List1A,white,woman,,,,null,,,,
14431,,,survey-text,281,1753592,0.0-17.0-3.8,22952,List1A,white,woman,,,,,"{""Q0"":""beth and fred are playing with each other""}","<img src=""stim_listA/play2.gif""style=""height:400px;""></stim_listA>",are playing with each other,
null,"<div style=""font-size:60px;"">+</div>",,html-keyboard-response,282,1754096,0.0-17.0-0.9,22952,List1A,white,woman,,,,null,,,,
null,"<img src=""stim_listA/kiss6.gif""style=""height:400px;""></stim_listA>",,html-keyboard-response,283,1756098,0.0-17.0-1.9,22952,List1A,white,woman,,,,null,,,,
null,are kissing each other,,html-keyboard-response,284,1758110,0.0-17.0-2.9,22952,List1A,white,woman,,,,null,,,,
16677,,,survey-text,285,1774789,0.0-17.0-3.9,22952,List1A,white,woman,,,,,"{""Q0"":""dave and mike are kissing each other""}","<img src=""stim_listA/kiss6.gif""style=""height:400px;""></stim_listA>",are kissing each other,
null,"<div style=""font-size:60px;"">+</div>",,html-keyboard-response,286,1775306,0.0-17.0-0.10,22952,List1A,white,woman,,,,null,,,,
null,"<img src=""stim_listA/flirt4.gif""style=""height:400px;""></stim_listA>",,html-keyboard-response,287,1777318,0.0-17.0-1.10,22952,List1A,white,woman,,,,null,,,,
null,are flirting with each other,,html-keyboard-response,288,1779323,0.0-17.0-2.10,22952,List1A,white,woman,,,,null,,,,
19844,,,survey-text,289,1799169,0.0-17.0-3.10,22952,List1A,white,woman,,,,,"{""Q0"":""dave and ruth are flirting with each other""}","<img src=""stim_listA/flirt4.gif""style=""height:400px;""></stim_listA>",are flirting with each other,
null,"<div style=""font-size:60px;"">+</div>",,html-keyboard-response,290,1799682,0.0-17.0-0.11,22952,List1A,white,woman,,,,null,,,,
null,"<img src=""stim_listA/talk8.gif""style=""height:400px;""></stim_listA>",,html-keyboard-response,291,1801688,0.0-17.0-1.11,22952,List1A,white,woman,,,,null,,,,
null,are talking to each other,,html-keyboard-response,292,1803697,0.0-17.0-2.11,22952,List1A,white,woman,,,,null,,,,
17954,,,survey-text,293,1821653,0.0-17.0-3.11,22952,List1A,white,woman,,,,,"{""Q0"":""ruth and kate are talking to each other""}","<img src=""stim_listA/talk8.gif""style=""height:400px;""></stim_listA>",are talking to each other,
null,"<div style=""font-size:60px;"">+</div>",,html-keyboard-response,294,1822165,0.0-17.0-0.12,22952,List1A,white,woman,,,,null,,,,
null,"<img src=""stim_listA/talk2.gif""style=""height:400px;""></stim_listA>",,html-keyboard-response,295,1824169,0.0-17.0-1.12,22952,List1A,white,woman,,,,null,,,,
null,are talking to each other,,html-keyboard-response,296,1826180,0.0-17.0-2.12,22952,List1A,white,woman,,,,null,,,,
13307,,,survey-text,297,1839490,0.0-17.0-3.12,22952,List1A,white,woman,,,,,"{""Q0"":""beth and mike are talking to each other""}","<img src=""stim_listA/talk2.gif""style=""height:400px;""></stim_listA>",are talking to each other,
null,"<div style=""font-size:60px;"">+</div>",,html-keyboard-response,298,1839997,0.0-17.0-0.13,22952,List1A,white,woman,,,,null,,,,
null,"<img src=""stim_listA/marry2.gif""style=""height:400px;""></stim_listA>",,html-keyboard-response,299,1842003,0.0-17.0-1.13,22952,List1A,white,woman,,,,null,,,,
null,are marrying each other,,html-keyboard-response,300,1844008,0.0-17.0-2.13,22952,List1A,white,woman,,,,null,,,,
16649,,,survey-text,301,1860659,0.0-17.0-3.13,22952,List1A,white,woman,,,,,"{""Q0"":""fred and kate are marrying each other""}","<img src=""stim_listA/marry2.gif""style=""height:400px;""></stim_listA>",are marrying each other,
null,"<div style=""font-size:60px;"">+</div>",,html-keyboard-response,302,1861233,0.0-17.0-0.14,22952,List1A,white,woman,,,,null,,,,
null,"<img src=""stim_listA/argue6.gif""style=""height:400px;""></stim_listA>",,html-keyboard-response,303,1863236,0.0-17.0-1.14,22952,List1A,white,woman,,,,null,,,,
null,are arguing with each other,,html-keyboard-response,304,1865252,0.0-17.0-2.14,22952,List1A,white,woman,,,,null,,,,
15695,,,survey-text,305,1880949,0.0-17.0-3.14,22952,List1A,white,woman,,,,,"{""Q0"":""fred and dave are arguing with each other""}","<img src=""stim_listA/argue6.gif""style=""height:400px;""></stim_listA>",are arguing with each other,
null,"<div style=""font-size:60px;"">+</div>",,html-keyboard-response,306,1881462,0.0-17.0-0.15,22952,List1A,white,woman,,,,null,,,,
null,"<img src=""stim_listA/flirt2.gif""style=""height:400px;""></stim_listA>",,html-keyboard-response,307,1883486,0.0-17.0-1.15,22952,List1A,white,woman,,,,null,,,,
null,are flirting with each other,,html-keyboard-response,308,1885494,0.0-17.0-2.15,22952,List1A,white,woman,,,,null,,,,
22736,,,survey-text,309,1908232,0.0-17.0-3.15,22952,List1A,white,woman,,,,,"{""Q0"":""beth and mike are flirting with each other""}","<img src=""stim_listA/flirt2.gif""style=""height:400px;""></stim_listA>",are flirting with each other,
null,"<div style=""font-size:60px;"">+</div>",,html-keyboard-response,310,1908736,0.0-17.0-0.16,22952,List1A,white,woman,,,,null,,,,
null,"<img src=""stim_listA/marry7.gif""style=""height:400px;""></stim_listA>",,html-keyboard-response,311,1910741,0.0-17.0-1.16,22952,List1A,white,woman,,,,null,,,,
null,is marrying,,html-keyboard-response,312,1912745,0.0-17.0-2.16,22952,List1A,white,woman,,,,null,,,,
11568,,,survey-text,313,1924314,0.0-17.0-3.16,22952,List1A,white,woman,,,,,"{""Q0"":""ruth is marrying kate""}","<img src=""stim_listA/marry7.gif""style=""height:400px;""></stim_listA>",is marrying,
null,"<div style=""font-size:60px;"">+</div>",,html-keyboard-response,314,1924819,0.0-17.0-0.17,22952,List1A,white,woman,,,,null,,,,
null,"<img src=""stim_listA/shout8.gif""style=""height:400px;""></stim_listA>",,html-keyboard-response,315,1926823,0.0-17.0-1.17,22952,List1A,white,woman,,,,null,,,,
null,are shouting at each other,,html-keyboard-response,316,1928845,0.0-17.0-2.17,22952,List1A,white,woman,,,,null,,,,
21574,,,survey-text,317,1950421,0.0-17.0-3.17,22952,List1A,white,woman,,,,,"{""Q0"":""jane and kate are shouting at each other""}","<img src=""stim_listA/shout8.gif""style=""height:400px;""></stim_listA>",are shouting at each other,
null,"<div style=""font-size:60px;"">+</div>",,html-keyboard-response,318,1950936,0.0-17.0-0.18,22952,List1A,white,woman,,,,null,,,,
null,"<img src=""stim_listA/touch5.gif""style=""height:400px;""></stim_listA>",,html-keyboard-response,319,1952950,0.0-17.0-1.18,22952,List1A,white,woman,,,,null,,,,
null,is touching,,html-keyboard-response,320,1954967,0.0-17.0-2.18,22952,List1A,white,woman,,,,null,,,,
10723,,,survey-text,321,1965692,0.0-17.0-3.18,22952,List1A,white,woman,,,,,"{""Q0"":""dave is touching mike""}","<img src=""stim_listA/touch5.gif""style=""height:400px;""></stim_listA>",is touching,
null,"<div style=""font-size:60px;"">+</div>",,html-keyboard-response,322,1966204,0.0-17.0-0.19,22952,List1A,white,woman,,,,null,,,,
null,"<img src=""stim_listA/touch3.gif""style=""height:400px;""></stim_listA>",,html-keyboard-response,323,1968209,0.0-17.0-1.19,22952,List1A,white,woman,,,,null,,,,
null,is touching,,html-keyboard-response,324,1970216,0.0-17.0-2.19,22952,List1A,white,woman,,,,null,,,,
9537,,,survey-text,325,1979755,0.0-17.0-3.19,22952,List1A,white,woman,,,,,"{""Q0"":""dave is touching jane""}","<img src=""stim_listA/touch3.gif""style=""height:400px;""></stim_listA>",is touching,
4907,"<img src='img/portrait_matrix_list1.jpg' style='width:900px;height:500px;''></img><p>If you have memorised all the portraits and names and are ready to start, press Continue.</p><p><strong>Please note: Your memory of these faces will be tested 4 times during this experiment.</strong></p>",0,html-button-response,326,1984664,0.0-18.0-0.0,22952,List1A,white,woman,,,,,,,,
3324,"<img src=""portrait/WW2.jpg""style=""height:400px;""></img>",3,html-button-response,327,1988995,0.0-18.0-1.0,22952,List1A,white,woman,,TRUE,3,,,,,
null,CORRECT,,html-keyboard-response,328,1990517,0.0-18.0-2.0-0.0,22952,List1A,white,woman,,,,null,,,,
2030,"<img src=""portrait/BM1.jpg""style=""height:400px;""></img>",4,html-button-response,329,1992551,0.0-18.0-4.0,22952,List1A,white,woman,,TRUE,4,,,,,
null,CORRECT,,html-keyboard-response,330,1994081,0.0-18.0-5.0-0.0,22952,List1A,white,woman,,,,null,,,,
2451,"<img src=""portrait/BM2.jpg""style=""height:400px;""></img>",5,html-button-response,331,1996536,0.0-18.0-7.0,22952,List1A,white,woman,,TRUE,5,,,,,
null,CORRECT,,html-keyboard-response,332,1998060,0.0-18.0-8.0-0.0,22952,List1A,white,woman,,,,null,,,,
2105,"<img src=""portrait/WW1.jpg""style=""height:400px;""></img>",1,html-button-response,333,2000170,0.0-18.0-10.0,22952,List1A,white,woman,,TRUE,1,,,,,
null,CORRECT,,html-keyboard-response,334,2001701,0.0-18.0-11.0-0.0,22952,List1A,white,woman,,,,null,,,,
3306,"<img src=""portrait/BW1.jpg""style=""height:400px;""></img>",0,html-button-response,335,2005011,0.0-18.0-13.0,22952,List1A,white,woman,,TRUE,0,,,,,
null,CORRECT,,html-keyboard-response,336,2006534,0.0-18.0-14.0-0.0,22952,List1A,white,woman,,,,null,,,,
2076,"<img src=""portrait/WM2.jpg""style=""height:400px;""></img>",7,html-button-response,337,2008615,0.0-18.0-16.0,22952,List1A,white,woman,,TRUE,7,,,,,
null,CORRECT,,html-keyboard-response,338,2010134,0.0-18.0-17.0-0.0,22952,List1A,white,woman,,,,null,,,,
2265,"<img src=""portrait/BW2.jpg""style=""height:400px;""></img>",2,html-button-response,339,2012402,0.0-18.0-19.0,22952,List1A,white,woman,,TRUE,2,,,,,
null,CORRECT,,html-keyboard-response,340,2013927,0.0-18.0-20.0-0.0,22952,List1A,white,woman,,,,null,,,,
2309,"<img src=""portrait/WM1.jpg""style=""height:400px;""></img>",6,html-button-response,341,2016242,0.0-18.0-22.0,22952,List1A,white,woman,,TRUE,6,,,,,
null,CORRECT,,html-keyboard-response,342,2017776,0.0-18.0-23.0-0.0,22952,List1A,white,woman,,,,null,,,,
1514,<p>You got 8 out of 8 right first time. Press Continue.</p>,0,html-button-response,343,2019293,0.0-18.0-25.0,22952,List1A,white,woman,,,,,,,,
null,"<div style=""font-size:60px;"">+</div>",,html-keyboard-response,344,2020820,0.0-19.0-0.0,22952,List1A,white,woman,,,,null,,,,
null,"<img src=""stim_listA/kiss7.gif""style=""height:400px;""></stim_listA>",,html-keyboard-response,345,2022825,0.0-19.0-1.0,22952,List1A,white,woman,,,,null,,,,
null,is kissing,,html-keyboard-response,346,2024835,0.0-19.0-2.0,22952,List1A,white,woman,,,,null,,,,
8212,,,survey-text,347,2033050,0.0-19.0-3.0,22952,List1A,white,woman,,,,,"{""Q0"":""beth is kissing ruth""}","<img src=""stim_listA/kiss7.gif""style=""height:400px;""></stim_listA>",is kissing,
null,"<div style=""font-size:60px;"">+</div>",,html-keyboard-response,348,2033558,0.0-19.0-0.1,22952,List1A,white,woman,,,,null,,,,
null,"<img src=""stim_listA/fight5.gif""style=""height:400px;""></stim_listA>",,html-keyboard-response,349,2035563,0.0-19.0-1.1,22952,List1A,white,woman,,,,null,,,,
null,is fighting,,html-keyboard-response,350,2037568,0.0-19.0-2.1,22952,List1A,white,woman,,,,null,,,,
10953,,,survey-text,351,2048524,0.0-19.0-3.1,22952,List1A,white,woman,,,,,"{""Q0"":""dave is fighting mike""}","<img src=""stim_listA/fight5.gif""style=""height:400px;""></stim_listA>",is fighting,
null,"<div style=""font-size:60px;"">+</div>",,html-keyboard-response,352,2049051,0.0-19.0-0.2,22952,List1A,white,woman,,,,null,,,,
null,"<img src=""stim_listA/touch7.gif""style=""height:400px;""></stim_listA>",,html-keyboard-response,353,2051054,0.0-19.0-1.2,22952,List1A,white,woman,,,,null,,,,
null,is touching,,html-keyboard-response,354,2053065,0.0-19.0-2.2,22952,List1A,white,woman,,,,null,,,,
10785,,,survey-text,355,2063853,0.0-19.0-3.2,22952,List1A,white,woman,,,,,"{""Q0"":""jane is touching kate""}","<img src=""stim_listA/touch7.gif""style=""height:400px;""></stim_listA>",is touching,
null,"<div style=""font-size:60px;"">+</div>",,html-keyboard-response,356,2064366,0.0-19.0-0.3,22952,List1A,white,woman,,,,null,,,,
null,"<img src=""stim_listA/argue8.gif""style=""height:400px;""></stim_listA>",,html-keyboard-response,357,2066369,0.0-19.0-1.3,22952,List1A,white,woman,,,,null,,,,
null,are arguing with each other,,html-keyboard-response,358,2068385,0.0-19.0-2.3,22952,List1A,white,woman,,,,null,,,,
17984,,,survey-text,359,2086371,0.0-19.0-3.3,22952,List1A,white,woman,,,,,"{""Q0"":""jane and beth are arguing with each other""}","<img src=""stim_listA/argue8.gif""style=""height:400px;""></stim_listA>",are arguing with each other,
null,"<div style=""font-size:60px;"">+</div>",,html-keyboard-response,360,2086877,0.0-19.0-0.4,22952,List1A,white,woman,,,,null,,,,
null,"<img src=""stim_listA/argue7.gif""style=""height:400px;""></stim_listA>",,html-keyboard-response,361,2088881,0.0-19.0-1.4,22952,List1A,white,woman,,,,null,,,,
null,is arguing with,,html-keyboard-response,362,2090893,0.0-19.0-2.4,22952,List1A,white,woman,,,,null,,,,
11063,,,survey-text,363,2101958,0.0-19.0-3.4,22952,List1A,white,woman,,,,,"{""Q0"":""kate is arguing with ruth""}","<img src=""stim_listA/argue7.gif""style=""height:400px;""></stim_listA>",is arguing with,
null,"<div style=""font-size:60px;"">+</div>",,html-keyboard-response,364,2102476,0.0-19.0-0.5,22952,List1A,white,woman,,,,null,,,,
null,"<img src=""stim_listA/flirt6.gif""style=""height:400px;""></stim_listA>",,html-keyboard-response,365,2104480,0.0-19.0-1.5,22952,List1A,white,woman,,,,null,,,,
null,are flirting with each other,,html-keyboard-response,366,2106490,0.0-19.0-2.5,22952,List1A,white,woman,,,,null,,,,
14163,,,survey-text,367,2120655,0.0-19.0-3.5,22952,List1A,white,woman,,,,,"{""Q0"":""mike and luke are flirting with each other""}","<img src=""stim_listA/flirt6.gif""style=""height:400px;""></stim_listA>",are flirting with each other,
null,"<div style=""font-size:60px;"">+</div>",,html-keyboard-response,368,2121170,0.0-19.0-0.6,22952,List1A,white,woman,,,,null,,,,
null,"<img src=""stim_listA/marry5.gif""style=""height:400px;""></stim_listA>",,html-keyboard-response,369,2123174,0.0-19.0-1.6,22952,List1A,white,woman,,,,null,,,,
null,is marrying,,html-keyboard-response,370,2125186,0.0-19.0-2.6,22952,List1A,white,woman,,,,null,,,,
8356,,,survey-text,371,2133544,0.0-19.0-3.6,22952,List1A,white,woman,,,,,"{""Q0"":""mike is marrying luke""}","<img src=""stim_listA/marry5.gif""style=""height:400px;""></stim_listA>",is marrying,
null,"<div style=""font-size:60px;"">+</div>",,html-keyboard-response,372,2134056,0.0-19.0-0.7,22952,List1A,white,woman,,,,null,,,,
null,"<img src=""stim_listA/flirt3.gif""style=""height:400px;""></stim_listA>",,html-keyboard-response,373,2136070,0.0-19.0-1.7,22952,List1A,white,woman,,,,null,,,,
null,is flirting with,,html-keyboard-response,374,2138073,0.0-19.0-2.7,22952,List1A,white,woman,,,,null,,,,
10277,,,survey-text,375,2148354,0.0-19.0-3.7,22952,List1A,white,woman,,,,,"{""Q0"":""jane is flirting with luke""}","<img src=""stim_listA/flirt3.gif""style=""height:400px;""></stim_listA>",is flirting with,
null,"<div style=""font-size:60px;"">+</div>",,html-keyboard-response,376,2148860,0.0-19.0-0.8,22952,List1A,white,woman,,,,null,,,,
null,"<img src=""stim_listA/fight6.gif""style=""height:400px;""></stim_listA>",,html-keyboard-response,377,2150863,0.0-19.0-1.8,22952,List1A,white,woman,,,,null,,,,
null,are fighting each other,,html-keyboard-response,378,2152873,0.0-19.0-2.8,22952,List1A,white,woman,,,,null,,,,
16378,,,survey-text,379,2169254,0.0-19.0-3.8,22952,List1A,white,woman,,,,,"{""Q0"":""luke and fred are fighting each other""}","<img src=""stim_listA/fight6.gif""style=""height:400px;""></stim_listA>",are fighting each other,
null,"<div style=""font-size:60px;"">+</div>",,html-keyboard-response,380,2169765,0.0-19.0-0.9,22952,List1A,white,woman,,,,null,,,,
null,"<img src=""stim_listA/flirt8.gif""style=""height:400px;""></stim_listA>",,html-keyboard-response,381,2171769,0.0-19.0-1.9,22952,List1A,white,woman,,,,null,,,,
null,are flirting with each other,,html-keyboard-response,382,2173777,0.0-19.0-2.9,22952,List1A,white,woman,,,,null,,,,
21771,,,survey-text,383,2195554,0.0-19.0-3.9,22952,List1A,white,woman,,,,,"{""Q0"":""kate and ruth are flirting with each other""}","<img src=""stim_listA/flirt8.gif""style=""height:400px;""></stim_listA>",are flirting with each other,
null,"<div style=""font-size:60px;"">+</div>",,html-keyboard-response,384,2196069,0.0-19.0-0.10,22952,List1A,white,woman,,,,null,,,,
null,"<img src=""stim_listA/touch4.gif""style=""height:400px;""></stim_listA>",,html-keyboard-response,385,2198072,0.0-19.0-1.10,22952,List1A,white,woman,,,,null,,,,
null,are touching each other,,html-keyboard-response,386,2200074,0.0-19.0-2.10,22952,List1A,white,woman,,,,null,,,,
15314,,,survey-text,387,2215390,0.0-19.0-3.10,22952,List1A,white,woman,,,,,"{""Q0"":""ruth and luke are touching each other""}","<img src=""stim_listA/touch4.gif""style=""height:400px;""></stim_listA>",are touching each other,
null,"<div style=""font-size:60px;"">+</div>",,html-keyboard-response,388,2215899,0.0-19.0-0.11,22952,List1A,white,woman,,,,null,,,,
null,"<img src=""stim_listA/fight1.gif""style=""height:400px;""></stim_listA>",,html-keyboard-response,389,2217903,0.0-19.0-1.11,22952,List1A,white,woman,,,,null,,,,
null,is fighting,,html-keyboard-response,390,2219914,0.0-19.0-2.11,22952,List1A,white,woman,,,,null,,,,
11881,,,survey-text,391,2231799,0.0-19.0-3.11,22952,List1A,white,woman,,,,,"{""Q0"":""mike is fighting kate""}","<img src=""stim_listA/fight1.gif""style=""height:400px;""></stim_listA>",is fighting,
null,"<div style=""font-size:60px;"">+</div>",,html-keyboard-response,392,2232309,0.0-19.0-0.12,22952,List1A,white,woman,,,,null,,,,
null,"<img src=""stim_listA/talk4.gif""style=""height:400px;""></stim_listA>",,html-keyboard-response,393,2234312,0.0-19.0-1.12,22952,List1A,white,woman,,,,null,,,,
null,are talking to each other,,html-keyboard-response,394,2236318,0.0-19.0-2.12,22952,List1A,white,woman,,,,null,,,,
15758,,,survey-text,395,2252078,0.0-19.0-3.12,22952,List1A,white,woman,,,,,"{""Q0"":""ruth and dave are talking to each other""}","<img src=""stim_listA/talk4.gif""style=""height:400px;""></stim_listA>",are talking to each other,
null,"<div style=""font-size:60px;"">+</div>",,html-keyboard-response,396,2252589,0.0-19.0-0.13,22952,List1A,white,woman,,,,null,,,,
null,"<img src=""stim_listA/touch2.gif""style=""height:400px;""></stim_listA>",,html-keyboard-response,397,2254592,0.0-19.0-1.13,22952,List1A,white,woman,,,,null,,,,
null,are touching each other,,html-keyboard-response,398,2256608,0.0-19.0-2.13,22952,List1A,white,woman,,,,null,,,,
13880,,,survey-text,399,2270490,0.0-19.0-3.13,22952,List1A,white,woman,,,,,"{""Q0"":""beth and fred are touching each other""}","<img src=""stim_listA/touch2.gif""style=""height:400px;""></stim_listA>",are touching each other,
null,"<div style=""font-size:60px;"">+</div>",,html-keyboard-response,400,2271003,0.0-19.0-0.14,22952,List1A,white,woman,,,,null,,,,
null,"<img src=""stim_listA/dance4.gif""style=""height:400px;""></stim_listA>",,html-keyboard-response,401,2273006,0.0-19.0-1.14,22952,List1A,white,woman,,,,null,,,,
null,are dancing with each other,,html-keyboard-response,402,2275013,0.0-19.0-2.14,22952,List1A,white,woman,,,,null,,,,
14892,,,survey-text,403,2289907,0.0-19.0-3.14,22952,List1A,white,woman,,,,,"{""Q0"":""ruth and dave are dancing with each other""}","<img src=""stim_listA/dance4.gif""style=""height:400px;""></stim_listA>",are dancing with each other,
null,"<div style=""font-size:60px;"">+</div>",,html-keyboard-response,404,2290421,0.0-19.0-0.15,22952,List1A,white,woman,,,,null,,,,
null,"<img src=""stim_listA/argue1.gif""style=""height:400px;""></stim_listA>",,html-keyboard-response,405,2292425,0.0-19.0-1.15,22952,List1A,white,woman,,,,null,,,,
null,is arguing with,,html-keyboard-response,406,2294434,0.0-19.0-2.15,22952,List1A,white,woman,,,,null,,,,
11368,,,survey-text,407,2305806,0.0-19.0-3.15,22952,List1A,white,woman,,,,,"{""Q0"":""mike is arguing with beth""}","<img src=""stim_listA/argue1.gif""style=""height:400px;""></stim_listA>",is arguing with,
null,"<div style=""font-size:60px;"">+</div>",,html-keyboard-response,408,2306319,0.0-19.0-0.16,22952,List1A,white,woman,,,,null,,,,
null,"<img src=""stim_listA/shout4.gif""style=""height:400px;""></stim_listA>",,html-keyboard-response,409,2308322,0.0-19.0-1.16,22952,List1A,white,woman,,,,null,,,,
null,are shouting at each other,,html-keyboard-response,410,2310325,0.0-19.0-2.16,22952,List1A,white,woman,,,,null,,,,
18779,,,survey-text,411,2329106,0.0-19.0-3.16,22952,List1A,white,woman,,,,,"{""Q0"":""jane and dave are shouting at each other""}","<img src=""stim_listA/shout4.gif""style=""height:400px;""></stim_listA>",are shouting at each other,
null,"<div style=""font-size:60px;"">+</div>",,html-keyboard-response,412,2329617,0.0-19.0-0.17,22952,List1A,white,woman,,,,null,,,,
null,"<img src=""stim_listA/dance5.gif""style=""height:400px;""></stim_listA>",,html-keyboard-response,413,2331620,0.0-19.0-1.17,22952,List1A,white,woman,,,,null,,,,
null,is dancing with,,html-keyboard-response,414,2333630,0.0-19.0-2.17,22952,List1A,white,woman,,,,null,,,,
11424,,,survey-text,415,2345057,0.0-19.0-3.17,22952,List1A,white,woman,,,,,"{""Q0"":""fred is dancing with dave""}","<img src=""stim_listA/dance5.gif""style=""height:400px;""></stim_listA>",is dancing with,
null,"<div style=""font-size:60px;"">+</div>",,html-keyboard-response,416,2345563,0.0-19.0-0.18,22952,List1A,white,woman,,,,null,,,,
null,"<img src=""stim_listA/play3.gif""style=""height:400px;""></stim_listA>",,html-keyboard-response,417,2347567,0.0-19.0-1.18,22952,List1A,white,woman,,,,null,,,,
null,is playing with,,html-keyboard-response,418,2349579,0.0-19.0-2.18,22952,List1A,white,woman,,,,null,,,,
9215,,,survey-text,419,2358796,0.0-19.0-3.18,22952,List1A,white,woman,,,,,"{""Q0"":""dave is playing with jane""}","<img src=""stim_listA/play3.gif""style=""height:400px;""></stim_listA>",is playing with,
null,"<div style=""font-size:60px;"">+</div>",,html-keyboard-response,420,2359308,0.0-19.0-0.19,22952,List1A,white,woman,,,,null,,,,
null,"<img src=""stim_listA/flirt5.gif""style=""height:400px;""></stim_listA>",,html-keyboard-response,421,2361315,0.0-19.0-1.19,22952,List1A,white,woman,,,,null,,,,
null,is flirting with,,html-keyboard-response,422,2363327,0.0-19.0-2.19,22952,List1A,white,woman,,,,null,,,,
10969,,,survey-text,423,2374298,0.0-19.0-3.19,22952,List1A,white,woman,,,,,"{""Q0"":""dave is flirting with fred""}","<img src=""stim_listA/flirt5.gif""style=""height:400px;""></stim_listA>",is flirting with,
4196,<p>Thank you for completing that task.</p><p>The final part of this session is a short questionnaire.</p><p>Press Continue.</p>,0,html-button-response,424,2378499,0.0-20.0,22952,List1A,white,woman,,,,,,,,
37992,,,survey-text,425,2417501,0.0-21.0,22952,List1A,white,woman,,,,,"{""Q0"":""41"",""Q1"":""english"",""Q2"":""english"",""Q3"":""USA"",""Q4"":""white"",""Q5"":""female""}",,,demographics
16677,,,survey-likert,426,2434185,0.0-22.0,22952,List1A,white,woman,,,,,"{""Q0"":4}",,,likert_ESS
19240,,,survey-likert,427,2453432,0.0-23.0,22952,List1A,white,woman,,,,,"{""Q0"":4}",,,likert_NSSAL_Q1
3918,,,survey-likert,428,2457353,0.0-24.0,22952,List1A,white,woman,,,,,"{""Q0"":4}",,,likert_NSSAL_Q2
6456,,,survey-likert,429,2463812,0.0-25.0,22952,List1A,white,woman,,,,,"{""Q0"":4}",,,likert_CGRS_Q1
3803,,,survey-likert,430,2467619,0.0-26.0,22952,List1A,white,woman,,,,,"{""Q0"":4}",,,likert_CGRS_Q2
3591,,,survey-likert,431,2471214,0.0-27.0,22952,List1A,white,woman,,,,,"{""Q0"":4}",,,likert_CGRS_Q3
7251,,,survey-text,432,2478468,0.0-28.0,22952,List1A,white,woman,,,,,"{""Q0"":""ccc""}",,,worker_id
13911,,,external-html,433,2493072,0.0-29.0,22952,List1A,white,woman,debrief.html,,,,,,,
