rt,stimulus,button_pressed,trial_type,trial_index,time_elapsed,internal_node_id,subject,list,ppt_race,ppt_gender,url,first_guess,correct,key_press,responses,image_type,phrase_type,test_part
14938,Welcome to the experiment. Press Continue to begin.,0,html-button-response,0,14940,0.0-0.0,2344,List1B,white,woman,,,,,,,,
331718,,,external-html,1,347946,0.0-1.0,2344,List1B,white,woman,consent.html,,,,,,,
32041,"<p>On the next page, you will see portraits of 8 people and their names.</p><p>Your first task is to take a few minutes to memorise the names of these people.</p><p>You will have to recall their names during the rest of the experiment, so it is</p><p>essential that you try to memorise these people and their names as best as you can.</p><br><p><strong>You will then be tested on your memory of these names and portraits.</strong></p><br><p>The experiment will start after you have completed this memory test.</p><br><p>Ready?</p>",0,html-button-response,2,379989,0.0-2.0,2344,List1B,white,woman,,,,,,,,
122470,"<img src='img/portrait_matrix_list1.jpg' style='width:900px;height:500px;''></img><p>If you have memorised all the portraits and names and are ready to start, press Continue.</p><p><strong>Please note: Your memory of these faces will be tested 4 times during this experiment.</strong></p>",0,html-button-response,3,503472,0.0-3.0-0.0,2344,List1B,white,woman,,,,,,,,
7576,"<img src=""portrait/BW2.jpg""style=""height:400px;""></img>",2,html-button-response,4,512077,0.0-3.0-1.0,2344,List1B,white,woman,,TRUE,2,,,,,
null,CORRECT,,html-keyboard-response,5,513609,0.0-3.0-2.0-0.0,2344,List1B,white,woman,,,,null,,,,
3439,"<img src=""portrait/WM2.jpg""style=""height:400px;""></img>",7,html-button-response,6,517056,0.0-3.0-4.0,2344,List1B,white,woman,,TRUE,7,,,,,
null,CORRECT,,html-keyboard-response,7,518583,0.0-3.0-5.0-0.0,2344,List1B,white,woman,,,,null,,,,
3093,"<img src=""portrait/WM1.jpg""style=""height:400px;""></img>",6,html-button-response,8,521678,0.0-3.0-7.0,2344,List1B,white,woman,,TRUE,6,,,,,
null,CORRECT,,html-keyboard-response,9,523222,0.0-3.0-8.0-0.0,2344,List1B,white,woman,,,,null,,,,
5219,"<img src=""portrait/BW1.jpg""style=""height:400px;""></img>",0,html-button-response,10,528444,0.0-3.0-10.0,2344,List1B,white,woman,,TRUE,0,,,,,
null,CORRECT,,html-keyboard-response,11,529965,0.0-3.0-11.0-0.0,2344,List1B,white,woman,,,,null,,,,
6095,"<img src=""portrait/WW1.jpg""style=""height:400px;""></img>",1,html-button-response,12,536063,0.0-3.0-13.0,2344,List1B,white,woman,,TRUE,1,,,,,
null,CORRECT,,html-keyboard-response,13,537587,0.0-3.0-14.0-0.0,2344,List1B,white,woman,,,,null,,,,
4809,"<img src=""portrait/WW2.jpg""style=""height:400px;""></img>",3,html-button-response,14,542400,0.0-3.0-16.0,2344,List1B,white,woman,,TRUE,3,,,,,
null,CORRECT,,html-keyboard-response,15,543919,0.0-3.0-17.0-0.0,2344,List1B,white,woman,,,,null,,,,
6558,"<img src=""portrait/BM2.jpg""style=""height:400px;""></img>",5,html-button-response,16,550481,0.0-3.0-19.0,2344,List1B,white,woman,,TRUE,5,,,,,
null,CORRECT,,html-keyboard-response,17,552017,0.0-3.0-20.0-0.0,2344,List1B,white,woman,,,,null,,,,
3626,"<img src=""portrait/BM1.jpg""style=""height:400px;""></img>",4,html-button-response,18,555646,0.0-3.0-22.0,2344,List1B,white,woman,,TRUE,4,,,,,
null,CORRECT,,html-keyboard-response,19,557162,0.0-3.0-23.0-0.0,2344,List1B,white,woman,,,,null,,,,
2133,<p>You got 8 out of 8 right first time. Press Continue.</p>,0,html-button-response,20,559298,0.0-3.0-25.0,2344,List1B,white,woman,,,,,,,,
58468,"<p>In this experiment, you will view photographs of the people from the memory game interacting.</p><p>By using the <strong>exact</strong> phrase given <i>after</i> the photograph appears and recalling the correct names of the people in the photographs, form a sentence describing the interaction. You do not need to capitalise names.</p><p>Type your answer in the space provided. Please complete every sentence before moving onto the next trial.</p><p>You will only have a few seconds to memorise each given photograph and phrase before you can respond, so try your best to focus.</p><p>An example is given below. Press 'Continue' when you are ready.</p><img src='img/speaking_example.jpg' style='width:800px;height:460px;''></img>",0,html-button-response,21,618792,0.0-4.0,2344,List1B,white,woman,,,,,,,,
3000,"<p>Before the experiment starts, you will watch two example trials. Press 'Continue'.</p>",0,html-button-response,22,622799,0.0-5.0,2344,List1B,white,woman,,,,,,,,
null,<img src='img/meet_eg.gif' style='height:400px;''></img>,,html-keyboard-response,23,625818,0.0-6.0,2344,List1B,white,woman,,,,null,,,,
null,<p>is meeting</p>,,html-keyboard-response,24,627822,0.0-7.0,2344,List1B,white,woman,,,,null,,,,
7113,<p><b>Answer:</b> kate is meeting beth</p>,0,html-button-response,25,634936,0.0-8.0,2344,List1B,white,woman,,,,,,,,
null,<img src='img/look_eg.gif' style='height:400px;''></img>,,html-keyboard-response,26,637966,0.0-9.0,2344,List1B,white,woman,,,,null,,,,
null,<p>are looking at each other</p>,,html-keyboard-response,27,639971,0.0-10.0,2344,List1B,white,woman,,,,null,,,,
4953,<p><b>Answer:</b> luke and dave are looking at each other</p>,0,html-button-response,28,644925,0.0-11.0,2344,List1B,white,woman,,,,,,,,
16648,"<p>Ready to start the experiment?</p><br><p><strong>Remember to describe the picture using a full sentence,</strong></p><p><strong>that combines the names of the people with the <i>exact</i> phrase given.</strong></p><p><strong>To receive full payment you must do this correctly.</strong></p><p><strong> You do not need to capitalise names or use punctuation.</strong></p><br><p>Press 'Continue' to begin.</p>",0,html-button-response,29,662593,0.0-12.0,2344,List1B,white,woman,,,,,,,,
null,"<div style=""font-size:60px;"">+</div>",,html-keyboard-response,30,664125,0.0-13.0-0.0,2344,List1B,white,woman,,,,null,,,,
null,"<img src=""stim_listB/shout3.gif""style=""height:400px;""></stim_listB>",,html-keyboard-response,31,666132,0.0-13.0-1.0,2344,List1B,white,woman,,,,null,,,,
null,is shouting at,,html-keyboard-response,32,668150,0.0-13.0-2.0,2344,List1B,white,woman,,,,null,,,,
16721,,,survey-text,33,684874,0.0-13.0-3.0,2344,List1B,white,woman,,,,,"{""Q0"":""Dave is shouting at Ruth.""}","<img src=""stim_listB/shout3.gif""style=""height:400px;""></stim_listB>",is shouting at,
null,"<div style=""font-size:60px;"">+</div>",,html-keyboard-response,34,685379,0.0-13.0-0.1,2344,List1B,white,woman,,,,null,,,,
null,"<img src=""stim_listB/touch6.gif""style=""height:400px;""></stim_listB>",,html-keyboard-response,35,687396,0.0-13.0-1.1,2344,List1B,white,woman,,,,null,,,,
null,are touching each other,,html-keyboard-response,36,689399,0.0-13.0-2.1,2344,List1B,white,woman,,,,null,,,,
24832,,,survey-text,37,714233,0.0-13.0-3.1,2344,List1B,white,woman,,,,,"{""Q0"":""Fred and Luke are touching each other.""}","<img src=""stim_listB/touch6.gif""style=""height:400px;""></stim_listB>",are touching each other,
null,"<div style=""font-size:60px;"">+</div>",,html-keyboard-response,38,714752,0.0-13.0-0.2,2344,List1B,white,woman,,,,null,,,,
null,"<img src=""stim_listB/flirt5.gif""style=""height:400px;""></stim_listB>",,html-keyboard-response,39,716758,0.0-13.0-1.2,2344,List1B,white,woman,,,,null,,,,
null,is flirting with,,html-keyboard-response,40,718767,0.0-13.0-2.2,2344,List1B,white,woman,,,,null,,,,
31414,,,survey-text,41,750185,0.0-13.0-3.2,2344,List1B,white,woman,,,,,"{""Q0"":""Fred and Dave are flirting with each other.""}","<img src=""stim_listB/flirt5.gif""style=""height:400px;""></stim_listB>",is flirting with,
null,"<div style=""font-size:60px;"">+</div>",,html-keyboard-response,42,750692,0.0-13.0-0.3,2344,List1B,white,woman,,,,null,,,,
null,"<img src=""stim_listB/marry6.gif""style=""height:400px;""></stim_listB>",,html-keyboard-response,43,752706,0.0-13.0-1.3,2344,List1B,white,woman,,,,null,,,,
null,are marrying each other,,html-keyboard-response,44,754713,0.0-13.0-2.3,2344,List1B,white,woman,,,,null,,,,
12475,,,survey-text,45,767191,0.0-13.0-3.3,2344,List1B,white,woman,,,,,"{""Q0"":""Fred and Dave are marrying each other.""}","<img src=""stim_listB/marry6.gif""style=""height:400px;""></stim_listB>",are marrying each other,
null,"<div style=""font-size:60px;"">+</div>",,html-keyboard-response,46,767705,0.0-13.0-0.4,2344,List1B,white,woman,,,,null,,,,
null,"<img src=""stim_listB/touch4.gif""style=""height:400px;""></stim_listB>",,html-keyboard-response,47,769729,0.0-13.0-1.4,2344,List1B,white,woman,,,,null,,,,
null,are touching each other,,html-keyboard-response,48,771715,0.0-13.0-2.4,2344,List1B,white,woman,,,,null,,,,
20055,,,survey-text,49,791772,0.0-13.0-3.4,2344,List1B,white,woman,,,,,"{""Q0"":""Luke and Ruth are touching each other.""}","<img src=""stim_listB/touch4.gif""style=""height:400px;""></stim_listB>",are touching each other,
null,"<div style=""font-size:60px;"">+</div>",,html-keyboard-response,50,792291,0.0-13.0-0.5,2344,List1B,white,woman,,,,null,,,,
null,"<img src=""stim_listB/fight7.gif""style=""height:400px;""></stim_listB>",,html-keyboard-response,51,794305,0.0-13.0-1.5,2344,List1B,white,woman,,,,null,,,,
null,is fighting,,html-keyboard-response,52,796305,0.0-13.0-2.5,2344,List1B,white,woman,,,,null,,,,
38295,,,survey-text,53,834603,0.0-13.0-3.5,2344,List1B,white,woman,,,,,"{""Q0"":""Kate and Jane are fighting with each other.""}","<img src=""stim_listB/fight7.gif""style=""height:400px;""></stim_listB>",is fighting,
null,"<div style=""font-size:60px;"">+</div>",,html-keyboard-response,54,835115,0.0-13.0-0.6,2344,List1B,white,woman,,,,null,,,,
null,"<img src=""stim_listB/marry5.gif""style=""height:400px;""></stim_listB>",,html-keyboard-response,55,837136,0.0-13.0-1.6,2344,List1B,white,woman,,,,null,,,,
null,is marrying,,html-keyboard-response,56,839140,0.0-13.0-2.6,2344,List1B,white,woman,,,,null,,,,
15497,,,survey-text,57,854638,0.0-13.0-3.6,2344,List1B,white,woman,,,,,"{""Q0"":""Mike is Marrying Luke.""}","<img src=""stim_listB/marry5.gif""style=""height:400px;""></stim_listB>",is marrying,
null,"<div style=""font-size:60px;"">+</div>",,html-keyboard-response,58,855155,0.0-13.0-0.7,2344,List1B,white,woman,,,,null,,,,
null,"<img src=""stim_listB/talk3.gif""style=""height:400px;""></stim_listB>",,html-keyboard-response,59,857167,0.0-13.0-1.7,2344,List1B,white,woman,,,,null,,,,
null,is talking to,,html-keyboard-response,60,859172,0.0-13.0-2.7,2344,List1B,white,woman,,,,null,,,,
14818,,,survey-text,61,873992,0.0-13.0-3.7,2344,List1B,white,woman,,,,,"{""Q0"":""Jane and Luke""}","<img src=""stim_listB/talk3.gif""style=""height:400px;""></stim_listB>",is talking to,
null,"<div style=""font-size:60px;"">+</div>",,html-keyboard-response,62,874517,0.0-13.0-0.8,2344,List1B,white,woman,,,,null,,,,
null,"<img src=""stim_listB/flirt1.gif""style=""height:400px;""></stim_listB>",,html-keyboard-response,63,876541,0.0-13.0-1.8,2344,List1B,white,woman,,,,null,,,,
null,is flirting with,,html-keyboard-response,64,878535,0.0-13.0-2.8,2344,List1B,white,woman,,,,null,,,,
16024,,,survey-text,65,894561,0.0-13.0-3.8,2344,List1B,white,woman,,,,,"{""Q0"":""Fred is flirting with Beth.""}","<img src=""stim_listB/flirt1.gif""style=""height:400px;""></stim_listB>",is flirting with,
null,"<div style=""font-size:60px;"">+</div>",,html-keyboard-response,66,895076,0.0-13.0-0.9,2344,List1B,white,woman,,,,null,,,,
null,"<img src=""stim_listB/kiss7.gif""style=""height:400px;""></stim_listB>",,html-keyboard-response,67,897086,0.0-13.0-1.9,2344,List1B,white,woman,,,,null,,,,
null,is kissing,,html-keyboard-response,68,899100,0.0-13.0-2.9,2344,List1B,white,woman,,,,null,,,,
19741,,,survey-text,69,918846,0.0-13.0-3.9,2344,List1B,white,woman,,,,,"{""Q0"":""Jane is kissing Beth.""}","<img src=""stim_listB/kiss7.gif""style=""height:400px;""></stim_listB>",is kissing,
null,"<div style=""font-size:60px;"">+</div>",,html-keyboard-response,70,919361,0.0-13.0-0.10,2344,List1B,white,woman,,,,null,,,,
null,"<img src=""stim_listB/marry3.gif""style=""height:400px;""></stim_listB>",,html-keyboard-response,71,921374,0.0-13.0-1.10,2344,List1B,white,woman,,,,null,,,,
null,is marrying,,html-keyboard-response,72,923377,0.0-13.0-2.10,2344,List1B,white,woman,,,,null,,,,
11700,,,survey-text,73,935080,0.0-13.0-3.10,2344,List1B,white,woman,,,,,"{""Q0"":""Dave is marrying Jane.""}","<img src=""stim_listB/marry3.gif""style=""height:400px;""></stim_listB>",is marrying,
null,"<div style=""font-size:60px;"">+</div>",,html-keyboard-response,74,935591,0.0-13.0-0.11,2344,List1B,white,woman,,,,null,,,,
null,"<img src=""stim_listB/flirt7.gif""style=""height:400px;""></stim_listB>",,html-keyboard-response,75,937606,0.0-13.0-1.11,2344,List1B,white,woman,,,,null,,,,
null,is flirting with,,html-keyboard-response,76,939618,0.0-13.0-2.11,2344,List1B,white,woman,,,,null,,,,
27021,,,survey-text,77,966641,0.0-13.0-3.11,2344,List1B,white,woman,,,,,"{""Q0"":""Beth and Jane""}","<img src=""stim_listB/flirt7.gif""style=""height:400px;""></stim_listB>",is flirting with,
null,"<div style=""font-size:60px;"">+</div>",,html-keyboard-response,78,967159,0.0-13.0-0.12,2344,List1B,white,woman,,,,null,,,,
null,"<img src=""stim_listB/play5.gif""style=""height:400px;""></stim_listB>",,html-keyboard-response,79,969176,0.0-13.0-1.12,2344,List1B,white,woman,,,,null,,,,
null,is playing with,,html-keyboard-response,80,971185,0.0-13.0-2.12,2344,List1B,white,woman,,,,null,,,,
17779,,,survey-text,81,988967,0.0-13.0-3.12,2344,List1B,white,woman,,,,,"{""Q0"":""Mike is playing with Dave.""}","<img src=""stim_listB/play5.gif""style=""height:400px;""></stim_listB>",is playing with,
null,"<div style=""font-size:60px;"">+</div>",,html-keyboard-response,82,989477,0.0-13.0-0.13,2344,List1B,white,woman,,,,null,,,,
null,"<img src=""stim_listB/play4.gif""style=""height:400px;""></stim_listB>",,html-keyboard-response,83,991503,0.0-13.0-1.13,2344,List1B,white,woman,,,,null,,,,
null,are playing with each other,,html-keyboard-response,84,993484,0.0-13.0-2.13,2344,List1B,white,woman,,,,null,,,,
22249,,,survey-text,85,1015735,0.0-13.0-3.13,2344,List1B,white,woman,,,,,"{""Q0"":""Luke and Jane are playing with each other.""}","<img src=""stim_listB/play4.gif""style=""height:400px;""></stim_listB>",are playing with each other,
null,"<div style=""font-size:60px;"">+</div>",,html-keyboard-response,86,1016261,0.0-13.0-0.14,2344,List1B,white,woman,,,,null,,,,
null,"<img src=""stim_listB/talk2.gif""style=""height:400px;""></stim_listB>",,html-keyboard-response,87,1018270,0.0-13.0-1.14,2344,List1B,white,woman,,,,null,,,,
null,are talking to each other,,html-keyboard-response,88,1020272,0.0-13.0-2.14,2344,List1B,white,woman,,,,null,,,,
12927,,,survey-text,89,1033202,0.0-13.0-3.14,2344,List1B,white,woman,,,,,"{""Q0"":""Beth and Mike are talking to each other.""}","<img src=""stim_listB/talk2.gif""style=""height:400px;""></stim_listB>",are talking to each other,
null,"<div style=""font-size:60px;"">+</div>",,html-keyboard-response,90,1033712,0.0-13.0-0.15,2344,List1B,white,woman,,,,null,,,,
null,"<img src=""stim_listB/talk1.gif""style=""height:400px;""></stim_listB>",,html-keyboard-response,91,1035735,0.0-13.0-1.15,2344,List1B,white,woman,,,,null,,,,
null,is talking to,,html-keyboard-response,92,1037719,0.0-13.0-2.15,2344,List1B,white,woman,,,,null,,,,
16603,,,survey-text,93,1054324,0.0-13.0-3.15,2344,List1B,white,woman,,,,,"{""Q0"":""Kate is talking to Fred.""}","<img src=""stim_listB/talk1.gif""style=""height:400px;""></stim_listB>",is talking to,
null,"<div style=""font-size:60px;"">+</div>",,html-keyboard-response,94,1054828,0.0-13.0-0.16,2344,List1B,white,woman,,,,null,,,,
null,"<img src=""stim_listB/kiss8.gif""style=""height:400px;""></stim_listB>",,html-keyboard-response,95,1056849,0.0-13.0-1.16,2344,List1B,white,woman,,,,null,,,,
null,are kissing each other,,html-keyboard-response,96,1058858,0.0-13.0-2.16,2344,List1B,white,woman,,,,null,,,,
28713,,,survey-text,97,1087573,0.0-13.0-3.16,2344,List1B,white,woman,,,,,"{""Q0"":""Kate and ruth are kissing each other.""}","<img src=""stim_listB/kiss8.gif""style=""height:400px;""></stim_listB>",are kissing each other,
null,"<div style=""font-size:60px;"">+</div>",,html-keyboard-response,98,1088086,0.0-13.0-0.17,2344,List1B,white,woman,,,,null,,,,
null,"<img src=""stim_listB/marry2.gif""style=""height:400px;""></stim_listB>",,html-keyboard-response,99,1090106,0.0-13.0-1.17,2344,List1B,white,woman,,,,null,,,,
null,are marrying each other,,html-keyboard-response,100,1092112,0.0-13.0-2.17,2344,List1B,white,woman,,,,null,,,,
16037,,,survey-text,101,1108151,0.0-13.0-3.17,2344,List1B,white,woman,,,,,"{""Q0"":""Fred and Kate are marrying each other.""}","<img src=""stim_listB/marry2.gif""style=""height:400px;""></stim_listB>",are marrying each other,
null,"<div style=""font-size:60px;"">+</div>",,html-keyboard-response,102,1108667,0.0-13.0-0.18,2344,List1B,white,woman,,,,null,,,,
null,"<img src=""stim_listB/kiss6.gif""style=""height:400px;""></stim_listB>",,html-keyboard-response,103,1110689,0.0-13.0-1.18,2344,List1B,white,woman,,,,null,,,,
null,are kissing each other,,html-keyboard-response,104,1112695,0.0-13.0-2.18,2344,List1B,white,woman,,,,null,,,,
14787,,,survey-text,105,1127485,0.0-13.0-3.18,2344,List1B,white,woman,,,,,"{""Q0"":""Mike and Dave are kissing each other.""}","<img src=""stim_listB/kiss6.gif""style=""height:400px;""></stim_listB>",are kissing each other,
null,"<div style=""font-size:60px;"">+</div>",,html-keyboard-response,106,1128001,0.0-13.0-0.19,2344,List1B,white,woman,,,,null,,,,
null,"<img src=""stim_listB/dance3.gif""style=""height:400px;""></stim_listB>",,html-keyboard-response,107,1130018,0.0-13.0-1.19,2344,List1B,white,woman,,,,null,,,,
null,is dancing with,,html-keyboard-response,108,1132030,0.0-13.0-2.19,2344,List1B,white,woman,,,,null,,,,
12496,,,survey-text,109,1144528,0.0-13.0-3.19,2344,List1B,white,woman,,,,,"{""Q0"":""Luke is dancing with Jane.""}","<img src=""stim_listB/dance3.gif""style=""height:400px;""></stim_listB>",is dancing with,
38184,"<img src='img/portrait_matrix_list1.jpg' style='width:900px;height:500px;''></img><p>If you have memorised all the portraits and names and are ready to start, press Continue.</p><p><strong>Please note: Your memory of these faces will be tested 4 times during this experiment.</strong></p>",0,html-button-response,110,1182716,0.0-14.0-0.0,2344,List1B,white,woman,,,,,,,,
2747,"<img src=""portrait/WW2.jpg""style=""height:400px;""></img>",3,html-button-response,111,1186474,0.0-14.0-1.0,2344,List1B,white,woman,,TRUE,3,,,,,
null,CORRECT,,html-keyboard-response,112,1187995,0.0-14.0-2.0-0.0,2344,List1B,white,woman,,,,null,,,,
4555,"<img src=""portrait/BW2.jpg""style=""height:400px;""></img>",2,html-button-response,113,1192553,0.0-14.0-4.0,2344,List1B,white,woman,,TRUE,2,,,,,
null,CORRECT,,html-keyboard-response,114,1194092,0.0-14.0-5.0-0.0,2344,List1B,white,woman,,,,null,,,,
2572,"<img src=""portrait/BW1.jpg""style=""height:400px;""></img>",0,html-button-response,115,1196667,0.0-14.0-7.0,2344,List1B,white,woman,,TRUE,0,,,,,
null,CORRECT,,html-keyboard-response,116,1198203,0.0-14.0-8.0-0.0,2344,List1B,white,woman,,,,null,,,,
2297,"<img src=""portrait/WM2.jpg""style=""height:400px;""></img>",7,html-button-response,117,1200503,0.0-14.0-10.0,2344,List1B,white,woman,,TRUE,7,,,,,
null,CORRECT,,html-keyboard-response,118,1202031,0.0-14.0-11.0-0.0,2344,List1B,white,woman,,,,null,,,,
1952,"<img src=""portrait/WW1.jpg""style=""height:400px;""></img>",1,html-button-response,119,1203986,0.0-14.0-13.0,2344,List1B,white,woman,,TRUE,1,,,,,
null,CORRECT,,html-keyboard-response,120,1205514,0.0-14.0-14.0-0.0,2344,List1B,white,woman,,,,null,,,,
6961,"<img src=""portrait/BM1.jpg""style=""height:400px;""></img>",4,html-button-response,121,1212479,0.0-14.0-16.0,2344,List1B,white,woman,,TRUE,4,,,,,
null,CORRECT,,html-keyboard-response,122,1213984,0.0-14.0-17.0-0.0,2344,List1B,white,woman,,,,null,,,,
2171,"<img src=""portrait/BM2.jpg""style=""height:400px;""></img>",5,html-button-response,123,1216157,0.0-14.0-19.0,2344,List1B,white,woman,,TRUE,5,,,,,
null,CORRECT,,html-keyboard-response,124,1217676,0.0-14.0-20.0-0.0,2344,List1B,white,woman,,,,null,,,,
2984,"<img src=""portrait/WM1.jpg""style=""height:400px;""></img>",6,html-button-response,125,1220663,0.0-14.0-22.0,2344,List1B,white,woman,,TRUE,6,,,,,
null,CORRECT,,html-keyboard-response,126,1222199,0.0-14.0-23.0-0.0,2344,List1B,white,woman,,,,null,,,,
4719,<p>You got 8 out of 8 right first time. Press Continue.</p>,0,html-button-response,127,1226922,0.0-14.0-25.0,2344,List1B,white,woman,,,,,,,,
null,"<div style=""font-size:60px;"">+</div>",,html-keyboard-response,128,1228445,0.0-15.0-0.0,2344,List1B,white,woman,,,,null,,,,
null,"<img src=""stim_listB/fight2.gif""style=""height:400px;""></stim_listB>",,html-keyboard-response,129,1230454,0.0-15.0-1.0,2344,List1B,white,woman,,,,null,,,,
null,are fighting each other,,html-keyboard-response,130,1232467,0.0-15.0-2.0,2344,List1B,white,woman,,,,null,,,,
14269,,,survey-text,131,1246740,0.0-15.0-3.0,2344,List1B,white,woman,,,,,"{""Q0"":""Beth and Fred are fighting each other.""}","<img src=""stim_listB/fight2.gif""style=""height:400px;""></stim_listB>",are fighting each other,
null,"<div style=""font-size:60px;"">+</div>",,html-keyboard-response,132,1247279,0.0-15.0-0.1,2344,List1B,white,woman,,,,null,,,,
null,"<img src=""stim_listB/touch3.gif""style=""height:400px;""></stim_listB>",,html-keyboard-response,133,1249294,0.0-15.0-1.1,2344,List1B,white,woman,,,,null,,,,
null,is touching,,html-keyboard-response,134,1251300,0.0-15.0-2.1,2344,List1B,white,woman,,,,null,,,,
24365,,,survey-text,135,1275668,0.0-15.0-3.1,2344,List1B,white,woman,,,,,"{""Q0"":""Jand and Dave are touching each other.""}","<img src=""stim_listB/touch3.gif""style=""height:400px;""></stim_listB>",is touching,
null,"<div style=""font-size:60px;"">+</div>",,html-keyboard-response,136,1276180,0.0-15.0-0.2,2344,List1B,white,woman,,,,null,,,,
null,"<img src=""stim_listB/fight1.gif""style=""height:400px;""></stim_listB>",,html-keyboard-response,137,1278188,0.0-15.0-1.2,2344,List1B,white,woman,,,,null,,,,
null,is fighting,,html-keyboard-response,138,1280198,0.0-15.0-2.2,2344,List1B,white,woman,,,,null,,,,
16699,,,survey-text,139,1296900,0.0-15.0-3.2,2344,List1B,white,woman,,,,,"{""Q0"":""Beth is fighting with Mike.""}","<img src=""stim_listB/fight1.gif""style=""height:400px;""></stim_listB>",is fighting,
null,"<div style=""font-size:60px;"">+</div>",,html-keyboard-response,140,1297418,0.0-15.0-0.3,2344,List1B,white,woman,,,,null,,,,
null,"<img src=""stim_listB/argue5.gif""style=""height:400px;""></stim_listB>",,html-keyboard-response,141,1299431,0.0-15.0-1.3,2344,List1B,white,woman,,,,null,,,,
null,is arguing with,,html-keyboard-response,142,1301430,0.0-15.0-2.3,2344,List1B,white,woman,,,,null,,,,
20603,,,survey-text,143,1322035,0.0-15.0-3.3,2344,List1B,white,woman,,,,,"{""Q0"":""Luke is arguing with Mike.""}","<img src=""stim_listB/argue5.gif""style=""height:400px;""></stim_listB>",is arguing with,
null,"<div style=""font-size:60px;"">+</div>",,html-keyboard-response,144,1322559,0.0-15.0-0.4,2344,List1B,white,woman,,,,null,,,,
null,"<img src=""stim_listB/kiss5.gif""style=""height:400px;""></stim_listB>",,html-keyboard-response,145,1324577,0.0-15.0-1.4,2344,List1B,white,woman,,,,null,,,,
null,is kissing,,html-keyboard-response,146,1326594,0.0-15.0-2.4,2344,List1B,white,woman,,,,null,,,,
11961,,,survey-text,147,1338559,0.0-15.0-3.4,2344,List1B,white,woman,,,,,"{""Q0"":""Luke is kissing Fred.""}","<img src=""stim_listB/kiss5.gif""style=""height:400px;""></stim_listB>",is kissing,
null,"<div style=""font-size:60px;"">+</div>",,html-keyboard-response,148,1339084,0.0-15.0-0.5,2344,List1B,white,woman,,,,null,,,,
null,"<img src=""stim_listB/marry1.gif""style=""height:400px;""></stim_listB>",,html-keyboard-response,149,1341108,0.0-15.0-1.5,2344,List1B,white,woman,,,,null,,,,
null,is marrying,,html-keyboard-response,150,1343091,0.0-15.0-2.5,2344,List1B,white,woman,,,,null,,,,
16168,,,survey-text,151,1359262,0.0-15.0-3.5,2344,List1B,white,woman,,,,,"{""Q0"":""Beth is marrying Mike.""}","<img src=""stim_listB/marry1.gif""style=""height:400px;""></stim_listB>",is marrying,
null,"<div style=""font-size:60px;"">+</div>",,html-keyboard-response,152,1359784,0.0-15.0-0.6,2344,List1B,white,woman,,,,null,,,,
null,"<img src=""stim_listB/shout5.gif""style=""height:400px;""></stim_listB>",,html-keyboard-response,153,1361804,0.0-15.0-1.6,2344,List1B,white,woman,,,,null,,,,
null,is shouting at,,html-keyboard-response,154,1363788,0.0-15.0-2.6,2344,List1B,white,woman,,,,null,,,,
10674,,,survey-text,155,1374467,0.0-15.0-3.6,2344,List1B,white,woman,,,,,"{""Q0"":""Fred is shouting at Luke.""}","<img src=""stim_listB/shout5.gif""style=""height:400px;""></stim_listB>",is shouting at,
null,"<div style=""font-size:60px;"">+</div>",,html-keyboard-response,156,1374984,0.0-15.0-0.7,2344,List1B,white,woman,,,,null,,,,
null,"<img src=""stim_listB/argue4.gif""style=""height:400px;""></stim_listB>",,html-keyboard-response,157,1377003,0.0-15.0-1.7,2344,List1B,white,woman,,,,null,,,,
null,are arguing with each other,,html-keyboard-response,158,1378997,0.0-15.0-2.7,2344,List1B,white,woman,,,,null,,,,
19161,,,survey-text,159,1398161,0.0-15.0-3.7,2344,List1B,white,woman,,,,,"{""Q0"":""Jane and Luke are""}","<img src=""stim_listB/argue4.gif""style=""height:400px;""></stim_listB>",are arguing with each other,
null,"<div style=""font-size:60px;"">+</div>",,html-keyboard-response,160,1398680,0.0-15.0-0.8,2344,List1B,white,woman,,,,null,,,,
null,"<img src=""stim_listB/fight6.gif""style=""height:400px;""></stim_listB>",,html-keyboard-response,161,1400698,0.0-15.0-1.8,2344,List1B,white,woman,,,,null,,,,
null,are fighting each other,,html-keyboard-response,162,1402709,0.0-15.0-2.8,2344,List1B,white,woman,,,,null,,,,
17759,,,survey-text,163,1420471,0.0-15.0-3.8,2344,List1B,white,woman,,,,,"{""Q0"":""Fred and Luke are fighting each other.""}","<img src=""stim_listB/fight6.gif""style=""height:400px;""></stim_listB>",are fighting each other,
null,"<div style=""font-size:60px;"">+</div>",,html-keyboard-response,164,1420982,0.0-15.0-0.9,2344,List1B,white,woman,,,,null,,,,
null,"<img src=""stim_listB/fight4.gif""style=""height:400px;""></stim_listB>",,html-keyboard-response,165,1423003,0.0-15.0-1.9,2344,List1B,white,woman,,,,null,,,,
null,are fighting each other,,html-keyboard-response,166,1424998,0.0-15.0-2.9,2344,List1B,white,woman,,,,null,,,,
13184,,,survey-text,167,1438185,0.0-15.0-3.9,2344,List1B,white,woman,,,,,"{""Q0"":""Luke and Ruth are fighting each other.""}","<img src=""stim_listB/fight4.gif""style=""height:400px;""></stim_listB>",are fighting each other,
null,"<div style=""font-size:60px;"">+</div>",,html-keyboard-response,168,1438703,0.0-15.0-0.10,2344,List1B,white,woman,,,,null,,,,
null,"<img src=""stim_listB/talk4.gif""style=""height:400px;""></stim_listB>",,html-keyboard-response,169,1440707,0.0-15.0-1.10,2344,List1B,white,woman,,,,null,,,,
null,are talking to each other,,html-keyboard-response,170,1442709,0.0-15.0-2.10,2344,List1B,white,woman,,,,null,,,,
19056,,,survey-text,171,1461768,0.0-15.0-3.10,2344,List1B,white,woman,,,,,"{""Q0"":""Dave and Ruth are talking to each other.""}","<img src=""stim_listB/talk4.gif""style=""height:400px;""></stim_listB>",are talking to each other,
null,"<div style=""font-size:60px;"">+</div>",,html-keyboard-response,172,1462286,0.0-15.0-0.11,2344,List1B,white,woman,,,,null,,,,
null,"<img src=""stim_listB/play3.gif""style=""height:400px;""></stim_listB>",,html-keyboard-response,173,1464320,0.0-15.0-1.11,2344,List1B,white,woman,,,,null,,,,
null,is playing with,,html-keyboard-response,174,1466304,0.0-15.0-2.11,2344,List1B,white,woman,,,,null,,,,
14788,,,survey-text,175,1481095,0.0-15.0-3.11,2344,List1B,white,woman,,,,,"{""Q0"":""Dave is playing with Jane.""}","<img src=""stim_listB/play3.gif""style=""height:400px;""></stim_listB>",is playing with,
null,"<div style=""font-size:60px;"">+</div>",,html-keyboard-response,176,1481607,0.0-15.0-0.12,2344,List1B,white,woman,,,,null,,,,
null,"<img src=""stim_listB/argue1.gif""style=""height:400px;""></stim_listB>",,html-keyboard-response,177,1483613,0.0-15.0-1.12,2344,List1B,white,woman,,,,null,,,,
null,is arguing with,,html-keyboard-response,178,1485626,0.0-15.0-2.12,2344,List1B,white,woman,,,,null,,,,
10581,,,survey-text,179,1496210,0.0-15.0-3.12,2344,List1B,white,woman,,,,,"{""Q0"":""Beth is arguing with Mike.""}","<img src=""stim_listB/argue1.gif""style=""height:400px;""></stim_listB>",is arguing with,
null,"<div style=""font-size:60px;"">+</div>",,html-keyboard-response,180,1496726,0.0-15.0-0.13,2344,List1B,white,woman,,,,null,,,,
null,"<img src=""stim_listB/kiss1.gif""style=""height:400px;""></stim_listB>",,html-keyboard-response,181,1498747,0.0-15.0-1.13,2344,List1B,white,woman,,,,null,,,,
null,is kissing,,html-keyboard-response,182,1500743,0.0-15.0-2.13,2344,List1B,white,woman,,,,null,,,,
9118,,,survey-text,183,1509864,0.0-15.0-3.13,2344,List1B,white,woman,,,,,"{""Q0"":""Fred is kissing Beth.""}","<img src=""stim_listB/kiss1.gif""style=""height:400px;""></stim_listB>",is kissing,
null,"<div style=""font-size:60px;"">+</div>",,html-keyboard-response,184,1510379,0.0-15.0-0.14,2344,List1B,white,woman,,,,null,,,,
null,"<img src=""stim_listB/argue8.gif""style=""height:400px;""></stim_listB>",,html-keyboard-response,185,1512393,0.0-15.0-1.14,2344,List1B,white,woman,,,,null,,,,
null,are arguing with each other,,html-keyboard-response,186,1514396,0.0-15.0-2.14,2344,List1B,white,woman,,,,null,,,,
16291,,,survey-text,187,1530689,0.0-15.0-3.14,2344,List1B,white,woman,,,,,"{""Q0"":""Beth and Jane are arguing with each other.""}","<img src=""stim_listB/argue8.gif""style=""height:400px;""></stim_listB>",are arguing with each other,
null,"<div style=""font-size:60px;"">+</div>",,html-keyboard-response,188,1531208,0.0-15.0-0.15,2344,List1B,white,woman,,,,null,,,,
null,"<img src=""stim_listB/play6.gif""style=""height:400px;""></stim_listB>",,html-keyboard-response,189,1533235,0.0-15.0-1.15,2344,List1B,white,woman,,,,null,,,,
null,are playing with each other,,html-keyboard-response,190,1535214,0.0-15.0-2.15,2344,List1B,white,woman,,,,null,,,,
18665,,,survey-text,191,1553881,0.0-15.0-3.15,2344,List1B,white,woman,,,,,"{""Q0"":""Fred and Luke are playing with each other.""}","<img src=""stim_listB/play6.gif""style=""height:400px;""></stim_listB>",are playing with each other,
null,"<div style=""font-size:60px;"">+</div>",,html-keyboard-response,192,1554396,0.0-15.0-0.16,2344,List1B,white,woman,,,,null,,,,
null,"<img src=""stim_listB/flirt6.gif""style=""height:400px;""></stim_listB>",,html-keyboard-response,193,1556415,0.0-15.0-1.16,2344,List1B,white,woman,,,,null,,,,
null,are flirting with each other,,html-keyboard-response,194,1558415,0.0-15.0-2.16,2344,List1B,white,woman,,,,null,,,,
25423,,,survey-text,195,1583841,0.0-15.0-3.16,2344,List1B,white,woman,,,,,"{""Q0"":""Luke and Mike are flirting with each other.""}","<img src=""stim_listB/flirt6.gif""style=""height:400px;""></stim_listB>",are flirting with each other,
null,"<div style=""font-size:60px;"">+</div>",,html-keyboard-response,196,1584369,0.0-15.0-0.17,2344,List1B,white,woman,,,,null,,,,
null,"<img src=""stim_listB/play8.gif""style=""height:400px;""></stim_listB>",,html-keyboard-response,197,1586382,0.0-15.0-1.17,2344,List1B,white,woman,,,,null,,,,
null,are playing with each other,,html-keyboard-response,198,1588375,0.0-15.0-2.17,2344,List1B,white,woman,,,,null,,,,
21818,,,survey-text,199,1610195,0.0-15.0-3.17,2344,List1B,white,woman,,,,,"{""Q0"":""Beth and Ruth are playing with each other.""}","<img src=""stim_listB/play8.gif""style=""height:400px;""></stim_listB>",are playing with each other,
null,"<div style=""font-size:60px;"">+</div>",,html-keyboard-response,200,1610712,0.0-15.0-0.18,2344,List1B,white,woman,,,,null,,,,
null,"<img src=""stim_listB/fight5.gif""style=""height:400px;""></stim_listB>",,html-keyboard-response,201,1612737,0.0-15.0-1.18,2344,List1B,white,woman,,,,null,,,,
null,is fighting,,html-keyboard-response,202,1614745,0.0-15.0-2.18,2344,List1B,white,woman,,,,null,,,,
10166,,,survey-text,203,1624916,0.0-15.0-3.18,2344,List1B,white,woman,,,,,"{""Q0"":""Dave is fighting Mike.""}","<img src=""stim_listB/fight5.gif""style=""height:400px;""></stim_listB>",is fighting,
null,"<div style=""font-size:60px;"">+</div>",,html-keyboard-response,204,1625427,0.0-15.0-0.19,2344,List1B,white,woman,,,,null,,,,
null,"<img src=""stim_listB/flirt3.gif""style=""height:400px;""></stim_listB>",,html-keyboard-response,205,1627438,0.0-15.0-1.19,2344,List1B,white,woman,,,,null,,,,
null,is flirting with,,html-keyboard-response,206,1629446,0.0-15.0-2.19,2344,List1B,white,woman,,,,null,,,,
12478,,,survey-text,207,1641925,0.0-15.0-3.19,2344,List1B,white,woman,,,,,"{""Q0"":""Jane is flirting with Luke.""}","<img src=""stim_listB/flirt3.gif""style=""height:400px;""></stim_listB>",is flirting with,
87411,"<img src='img/portrait_matrix_list1.jpg' style='width:900px;height:500px;''></img><p>If you have memorised all the portraits and names and are ready to start, press Continue.</p><p><strong>Please note: Your memory of these faces will be tested 4 times during this experiment.</strong></p>",0,html-button-response,208,1729339,0.0-16.0-0.0,2344,List1B,white,woman,,,,,,,,
2611,"<img src=""portrait/WW2.jpg""style=""height:400px;""></img>",3,html-button-response,209,1732975,0.0-16.0-1.0,2344,List1B,white,woman,,TRUE,3,,,,,
null,CORRECT,,html-keyboard-response,210,1734497,0.0-16.0-2.0-0.0,2344,List1B,white,woman,,,,null,,,,
2439,"<img src=""portrait/WW1.jpg""style=""height:400px;""></img>",1,html-button-response,211,1736941,0.0-16.0-4.0,2344,List1B,white,woman,,TRUE,1,,,,,
null,CORRECT,,html-keyboard-response,212,1738460,0.0-16.0-5.0-0.0,2344,List1B,white,woman,,,,null,,,,
2558,"<img src=""portrait/BM1.jpg""style=""height:400px;""></img>",4,html-button-response,213,1741021,0.0-16.0-7.0,2344,List1B,white,woman,,TRUE,4,,,,,
null,CORRECT,,html-keyboard-response,214,1742551,0.0-16.0-8.0-0.0,2344,List1B,white,woman,,,,null,,,,
3169,"<img src=""portrait/BW2.jpg""style=""height:400px;""></img>",2,html-button-response,215,1745723,0.0-16.0-10.0,2344,List1B,white,woman,,TRUE,2,,,,,
null,CORRECT,,html-keyboard-response,216,1747252,0.0-16.0-11.0-0.0,2344,List1B,white,woman,,,,null,,,,
2044,"<img src=""portrait/BW1.jpg""style=""height:400px;""></img>",0,html-button-response,217,1749298,0.0-16.0-13.0,2344,List1B,white,woman,,TRUE,0,,,,,
null,CORRECT,,html-keyboard-response,218,1750818,0.0-16.0-14.0-0.0,2344,List1B,white,woman,,,,null,,,,
2875,"<img src=""portrait/WM1.jpg""style=""height:400px;""></img>",6,html-button-response,219,1753696,0.0-16.0-16.0,2344,List1B,white,woman,,TRUE,6,,,,,
null,CORRECT,,html-keyboard-response,220,1755239,0.0-16.0-17.0-0.0,2344,List1B,white,woman,,,,null,,,,
1717,"<img src=""portrait/WM2.jpg""style=""height:400px;""></img>",7,html-button-response,221,1756960,0.0-16.0-19.0,2344,List1B,white,woman,,TRUE,7,,,,,
null,CORRECT,,html-keyboard-response,222,1758489,0.0-16.0-20.0-0.0,2344,List1B,white,woman,,,,null,,,,
1562,"<img src=""portrait/BM2.jpg""style=""height:400px;""></img>",5,html-button-response,223,1760055,0.0-16.0-22.0,2344,List1B,white,woman,,TRUE,5,,,,,
null,CORRECT,,html-keyboard-response,224,1761588,0.0-16.0-23.0-0.0,2344,List1B,white,woman,,,,null,,,,
17426,<p>You got 8 out of 8 right first time. Press Continue.</p>,0,html-button-response,225,1779019,0.0-16.0-25.0,2344,List1B,white,woman,,,,,,,,
null,"<div style=""font-size:60px;"">+</div>",,html-keyboard-response,226,1780547,0.0-17.0-0.0,2344,List1B,white,woman,,,,null,,,,
null,"<img src=""stim_listB/touch7.gif""style=""height:400px;""></stim_listB>",,html-keyboard-response,227,1782562,0.0-17.0-1.0,2344,List1B,white,woman,,,,null,,,,
null,is touching,,html-keyboard-response,228,1784566,0.0-17.0-2.0,2344,List1B,white,woman,,,,null,,,,
17731,,,survey-text,229,1802299,0.0-17.0-3.0,2344,List1B,white,woman,,,,,"{""Q0"":""Kate is touching Jane.""}","<img src=""stim_listB/touch7.gif""style=""height:400px;""></stim_listB>",is touching,
null,"<div style=""font-size:60px;"">+</div>",,html-keyboard-response,230,1802811,0.0-17.0-0.1,2344,List1B,white,woman,,,,null,,,,
null,"<img src=""stim_listB/argue2.gif""style=""height:400px;""></stim_listB>",,html-keyboard-response,231,1804834,0.0-17.0-1.1,2344,List1B,white,woman,,,,null,,,,
null,are arguing with each other,,html-keyboard-response,232,1806829,0.0-17.0-2.1,2344,List1B,white,woman,,,,null,,,,
30236,,,survey-text,233,1837069,0.0-17.0-3.1,2344,List1B,white,woman,,,,,"{""Q0"":""Fred and Kate are arguing with each other.""}","<img src=""stim_listB/argue2.gif""style=""height:400px;""></stim_listB>",are arguing with each other,
null,"<div style=""font-size:60px;"">+</div>",,html-keyboard-response,234,1837585,0.0-17.0-0.2,2344,List1B,white,woman,,,,null,,,,
null,"<img src=""stim_listB/marry8.gif""style=""height:400px;""></stim_listB>",,html-keyboard-response,235,1839611,0.0-17.0-1.2,2344,List1B,white,woman,,,,null,,,,
null,are marrying each other,,html-keyboard-response,236,1841596,0.0-17.0-2.2,2344,List1B,white,woman,,,,null,,,,
11064,,,survey-text,237,1852663,0.0-17.0-3.2,2344,List1B,white,woman,,,,,"{""Q0"":""Beth and jane are marrying each other.""}","<img src=""stim_listB/marry8.gif""style=""height:400px;""></stim_listB>",are marrying each other,
null,"<div style=""font-size:60px;"">+</div>",,html-keyboard-response,238,1853178,0.0-17.0-0.3,2344,List1B,white,woman,,,,null,,,,
null,"<img src=""stim_listB/shout4.gif""style=""height:400px;""></stim_listB>",,html-keyboard-response,239,1855204,0.0-17.0-1.3,2344,List1B,white,woman,,,,null,,,,
null,are shouting at each other,,html-keyboard-response,240,1857187,0.0-17.0-2.3,2344,List1B,white,woman,,,,null,,,,
19903,,,survey-text,241,1877094,0.0-17.0-3.3,2344,List1B,white,woman,,,,,"{""Q0"":""Jane and Dave are shouting at each other.""}","<img src=""stim_listB/shout4.gif""style=""height:400px;""></stim_listB>",are shouting at each other,
null,"<div style=""font-size:60px;"">+</div>",,html-keyboard-response,242,1877608,0.0-17.0-0.4,2344,List1B,white,woman,,,,null,,,,
null,"<img src=""stim_listB/flirt8.gif""style=""height:400px;""></stim_listB>",,html-keyboard-response,243,1879627,0.0-17.0-1.4,2344,List1B,white,woman,,,,null,,,,
null,are flirting with each other,,html-keyboard-response,244,1881636,0.0-17.0-2.4,2344,List1B,white,woman,,,,null,,,,
15089,,,survey-text,245,1896727,0.0-17.0-3.4,2344,List1B,white,woman,,,,,"{""Q0"":""Ruth and Kate are flirting with each other.""}","<img src=""stim_listB/flirt8.gif""style=""height:400px;""></stim_listB>",are flirting with each other,
null,"<div style=""font-size:60px;"">+</div>",,html-keyboard-response,246,1897256,0.0-17.0-0.5,2344,List1B,white,woman,,,,null,,,,
null,"<img src=""stim_listB/dance7.gif""style=""height:400px;""></stim_listB>",,html-keyboard-response,247,1899273,0.0-17.0-1.5,2344,List1B,white,woman,,,,null,,,,
null,is dancing with,,html-keyboard-response,248,1901269,0.0-17.0-2.5,2344,List1B,white,woman,,,,null,,,,
16297,,,survey-text,249,1917570,0.0-17.0-3.5,2344,List1B,white,woman,,,,,"{""Q0"":""Beth is dancing with Jane.""}","<img src=""stim_listB/dance7.gif""style=""height:400px;""></stim_listB>",is dancing with,
null,"<div style=""font-size:60px;"">+</div>",,html-keyboard-response,250,1918079,0.0-17.0-0.6,2344,List1B,white,woman,,,,null,,,,
null,"<img src=""stim_listB/play1.gif""style=""height:400px;""></stim_listB>",,html-keyboard-response,251,1920100,0.0-17.0-1.6,2344,List1B,white,woman,,,,null,,,,
null,is playing with,,html-keyboard-response,252,1922080,0.0-17.0-2.6,2344,List1B,white,woman,,,,null,,,,
11574,,,survey-text,253,1933657,0.0-17.0-3.6,2344,List1B,white,woman,,,,,"{""Q0"":""Mike is playing with Kate.""}","<img src=""stim_listB/play1.gif""style=""height:400px;""></stim_listB>",is playing with,
null,"<div style=""font-size:60px;"">+</div>",,html-keyboard-response,254,1934174,0.0-17.0-0.7,2344,List1B,white,woman,,,,null,,,,
null,"<img src=""stim_listB/kiss3.gif""style=""height:400px;""></stim_listB>",,html-keyboard-response,255,1936180,0.0-17.0-1.7,2344,List1B,white,woman,,,,null,,,,
null,is kissing,,html-keyboard-response,256,1938179,0.0-17.0-2.7,2344,List1B,white,woman,,,,null,,,,
8580,,,survey-text,257,1946761,0.0-17.0-3.7,2344,List1B,white,woman,,,,,"{""Q0"":""Luke is kissing Ruth.""}","<img src=""stim_listB/kiss3.gif""style=""height:400px;""></stim_listB>",is kissing,
null,"<div style=""font-size:60px;"">+</div>",,html-keyboard-response,258,1947272,0.0-17.0-0.8,2344,List1B,white,woman,,,,null,,,,
null,"<img src=""stim_listB/touch1.gif""style=""height:400px;""></stim_listB>",,html-keyboard-response,259,1949278,0.0-17.0-1.8,2344,List1B,white,woman,,,,null,,,,
null,is touching,,html-keyboard-response,260,1951283,0.0-17.0-2.8,2344,List1B,white,woman,,,,null,,,,
8495,,,survey-text,261,1959781,0.0-17.0-3.8,2344,List1B,white,woman,,,,,"{""Q0"":""Kate is touching Mike.""}","<img src=""stim_listB/touch1.gif""style=""height:400px;""></stim_listB>",is touching,
null,"<div style=""font-size:60px;"">+</div>",,html-keyboard-response,262,1960289,0.0-17.0-0.9,2344,List1B,white,woman,,,,null,,,,
null,"<img src=""stim_listB/argue3.gif""style=""height:400px;""></stim_listB>",,html-keyboard-response,263,1962305,0.0-17.0-1.9,2344,List1B,white,woman,,,,null,,,,
null,is arguing with,,html-keyboard-response,264,1964299,0.0-17.0-2.9,2344,List1B,white,woman,,,,null,,,,
13901,,,survey-text,265,1978203,0.0-17.0-3.9,2344,List1B,white,woman,,,,,"{""Q0"":""Dave is arguing with Ruth.""}","<img src=""stim_listB/argue3.gif""style=""height:400px;""></stim_listB>",is arguing with,
null,"<div style=""font-size:60px;"">+</div>",,html-keyboard-response,266,1978729,0.0-17.0-0.10,2344,List1B,white,woman,,,,null,,,,
null,"<img src=""stim_listB/dance4.gif""style=""height:400px;""></stim_listB>",,html-keyboard-response,267,1980746,0.0-17.0-1.10,2344,List1B,white,woman,,,,null,,,,
null,are dancing with each other,,html-keyboard-response,268,1982745,0.0-17.0-2.10,2344,List1B,white,woman,,,,null,,,,
19362,,,survey-text,269,2002110,0.0-17.0-3.10,2344,List1B,white,woman,,,,,"{""Q0"":""Ruth and  Dave are dancing with each other.""}","<img src=""stim_listB/dance4.gif""style=""height:400px;""></stim_listB>",are dancing with each other,
null,"<div style=""font-size:60px;"">+</div>",,html-keyboard-response,270,2002639,0.0-17.0-0.11,2344,List1B,white,woman,,,,null,,,,
null,"<img src=""stim_listB/shout7.gif""style=""height:400px;""></stim_listB>",,html-keyboard-response,271,2004664,0.0-17.0-1.11,2344,List1B,white,woman,,,,null,,,,
null,is shouting at,,html-keyboard-response,272,2006668,0.0-17.0-2.11,2344,List1B,white,woman,,,,null,,,,
11462,,,survey-text,273,2018133,0.0-17.0-3.11,2344,List1B,white,woman,,,,,"{""Q0"":""Beth and Ruth""}","<img src=""stim_listB/shout7.gif""style=""height:400px;""></stim_listB>",is shouting at,
null,"<div style=""font-size:60px;"">+</div>",,html-keyboard-response,274,2018642,0.0-17.0-0.12,2344,List1B,white,woman,,,,null,,,,
null,"<img src=""stim_listB/flirt4.gif""style=""height:400px;""></stim_listB>",,html-keyboard-response,275,2020660,0.0-17.0-1.12,2344,List1B,white,woman,,,,null,,,,
null,are flirting with each other,,html-keyboard-response,276,2022658,0.0-17.0-2.12,2344,List1B,white,woman,,,,null,,,,
15291,,,survey-text,277,2037952,0.0-17.0-3.12,2344,List1B,white,woman,,,,,"{""Q0"":""Ruth and dave are flirting with each other.""}","<img src=""stim_listB/flirt4.gif""style=""height:400px;""></stim_listB>",are flirting with each other,
null,"<div style=""font-size:60px;"">+</div>",,html-keyboard-response,278,2038473,0.0-17.0-0.13,2344,List1B,white,woman,,,,null,,,,
null,"<img src=""stim_listB/fight3.gif""style=""height:400px;""></stim_listB>",,html-keyboard-response,279,2040496,0.0-17.0-1.13,2344,List1B,white,woman,,,,null,,,,
null,is fighting,,html-keyboard-response,280,2042486,0.0-17.0-2.13,2344,List1B,white,woman,,,,null,,,,
12604,,,survey-text,281,2055094,0.0-17.0-3.13,2344,List1B,white,woman,,,,,"{""Q0"":""Dave is fighting Jane.""}","<img src=""stim_listB/fight3.gif""style=""height:400px;""></stim_listB>",is fighting,
null,"<div style=""font-size:60px;"">+</div>",,html-keyboard-response,282,2055621,0.0-17.0-0.14,2344,List1B,white,woman,,,,null,,,,
null,"<img src=""stim_listB/shout8.gif""style=""height:400px;""></stim_listB>",,html-keyboard-response,283,2057636,0.0-17.0-1.14,2344,List1B,white,woman,,,,null,,,,
null,are shouting at each other,,html-keyboard-response,284,2059637,0.0-17.0-2.14,2344,List1B,white,woman,,,,null,,,,
19005,,,survey-text,285,2078646,0.0-17.0-3.14,2344,List1B,white,woman,,,,,"{""Q0"":""Kate and Jane are shouting at each other.""}","<img src=""stim_listB/shout8.gif""style=""height:400px;""></stim_listB>",are shouting at each other,
null,"<div style=""font-size:60px;"">+</div>",,html-keyboard-response,286,2079167,0.0-17.0-0.15,2344,List1B,white,woman,,,,null,,,,
null,"<img src=""stim_listB/dance8.gif""style=""height:400px;""></stim_listB>",,html-keyboard-response,287,2081195,0.0-17.0-1.15,2344,List1B,white,woman,,,,null,,,,
null,are dancing with each other,,html-keyboard-response,288,2083184,0.0-17.0-2.15,2344,List1B,white,woman,,,,null,,,,
15662,,,survey-text,289,2098849,0.0-17.0-3.15,2344,List1B,white,woman,,,,,"{""Q0"":""Kate and Ruth are dancing.""}","<img src=""stim_listB/dance8.gif""style=""height:400px;""></stim_listB>",are dancing with each other,
null,"<div style=""font-size:60px;"">+</div>",,html-keyboard-response,290,2099358,0.0-17.0-0.16,2344,List1B,white,woman,,,,null,,,,
null,"<img src=""stim_listB/argue6.gif""style=""height:400px;""></stim_listB>",,html-keyboard-response,291,2101382,0.0-17.0-1.16,2344,List1B,white,woman,,,,null,,,,
null,are arguing with each other,,html-keyboard-response,292,2103382,0.0-17.0-2.16,2344,List1B,white,woman,,,,null,,,,
12799,,,survey-text,293,2116184,0.0-17.0-3.16,2344,List1B,white,woman,,,,,"{""Q0"":""Fred and Dave are arguing with each ohter.""}","<img src=""stim_listB/argue6.gif""style=""height:400px;""></stim_listB>",are arguing with each other,
null,"<div style=""font-size:60px;"">+</div>",,html-keyboard-response,294,2116692,0.0-17.0-0.17,2344,List1B,white,woman,,,,null,,,,
null,"<img src=""stim_listB/talk8.gif""style=""height:400px;""></stim_listB>",,html-keyboard-response,295,2118720,0.0-17.0-1.17,2344,List1B,white,woman,,,,null,,,,
null,are talking to each other,,html-keyboard-response,296,2120712,0.0-17.0-2.17,2344,List1B,white,woman,,,,null,,,,
11558,,,survey-text,297,2132273,0.0-17.0-3.17,2344,List1B,white,woman,,,,,"{""Q0"":""Ruth and Kate are talking to each other.""}","<img src=""stim_listB/talk8.gif""style=""height:400px;""></stim_listB>",are talking to each other,
null,"<div style=""font-size:60px;"">+</div>",,html-keyboard-response,298,2132781,0.0-17.0-0.18,2344,List1B,white,woman,,,,null,,,,
null,"<img src=""stim_listB/talk7.gif""style=""height:400px;""></stim_listB>",,html-keyboard-response,299,2134788,0.0-17.0-1.18,2344,List1B,white,woman,,,,null,,,,
null,is talking to,,html-keyboard-response,300,2136802,0.0-17.0-2.18,2344,List1B,white,woman,,,,null,,,,
9813,,,survey-text,301,2146619,0.0-17.0-3.18,2344,List1B,white,woman,,,,,"{""Q0"":""Beth is talking to Jane.""}","<img src=""stim_listB/talk7.gif""style=""height:400px;""></stim_listB>",is talking to,
null,"<div style=""font-size:60px;"">+</div>",,html-keyboard-response,302,2147142,0.0-17.0-0.19,2344,List1B,white,woman,,,,null,,,,
null,"<img src=""stim_listB/kiss4.gif""style=""height:400px;""></stim_listB>",,html-keyboard-response,303,2149193,0.0-17.0-1.19,2344,List1B,white,woman,,,,null,,,,
null,are kissing each other,,html-keyboard-response,304,2151175,0.0-17.0-2.19,2344,List1B,white,woman,,,,null,,,,
12088,,,survey-text,305,2163267,0.0-17.0-3.19,2344,List1B,white,woman,,,,,"{""Q0"":""Dave and Jane are kissing each other.""}","<img src=""stim_listB/kiss4.gif""style=""height:400px;""></stim_listB>",are kissing each other,
14292,"<img src='img/portrait_matrix_list1.jpg' style='width:900px;height:500px;''></img><p>If you have memorised all the portraits and names and are ready to start, press Continue.</p><p><strong>Please note: Your memory of these faces will be tested 4 times during this experiment.</strong></p>",0,html-button-response,306,2177562,0.0-18.0-0.0,2344,List1B,white,woman,,,,,,,,
3366,"<img src=""portrait/BW2.jpg""style=""height:400px;""></img>",2,html-button-response,307,2181940,0.0-18.0-1.0,2344,List1B,white,woman,,TRUE,2,,,,,
null,CORRECT,,html-keyboard-response,308,2183472,0.0-18.0-2.0-0.0,2344,List1B,white,woman,,,,null,,,,
2047,"<img src=""portrait/BW1.jpg""style=""height:400px;""></img>",0,html-button-response,309,2185524,0.0-18.0-4.0,2344,List1B,white,woman,,TRUE,0,,,,,
null,CORRECT,,html-keyboard-response,310,2187061,0.0-18.0-5.0-0.0,2344,List1B,white,woman,,,,null,,,,
2301,"<img src=""portrait/BM2.jpg""style=""height:400px;""></img>",5,html-button-response,311,2189366,0.0-18.0-7.0,2344,List1B,white,woman,,TRUE,5,,,,,
null,CORRECT,,html-keyboard-response,312,2190904,0.0-18.0-8.0-0.0,2344,List1B,white,woman,,,,null,,,,
1535,"<img src=""portrait/WW2.jpg""style=""height:400px;""></img>",3,html-button-response,313,2192443,0.0-18.0-10.0,2344,List1B,white,woman,,TRUE,3,,,,,
null,CORRECT,,html-keyboard-response,314,2193975,0.0-18.0-11.0-0.0,2344,List1B,white,woman,,,,null,,,,
1787,"<img src=""portrait/WW1.jpg""style=""height:400px;""></img>",1,html-button-response,315,2195766,0.0-18.0-13.0,2344,List1B,white,woman,,TRUE,1,,,,,
null,CORRECT,,html-keyboard-response,316,2197294,0.0-18.0-14.0-0.0,2344,List1B,white,woman,,,,null,,,,
2273,"<img src=""portrait/WM1.jpg""style=""height:400px;""></img>",6,html-button-response,317,2199571,0.0-18.0-16.0,2344,List1B,white,woman,,TRUE,6,,,,,
null,CORRECT,,html-keyboard-response,318,2201108,0.0-18.0-17.0-0.0,2344,List1B,white,woman,,,,null,,,,
1942,"<img src=""portrait/WM2.jpg""style=""height:400px;""></img>",7,html-button-response,319,2203054,0.0-18.0-19.0,2344,List1B,white,woman,,TRUE,7,,,,,
null,CORRECT,,html-keyboard-response,320,2204586,0.0-18.0-20.0-0.0,2344,List1B,white,woman,,,,null,,,,
1435,"<img src=""portrait/BM1.jpg""style=""height:400px;""></img>",4,html-button-response,321,2206025,0.0-18.0-22.0,2344,List1B,white,woman,,TRUE,4,,,,,
null,CORRECT,,html-keyboard-response,322,2207557,0.0-18.0-23.0-0.0,2344,List1B,white,woman,,,,null,,,,
16306,<p>You got 8 out of 8 right first time. Press Continue.</p>,0,html-button-response,323,2223867,0.0-18.0-25.0,2344,List1B,white,woman,,,,,,,,
null,"<div style=""font-size:60px;"">+</div>",,html-keyboard-response,324,2225406,0.0-19.0-0.0,2344,List1B,white,woman,,,,null,,,,
null,"<img src=""stim_listB/marry7.gif""style=""height:400px;""></stim_listB>",,html-keyboard-response,325,2227425,0.0-19.0-1.0,2344,List1B,white,woman,,,,null,,,,
null,is marrying,,html-keyboard-response,326,2229426,0.0-19.0-2.0,2344,List1B,white,woman,,,,null,,,,
21054,,,survey-text,327,2250483,0.0-19.0-3.0,2344,List1B,white,woman,,,,,"{""Q0"":""Ruth is marrying Kate.""}","<img src=""stim_listB/marry7.gif""style=""height:400px;""></stim_listB>",is marrying,
null,"<div style=""font-size:60px;"">+</div>",,html-keyboard-response,328,2250996,0.0-19.0-0.1,2344,List1B,white,woman,,,,null,,,,
null,"<img src=""stim_listB/dance2.gif""style=""height:400px;""></stim_listB>",,html-keyboard-response,329,2253009,0.0-19.0-1.1,2344,List1B,white,woman,,,,null,,,,
null,are dancing with each other,,html-keyboard-response,330,2255014,0.0-19.0-2.1,2344,List1B,white,woman,,,,null,,,,
13578,,,survey-text,331,2268595,0.0-19.0-3.1,2344,List1B,white,woman,,,,,"{""Q0"":""Beth and mIke are dancing with each other.""}","<img src=""stim_listB/dance2.gif""style=""height:400px;""></stim_listB>",are dancing with each other,
null,"<div style=""font-size:60px;"">+</div>",,html-keyboard-response,332,2269113,0.0-19.0-0.2,2344,List1B,white,woman,,,,null,,,,
null,"<img src=""stim_listB/shout1.gif""style=""height:400px;""></stim_listB>",,html-keyboard-response,333,2271144,0.0-19.0-1.2,2344,List1B,white,woman,,,,null,,,,
null,is shouting at,,html-keyboard-response,334,2273126,0.0-19.0-2.2,2344,List1B,white,woman,,,,null,,,,
10343,,,survey-text,335,2283472,0.0-19.0-3.2,2344,List1B,white,woman,,,,,"{""Q0"":""Beth is shouting at Fred.""}","<img src=""stim_listB/shout1.gif""style=""height:400px;""></stim_listB>",is shouting at,
null,"<div style=""font-size:60px;"">+</div>",,html-keyboard-response,336,2283986,0.0-19.0-0.3,2344,List1B,white,woman,,,,null,,,,
null,"<img src=""stim_listB/talk5.gif""style=""height:400px;""></stim_listB>",,html-keyboard-response,337,2286006,0.0-19.0-1.3,2344,List1B,white,woman,,,,null,,,,
null,is talking to,,html-keyboard-response,338,2288011,0.0-19.0-2.3,2344,List1B,white,woman,,,,null,,,,
12320,,,survey-text,339,2300332,0.0-19.0-3.3,2344,List1B,white,woman,,,,,"{""Q0"":""Fred is talking to Dave.""}","<img src=""stim_listB/talk5.gif""style=""height:400px;""></stim_listB>",is talking to,
null,"<div style=""font-size:60px;"">+</div>",,html-keyboard-response,340,2300839,0.0-19.0-0.4,2344,List1B,white,woman,,,,null,,,,
null,"<img src=""stim_listB/talk6.gif""style=""height:400px;""></stim_listB>",,html-keyboard-response,341,2302853,0.0-19.0-1.4,2344,List1B,white,woman,,,,null,,,,
null,are talking to each other,,html-keyboard-response,342,2304861,0.0-19.0-2.4,2344,List1B,white,woman,,,,null,,,,
14036,,,survey-text,343,2318899,0.0-19.0-3.4,2344,List1B,white,woman,,,,,"{""Q0"":""Mike and Luke are talkint=g to each other.""}","<img src=""stim_listB/talk6.gif""style=""height:400px;""></stim_listB>",are talking to each other,
null,"<div style=""font-size:60px;"">+</div>",,html-keyboard-response,344,2319415,0.0-19.0-0.5,2344,List1B,white,woman,,,,null,,,,
null,"<img src=""stim_listB/flirt2.gif""style=""height:400px;""></stim_listB>",,html-keyboard-response,345,2321460,0.0-19.0-1.5,2344,List1B,white,woman,,,,null,,,,
null,are flirting with each other,,html-keyboard-response,346,2323437,0.0-19.0-2.5,2344,List1B,white,woman,,,,null,,,,
12951,,,survey-text,347,2336391,0.0-19.0-3.5,2344,List1B,white,woman,,,,,"{""Q0"":""Beth and Mike are flirting with each other.""}","<img src=""stim_listB/flirt2.gif""style=""height:400px;""></stim_listB>",are flirting with each other,
null,"<div style=""font-size:60px;"">+</div>",,html-keyboard-response,348,2336900,0.0-19.0-0.6,2344,List1B,white,woman,,,,null,,,,
null,"<img src=""stim_listB/play2.gif""style=""height:400px;""></stim_listB>",,html-keyboard-response,349,2338922,0.0-19.0-1.6,2344,List1B,white,woman,,,,null,,,,
null,are playing with each other,,html-keyboard-response,350,2340902,0.0-19.0-2.6,2344,List1B,white,woman,,,,null,,,,
11644,,,survey-text,351,2352550,0.0-19.0-3.6,2344,List1B,white,woman,,,,,"{""Q0"":""Fred and Beth are playing with each other.""}","<img src=""stim_listB/play2.gif""style=""height:400px;""></stim_listB>",are playing with each other,
null,"<div style=""font-size:60px;"">+</div>",,html-keyboard-response,352,2353077,0.0-19.0-0.7,2344,List1B,white,woman,,,,null,,,,
null,"<img src=""stim_listB/play7.gif""style=""height:400px;""></stim_listB>",,html-keyboard-response,353,2355085,0.0-19.0-1.7,2344,List1B,white,woman,,,,null,,,,
null,is playing with,,html-keyboard-response,354,2357088,0.0-19.0-2.7,2344,List1B,white,woman,,,,null,,,,
12374,,,survey-text,355,2369465,0.0-19.0-3.7,2344,List1B,white,woman,,,,,"{""Q0"":""Jane is playing with Kate.""}","<img src=""stim_listB/play7.gif""style=""height:400px;""></stim_listB>",is playing with,
null,"<div style=""font-size:60px;"">+</div>",,html-keyboard-response,356,2369982,0.0-19.0-0.8,2344,List1B,white,woman,,,,null,,,,
null,"<img src=""stim_listB/touch2.gif""style=""height:400px;""></stim_listB>",,html-keyboard-response,357,2371999,0.0-19.0-1.8,2344,List1B,white,woman,,,,null,,,,
null,are touching each other,,html-keyboard-response,358,2374014,0.0-19.0-2.8,2344,List1B,white,woman,,,,null,,,,
20585,,,survey-text,359,2394603,0.0-19.0-3.8,2344,List1B,white,woman,,,,,"{""Q0"":""Fred and Beth are touching each other.""}","<img src=""stim_listB/touch2.gif""style=""height:400px;""></stim_listB>",are touching each other,
null,"<div style=""font-size:60px;"">+</div>",,html-keyboard-response,360,2395121,0.0-19.0-0.9,2344,List1B,white,woman,,,,null,,,,
null,"<img src=""stim_listB/touch5.gif""style=""height:400px;""></stim_listB>",,html-keyboard-response,361,2397142,0.0-19.0-1.9,2344,List1B,white,woman,,,,null,,,,
null,is touching,,html-keyboard-response,362,2399128,0.0-19.0-2.9,2344,List1B,white,woman,,,,null,,,,
11166,,,survey-text,363,2410297,0.0-19.0-3.9,2344,List1B,white,woman,,,,,"{""Q0"":""Dave is touching Mike.""}","<img src=""stim_listB/touch5.gif""style=""height:400px;""></stim_listB>",is touching,
null,"<div style=""font-size:60px;"">+</div>",,html-keyboard-response,364,2410820,0.0-19.0-0.10,2344,List1B,white,woman,,,,null,,,,
null,"<img src=""stim_listB/kiss2.gif""style=""height:400px;""></stim_listB>",,html-keyboard-response,365,2412829,0.0-19.0-1.10,2344,List1B,white,woman,,,,null,,,,
null,are kissing each other,,html-keyboard-response,366,2414835,0.0-19.0-2.10,2344,List1B,white,woman,,,,null,,,,
10808,,,survey-text,367,2425646,0.0-19.0-3.10,2344,List1B,white,woman,,,,,"{""Q0"":""Mike and Kate are kissing each other.""}","<img src=""stim_listB/kiss2.gif""style=""height:400px;""></stim_listB>",are kissing each other,
null,"<div style=""font-size:60px;"">+</div>",,html-keyboard-response,368,2426168,0.0-19.0-0.11,2344,List1B,white,woman,,,,null,,,,
null,"<img src=""stim_listB/dance6.gif""style=""height:400px;""></stim_listB>",,html-keyboard-response,369,2428180,0.0-19.0-1.11,2344,List1B,white,woman,,,,null,,,,
null,are dancing with each other,,html-keyboard-response,370,2430184,0.0-19.0-2.11,2344,List1B,white,woman,,,,null,,,,
16979,,,survey-text,371,2447166,0.0-19.0-3.11,2344,List1B,white,woman,,,,,"{""Q0"":""Mike and Luke are dancing with each other.""}","<img src=""stim_listB/dance6.gif""style=""height:400px;""></stim_listB>",are dancing with each other,
null,"<div style=""font-size:60px;"">+</div>",,html-keyboard-response,372,2447683,0.0-19.0-0.12,2344,List1B,white,woman,,,,null,,,,
null,"<img src=""stim_listB/shout6.gif""style=""height:400px;""></stim_listB>",,html-keyboard-response,373,2449698,0.0-19.0-1.12,2344,List1B,white,woman,,,,null,,,,
null,are shouting at each other,,html-keyboard-response,374,2451709,0.0-19.0-2.12,2344,List1B,white,woman,,,,null,,,,
21940,,,survey-text,375,2473652,0.0-19.0-3.12,2344,List1B,white,woman,,,,,"{""Q0"":""Dave and Mike are shouting at each other.""}","<img src=""stim_listB/shout6.gif""style=""height:400px;""></stim_listB>",are shouting at each other,
null,"<div style=""font-size:60px;"">+</div>",,html-keyboard-response,376,2474172,0.0-19.0-0.13,2344,List1B,white,woman,,,,null,,,,
null,"<img src=""stim_listB/marry4.gif""style=""height:400px;""></stim_listB>",,html-keyboard-response,377,2476194,0.0-19.0-1.13,2344,List1B,white,woman,,,,null,,,,
null,are marrying each other,,html-keyboard-response,378,2478207,0.0-19.0-2.13,2344,List1B,white,woman,,,,null,,,,
12938,,,survey-text,379,2491148,0.0-19.0-3.13,2344,List1B,white,woman,,,,,"{""Q0"":""Luke and Jane are marrying each other.""}","<img src=""stim_listB/marry4.gif""style=""height:400px;""></stim_listB>",are marrying each other,
null,"<div style=""font-size:60px;"">+</div>",,html-keyboard-response,380,2491655,0.0-19.0-0.14,2344,List1B,white,woman,,,,null,,,,
null,"<img src=""stim_listB/touch8.gif""style=""height:400px;""></stim_listB>",,html-keyboard-response,381,2493671,0.0-19.0-1.14,2344,List1B,white,woman,,,,null,,,,
null,are touching each other,,html-keyboard-response,382,2495682,0.0-19.0-2.14,2344,List1B,white,woman,,,,null,,,,
13499,,,survey-text,383,2509184,0.0-19.0-3.14,2344,List1B,white,woman,,,,,"{""Q0"":""Beth and Ruth are touching each other.""}","<img src=""stim_listB/touch8.gif""style=""height:400px;""></stim_listB>",are touching each other,
null,"<div style=""font-size:60px;"">+</div>",,html-keyboard-response,384,2509702,0.0-19.0-0.15,2344,List1B,white,woman,,,,null,,,,
null,"<img src=""stim_listB/dance5.gif""style=""height:400px;""></stim_listB>",,html-keyboard-response,385,2511715,0.0-19.0-1.15,2344,List1B,white,woman,,,,null,,,,
null,is dancing with,,html-keyboard-response,386,2513714,0.0-19.0-2.15,2344,List1B,white,woman,,,,null,,,,
13512,,,survey-text,387,2527230,0.0-19.0-3.15,2344,List1B,white,woman,,,,,"{""Q0"":""Fred is dancing with Dave.""}","<img src=""stim_listB/dance5.gif""style=""height:400px;""></stim_listB>",is dancing with,
null,"<div style=""font-size:60px;"">+</div>",,html-keyboard-response,388,2527754,0.0-19.0-0.16,2344,List1B,white,woman,,,,null,,,,
null,"<img src=""stim_listB/dance1.gif""style=""height:400px;""></stim_listB>",,html-keyboard-response,389,2529762,0.0-19.0-1.16,2344,List1B,white,woman,,,,null,,,,
null,is dancing with,,html-keyboard-response,390,2531769,0.0-19.0-2.16,2344,List1B,white,woman,,,,null,,,,
11185,,,survey-text,391,2542958,0.0-19.0-3.16,2344,List1B,white,woman,,,,,"{""Q0"":""Kate is dancing with Fred.""}","<img src=""stim_listB/dance1.gif""style=""height:400px;""></stim_listB>",is dancing with,
null,"<div style=""font-size:60px;"">+</div>",,html-keyboard-response,392,2543464,0.0-19.0-0.17,2344,List1B,white,woman,,,,null,,,,
null,"<img src=""stim_listB/argue7.gif""style=""height:400px;""></stim_listB>",,html-keyboard-response,393,2545474,0.0-19.0-1.17,2344,List1B,white,woman,,,,null,,,,
null,is arguing with,,html-keyboard-response,394,2547482,0.0-19.0-2.17,2344,List1B,white,woman,,,,null,,,,
16498,,,survey-text,395,2563984,0.0-19.0-3.17,2344,List1B,white,woman,,,,,"{""Q0"":""Ruth is arguing with Kate.""}","<img src=""stim_listB/argue7.gif""style=""height:400px;""></stim_listB>",is arguing with,
null,"<div style=""font-size:60px;"">+</div>",,html-keyboard-response,396,2564508,0.0-19.0-0.18,2344,List1B,white,woman,,,,null,,,,
null,"<img src=""stim_listB/shout2.gif""style=""height:400px;""></stim_listB>",,html-keyboard-response,397,2566519,0.0-19.0-1.18,2344,List1B,white,woman,,,,null,,,,
null,are shouting at each other,,html-keyboard-response,398,2568524,0.0-19.0-2.18,2344,List1B,white,woman,,,,null,,,,
13065,,,survey-text,399,2581593,0.0-19.0-3.18,2344,List1B,white,woman,,,,,"{""Q0"":""Mike and Kate are shouting at each other.""}","<img src=""stim_listB/shout2.gif""style=""height:400px;""></stim_listB>",are shouting at each other,
null,"<div style=""font-size:60px;"">+</div>",,html-keyboard-response,400,2582120,0.0-19.0-0.19,2344,List1B,white,woman,,,,null,,,,
null,"<img src=""stim_listB/fight8.gif""style=""height:400px;""></stim_listB>",,html-keyboard-response,401,2584129,0.0-19.0-1.19,2344,List1B,white,woman,,,,null,,,,
null,are fighting each other,,html-keyboard-response,402,2586136,0.0-19.0-2.19,2344,List1B,white,woman,,,,null,,,,
15703,,,survey-text,403,2601843,0.0-19.0-3.19,2344,List1B,white,woman,,,,,"{""Q0"":""Beth and Ruth are fighting each other.""}","<img src=""stim_listB/fight8.gif""style=""height:400px;""></stim_listB>",are fighting each other,
2692,<p>Thank you for completing that task.</p><p>The final part of this session is a short questionnaire.</p><p>Press Continue.</p>,0,html-button-response,404,2604537,0.0-20.0,2344,List1B,white,woman,,,,,,,,
30190,,,survey-text,405,2635739,0.0-21.0,2344,List1B,white,woman,,,,,"{""Q0"":""51"",""Q1"":""English"",""Q2"":""English"",""Q3"":""USA"",""Q4"":""White"",""Q5"":""Female""}",,,demographics
32891,,,survey-likert,406,2668634,0.0-22.0,2344,List1B,white,woman,,,,,"{""Q0"":3}",,,likert_ESS
10235,,,survey-likert,407,2678872,0.0-23.0,2344,List1B,white,woman,,,,,"{""Q0"":0}",,,likert_NSSAL_Q1
3378,,,survey-likert,408,2682252,0.0-24.0,2344,List1B,white,woman,,,,,"{""Q0"":0}",,,likert_NSSAL_Q2
6419,,,survey-likert,409,2688675,0.0-25.0,2344,List1B,white,woman,,,,,"{""Q0"":4}",,,likert_CGRS_Q1
9549,,,survey-likert,410,2698227,0.0-26.0,2344,List1B,white,woman,,,,,"{""Q0"":4}",,,likert_CGRS_Q2
4204,,,survey-likert,411,2702434,0.0-27.0,2344,List1B,white,woman,,,,,"{""Q0"":4}",,,likert_CGRS_Q3
21501,,,survey-text,412,2723939,0.0-28.0,2344,List1B,white,woman,,,,,"{""Q0"":""ccc""}",,,worker_id
67391,,,external-html,413,2792251,0.0-29.0,2344,List1B,white,woman,debrief.html,,,,,,,
