rt,stimulus,button_pressed,trial_type,trial_index,time_elapsed,internal_node_id,subject,list,ppt_race,ppt_gender,url,first_guess,correct,key_press,responses,image_type,phrase_type,test_part
5216,Welcome to the experiment. Press Continue to begin.,0,html-button-response,0,5222,0.0-0.0,23529,List1B,white,woman,,,,,,,,
25938,,,external-html,1,32337,0.0-1.0,23529,List1B,white,woman,consent.html,,,,,,,
13641,"<p>On the next page, you will see portraits of 8 people and their names.</p><p>Your first task is to take a few minutes to memorise the names of these people.</p><p>You will have to recall their names during the rest of the experiment, so it is</p><p>essential that you try to memorise these people and their names as best as you can.</p><br><p><strong>You will then be tested on your memory of these names and portraits.</strong></p><br><p>The experiment will start after you have completed this memory test.</p><br><p>Ready?</p>",0,html-button-response,2,45984,0.0-2.0,23529,List1B,white,woman,,,,,,,,
84496,"<img src='img/portrait_matrix_list1.jpg' style='width:900px;height:500px;''></img><p>If you have memorised all the portraits and names and are ready to start, press Continue.</p><p><strong>Please note: Your memory of these faces will be tested 4 times during this experiment.</strong></p>",0,html-button-response,3,131495,0.0-3.0-0.0,23529,List1B,white,woman,,,,,,,,
3219,"<img src=""portrait/BW1.jpg""style=""height:400px;""></img>",0,html-button-response,4,135745,0.0-3.0-1.0,23529,List1B,white,woman,,TRUE,0,,,,,
null,CORRECT,,html-keyboard-response,5,137268,0.0-3.0-2.0-0.0,23529,List1B,white,woman,,,,null,,,,
5164,"<img src=""portrait/WM2.jpg""style=""height:400px;""></img>",7,html-button-response,6,142436,0.0-3.0-4.0,23529,List1B,white,woman,,TRUE,7,,,,,
null,CORRECT,,html-keyboard-response,7,143964,0.0-3.0-5.0-0.0,23529,List1B,white,woman,,,,null,,,,
3170,"<img src=""portrait/WW1.jpg""style=""height:400px;""></img>",1,html-button-response,8,147139,0.0-3.0-7.0,23529,List1B,white,woman,,TRUE,1,,,,,
null,CORRECT,,html-keyboard-response,9,148687,0.0-3.0-8.0-0.0,23529,List1B,white,woman,,,,null,,,,
2699,"<img src=""portrait/WM1.jpg""style=""height:400px;""></img>",6,html-button-response,10,151390,0.0-3.0-10.0,23529,List1B,white,woman,,TRUE,6,,,,,
null,CORRECT,,html-keyboard-response,11,152919,0.0-3.0-11.0-0.0,23529,List1B,white,woman,,,,null,,,,
2077,"<img src=""portrait/BW2.jpg""style=""height:400px;""></img>",2,html-button-response,12,154999,0.0-3.0-13.0,23529,List1B,white,woman,,TRUE,2,,,,,
null,CORRECT,,html-keyboard-response,13,156528,0.0-3.0-14.0-0.0,23529,List1B,white,woman,,,,null,,,,
2030,"<img src=""portrait/BM1.jpg""style=""height:400px;""></img>",4,html-button-response,14,158562,0.0-3.0-16.0,23529,List1B,white,woman,,TRUE,4,,,,,
null,CORRECT,,html-keyboard-response,15,160091,0.0-3.0-17.0-0.0,23529,List1B,white,woman,,,,null,,,,
2061,"<img src=""portrait/WW2.jpg""style=""height:400px;""></img>",3,html-button-response,16,162156,0.0-3.0-19.0,23529,List1B,white,woman,,TRUE,3,,,,,
null,CORRECT,,html-keyboard-response,17,163692,0.0-3.0-20.0-0.0,23529,List1B,white,woman,,,,null,,,,
7187,"<img src=""portrait/BM2.jpg""style=""height:400px;""></img>",5,html-button-response,18,170883,0.0-3.0-22.0,23529,List1B,white,woman,,TRUE,5,,,,,
null,CORRECT,,html-keyboard-response,19,172411,0.0-3.0-23.0-0.0,23529,List1B,white,woman,,,,null,,,,
2219,<p>You got 8 out of 8 right first time. Press Continue.</p>,0,html-button-response,20,174633,0.0-3.0-25.0,23529,List1B,white,woman,,,,,,,,
27695,"<p>In this experiment, you will view photographs of the people from the memory game interacting.</p><p>By using the <strong>exact</strong> phrase given <i>after</i> the photograph appears and recalling the correct names of the people in the photographs, form a sentence describing the interaction. You do not need to capitalise names.</p><p>Type your answer in the space provided. Please complete every sentence before moving onto the next trial.</p><p>You will only have a few seconds to memorise each given photograph and phrase before you can respond, so try your best to focus.</p><p>An example is given below. Press 'Continue' when you are ready.</p><img src='img/speaking_example.jpg' style='width:800px;height:460px;''></img>",0,html-button-response,21,203344,0.0-4.0,23529,List1B,white,woman,,,,,,,,
2203,"<p>Before the experiment starts, you will watch two example trials. Press 'Continue'.</p>",0,html-button-response,22,206562,0.0-5.0,23529,List1B,white,woman,,,,,,,,
null,<img src='img/meet_eg.gif' style='height:400px;''></img>,,html-keyboard-response,23,209592,0.0-6.0,23529,List1B,white,woman,,,,null,,,,
null,<p>is meeting</p>,,html-keyboard-response,24,211591,0.0-7.0,23529,List1B,white,woman,,,,null,,,,
1758,<p><b>Answer:</b> kate is meeting beth</p>,0,html-button-response,25,213353,0.0-8.0,23529,List1B,white,woman,,,,,,,,
null,<img src='img/look_eg.gif' style='height:400px;''></img>,,html-keyboard-response,26,216380,0.0-9.0,23529,List1B,white,woman,,,,null,,,,
null,<p>are looking at each other</p>,,html-keyboard-response,27,218381,0.0-10.0,23529,List1B,white,woman,,,,null,,,,
1984,<p><b>Answer:</b> luke and dave are looking at each other</p>,0,html-button-response,28,220369,0.0-11.0,23529,List1B,white,woman,,,,,,,,
7469,"<p>Ready to start the experiment?</p><br><p><strong>Remember to describe the picture using a full sentence,</strong></p><p><strong>that combines the names of the people with the <i>exact</i> phrase given.</strong></p><p><strong>To receive full payment you must do this correctly.</strong></p><p><strong> You do not need to capitalise names or use punctuation.</strong></p><br><p>Press 'Continue' to begin.</p>",0,html-button-response,29,228854,0.0-12.0,23529,List1B,white,woman,,,,,,,,
null,"<div style=""font-size:60px;"">+</div>",,html-keyboard-response,30,230382,0.0-13.0-0.0,23529,List1B,white,woman,,,,null,,,,
null,"<img src=""stim_listB/argue5.gif""style=""height:400px;""></stim_listB>",,html-keyboard-response,31,232391,0.0-13.0-1.0,23529,List1B,white,woman,,,,null,,,,
null,is arguing with,,html-keyboard-response,32,234391,0.0-13.0-2.0,23529,List1B,white,woman,,,,null,,,,
7284,,,survey-text,33,241678,0.0-13.0-3.0,23529,List1B,white,woman,,,,,"{""Q0"":""Luke is arguing with Mike""}","<img src=""stim_listB/argue5.gif""style=""height:400px;""></stim_listB>",is arguing with,
null,"<div style=""font-size:60px;"">+</div>",,html-keyboard-response,34,242190,0.0-13.0-0.1,23529,List1B,white,woman,,,,null,,,,
null,"<img src=""stim_listB/fight4.gif""style=""height:400px;""></stim_listB>",,html-keyboard-response,35,244207,0.0-13.0-1.1,23529,List1B,white,woman,,,,null,,,,
null,are fighting each other,,html-keyboard-response,36,246192,0.0-13.0-2.1,23529,List1B,white,woman,,,,null,,,,
12689,,,survey-text,37,258882,0.0-13.0-3.1,23529,List1B,white,woman,,,,,"{""Q0"":""Luke and Ruth are fighting each other""}","<img src=""stim_listB/fight4.gif""style=""height:400px;""></stim_listB>",are fighting each other,
null,"<div style=""font-size:60px;"">+</div>",,html-keyboard-response,38,259395,0.0-13.0-0.2,23529,List1B,white,woman,,,,null,,,,
null,"<img src=""stim_listB/flirt3.gif""style=""height:400px;""></stim_listB>",,html-keyboard-response,39,261404,0.0-13.0-1.2,23529,List1B,white,woman,,,,null,,,,
null,is flirting with,,html-keyboard-response,40,263419,0.0-13.0-2.2,23529,List1B,white,woman,,,,null,,,,
11155,,,survey-text,41,274579,0.0-13.0-3.2,23529,List1B,white,woman,,,,,"{""Q0"":""jane is flirting with luke""}","<img src=""stim_listB/flirt3.gif""style=""height:400px;""></stim_listB>",is flirting with,
null,"<div style=""font-size:60px;"">+</div>",,html-keyboard-response,42,275092,0.0-13.0-0.3,23529,List1B,white,woman,,,,null,,,,
null,"<img src=""stim_listB/dance6.gif""style=""height:400px;""></stim_listB>",,html-keyboard-response,43,277107,0.0-13.0-1.3,23529,List1B,white,woman,,,,null,,,,
null,are dancing with each other,,html-keyboard-response,44,279108,0.0-13.0-2.3,23529,List1B,white,woman,,,,null,,,,
9309,,,survey-text,45,288421,0.0-13.0-3.3,23529,List1B,white,woman,,,,,"{""Q0"":""mike and luke are dancing with each other""}","<img src=""stim_listB/dance6.gif""style=""height:400px;""></stim_listB>",are dancing with each other,
null,"<div style=""font-size:60px;"">+</div>",,html-keyboard-response,46,288934,0.0-13.0-0.4,23529,List1B,white,woman,,,,null,,,,
null,"<img src=""stim_listB/dance8.gif""style=""height:400px;""></stim_listB>",,html-keyboard-response,47,290950,0.0-13.0-1.4,23529,List1B,white,woman,,,,null,,,,
null,are dancing with each other,,html-keyboard-response,48,292950,0.0-13.0-2.4,23529,List1B,white,woman,,,,null,,,,
14532,,,survey-text,49,307484,0.0-13.0-3.4,23529,List1B,white,woman,,,,,"{""Q0"":""kate and ruth are dancing with each other""}","<img src=""stim_listB/dance8.gif""style=""height:400px;""></stim_listB>",are dancing with each other,
null,"<div style=""font-size:60px;"">+</div>",,html-keyboard-response,50,308013,0.0-13.0-0.5,23529,List1B,white,woman,,,,null,,,,
null,"<img src=""stim_listB/kiss4.gif""style=""height:400px;""></stim_listB>",,html-keyboard-response,51,310030,0.0-13.0-1.5,23529,List1B,white,woman,,,,null,,,,
null,are kissing each other,,html-keyboard-response,52,312022,0.0-13.0-2.5,23529,List1B,white,woman,,,,null,,,,
8845,,,survey-text,53,320868,0.0-13.0-3.5,23529,List1B,white,woman,,,,,"{""Q0"":""dave and jane are kissing each other""}","<img src=""stim_listB/kiss4.gif""style=""height:400px;""></stim_listB>",are kissing each other,
null,"<div style=""font-size:60px;"">+</div>",,html-keyboard-response,54,321383,0.0-13.0-0.6,23529,List1B,white,woman,,,,null,,,,
null,"<img src=""stim_listB/fight8.gif""style=""height:400px;""></stim_listB>",,html-keyboard-response,55,323398,0.0-13.0-1.6,23529,List1B,white,woman,,,,null,,,,
null,are fighting each other,,html-keyboard-response,56,325399,0.0-13.0-2.6,23529,List1B,white,woman,,,,null,,,,
10570,,,survey-text,57,335974,0.0-13.0-3.6,23529,List1B,white,woman,,,,,"{""Q0"":""beth and ruth are fighting each other""}","<img src=""stim_listB/fight8.gif""style=""height:400px;""></stim_listB>",are fighting each other,
null,"<div style=""font-size:60px;"">+</div>",,html-keyboard-response,58,336487,0.0-13.0-0.7,23529,List1B,white,woman,,,,null,,,,
null,"<img src=""stim_listB/talk4.gif""style=""height:400px;""></stim_listB>",,html-keyboard-response,59,338503,0.0-13.0-1.7,23529,List1B,white,woman,,,,null,,,,
null,are talking to each other,,html-keyboard-response,60,340503,0.0-13.0-2.7,23529,List1B,white,woman,,,,null,,,,
9399,,,survey-text,61,349905,0.0-13.0-3.7,23529,List1B,white,woman,,,,,"{""Q0"":""dave and ruth are talking to each other""}","<img src=""stim_listB/talk4.gif""style=""height:400px;""></stim_listB>",are talking to each other,
null,"<div style=""font-size:60px;"">+</div>",,html-keyboard-response,62,350434,0.0-13.0-0.8,23529,List1B,white,woman,,,,null,,,,
null,"<img src=""stim_listB/shout8.gif""style=""height:400px;""></stim_listB>",,html-keyboard-response,63,352451,0.0-13.0-1.8,23529,List1B,white,woman,,,,null,,,,
null,are shouting at each other,,html-keyboard-response,64,354451,0.0-13.0-2.8,23529,List1B,white,woman,,,,null,,,,
12259,,,survey-text,65,366712,0.0-13.0-3.8,23529,List1B,white,woman,,,,,"{""Q0"":""kate and jane are fighting with each other""}","<img src=""stim_listB/shout8.gif""style=""height:400px;""></stim_listB>",are shouting at each other,
null,"<div style=""font-size:60px;"">+</div>",,html-keyboard-response,66,367225,0.0-13.0-0.9,23529,List1B,white,woman,,,,null,,,,
null,"<img src=""stim_listB/marry2.gif""style=""height:400px;""></stim_listB>",,html-keyboard-response,67,369242,0.0-13.0-1.9,23529,List1B,white,woman,,,,null,,,,
null,are marrying each other,,html-keyboard-response,68,371242,0.0-13.0-2.9,23529,List1B,white,woman,,,,null,,,,
10593,,,survey-text,69,381839,0.0-13.0-3.9,23529,List1B,white,woman,,,,,"{""Q0"":""fred and kate are marrying each other""}","<img src=""stim_listB/marry2.gif""style=""height:400px;""></stim_listB>",are marrying each other,
null,"<div style=""font-size:60px;"">+</div>",,html-keyboard-response,70,382354,0.0-13.0-0.10,23529,List1B,white,woman,,,,null,,,,
null,"<img src=""stim_listB/play7.gif""style=""height:400px;""></stim_listB>",,html-keyboard-response,71,384384,0.0-13.0-1.10,23529,List1B,white,woman,,,,null,,,,
null,is playing with,,html-keyboard-response,72,386384,0.0-13.0-2.10,23529,List1B,white,woman,,,,null,,,,
9711,,,survey-text,73,396098,0.0-13.0-3.10,23529,List1B,white,woman,,,,,"{""Q0"":""kate is playing with jane""}","<img src=""stim_listB/play7.gif""style=""height:400px;""></stim_listB>",is playing with,
null,"<div style=""font-size:60px;"">+</div>",,html-keyboard-response,74,396612,0.0-13.0-0.11,23529,List1B,white,woman,,,,null,,,,
null,"<img src=""stim_listB/dance2.gif""style=""height:400px;""></stim_listB>",,html-keyboard-response,75,398628,0.0-13.0-1.11,23529,List1B,white,woman,,,,null,,,,
null,are dancing with each other,,html-keyboard-response,76,400627,0.0-13.0-2.11,23529,List1B,white,woman,,,,null,,,,
9698,,,survey-text,77,410328,0.0-13.0-3.11,23529,List1B,white,woman,,,,,"{""Q0"":""beth and mike are dancing with each other""}","<img src=""stim_listB/dance2.gif""style=""height:400px;""></stim_listB>",are dancing with each other,
null,"<div style=""font-size:60px;"">+</div>",,html-keyboard-response,78,410841,0.0-13.0-0.12,23529,List1B,white,woman,,,,null,,,,
null,"<img src=""stim_listB/argue6.gif""style=""height:400px;""></stim_listB>",,html-keyboard-response,79,412857,0.0-13.0-1.12,23529,List1B,white,woman,,,,null,,,,
null,are arguing with each other,,html-keyboard-response,80,414857,0.0-13.0-2.12,23529,List1B,white,woman,,,,null,,,,
10140,,,survey-text,81,425001,0.0-13.0-3.12,23529,List1B,white,woman,,,,,"{""Q0"":""fred and dave are arguing with each other""}","<img src=""stim_listB/argue6.gif""style=""height:400px;""></stim_listB>",are arguing with each other,
null,"<div style=""font-size:60px;"">+</div>",,html-keyboard-response,82,425515,0.0-13.0-0.13,23529,List1B,white,woman,,,,null,,,,
null,"<img src=""stim_listB/touch4.gif""style=""height:400px;""></stim_listB>",,html-keyboard-response,83,427525,0.0-13.0-1.13,23529,List1B,white,woman,,,,null,,,,
null,are touching each other,,html-keyboard-response,84,429531,0.0-13.0-2.13,23529,List1B,white,woman,,,,null,,,,
9828,,,survey-text,85,439362,0.0-13.0-3.13,23529,List1B,white,woman,,,,,"{""Q0"":""luke and ruth are touching each other""}","<img src=""stim_listB/touch4.gif""style=""height:400px;""></stim_listB>",are touching each other,
null,"<div style=""font-size:60px;"">+</div>",,html-keyboard-response,86,439875,0.0-13.0-0.14,23529,List1B,white,woman,,,,null,,,,
null,"<img src=""stim_listB/touch3.gif""style=""height:400px;""></stim_listB>",,html-keyboard-response,87,441880,0.0-13.0-1.14,23529,List1B,white,woman,,,,null,,,,
null,is touching,,html-keyboard-response,88,443891,0.0-13.0-2.14,23529,List1B,white,woman,,,,null,,,,
11014,,,survey-text,89,454909,0.0-13.0-3.14,23529,List1B,white,woman,,,,,"{""Q0"":""jane is touching dave""}","<img src=""stim_listB/touch3.gif""style=""height:400px;""></stim_listB>",is touching,
null,"<div style=""font-size:60px;"">+</div>",,html-keyboard-response,90,455447,0.0-13.0-0.15,23529,List1B,white,woman,,,,null,,,,
null,"<img src=""stim_listB/flirt2.gif""style=""height:400px;""></stim_listB>",,html-keyboard-response,91,457462,0.0-13.0-1.15,23529,List1B,white,woman,,,,null,,,,
null,are flirting with each other,,html-keyboard-response,92,459478,0.0-13.0-2.15,23529,List1B,white,woman,,,,null,,,,
15572,,,survey-text,93,475053,0.0-13.0-3.15,23529,List1B,white,woman,,,,,"{""Q0"":""beth and mike are flirting with each other""}","<img src=""stim_listB/flirt2.gif""style=""height:400px;""></stim_listB>",are flirting with each other,
null,"<div style=""font-size:60px;"">+</div>",,html-keyboard-response,94,475566,0.0-13.0-0.16,23529,List1B,white,woman,,,,null,,,,
null,"<img src=""stim_listB/dance4.gif""style=""height:400px;""></stim_listB>",,html-keyboard-response,95,477598,0.0-13.0-1.16,23529,List1B,white,woman,,,,null,,,,
null,are dancing with each other,,html-keyboard-response,96,479573,0.0-13.0-2.16,23529,List1B,white,woman,,,,null,,,,
13345,,,survey-text,97,492921,0.0-13.0-3.16,23529,List1B,white,woman,,,,,"{""Q0"":""ruth and dave are dancing with each other""}","<img src=""stim_listB/dance4.gif""style=""height:400px;""></stim_listB>",are dancing with each other,
null,"<div style=""font-size:60px;"">+</div>",,html-keyboard-response,98,493450,0.0-13.0-0.17,23529,List1B,white,woman,,,,null,,,,
null,"<img src=""stim_listB/dance3.gif""style=""height:400px;""></stim_listB>",,html-keyboard-response,99,495496,0.0-13.0-1.17,23529,List1B,white,woman,,,,null,,,,
null,is dancing with,,html-keyboard-response,100,497496,0.0-13.0-2.17,23529,List1B,white,woman,,,,null,,,,
6961,,,survey-text,101,504462,0.0-13.0-3.17,23529,List1B,white,woman,,,,,"{""Q0"":""jane is dancing with luke""}","<img src=""stim_listB/dance3.gif""style=""height:400px;""></stim_listB>",is dancing with,
null,"<div style=""font-size:60px;"">+</div>",,html-keyboard-response,102,504974,0.0-13.0-0.18,23529,List1B,white,woman,,,,null,,,,
null,"<img src=""stim_listB/play3.gif""style=""height:400px;""></stim_listB>",,html-keyboard-response,103,506990,0.0-13.0-1.18,23529,List1B,white,woman,,,,null,,,,
null,is playing with,,html-keyboard-response,104,509005,0.0-13.0-2.18,23529,List1B,white,woman,,,,null,,,,
6999,,,survey-text,105,516008,0.0-13.0-3.18,23529,List1B,white,woman,,,,,"{""Q0"":""jane is playing with dave""}","<img src=""stim_listB/play3.gif""style=""height:400px;""></stim_listB>",is playing with,
null,"<div style=""font-size:60px;"">+</div>",,html-keyboard-response,106,516536,0.0-13.0-0.19,23529,List1B,white,woman,,,,null,,,,
null,"<img src=""stim_listB/flirt4.gif""style=""height:400px;""></stim_listB>",,html-keyboard-response,107,518584,0.0-13.0-1.19,23529,List1B,white,woman,,,,null,,,,
null,are flirting with each other,,html-keyboard-response,108,520582,0.0-13.0-2.19,23529,List1B,white,woman,,,,null,,,,
15244,,,survey-text,109,535830,0.0-13.0-3.19,23529,List1B,white,woman,,,,,"{""Q0"":""ruth and dave are flirting with each other""}","<img src=""stim_listB/flirt4.gif""style=""height:400px;""></stim_listB>",are flirting with each other,
11694,"<img src='img/portrait_matrix_list1.jpg' style='width:900px;height:500px;''></img><p>If you have memorised all the portraits and names and are ready to start, press Continue.</p><p><strong>Please note: Your memory of these faces will be tested 4 times during this experiment.</strong></p>",0,html-button-response,110,547532,0.0-14.0-0.0,23529,List1B,white,woman,,,,,,,,
2750,"<img src=""portrait/WW1.jpg""style=""height:400px;""></img>",1,html-button-response,111,551307,0.0-14.0-1.0,23529,List1B,white,woman,,TRUE,1,,,,,
null,CORRECT,,html-keyboard-response,112,552833,0.0-14.0-2.0-0.0,23529,List1B,white,woman,,,,null,,,,
3514,"<img src=""portrait/WM1.jpg""style=""height:400px;""></img>",6,html-button-response,113,556353,0.0-14.0-4.0,23529,List1B,white,woman,,TRUE,6,,,,,
null,CORRECT,,html-keyboard-response,114,557894,0.0-14.0-5.0-0.0,23529,List1B,white,woman,,,,null,,,,
1577,"<img src=""portrait/BM2.jpg""style=""height:400px;""></img>",5,html-button-response,115,559477,0.0-14.0-7.0,23529,List1B,white,woman,,TRUE,5,,,,,
null,CORRECT,,html-keyboard-response,116,561020,0.0-14.0-8.0-0.0,23529,List1B,white,woman,,,,null,,,,
1858,"<img src=""portrait/BW2.jpg""style=""height:400px;""></img>",2,html-button-response,117,562885,0.0-14.0-10.0,23529,List1B,white,woman,,TRUE,2,,,,,
null,CORRECT,,html-keyboard-response,118,564426,0.0-14.0-11.0-0.0,23529,List1B,white,woman,,,,null,,,,
2343,"<img src=""portrait/BM1.jpg""style=""height:400px;""></img>",4,html-button-response,119,566776,0.0-14.0-13.0,23529,List1B,white,woman,,TRUE,4,,,,,
null,CORRECT,,html-keyboard-response,120,568302,0.0-14.0-14.0-0.0,23529,List1B,white,woman,,,,null,,,,
1771,"<img src=""portrait/BW1.jpg""style=""height:400px;""></img>",0,html-button-response,121,570080,0.0-14.0-16.0,23529,List1B,white,woman,,TRUE,0,,,,,
null,CORRECT,,html-keyboard-response,122,571628,0.0-14.0-17.0-0.0,23529,List1B,white,woman,,,,null,,,,
3056,"<img src=""portrait/WM2.jpg""style=""height:400px;""></img>",7,html-button-response,123,574692,0.0-14.0-19.0,23529,List1B,white,woman,,TRUE,7,,,,,
null,CORRECT,,html-keyboard-response,124,576217,0.0-14.0-20.0-0.0,23529,List1B,white,woman,,,,null,,,,
1670,"<img src=""portrait/WW2.jpg""style=""height:400px;""></img>",3,html-button-response,125,577893,0.0-14.0-22.0,23529,List1B,white,woman,,TRUE,3,,,,,
null,CORRECT,,html-keyboard-response,126,579436,0.0-14.0-23.0-0.0,23529,List1B,white,woman,,,,null,,,,
1468,<p>You got 8 out of 8 right first time. Press Continue.</p>,0,html-button-response,127,580909,0.0-14.0-25.0,23529,List1B,white,woman,,,,,,,,
null,"<div style=""font-size:60px;"">+</div>",,html-keyboard-response,128,582452,0.0-15.0-0.0,23529,List1B,white,woman,,,,null,,,,
null,"<img src=""stim_listB/marry3.gif""style=""height:400px;""></stim_listB>",,html-keyboard-response,129,584483,0.0-15.0-1.0,23529,List1B,white,woman,,,,null,,,,
null,is marrying,,html-keyboard-response,130,586484,0.0-15.0-2.0,23529,List1B,white,woman,,,,null,,,,
6434,,,survey-text,131,592923,0.0-15.0-3.0,23529,List1B,white,woman,,,,,"{""Q0"":""dave is marrying ruth""}","<img src=""stim_listB/marry3.gif""style=""height:400px;""></stim_listB>",is marrying,
null,"<div style=""font-size:60px;"">+</div>",,html-keyboard-response,132,593451,0.0-15.0-0.1,23529,List1B,white,woman,,,,null,,,,
null,"<img src=""stim_listB/fight5.gif""style=""height:400px;""></stim_listB>",,html-keyboard-response,133,595483,0.0-15.0-1.1,23529,List1B,white,woman,,,,null,,,,
null,is fighting,,html-keyboard-response,134,597460,0.0-15.0-2.1,23529,List1B,white,woman,,,,null,,,,
6641,,,survey-text,135,604103,0.0-15.0-3.1,23529,List1B,white,woman,,,,,"{""Q0"":""dave is fighting mike""}","<img src=""stim_listB/fight5.gif""style=""height:400px;""></stim_listB>",is fighting,
null,"<div style=""font-size:60px;"">+</div>",,html-keyboard-response,136,604633,0.0-15.0-0.2,23529,List1B,white,woman,,,,null,,,,
null,"<img src=""stim_listB/fight6.gif""style=""height:400px;""></stim_listB>",,html-keyboard-response,137,606647,0.0-15.0-1.2,23529,List1B,white,woman,,,,null,,,,
null,are fighting each other,,html-keyboard-response,138,608647,0.0-15.0-2.2,23529,List1B,white,woman,,,,null,,,,
9751,,,survey-text,139,618405,0.0-15.0-3.2,23529,List1B,white,woman,,,,,"{""Q0"":""fred and luke are fighting each other""}","<img src=""stim_listB/fight6.gif""style=""height:400px;""></stim_listB>",are fighting each other,
null,"<div style=""font-size:60px;"">+</div>",,html-keyboard-response,140,618931,0.0-15.0-0.3,23529,List1B,white,woman,,,,null,,,,
null,"<img src=""stim_listB/shout4.gif""style=""height:400px;""></stim_listB>",,html-keyboard-response,141,620962,0.0-15.0-1.3,23529,List1B,white,woman,,,,null,,,,
null,are shouting at each other,,html-keyboard-response,142,622947,0.0-15.0-2.3,23529,List1B,white,woman,,,,null,,,,
18820,,,survey-text,143,641770,0.0-15.0-3.3,23529,List1B,white,woman,,,,,"{""Q0"":""jane and dave are shouting at each other""}","<img src=""stim_listB/shout4.gif""style=""height:400px;""></stim_listB>",are shouting at each other,
null,"<div style=""font-size:60px;"">+</div>",,html-keyboard-response,144,642285,0.0-15.0-0.4,23529,List1B,white,woman,,,,null,,,,
null,"<img src=""stim_listB/talk5.gif""style=""height:400px;""></stim_listB>",,html-keyboard-response,145,644298,0.0-15.0-1.4,23529,List1B,white,woman,,,,null,,,,
null,is talking to,,html-keyboard-response,146,646299,0.0-15.0-2.4,23529,List1B,white,woman,,,,null,,,,
12842,,,survey-text,147,659145,0.0-15.0-3.4,23529,List1B,white,woman,,,,,"{""Q0"":""fred is talking to dave""}","<img src=""stim_listB/talk5.gif""style=""height:400px;""></stim_listB>",is talking to,
null,"<div style=""font-size:60px;"">+</div>",,html-keyboard-response,148,659657,0.0-15.0-0.5,23529,List1B,white,woman,,,,null,,,,
null,"<img src=""stim_listB/touch6.gif""style=""height:400px;""></stim_listB>",,html-keyboard-response,149,661666,0.0-15.0-1.5,23529,List1B,white,woman,,,,null,,,,
null,are touching each other,,html-keyboard-response,150,663666,0.0-15.0-2.5,23529,List1B,white,woman,,,,null,,,,
15327,,,survey-text,151,678997,0.0-15.0-3.5,23529,List1B,white,woman,,,,,"{""Q0"":""fred and luke are touching each other""}","<img src=""stim_listB/touch6.gif""style=""height:400px;""></stim_listB>",are touching each other,
null,"<div style=""font-size:60px;"">+</div>",,html-keyboard-response,152,679525,0.0-15.0-0.6,23529,List1B,white,woman,,,,null,,,,
null,"<img src=""stim_listB/argue4.gif""style=""height:400px;""></stim_listB>",,html-keyboard-response,153,681541,0.0-15.0-1.6,23529,List1B,white,woman,,,,null,,,,
null,are arguing with each other,,html-keyboard-response,154,683541,0.0-15.0-2.6,23529,List1B,white,woman,,,,null,,,,
9898,,,survey-text,155,693442,0.0-15.0-3.6,23529,List1B,white,woman,,,,,"{""Q0"":""luke and jane are arguing with each other""}","<img src=""stim_listB/argue4.gif""style=""height:400px;""></stim_listB>",are arguing with each other,
null,"<div style=""font-size:60px;"">+</div>",,html-keyboard-response,156,693955,0.0-15.0-0.7,23529,List1B,white,woman,,,,null,,,,
null,"<img src=""stim_listB/argue3.gif""style=""height:400px;""></stim_listB>",,html-keyboard-response,157,695970,0.0-15.0-1.7,23529,List1B,white,woman,,,,null,,,,
null,is arguing with,,html-keyboard-response,158,697970,0.0-15.0-2.7,23529,List1B,white,woman,,,,null,,,,
9437,,,survey-text,159,707411,0.0-15.0-3.7,23529,List1B,white,woman,,,,,"{""Q0"":""ruth is arguing with dave""}","<img src=""stim_listB/argue3.gif""style=""height:400px;""></stim_listB>",is arguing with,
null,"<div style=""font-size:60px;"">+</div>",,html-keyboard-response,160,707939,0.0-15.0-0.8,23529,List1B,white,woman,,,,null,,,,
null,"<img src=""stim_listB/kiss2.gif""style=""height:400px;""></stim_listB>",,html-keyboard-response,161,709983,0.0-15.0-1.8,23529,List1B,white,woman,,,,null,,,,
null,are kissing each other,,html-keyboard-response,162,711956,0.0-15.0-2.8,23529,List1B,white,woman,,,,null,,,,
14479,,,survey-text,163,726440,0.0-15.0-3.8,23529,List1B,white,woman,,,,,"{""Q0"":""kate and mike are kissing each other""}","<img src=""stim_listB/kiss2.gif""style=""height:400px;""></stim_listB>",are kissing each other,
null,"<div style=""font-size:60px;"">+</div>",,html-keyboard-response,164,726953,0.0-15.0-0.9,23529,List1B,white,woman,,,,null,,,,
null,"<img src=""stim_listB/talk8.gif""style=""height:400px;""></stim_listB>",,html-keyboard-response,165,728968,0.0-15.0-1.9,23529,List1B,white,woman,,,,null,,,,
null,are talking to each other,,html-keyboard-response,166,730968,0.0-15.0-2.9,23529,List1B,white,woman,,,,null,,,,
9870,,,survey-text,167,740842,0.0-15.0-3.9,23529,List1B,white,woman,,,,,"{""Q0"":""kate and ruth are talking to each other""}","<img src=""stim_listB/talk8.gif""style=""height:400px;""></stim_listB>",are talking to each other,
null,"<div style=""font-size:60px;"">+</div>",,html-keyboard-response,168,741361,0.0-15.0-0.10,23529,List1B,white,woman,,,,null,,,,
null,"<img src=""stim_listB/marry8.gif""style=""height:400px;""></stim_listB>",,html-keyboard-response,169,743386,0.0-15.0-1.10,23529,List1B,white,woman,,,,null,,,,
null,are marrying each other,,html-keyboard-response,170,745371,0.0-15.0-2.10,23529,List1B,white,woman,,,,null,,,,
15140,,,survey-text,171,760514,0.0-15.0-3.10,23529,List1B,white,woman,,,,,"{""Q0"":""beth and jane are marrying each other""}","<img src=""stim_listB/marry8.gif""style=""height:400px;""></stim_listB>",are marrying each other,
null,"<div style=""font-size:60px;"">+</div>",,html-keyboard-response,172,761026,0.0-15.0-0.11,23529,List1B,white,woman,,,,null,,,,
null,"<img src=""stim_listB/marry7.gif""style=""height:400px;""></stim_listB>",,html-keyboard-response,173,763042,0.0-15.0-1.11,23529,List1B,white,woman,,,,null,,,,
null,is marrying,,html-keyboard-response,174,765057,0.0-15.0-2.11,23529,List1B,white,woman,,,,null,,,,
5500,,,survey-text,175,770562,0.0-15.0-3.11,23529,List1B,white,woman,,,,,"{""Q0"":""ruth is marrying kate""}","<img src=""stim_listB/marry7.gif""style=""height:400px;""></stim_listB>",is marrying,
null,"<div style=""font-size:60px;"">+</div>",,html-keyboard-response,176,771074,0.0-15.0-0.12,23529,List1B,white,woman,,,,null,,,,
null,"<img src=""stim_listB/argue7.gif""style=""height:400px;""></stim_listB>",,html-keyboard-response,177,773105,0.0-15.0-1.12,23529,List1B,white,woman,,,,null,,,,
null,is arguing with,,html-keyboard-response,178,775105,0.0-15.0-2.12,23529,List1B,white,woman,,,,null,,,,
7414,,,survey-text,179,782522,0.0-15.0-3.12,23529,List1B,white,woman,,,,,"{""Q0"":""ruth is arguing with kate""}","<img src=""stim_listB/argue7.gif""style=""height:400px;""></stim_listB>",is arguing with,
null,"<div style=""font-size:60px;"">+</div>",,html-keyboard-response,180,783052,0.0-15.0-0.13,23529,List1B,white,woman,,,,null,,,,
null,"<img src=""stim_listB/kiss1.gif""style=""height:400px;""></stim_listB>",,html-keyboard-response,181,785068,0.0-15.0-1.13,23529,List1B,white,woman,,,,null,,,,
null,is kissing,,html-keyboard-response,182,787067,0.0-15.0-2.13,23529,List1B,white,woman,,,,null,,,,
8499,,,survey-text,183,795572,0.0-15.0-3.13,23529,List1B,white,woman,,,,,"{""Q0"":""beth is kissing fred""}","<img src=""stim_listB/kiss1.gif""style=""height:400px;""></stim_listB>",is kissing,
null,"<div style=""font-size:60px;"">+</div>",,html-keyboard-response,184,796083,0.0-15.0-0.14,23529,List1B,white,woman,,,,null,,,,
null,"<img src=""stim_listB/shout3.gif""style=""height:400px;""></stim_listB>",,html-keyboard-response,185,798098,0.0-15.0-1.14,23529,List1B,white,woman,,,,null,,,,
null,is shouting at,,html-keyboard-response,186,800098,0.0-15.0-2.14,23529,List1B,white,woman,,,,null,,,,
10411,,,survey-text,187,810514,0.0-15.0-3.14,23529,List1B,white,woman,,,,,"{""Q0"":""ruth is shouting at luke""}","<img src=""stim_listB/shout3.gif""style=""height:400px;""></stim_listB>",is shouting at,
null,"<div style=""font-size:60px;"">+</div>",,html-keyboard-response,188,811026,0.0-15.0-0.15,23529,List1B,white,woman,,,,null,,,,
null,"<img src=""stim_listB/kiss8.gif""style=""height:400px;""></stim_listB>",,html-keyboard-response,189,813057,0.0-15.0-1.15,23529,List1B,white,woman,,,,null,,,,
null,are kissing each other,,html-keyboard-response,190,815058,0.0-15.0-2.15,23529,List1B,white,woman,,,,null,,,,
9091,,,survey-text,191,824154,0.0-15.0-3.15,23529,List1B,white,woman,,,,,"{""Q0"":""jane and kate are kissing each other""}","<img src=""stim_listB/kiss8.gif""style=""height:400px;""></stim_listB>",are kissing each other,
null,"<div style=""font-size:60px;"">+</div>",,html-keyboard-response,192,824682,0.0-15.0-0.16,23529,List1B,white,woman,,,,null,,,,
null,"<img src=""stim_listB/dance7.gif""style=""height:400px;""></stim_listB>",,html-keyboard-response,193,826698,0.0-15.0-1.16,23529,List1B,white,woman,,,,null,,,,
null,is dancing with,,html-keyboard-response,194,828700,0.0-15.0-2.16,23529,List1B,white,woman,,,,null,,,,
9587,,,survey-text,195,838291,0.0-15.0-3.16,23529,List1B,white,woman,,,,,"{""Q0"":""beth is dancing with jane""}","<img src=""stim_listB/dance7.gif""style=""height:400px;""></stim_listB>",is dancing with,
null,"<div style=""font-size:60px;"">+</div>",,html-keyboard-response,196,838802,0.0-15.0-0.17,23529,List1B,white,woman,,,,null,,,,
null,"<img src=""stim_listB/touch1.gif""style=""height:400px;""></stim_listB>",,html-keyboard-response,197,840818,0.0-15.0-1.17,23529,List1B,white,woman,,,,null,,,,
null,is touching,,html-keyboard-response,198,842818,0.0-15.0-2.17,23529,List1B,white,woman,,,,null,,,,
5231,,,survey-text,199,848054,0.0-15.0-3.17,23529,List1B,white,woman,,,,,"{""Q0"":""kate is touching mike""}","<img src=""stim_listB/touch1.gif""style=""height:400px;""></stim_listB>",is touching,
null,"<div style=""font-size:60px;"">+</div>",,html-keyboard-response,200,848567,0.0-15.0-0.18,23529,List1B,white,woman,,,,null,,,,
null,"<img src=""stim_listB/dance1.gif""style=""height:400px;""></stim_listB>",,html-keyboard-response,201,850583,0.0-15.0-1.18,23529,List1B,white,woman,,,,null,,,,
null,is dancing with,,html-keyboard-response,202,852582,0.0-15.0-2.18,23529,List1B,white,woman,,,,null,,,,
11145,,,survey-text,203,863731,0.0-15.0-3.18,23529,List1B,white,woman,,,,,"{""Q0"":""fred is dancing with kate""}","<img src=""stim_listB/dance1.gif""style=""height:400px;""></stim_listB>",is dancing with,
null,"<div style=""font-size:60px;"">+</div>",,html-keyboard-response,204,864240,0.0-15.0-0.19,23529,List1B,white,woman,,,,null,,,,
null,"<img src=""stim_listB/play1.gif""style=""height:400px;""></stim_listB>",,html-keyboard-response,205,866255,0.0-15.0-1.19,23529,List1B,white,woman,,,,null,,,,
null,is playing with,,html-keyboard-response,206,868240,0.0-15.0-2.19,23529,List1B,white,woman,,,,null,,,,
8932,,,survey-text,207,877175,0.0-15.0-3.19,23529,List1B,white,woman,,,,,"{""Q0"":""kate is playing with mike""}","<img src=""stim_listB/play1.gif""style=""height:400px;""></stim_listB>",is playing with,
2837,"<img src='img/portrait_matrix_list1.jpg' style='width:900px;height:500px;''></img><p>If you have memorised all the portraits and names and are ready to start, press Continue.</p><p><strong>Please note: Your memory of these faces will be tested 4 times during this experiment.</strong></p>",0,html-button-response,208,880019,0.0-16.0-0.0,23529,List1B,white,woman,,,,,,,,
1859,"<img src=""portrait/BW2.jpg""style=""height:400px;""></img>",2,html-button-response,209,882894,0.0-16.0-1.0,23529,List1B,white,woman,,TRUE,2,,,,,
null,CORRECT,,html-keyboard-response,210,884452,0.0-16.0-2.0-0.0,23529,List1B,white,woman,,,,null,,,,
2248,"<img src=""portrait/BM2.jpg""style=""height:400px;""></img>",5,html-button-response,211,886706,0.0-16.0-4.0,23529,List1B,white,woman,,TRUE,5,,,,,
null,CORRECT,,html-keyboard-response,212,888234,0.0-16.0-5.0-0.0,23529,List1B,white,woman,,,,null,,,,
1624,"<img src=""portrait/BM1.jpg""style=""height:400px;""></img>",4,html-button-response,213,889864,0.0-16.0-7.0,23529,List1B,white,woman,,TRUE,4,,,,,
null,CORRECT,,html-keyboard-response,214,891406,0.0-16.0-8.0-0.0,23529,List1B,white,woman,,,,null,,,,
1811,"<img src=""portrait/WM1.jpg""style=""height:400px;""></img>",6,html-button-response,215,893225,0.0-16.0-10.0,23529,List1B,white,woman,,TRUE,6,,,,,
null,CORRECT,,html-keyboard-response,216,894766,0.0-16.0-11.0-0.0,23529,List1B,white,woman,,,,null,,,,
2008,"<img src=""portrait/WW1.jpg""style=""height:400px;""></img>",1,html-button-response,217,896780,0.0-16.0-13.0,23529,List1B,white,woman,,TRUE,1,,,,,
null,CORRECT,,html-keyboard-response,218,898307,0.0-16.0-14.0-0.0,23529,List1B,white,woman,,,,null,,,,
1784,"<img src=""portrait/WW2.jpg""style=""height:400px;""></img>",3,html-button-response,219,900097,0.0-16.0-16.0,23529,List1B,white,woman,,TRUE,3,,,,,
null,CORRECT,,html-keyboard-response,220,901617,0.0-16.0-17.0-0.0,23529,List1B,white,woman,,,,null,,,,
1927,"<img src=""portrait/WM2.jpg""style=""height:400px;""></img>",7,html-button-response,221,903550,0.0-16.0-19.0,23529,List1B,white,woman,,TRUE,7,,,,,
null,CORRECT,,html-keyboard-response,222,905091,0.0-16.0-20.0-0.0,23529,List1B,white,woman,,,,null,,,,
2182,"<img src=""portrait/BW1.jpg""style=""height:400px;""></img>",0,html-button-response,223,907279,0.0-16.0-22.0,23529,List1B,white,woman,,TRUE,0,,,,,
null,CORRECT,,html-keyboard-response,224,908788,0.0-16.0-23.0-0.0,23529,List1B,white,woman,,,,null,,,,
1920,<p>You got 8 out of 8 right first time. Press Continue.</p>,0,html-button-response,225,910717,0.0-16.0-25.0,23529,List1B,white,woman,,,,,,,,
null,"<div style=""font-size:60px;"">+</div>",,html-keyboard-response,226,912242,0.0-17.0-0.0,23529,List1B,white,woman,,,,null,,,,
null,"<img src=""stim_listB/flirt6.gif""style=""height:400px;""></stim_listB>",,html-keyboard-response,227,914257,0.0-17.0-1.0,23529,List1B,white,woman,,,,null,,,,
null,are flirting with each other,,html-keyboard-response,228,916274,0.0-17.0-2.0,23529,List1B,white,woman,,,,null,,,,
14584,,,survey-text,229,930862,0.0-17.0-3.0,23529,List1B,white,woman,,,,,"{""Q0"":""luke and mike are flirting with each other""}","<img src=""stim_listB/flirt6.gif""style=""height:400px;""></stim_listB>",are flirting with each other,
null,"<div style=""font-size:60px;"">+</div>",,html-keyboard-response,230,931375,0.0-17.0-0.1,23529,List1B,white,woman,,,,null,,,,
null,"<img src=""stim_listB/fight3.gif""style=""height:400px;""></stim_listB>",,html-keyboard-response,231,933390,0.0-17.0-1.1,23529,List1B,white,woman,,,,null,,,,
null,is fighting,,html-keyboard-response,232,935390,0.0-17.0-2.1,23529,List1B,white,woman,,,,null,,,,
9976,,,survey-text,233,945370,0.0-17.0-3.1,23529,List1B,white,woman,,,,,"{""Q0"":""jane is fighting with dave""}","<img src=""stim_listB/fight3.gif""style=""height:400px;""></stim_listB>",is fighting,
null,"<div style=""font-size:60px;"">+</div>",,html-keyboard-response,234,945898,0.0-17.0-0.2,23529,List1B,white,woman,,,,null,,,,
null,"<img src=""stim_listB/play6.gif""style=""height:400px;""></stim_listB>",,html-keyboard-response,235,947914,0.0-17.0-1.2,23529,List1B,white,woman,,,,null,,,,
null,are playing with each other,,html-keyboard-response,236,949914,0.0-17.0-2.2,23529,List1B,white,woman,,,,null,,,,
18196,,,survey-text,237,968113,0.0-17.0-3.2,23529,List1B,white,woman,,,,,"{""Q0"":""fred and luke are playing with each other""}","<img src=""stim_listB/play6.gif""style=""height:400px;""></stim_listB>",are playing with each other,
null,"<div style=""font-size:60px;"">+</div>",,html-keyboard-response,238,968626,0.0-17.0-0.3,23529,List1B,white,woman,,,,null,,,,
null,"<img src=""stim_listB/marry1.gif""style=""height:400px;""></stim_listB>",,html-keyboard-response,239,970642,0.0-17.0-1.3,23529,List1B,white,woman,,,,null,,,,
null,is marrying,,html-keyboard-response,240,972627,0.0-17.0-2.3,23529,List1B,white,woman,,,,null,,,,
7359,,,survey-text,241,979989,0.0-17.0-3.3,23529,List1B,white,woman,,,,,"{""Q0"":""mike is marrying beth""}","<img src=""stim_listB/marry1.gif""style=""height:400px;""></stim_listB>",is marrying,
null,"<div style=""font-size:60px;"">+</div>",,html-keyboard-response,242,980501,0.0-17.0-0.4,23529,List1B,white,woman,,,,null,,,,
null,"<img src=""stim_listB/touch8.gif""style=""height:400px;""></stim_listB>",,html-keyboard-response,243,982517,0.0-17.0-1.4,23529,List1B,white,woman,,,,null,,,,
null,are touching each other,,html-keyboard-response,244,984516,0.0-17.0-2.4,23529,List1B,white,woman,,,,null,,,,
14381,,,survey-text,245,998901,0.0-17.0-3.4,23529,List1B,white,woman,,,,,"{""Q0"":""ruth and beth are touching each other""}","<img src=""stim_listB/touch8.gif""style=""height:400px;""></stim_listB>",are touching each other,
null,"<div style=""font-size:60px;"">+</div>",,html-keyboard-response,246,999413,0.0-17.0-0.5,23529,List1B,white,woman,,,,null,,,,
null,"<img src=""stim_listB/shout1.gif""style=""height:400px;""></stim_listB>",,html-keyboard-response,247,1001444,0.0-17.0-1.5,23529,List1B,white,woman,,,,null,,,,
null,is shouting at,,html-keyboard-response,248,1003444,0.0-17.0-2.5,23529,List1B,white,woman,,,,null,,,,
8906,,,survey-text,249,1012354,0.0-17.0-3.5,23529,List1B,white,woman,,,,,"{""Q0"":""fred is shouting at beth""}","<img src=""stim_listB/shout1.gif""style=""height:400px;""></stim_listB>",is shouting at,
null,"<div style=""font-size:60px;"">+</div>",,html-keyboard-response,250,1012865,0.0-17.0-0.6,23529,List1B,white,woman,,,,null,,,,
null,"<img src=""stim_listB/argue1.gif""style=""height:400px;""></stim_listB>",,html-keyboard-response,251,1014896,0.0-17.0-1.6,23529,List1B,white,woman,,,,null,,,,
null,is arguing with,,html-keyboard-response,252,1016873,0.0-17.0-2.6,23529,List1B,white,woman,,,,null,,,,
7530,,,survey-text,253,1024408,0.0-17.0-3.6,23529,List1B,white,woman,,,,,"{""Q0"":""beth is arguing with mike""}","<img src=""stim_listB/argue1.gif""style=""height:400px;""></stim_listB>",is arguing with,
null,"<div style=""font-size:60px;"">+</div>",,html-keyboard-response,254,1024936,0.0-17.0-0.7,23529,List1B,white,woman,,,,null,,,,
null,"<img src=""stim_listB/flirt1.gif""style=""height:400px;""></stim_listB>",,html-keyboard-response,255,1026936,0.0-17.0-1.7,23529,List1B,white,woman,,,,null,,,,
null,is flirting with,,html-keyboard-response,256,1028951,0.0-17.0-2.7,23529,List1B,white,woman,,,,null,,,,
11369,,,survey-text,257,1040326,0.0-17.0-3.7,23529,List1B,white,woman,,,,,"{""Q0"":""kate is flirting with fred""}","<img src=""stim_listB/flirt1.gif""style=""height:400px;""></stim_listB>",is flirting with,
null,"<div style=""font-size:60px;"">+</div>",,html-keyboard-response,258,1040834,0.0-17.0-0.8,23529,List1B,white,woman,,,,null,,,,
null,"<img src=""stim_listB/kiss3.gif""style=""height:400px;""></stim_listB>",,html-keyboard-response,259,1042842,0.0-17.0-1.8,23529,List1B,white,woman,,,,null,,,,
null,is kissing,,html-keyboard-response,260,1044842,0.0-17.0-2.8,23529,List1B,white,woman,,,,null,,,,
5641,,,survey-text,261,1050486,0.0-17.0-3.8,23529,List1B,white,woman,,,,,"{""Q0"":""ruth is kissing luke""}","<img src=""stim_listB/kiss3.gif""style=""height:400px;""></stim_listB>",is kissing,
null,"<div style=""font-size:60px;"">+</div>",,html-keyboard-response,262,1050998,0.0-17.0-0.9,23529,List1B,white,woman,,,,null,,,,
null,"<img src=""stim_listB/kiss7.gif""style=""height:400px;""></stim_listB>",,html-keyboard-response,263,1053030,0.0-17.0-1.9,23529,List1B,white,woman,,,,null,,,,
null,is kissing,,html-keyboard-response,264,1055014,0.0-17.0-2.9,23529,List1B,white,woman,,,,null,,,,
10383,,,survey-text,265,1065401,0.0-17.0-3.9,23529,List1B,white,woman,,,,,"{""Q0"":""beth is kissing ruth""}","<img src=""stim_listB/kiss7.gif""style=""height:400px;""></stim_listB>",is kissing,
null,"<div style=""font-size:60px;"">+</div>",,html-keyboard-response,266,1065939,0.0-17.0-0.10,23529,List1B,white,woman,,,,null,,,,
null,"<img src=""stim_listB/flirt8.gif""style=""height:400px;""></stim_listB>",,html-keyboard-response,267,1067960,0.0-17.0-1.10,23529,List1B,white,woman,,,,null,,,,
null,are flirting with each other,,html-keyboard-response,268,1069945,0.0-17.0-2.10,23529,List1B,white,woman,,,,null,,,,
17673,,,survey-text,269,1087623,0.0-17.0-3.10,23529,List1B,white,woman,,,,,"{""Q0"":""kate and ruth are flirting with each other""}","<img src=""stim_listB/flirt8.gif""style=""height:400px;""></stim_listB>",are flirting with each other,
null,"<div style=""font-size:60px;"">+</div>",,html-keyboard-response,270,1088139,0.0-17.0-0.11,23529,List1B,white,woman,,,,null,,,,
null,"<img src=""stim_listB/talk6.gif""style=""height:400px;""></stim_listB>",,html-keyboard-response,271,1090155,0.0-17.0-1.11,23529,List1B,white,woman,,,,null,,,,
null,are talking to each other,,html-keyboard-response,272,1092155,0.0-17.0-2.11,23529,List1B,white,woman,,,,null,,,,
15671,,,survey-text,273,1107830,0.0-17.0-3.11,23529,List1B,white,woman,,,,,"{""Q0"":""mike and luke are talking to each other""}","<img src=""stim_listB/talk6.gif""style=""height:400px;""></stim_listB>",are talking to each other,
null,"<div style=""font-size:60px;"">+</div>",,html-keyboard-response,274,1108342,0.0-17.0-0.12,23529,List1B,white,woman,,,,null,,,,
null,"<img src=""stim_listB/touch5.gif""style=""height:400px;""></stim_listB>",,html-keyboard-response,275,1110357,0.0-17.0-1.12,23529,List1B,white,woman,,,,null,,,,
null,is touching,,html-keyboard-response,276,1112353,0.0-17.0-2.12,23529,List1B,white,woman,,,,null,,,,
6417,,,survey-text,277,1118776,0.0-17.0-3.12,23529,List1B,white,woman,,,,,"{""Q0"":""dave is touching mike""}","<img src=""stim_listB/touch5.gif""style=""height:400px;""></stim_listB>",is touching,
null,"<div style=""font-size:60px;"">+</div>",,html-keyboard-response,278,1119290,0.0-17.0-0.13,23529,List1B,white,woman,,,,null,,,,
null,"<img src=""stim_listB/kiss5.gif""style=""height:400px;""></stim_listB>",,html-keyboard-response,279,1121303,0.0-17.0-1.13,23529,List1B,white,woman,,,,null,,,,
null,is kissing,,html-keyboard-response,280,1123305,0.0-17.0-2.13,23529,List1B,white,woman,,,,null,,,,
5404,,,survey-text,281,1128713,0.0-17.0-3.13,23529,List1B,white,woman,,,,,"{""Q0"":""fred is kissing luke""}","<img src=""stim_listB/kiss5.gif""style=""height:400px;""></stim_listB>",is kissing,
null,"<div style=""font-size:60px;"">+</div>",,html-keyboard-response,282,1129241,0.0-17.0-0.14,23529,List1B,white,woman,,,,null,,,,
null,"<img src=""stim_listB/talk7.gif""style=""height:400px;""></stim_listB>",,html-keyboard-response,283,1131268,0.0-17.0-1.14,23529,List1B,white,woman,,,,null,,,,
null,is talking to,,html-keyboard-response,284,1133300,0.0-17.0-2.14,23529,List1B,white,woman,,,,null,,,,
12012,,,survey-text,285,1145317,0.0-17.0-3.14,23529,List1B,white,woman,,,,,"{""Q0"":""beth is talking to jane""}","<img src=""stim_listB/talk7.gif""style=""height:400px;""></stim_listB>",is talking to,
null,"<div style=""font-size:60px;"">+</div>",,html-keyboard-response,286,1145829,0.0-17.0-0.15,23529,List1B,white,woman,,,,null,,,,
null,"<img src=""stim_listB/talk1.gif""style=""height:400px;""></stim_listB>",,html-keyboard-response,287,1147844,0.0-17.0-1.15,23529,List1B,white,woman,,,,null,,,,
null,is talking to,,html-keyboard-response,288,1149829,0.0-17.0-2.15,23529,List1B,white,woman,,,,null,,,,
9693,,,survey-text,289,1159527,0.0-17.0-3.15,23529,List1B,white,woman,,,,,"{""Q0"":""kate is talking to fred""}","<img src=""stim_listB/talk1.gif""style=""height:400px;""></stim_listB>",is talking to,
null,"<div style=""font-size:60px;"">+</div>",,html-keyboard-response,290,1160048,0.0-17.0-0.16,23529,List1B,white,woman,,,,null,,,,
null,"<img src=""stim_listB/shout5.gif""style=""height:400px;""></stim_listB>",,html-keyboard-response,291,1162064,0.0-17.0-1.16,23529,List1B,white,woman,,,,null,,,,
null,is shouting at,,html-keyboard-response,292,1164063,0.0-17.0-2.16,23529,List1B,white,woman,,,,null,,,,
9186,,,survey-text,293,1173253,0.0-17.0-3.16,23529,List1B,white,woman,,,,,"{""Q0"":""luke is shouting at fred""}","<img src=""stim_listB/shout5.gif""style=""height:400px;""></stim_listB>",is shouting at,
null,"<div style=""font-size:60px;"">+</div>",,html-keyboard-response,294,1173767,0.0-17.0-0.17,23529,List1B,white,woman,,,,null,,,,
null,"<img src=""stim_listB/play2.gif""style=""height:400px;""></stim_listB>",,html-keyboard-response,295,1175782,0.0-17.0-1.17,23529,List1B,white,woman,,,,null,,,,
null,are playing with each other,,html-keyboard-response,296,1177782,0.0-17.0-2.17,23529,List1B,white,woman,,,,null,,,,
24456,,,survey-text,297,1202243,0.0-17.0-3.17,23529,List1B,white,woman,,,,,"{""Q0"":""beth and fred are playing with each other""}","<img src=""stim_listB/play2.gif""style=""height:400px;""></stim_listB>",are playing with each other,
null,"<div style=""font-size:60px;"">+</div>",,html-keyboard-response,298,1202771,0.0-17.0-0.18,23529,List1B,white,woman,,,,null,,,,
null,"<img src=""stim_listB/dance5.gif""style=""height:400px;""></stim_listB>",,html-keyboard-response,299,1204780,0.0-17.0-1.18,23529,List1B,white,woman,,,,null,,,,
null,is dancing with,,html-keyboard-response,300,1206781,0.0-17.0-2.18,23529,List1B,white,woman,,,,null,,,,
8246,,,survey-text,301,1215032,0.0-17.0-3.18,23529,List1B,white,woman,,,,,"{""Q0"":""dave is dancing with fred""}","<img src=""stim_listB/dance5.gif""style=""height:400px;""></stim_listB>",is dancing with,
null,"<div style=""font-size:60px;"">+</div>",,html-keyboard-response,302,1215545,0.0-17.0-0.19,23529,List1B,white,woman,,,,null,,,,
null,"<img src=""stim_listB/shout2.gif""style=""height:400px;""></stim_listB>",,html-keyboard-response,303,1217575,0.0-17.0-1.19,23529,List1B,white,woman,,,,null,,,,
null,are shouting at each other,,html-keyboard-response,304,1219559,0.0-17.0-2.19,23529,List1B,white,woman,,,,null,,,,
12208,,,survey-text,305,1231771,0.0-17.0-3.19,23529,List1B,white,woman,,,,,"{""Q0"":""mike and kate are shouting at each other""}","<img src=""stim_listB/shout2.gif""style=""height:400px;""></stim_listB>",are shouting at each other,
3649,"<img src='img/portrait_matrix_list1.jpg' style='width:900px;height:500px;''></img><p>If you have memorised all the portraits and names and are ready to start, press Continue.</p><p><strong>Please note: Your memory of these faces will be tested 4 times during this experiment.</strong></p>",0,html-button-response,306,1235429,0.0-18.0-0.0,23529,List1B,white,woman,,,,,,,,
3077,"<img src=""portrait/WW2.jpg""style=""height:400px;""></img>",3,html-button-response,307,1239539,0.0-18.0-1.0,23529,List1B,white,woman,,TRUE,3,,,,,
null,CORRECT,,html-keyboard-response,308,1241072,0.0-18.0-2.0-0.0,23529,List1B,white,woman,,,,null,,,,
1975,"<img src=""portrait/WM1.jpg""style=""height:400px;""></img>",6,html-button-response,309,1243053,0.0-18.0-4.0,23529,List1B,white,woman,,TRUE,6,,,,,
null,CORRECT,,html-keyboard-response,310,1244595,0.0-18.0-5.0-0.0,23529,List1B,white,woman,,,,null,,,,
1451,"<img src=""portrait/BM1.jpg""style=""height:400px;""></img>",4,html-button-response,311,1246053,0.0-18.0-7.0,23529,List1B,white,woman,,TRUE,4,,,,,
null,CORRECT,,html-keyboard-response,312,1247611,0.0-18.0-8.0-0.0,23529,List1B,white,woman,,,,null,,,,
1654,"<img src=""portrait/BW2.jpg""style=""height:400px;""></img>",2,html-button-response,313,1249272,0.0-18.0-10.0,23529,List1B,white,woman,,TRUE,2,,,,,
null,CORRECT,,html-keyboard-response,314,1250807,0.0-18.0-11.0-0.0,23529,List1B,white,woman,,,,null,,,,
1592,"<img src=""portrait/BW1.jpg""style=""height:400px;""></img>",0,html-button-response,315,1252405,0.0-18.0-13.0,23529,List1B,white,woman,,TRUE,0,,,,,
null,CORRECT,,html-keyboard-response,316,1253932,0.0-18.0-14.0-0.0,23529,List1B,white,woman,,,,null,,,,
1374,"<img src=""portrait/WW1.jpg""style=""height:400px;""></img>",1,html-button-response,317,1255312,0.0-18.0-16.0,23529,List1B,white,woman,,TRUE,1,,,,,
null,CORRECT,,html-keyboard-response,318,1256811,0.0-18.0-17.0-0.0,23529,List1B,white,woman,,,,null,,,,
2157,"<img src=""portrait/BM2.jpg""style=""height:400px;""></img>",5,html-button-response,319,1258972,0.0-18.0-19.0,23529,List1B,white,woman,,TRUE,5,,,,,
null,CORRECT,,html-keyboard-response,320,1260514,0.0-18.0-20.0-0.0,23529,List1B,white,woman,,,,null,,,,
1592,"<img src=""portrait/WM2.jpg""style=""height:400px;""></img>",7,html-button-response,321,1262113,0.0-18.0-22.0,23529,List1B,white,woman,,TRUE,7,,,,,
null,CORRECT,,html-keyboard-response,322,1263666,0.0-18.0-23.0-0.0,23529,List1B,white,woman,,,,null,,,,
2188,<p>You got 8 out of 8 right first time. Press Continue.</p>,0,html-button-response,323,1265862,0.0-18.0-25.0,23529,List1B,white,woman,,,,,,,,
null,"<div style=""font-size:60px;"">+</div>",,html-keyboard-response,324,1267404,0.0-19.0-0.0,23529,List1B,white,woman,,,,null,,,,
null,"<img src=""stim_listB/argue2.gif""style=""height:400px;""></stim_listB>",,html-keyboard-response,325,1269420,0.0-19.0-1.0,23529,List1B,white,woman,,,,null,,,,
null,are arguing with each other,,html-keyboard-response,326,1271409,0.0-19.0-2.0,23529,List1B,white,woman,,,,null,,,,
15721,,,survey-text,327,1287133,0.0-19.0-3.0,23529,List1B,white,woman,,,,,"{""Q0"":""fred and kate are arguing with each other""}","<img src=""stim_listB/argue2.gif""style=""height:400px;""></stim_listB>",are arguing with each other,
null,"<div style=""font-size:60px;"">+</div>",,html-keyboard-response,328,1287641,0.0-19.0-0.1,23529,List1B,white,woman,,,,null,,,,
null,"<img src=""stim_listB/marry6.gif""style=""height:400px;""></stim_listB>",,html-keyboard-response,329,1289673,0.0-19.0-1.1,23529,List1B,white,woman,,,,null,,,,
null,are marrying each other,,html-keyboard-response,330,1291656,0.0-19.0-2.1,23529,List1B,white,woman,,,,null,,,,
9807,,,survey-text,331,1301470,0.0-19.0-3.1,23529,List1B,white,woman,,,,,"{""Q0"":""fred is marrying dave""}","<img src=""stim_listB/marry6.gif""style=""height:400px;""></stim_listB>",are marrying each other,
null,"<div style=""font-size:60px;"">+</div>",,html-keyboard-response,332,1301977,0.0-19.0-0.2,23529,List1B,white,woman,,,,null,,,,
null,"<img src=""stim_listB/marry4.gif""style=""height:400px;""></stim_listB>",,html-keyboard-response,333,1304025,0.0-19.0-1.2,23529,List1B,white,woman,,,,null,,,,
null,are marrying each other,,html-keyboard-response,334,1306024,0.0-19.0-2.2,23529,List1B,white,woman,,,,null,,,,
14616,,,survey-text,335,1320645,0.0-19.0-3.2,23529,List1B,white,woman,,,,,"{""Q0"":""luke and jane are marrying each other""}","<img src=""stim_listB/marry4.gif""style=""height:400px;""></stim_listB>",are marrying each other,
null,"<div style=""font-size:60px;"">+</div>",,html-keyboard-response,336,1321173,0.0-19.0-0.3,23529,List1B,white,woman,,,,null,,,,
null,"<img src=""stim_listB/argue8.gif""style=""height:400px;""></stim_listB>",,html-keyboard-response,337,1323189,0.0-19.0-1.3,23529,List1B,white,woman,,,,null,,,,
null,are arguing with each other,,html-keyboard-response,338,1325189,0.0-19.0-2.3,23529,List1B,white,woman,,,,null,,,,
18963,,,survey-text,339,1344157,0.0-19.0-3.3,23529,List1B,white,woman,,,,,"{""Q0"":""beth and jane are arguing with each other""}","<img src=""stim_listB/argue8.gif""style=""height:400px;""></stim_listB>",are arguing with each other,
null,"<div style=""font-size:60px;"">+</div>",,html-keyboard-response,340,1344669,0.0-19.0-0.4,23529,List1B,white,woman,,,,null,,,,
null,"<img src=""stim_listB/shout6.gif""style=""height:400px;""></stim_listB>",,html-keyboard-response,341,1346684,0.0-19.0-1.4,23529,List1B,white,woman,,,,null,,,,
null,are shouting at each other,,html-keyboard-response,342,1348699,0.0-19.0-2.4,23529,List1B,white,woman,,,,null,,,,
23679,,,survey-text,343,1372383,0.0-19.0-3.4,23529,List1B,white,woman,,,,,"{""Q0"":""mike and dave are shouting at each other""}","<img src=""stim_listB/shout6.gif""style=""height:400px;""></stim_listB>",are shouting at each other,
null,"<div style=""font-size:60px;"">+</div>",,html-keyboard-response,344,1372892,0.0-19.0-0.5,23529,List1B,white,woman,,,,null,,,,
null,"<img src=""stim_listB/fight2.gif""style=""height:400px;""></stim_listB>",,html-keyboard-response,345,1374906,0.0-19.0-1.5,23529,List1B,white,woman,,,,null,,,,
null,are fighting each other,,html-keyboard-response,346,1376907,0.0-19.0-2.5,23529,List1B,white,woman,,,,null,,,,
16618,,,survey-text,347,1393528,0.0-19.0-3.5,23529,List1B,white,woman,,,,,"{""Q0"":""beth and fred are fighting each other""}","<img src=""stim_listB/fight2.gif""style=""height:400px;""></stim_listB>",are fighting each other,
null,"<div style=""font-size:60px;"">+</div>",,html-keyboard-response,348,1394041,0.0-19.0-0.6,23529,List1B,white,woman,,,,null,,,,
null,"<img src=""stim_listB/touch2.gif""style=""height:400px;""></stim_listB>",,html-keyboard-response,349,1396057,0.0-19.0-1.6,23529,List1B,white,woman,,,,null,,,,
null,are touching each other,,html-keyboard-response,350,1398072,0.0-19.0-2.6,23529,List1B,white,woman,,,,null,,,,
21400,,,survey-text,351,1419475,0.0-19.0-3.6,23529,List1B,white,woman,,,,,"{""Q0"":""fred and beth are touching each other""}","<img src=""stim_listB/touch2.gif""style=""height:400px;""></stim_listB>",are touching each other,
null,"<div style=""font-size:60px;"">+</div>",,html-keyboard-response,352,1419992,0.0-19.0-0.7,23529,List1B,white,woman,,,,null,,,,
null,"<img src=""stim_listB/touch7.gif""style=""height:400px;""></stim_listB>",,html-keyboard-response,353,1422023,0.0-19.0-1.7,23529,List1B,white,woman,,,,null,,,,
null,is touching,,html-keyboard-response,354,1424008,0.0-19.0-2.7,23529,List1B,white,woman,,,,null,,,,
9910,,,survey-text,355,1433921,0.0-19.0-3.7,23529,List1B,white,woman,,,,,"{""Q0"":""jane is touching kate""}","<img src=""stim_listB/touch7.gif""style=""height:400px;""></stim_listB>",is touching,
null,"<div style=""font-size:60px;"">+</div>",,html-keyboard-response,356,1434445,0.0-19.0-0.8,23529,List1B,white,woman,,,,null,,,,
null,"<img src=""stim_listB/talk3.gif""style=""height:400px;""></stim_listB>",,html-keyboard-response,357,1436476,0.0-19.0-1.8,23529,List1B,white,woman,,,,null,,,,
null,is talking to,,html-keyboard-response,358,1438453,0.0-19.0-2.8,23529,List1B,white,woman,,,,null,,,,
6437,,,survey-text,359,1444896,0.0-19.0-3.8,23529,List1B,white,woman,,,,,"{""Q0"":""jane is talking to luke""}","<img src=""stim_listB/talk3.gif""style=""height:400px;""></stim_listB>",is talking to,
null,"<div style=""font-size:60px;"">+</div>",,html-keyboard-response,360,1445423,0.0-19.0-0.9,23529,List1B,white,woman,,,,null,,,,
null,"<img src=""stim_listB/marry5.gif""style=""height:400px;""></stim_listB>",,html-keyboard-response,361,1447454,0.0-19.0-1.9,23529,List1B,white,woman,,,,null,,,,
null,is marrying,,html-keyboard-response,362,1449437,0.0-19.0-2.9,23529,List1B,white,woman,,,,null,,,,
7173,,,survey-text,363,1456613,0.0-19.0-3.9,23529,List1B,white,woman,,,,,"{""Q0"":""mike is marrying luke""}","<img src=""stim_listB/marry5.gif""style=""height:400px;""></stim_listB>",is marrying,
null,"<div style=""font-size:60px;"">+</div>",,html-keyboard-response,364,1457140,0.0-19.0-0.10,23529,List1B,white,woman,,,,null,,,,
null,"<img src=""stim_listB/play8.gif""style=""height:400px;""></stim_listB>",,html-keyboard-response,365,1459149,0.0-19.0-1.10,23529,List1B,white,woman,,,,null,,,,
null,are playing with each other,,html-keyboard-response,366,1461155,0.0-19.0-2.10,23529,List1B,white,woman,,,,null,,,,
12561,,,survey-text,367,1473720,0.0-19.0-3.10,23529,List1B,white,woman,,,,,"{""Q0"":""ruth and beth are playing with each other""}","<img src=""stim_listB/play8.gif""style=""height:400px;""></stim_listB>",are playing with each other,
null,"<div style=""font-size:60px;"">+</div>",,html-keyboard-response,368,1474238,0.0-19.0-0.11,23529,List1B,white,woman,,,,null,,,,
null,"<img src=""stim_listB/flirt5.gif""style=""height:400px;""></stim_listB>",,html-keyboard-response,369,1476249,0.0-19.0-1.11,23529,List1B,white,woman,,,,null,,,,
null,is flirting with,,html-keyboard-response,370,1478248,0.0-19.0-2.11,23529,List1B,white,woman,,,,null,,,,
10489,,,survey-text,371,1488742,0.0-19.0-3.11,23529,List1B,white,woman,,,,,"{""Q0"":""fred is flirting with dave""}","<img src=""stim_listB/flirt5.gif""style=""height:400px;""></stim_listB>",is flirting with,
null,"<div style=""font-size:60px;"">+</div>",,html-keyboard-response,372,1489256,0.0-19.0-0.12,23529,List1B,white,woman,,,,null,,,,
null,"<img src=""stim_listB/kiss6.gif""style=""height:400px;""></stim_listB>",,html-keyboard-response,373,1491272,0.0-19.0-1.12,23529,List1B,white,woman,,,,null,,,,
null,are kissing each other,,html-keyboard-response,374,1493274,0.0-19.0-2.12,23529,List1B,white,woman,,,,null,,,,
10950,,,survey-text,375,1504229,0.0-19.0-3.12,23529,List1B,white,woman,,,,,"{""Q0"":""dave and mike are kissing each other""}","<img src=""stim_listB/kiss6.gif""style=""height:400px;""></stim_listB>",are kissing each other,
null,"<div style=""font-size:60px;"">+</div>",,html-keyboard-response,376,1504740,0.0-19.0-0.13,23529,List1B,white,woman,,,,null,,,,
null,"<img src=""stim_listB/play4.gif""style=""height:400px;""></stim_listB>",,html-keyboard-response,377,1506759,0.0-19.0-1.13,23529,List1B,white,woman,,,,null,,,,
null,are playing with each other,,html-keyboard-response,378,1508753,0.0-19.0-2.13,23529,List1B,white,woman,,,,null,,,,
17215,,,survey-text,379,1525973,0.0-19.0-3.13,23529,List1B,white,woman,,,,,"{""Q0"":""ruth and luke are playing with each other""}","<img src=""stim_listB/play4.gif""style=""height:400px;""></stim_listB>",are playing with each other,
null,"<div style=""font-size:60px;"">+</div>",,html-keyboard-response,380,1526502,0.0-19.0-0.14,23529,List1B,white,woman,,,,null,,,,
null,"<img src=""stim_listB/flirt7.gif""style=""height:400px;""></stim_listB>",,html-keyboard-response,381,1528533,0.0-19.0-1.14,23529,List1B,white,woman,,,,null,,,,
null,is flirting with,,html-keyboard-response,382,1530526,0.0-19.0-2.14,23529,List1B,white,woman,,,,null,,,,
9473,,,survey-text,383,1540004,0.0-19.0-3.14,23529,List1B,white,woman,,,,,"{""Q0"":""beth is flirting with jane""}","<img src=""stim_listB/flirt7.gif""style=""height:400px;""></stim_listB>",is flirting with,
null,"<div style=""font-size:60px;"">+</div>",,html-keyboard-response,384,1540509,0.0-19.0-0.15,23529,List1B,white,woman,,,,null,,,,
null,"<img src=""stim_listB/talk2.gif""style=""height:400px;""></stim_listB>",,html-keyboard-response,385,1542526,0.0-19.0-1.15,23529,List1B,white,woman,,,,null,,,,
null,are talking to each other,,html-keyboard-response,386,1544526,0.0-19.0-2.15,23529,List1B,white,woman,,,,null,,,,
21604,,,survey-text,387,1566135,0.0-19.0-3.15,23529,List1B,white,woman,,,,,"{""Q0"":""beth and mike are shouting at each other""}","<img src=""stim_listB/talk2.gif""style=""height:400px;""></stim_listB>",are talking to each other,
null,"<div style=""font-size:60px;"">+</div>",,html-keyboard-response,388,1566646,0.0-19.0-0.16,23529,List1B,white,woman,,,,null,,,,
null,"<img src=""stim_listB/fight7.gif""style=""height:400px;""></stim_listB>",,html-keyboard-response,389,1568661,0.0-19.0-1.16,23529,List1B,white,woman,,,,null,,,,
null,is fighting,,html-keyboard-response,390,1570662,0.0-19.0-2.16,23529,List1B,white,woman,,,,null,,,,
16240,,,survey-text,391,1586907,0.0-19.0-3.16,23529,List1B,white,woman,,,,,"{""Q0"":""jane is fighting kate""}","<img src=""stim_listB/fight7.gif""style=""height:400px;""></stim_listB>",is fighting,
null,"<div style=""font-size:60px;"">+</div>",,html-keyboard-response,392,1587420,0.0-19.0-0.17,23529,List1B,white,woman,,,,null,,,,
null,"<img src=""stim_listB/shout7.gif""style=""height:400px;""></stim_listB>",,html-keyboard-response,393,1589435,0.0-19.0-1.17,23529,List1B,white,woman,,,,null,,,,
null,is shouting at,,html-keyboard-response,394,1591451,0.0-19.0-2.17,23529,List1B,white,woman,,,,null,,,,
16641,,,survey-text,395,1608100,0.0-19.0-3.17,23529,List1B,white,woman,,,,,"{""Q0"":""beth is shouting at ruth""}","<img src=""stim_listB/shout7.gif""style=""height:400px;""></stim_listB>",is shouting at,
null,"<div style=""font-size:60px;"">+</div>",,html-keyboard-response,396,1608632,0.0-19.0-0.18,23529,List1B,white,woman,,,,null,,,,
null,"<img src=""stim_listB/play5.gif""style=""height:400px;""></stim_listB>",,html-keyboard-response,397,1610663,0.0-19.0-1.18,23529,List1B,white,woman,,,,null,,,,
null,is playing with,,html-keyboard-response,398,1612647,0.0-19.0-2.18,23529,List1B,white,woman,,,,null,,,,
10868,,,survey-text,399,1623520,0.0-19.0-3.18,23529,List1B,white,woman,,,,,"{""Q0"":""mike is playing with dave""}","<img src=""stim_listB/play5.gif""style=""height:400px;""></stim_listB>",is playing with,
null,"<div style=""font-size:60px;"">+</div>",,html-keyboard-response,400,1624048,0.0-19.0-0.19,23529,List1B,white,woman,,,,null,,,,
null,"<img src=""stim_listB/fight1.gif""style=""height:400px;""></stim_listB>",,html-keyboard-response,401,1626079,0.0-19.0-1.19,23529,List1B,white,woman,,,,null,,,,
null,is fighting,,html-keyboard-response,402,1628065,0.0-19.0-2.19,23529,List1B,white,woman,,,,null,,,,
7202,,,survey-text,403,1635271,0.0-19.0-3.19,23529,List1B,white,woman,,,,,"{""Q0"":""kate is fighting mike""}","<img src=""stim_listB/fight1.gif""style=""height:400px;""></stim_listB>",is fighting,
4305,<p>Thank you for completing that task.</p><p>The final part of this session is a short questionnaire.</p><p>Press Continue.</p>,0,html-button-response,404,1639583,0.0-20.0,23529,List1B,white,woman,,,,,,,,
35021,,,survey-text,405,1675620,0.0-21.0,23529,List1B,white,woman,,,,,"{""Q0"":""25"",""Q1"":""english"",""Q2"":""english"",""Q3"":""england"",""Q4"":""white"",""Q5"":""female""}",,,demographics
14352,,,survey-likert,406,1689981,0.0-22.0,23529,List1B,white,woman,,,,,"{""Q0"":4}",,,likert_ESS
9572,,,survey-likert,407,1699562,0.0-23.0,23529,List1B,white,woman,,,,,"{""Q0"":4}",,,likert_NSSAL_Q1
6650,,,survey-likert,408,1706217,0.0-24.0,23529,List1B,white,woman,,,,,"{""Q0"":4}",,,likert_NSSAL_Q2
9289,,,survey-likert,409,1715516,0.0-25.0,23529,List1B,white,woman,,,,,"{""Q0"":4}",,,likert_CGRS_Q1
7689,,,survey-likert,410,1723211,0.0-26.0,23529,List1B,white,woman,,,,,"{""Q0"":4}",,,likert_CGRS_Q2
7055,,,survey-likert,411,1730273,0.0-27.0,23529,List1B,white,woman,,,,,"{""Q0"":4}",,,likert_CGRS_Q3
11518,,,survey-text,412,1741800,0.0-28.0,23529,List1B,white,woman,,,,,"{""Q0"":""ccc""}",,,worker_id
46209,,,external-html,413,1788173,0.0-29.0,23529,List1B,white,woman,debrief.html,,,,,,,
