rt,stimulus,button_pressed,trial_type,trial_index,time_elapsed,internal_node_id,subject,list,ppt_race,ppt_gender,url,first_guess,correct,key_press,responses,image_type,phrase_type,test_part
1453,Welcome to the experiment. Press Continue to begin.,0,html-button-response,0,1459,0.0-0.0,23773,List2A,white,man,,,,,,,,
150868,,,external-html,1,153416,0.0-1.0,23773,List2A,white,man,consent.html,,,,,,,
12587,"<p>On the next page, you will see portraits of 8 people and their names.</p><p>Your first task is to take a few minutes to memorise the names of these people.</p><p>You will have to recall their names during the rest of the experiment, so it is</p><p>essential that you try to memorise these people and their names as best as you can.</p><br><p><strong>You will then be tested on your memory of these names and portraits.</strong></p><br><p>The experiment will start after you have completed this memory test.</p><br><p>Ready?</p>",0,html-button-response,2,166007,0.0-2.0,23773,List2A,white,man,,,,,,,,
136180,"<img src='img/portrait_matrix_list2.jpg' style='width:900px;height:500px;''></img><p>If you have memorised all the portraits and names and are ready to start, press Continue.</p><p><strong>Please note: Your memory of these faces will be tested 4 times during this experiment.</strong></p>",0,html-button-response,3,303191,0.0-3.0-0.0,23773,List2A,white,man,,,,,,,,
19321,"<img src=""portrait/BW2.jpg""style=""height:400px;""></img>",2,html-button-response,4,323518,0.0-3.0-1.0,23773,List2A,white,man,,TRUE,2,,,,,
null,CORRECT,,html-keyboard-response,5,325029,0.0-3.0-2.0-0.0,23773,List2A,white,man,,,,null,,,,
12631,"<img src=""portrait/WW1.jpg""style=""height:400px;""></img>",1,html-button-response,6,337664,0.0-3.0-4.0,23773,List2A,white,man,,TRUE,1,,,,,
null,CORRECT,,html-keyboard-response,7,339168,0.0-3.0-5.0-0.0,23773,List2A,white,man,,,,null,,,,
8404,"<img src=""portrait/WM2.jpg""style=""height:400px;""></img>",7,html-button-response,8,347577,0.0-3.0-7.0,23773,List2A,white,man,,TRUE,7,,,,,
null,CORRECT,,html-keyboard-response,9,349087,0.0-3.0-8.0-0.0,23773,List2A,white,man,,,,null,,,,
9783,"<img src=""portrait/BM2.jpg""style=""height:400px;""></img>",5,html-button-response,10,358878,0.0-3.0-10.0,23773,List2A,white,man,,TRUE,5,,,,,
null,CORRECT,,html-keyboard-response,11,360399,0.0-3.0-11.0-0.0,23773,List2A,white,man,,,,null,,,,
9026,"<img src=""portrait/WW2.jpg""style=""height:400px;""></img>",3,html-button-response,12,369427,0.0-3.0-13.0,23773,List2A,white,man,,TRUE,3,,,,,
null,CORRECT,,html-keyboard-response,13,370929,0.0-3.0-14.0-0.0,23773,List2A,white,man,,,,null,,,,
12570,"<img src=""portrait/BW1.jpg""style=""height:400px;""></img>",0,html-button-response,14,383502,0.0-3.0-16.0,23773,List2A,white,man,,TRUE,0,,,,,
null,CORRECT,,html-keyboard-response,15,385004,0.0-3.0-17.0-0.0,23773,List2A,white,man,,,,null,,,,
5802,"<img src=""portrait/BM1.jpg""style=""height:400px;""></img>",4,html-button-response,16,390809,0.0-3.0-19.0,23773,List2A,white,man,,TRUE,4,,,,,
null,CORRECT,,html-keyboard-response,17,392310,0.0-3.0-20.0-0.0,23773,List2A,white,man,,,,null,,,,
6602,"<img src=""portrait/WM1.jpg""style=""height:400px;""></img>",6,html-button-response,18,398915,0.0-3.0-22.0,23773,List2A,white,man,,TRUE,6,,,,,
null,CORRECT,,html-keyboard-response,19,400418,0.0-3.0-23.0-0.0,23773,List2A,white,man,,,,null,,,,
1859,<p>You got 8 out of 8 right first time. Press Continue.</p>,0,html-button-response,20,402280,0.0-3.0-25.0,23773,List2A,white,man,,,,,,,,
45116,"<p>In this experiment, you will view photographs of the people from the memory game interacting.</p><p>By using the <strong>exact</strong> phrase given <i>after</i> the photograph appears and recalling the correct names of the people in the photographs, form a sentence describing the interaction. You do not need to capitalise names.</p><p>Type your answer in the space provided. Please complete every sentence before moving onto the next trial.</p><p>You will only have a few seconds to memorise each given photograph and phrase before you can respond, so try your best to focus.</p><p>An example is given below. Press 'Continue' when you are ready.</p><img src='img/speaking_example.jpg' style='width:800px;height:460px;''></img>",0,html-button-response,21,448416,0.0-4.0,23773,List2A,white,man,,,,,,,,
6056,"<p>Before the experiment starts, you will watch two example trials. Press 'Continue'.</p>",0,html-button-response,22,455487,0.0-5.0,23773,List2A,white,man,,,,,,,,
null,<img src='img/meet_eg.gif' style='height:400px;''></img>,,html-keyboard-response,23,458508,0.0-6.0,23773,List2A,white,man,,,,null,,,,
null,<p>is meeting</p>,,html-keyboard-response,24,460515,0.0-7.0,23773,List2A,white,man,,,,null,,,,
4237,<p><b>Answer:</b> jane is meeting ruth</p>,0,html-button-response,25,464758,0.0-8.0,23773,List2A,white,man,,,,,,,,
null,<img src='img/look_eg.gif' style='height:400px;''></img>,,html-keyboard-response,26,467767,0.0-9.0,23773,List2A,white,man,,,,null,,,,
null,<p>are looking at each other</p>,,html-keyboard-response,27,469771,0.0-10.0,23773,List2A,white,man,,,,null,,,,
4321,<p><b>Answer:</b> fred and mike are looking at each other</p>,0,html-button-response,28,474093,0.0-11.0,23773,List2A,white,man,,,,,,,,
16095,"<p>Ready to start the experiment?</p><br><p><strong>Remember to describe the picture using a full sentence,</strong></p><p><strong>that combines the names of the people with the <i>exact</i> phrase given.</strong></p><p><strong>To receive full payment you must do this correctly.</strong></p><p><strong> You do not need to capitalise names or use punctuation.</strong></p><br><p>Press 'Continue' to begin.</p>",0,html-button-response,29,491192,0.0-12.0,23773,List2A,white,man,,,,,,,,
null,"<div style=""font-size:60px;"">+</div>",,html-keyboard-response,30,492695,0.0-13.0-0.0,23773,List2A,white,man,,,,null,,,,
null,"<img src=""stim_listA/marry3.gif""style=""height:400px;""></stim_listA>",,html-keyboard-response,31,494699,0.0-13.0-1.0,23773,List2A,white,man,,,,null,,,,
null,is marrying,,html-keyboard-response,32,496699,0.0-13.0-2.0,23773,List2A,white,man,,,,null,,,,
28991,,,survey-text,33,525693,0.0-13.0-3.0,23773,List2A,white,man,,,,,"{""Q0"":""Mike Is marrying beth""}","<img src=""stim_listA/marry3.gif""style=""height:400px;""></stim_listA>",is marrying,
null,"<div style=""font-size:60px;"">+</div>",,html-keyboard-response,34,526197,0.0-13.0-0.1,23773,List2A,white,man,,,,null,,,,
null,"<img src=""stim_listA/flirt1.gif""style=""height:400px;""></stim_listA>",,html-keyboard-response,35,528200,0.0-13.0-1.1,23773,List2A,white,man,,,,null,,,,
null,is flirting with,,html-keyboard-response,36,530201,0.0-13.0-2.1,23773,List2A,white,man,,,,null,,,,
22888,,,survey-text,37,553091,0.0-13.0-3.1,23773,List2A,white,man,,,,,"{""Q0"":""luke is flirting with ruth""}","<img src=""stim_listA/flirt1.gif""style=""height:400px;""></stim_listA>",is flirting with,
null,"<div style=""font-size:60px;"">+</div>",,html-keyboard-response,38,553593,0.0-13.0-0.2,23773,List2A,white,man,,,,null,,,,
null,"<img src=""stim_listA/dance4.gif""style=""height:400px;""></stim_listA>",,html-keyboard-response,39,555596,0.0-13.0-1.2,23773,List2A,white,man,,,,null,,,,
null,are dancing with each other,,html-keyboard-response,40,557597,0.0-13.0-2.2,23773,List2A,white,man,,,,null,,,,
26722,,,survey-text,41,584321,0.0-13.0-3.2,23773,List2A,white,man,,,,,"{""Q0"":"" mike and beth are dancing with each other""}","<img src=""stim_listA/dance4.gif""style=""height:400px;""></stim_listA>",are dancing with each other,
null,"<div style=""font-size:60px;"">+</div>",,html-keyboard-response,42,584824,0.0-13.0-0.3,23773,List2A,white,man,,,,null,,,,
null,"<img src=""stim_listA/shout2.gif""style=""height:400px;""></stim_listA>",,html-keyboard-response,43,586830,0.0-13.0-1.3,23773,List2A,white,man,,,,null,,,,
null,are shouting at each other,,html-keyboard-response,44,588831,0.0-13.0-2.3,23773,List2A,white,man,,,,null,,,,
59159,,,survey-text,45,647992,0.0-13.0-3.3,23773,List2A,white,man,,,,,"{""Q0"":""dave and jane are shouting at each other""}","<img src=""stim_listA/shout2.gif""style=""height:400px;""></stim_listA>",are shouting at each other,
null,"<div style=""font-size:60px;"">+</div>",,html-keyboard-response,46,648494,0.0-13.0-0.4,23773,List2A,white,man,,,,null,,,,
null,"<img src=""stim_listA/argue3.gif""style=""height:400px;""></stim_listA>",,html-keyboard-response,47,650498,0.0-13.0-1.4,23773,List2A,white,man,,,,null,,,,
null,is arguing with,,html-keyboard-response,48,652501,0.0-13.0-2.4,23773,List2A,white,man,,,,null,,,,
20334,,,survey-text,49,672838,0.0-13.0-3.4,23773,List2A,white,man,,,,,"{""Q0"":""mike is arguing with jane""}","<img src=""stim_listA/argue3.gif""style=""height:400px;""></stim_listA>",is arguing with,
null,"<div style=""font-size:60px;"">+</div>",,html-keyboard-response,50,673340,0.0-13.0-0.5,23773,List2A,white,man,,,,null,,,,
null,"<img src=""stim_listA/dance7.gif""style=""height:400px;""></stim_listA>",,html-keyboard-response,51,675344,0.0-13.0-1.5,23773,List2A,white,man,,,,null,,,,
null,is dancing with,,html-keyboard-response,52,677348,0.0-13.0-2.5,23773,List2A,white,man,,,,null,,,,
32276,,,survey-text,53,709635,0.0-13.0-3.5,23773,List2A,white,man,,,,,"{""Q0"":""beth is dancing with ruth""}","<img src=""stim_listA/dance7.gif""style=""height:400px;""></stim_listA>",is dancing with,
null,"<div style=""font-size:60px;"">+</div>",,html-keyboard-response,54,710137,0.0-13.0-0.6,23773,List2A,white,man,,,,null,,,,
null,"<img src=""stim_listA/flirt7.gif""style=""height:400px;""></stim_listA>",,html-keyboard-response,55,712140,0.0-13.0-1.6,23773,List2A,white,man,,,,null,,,,
null,is flirting with,,html-keyboard-response,56,714142,0.0-13.0-2.6,23773,List2A,white,man,,,,null,,,,
20009,,,survey-text,57,734153,0.0-13.0-3.6,23773,List2A,white,man,,,,,"{""Q0"":""beth is flirting with ruth""}","<img src=""stim_listA/flirt7.gif""style=""height:400px;""></stim_listA>",is flirting with,
null,"<div style=""font-size:60px;"">+</div>",,html-keyboard-response,58,734654,0.0-13.0-0.7,23773,List2A,white,man,,,,null,,,,
null,"<img src=""stim_listA/dance8.gif""style=""height:400px;""></stim_listA>",,html-keyboard-response,59,736658,0.0-13.0-1.7,23773,List2A,white,man,,,,null,,,,
null,are dancing with each other,,html-keyboard-response,60,738662,0.0-13.0-2.7,23773,List2A,white,man,,,,null,,,,
29242,,,survey-text,61,767906,0.0-13.0-3.7,23773,List2A,white,man,,,,,"{""Q0"":""jane and beth are dancing with each other""}","<img src=""stim_listA/dance8.gif""style=""height:400px;""></stim_listA>",are dancing with each other,
null,"<div style=""font-size:60px;"">+</div>",,html-keyboard-response,62,768408,0.0-13.0-0.8,23773,List2A,white,man,,,,null,,,,
null,"<img src=""stim_listA/talk7.gif""style=""height:400px;""></stim_listA>",,html-keyboard-response,63,770411,0.0-13.0-1.8,23773,List2A,white,man,,,,null,,,,
null,is talking to,,html-keyboard-response,64,772412,0.0-13.0-2.8,23773,List2A,white,man,,,,null,,,,
20718,,,survey-text,65,793132,0.0-13.0-3.8,23773,List2A,white,man,,,,,"{""Q0"":""ruth is talking to beth""}","<img src=""stim_listA/talk7.gif""style=""height:400px;""></stim_listA>",is talking to,
null,"<div style=""font-size:60px;"">+</div>",,html-keyboard-response,66,793636,0.0-13.0-0.9,23773,List2A,white,man,,,,null,,,,
null,"<img src=""stim_listA/talk6.gif""style=""height:400px;""></stim_listA>",,html-keyboard-response,67,795640,0.0-13.0-1.9,23773,List2A,white,man,,,,null,,,,
null,are talking to each other,,html-keyboard-response,68,797641,0.0-13.0-2.9,23773,List2A,white,man,,,,null,,,,
27140,,,survey-text,69,824783,0.0-13.0-3.9,23773,List2A,white,man,,,,,"{""Q0"":""mike and fred are talking to each other""}","<img src=""stim_listA/talk6.gif""style=""height:400px;""></stim_listA>",are talking to each other,
null,"<div style=""font-size:60px;"">+</div>",,html-keyboard-response,70,825285,0.0-13.0-0.10,23773,List2A,white,man,,,,null,,,,
null,"<img src=""stim_listA/fight1.gif""style=""height:400px;""></stim_listA>",,html-keyboard-response,71,827287,0.0-13.0-1.10,23773,List2A,white,man,,,,null,,,,
null,is fighting,,html-keyboard-response,72,829292,0.0-13.0-2.10,23773,List2A,white,man,,,,null,,,,
27439,,,survey-text,73,856733,0.0-13.0-3.10,23773,List2A,white,man,,,,,"{""Q0"":""jane is fighting with dave""}","<img src=""stim_listA/fight1.gif""style=""height:400px;""></stim_listA>",is fighting,
null,"<div style=""font-size:60px;"">+</div>",,html-keyboard-response,74,857234,0.0-13.0-0.11,23773,List2A,white,man,,,,null,,,,
null,"<img src=""stim_listA/kiss8.gif""style=""height:400px;""></stim_listA>",,html-keyboard-response,75,859239,0.0-13.0-1.11,23773,List2A,white,man,,,,null,,,,
null,are kissing each other,,html-keyboard-response,76,861241,0.0-13.0-2.11,23773,List2A,white,man,,,,null,,,,
29010,,,survey-text,77,890253,0.0-13.0-3.11,23773,List2A,white,man,,,,,"{""Q0"":""beth and jane are kissing each other""}","<img src=""stim_listA/kiss8.gif""style=""height:400px;""></stim_listA>",are kissing each other,
null,"<div style=""font-size:60px;"">+</div>",,html-keyboard-response,78,890756,0.0-13.0-0.12,23773,List2A,white,man,,,,null,,,,
null,"<img src=""stim_listA/flirt4.gif""style=""height:400px;""></stim_listA>",,html-keyboard-response,79,892759,0.0-13.0-1.12,23773,List2A,white,man,,,,null,,,,
null,are flirting with each other,,html-keyboard-response,80,894760,0.0-13.0-2.12,23773,List2A,white,man,,,,null,,,,
19296,,,survey-text,81,914058,0.0-13.0-3.12,23773,List2A,white,man,,,,,"{""Q0"":""mike and beth are flirting with each other""}","<img src=""stim_listA/flirt4.gif""style=""height:400px;""></stim_listA>",are flirting with each other,
null,"<div style=""font-size:60px;"">+</div>",,html-keyboard-response,82,914559,0.0-13.0-0.13,23773,List2A,white,man,,,,null,,,,
null,"<img src=""stim_listA/shout1.gif""style=""height:400px;""></stim_listA>",,html-keyboard-response,83,916562,0.0-13.0-1.13,23773,List2A,white,man,,,,null,,,,
null,is shouting at,,html-keyboard-response,84,918563,0.0-13.0-2.13,23773,List2A,white,man,,,,null,,,,
31717,,,survey-text,85,950282,0.0-13.0-3.13,23773,List2A,white,man,,,,,"{""Q0"":""ruth and luke are shouting at each other""}","<img src=""stim_listA/shout1.gif""style=""height:400px;""></stim_listA>",is shouting at,
null,"<div style=""font-size:60px;"">+</div>",,html-keyboard-response,86,950784,0.0-13.0-0.14,23773,List2A,white,man,,,,null,,,,
null,"<img src=""stim_listA/play4.gif""style=""height:400px;""></stim_listA>",,html-keyboard-response,87,952798,0.0-13.0-1.14,23773,List2A,white,man,,,,null,,,,
null,are playing with each other,,html-keyboard-response,88,954799,0.0-13.0-2.14,23773,List2A,white,man,,,,null,,,,
28829,,,survey-text,89,983630,0.0-13.0-3.14,23773,List2A,white,man,,,,,"{""Q0"":""fred and kate are playing cards with each other""}","<img src=""stim_listA/play4.gif""style=""height:400px;""></stim_listA>",are playing with each other,
null,"<div style=""font-size:60px;"">+</div>",,html-keyboard-response,90,984131,0.0-13.0-0.15,23773,List2A,white,man,,,,null,,,,
null,"<img src=""stim_listA/shout4.gif""style=""height:400px;""></stim_listA>",,html-keyboard-response,91,986136,0.0-13.0-1.15,23773,List2A,white,man,,,,null,,,,
null,are shouting at each other,,html-keyboard-response,92,988137,0.0-13.0-2.15,23773,List2A,white,man,,,,null,,,,
31928,,,survey-text,93,1020066,0.0-13.0-3.15,23773,List2A,white,man,,,,,"{""Q0"":""mike and beth are shouting at each other""}","<img src=""stim_listA/shout4.gif""style=""height:400px;""></stim_listA>",are shouting at each other,
null,"<div style=""font-size:60px;"">+</div>",,html-keyboard-response,94,1020568,0.0-13.0-0.16,23773,List2A,white,man,,,,null,,,,
null,"<img src=""stim_listA/argue5.gif""style=""height:400px;""></stim_listA>",,html-keyboard-response,95,1022572,0.0-13.0-1.16,23773,List2A,white,man,,,,null,,,,
null,is arguing with,,html-keyboard-response,96,1024574,0.0-13.0-2.16,23773,List2A,white,man,,,,null,,,,
25515,,,survey-text,97,1050091,0.0-13.0-3.16,23773,List2A,white,man,,,,,"{""Q0"":""fred and dave are arguing with each other""}","<img src=""stim_listA/argue5.gif""style=""height:400px;""></stim_listA>",is arguing with,
null,"<div style=""font-size:60px;"">+</div>",,html-keyboard-response,98,1050593,0.0-13.0-0.17,23773,List2A,white,man,,,,null,,,,
null,"<img src=""stim_listA/dance3.gif""style=""height:400px;""></stim_listA>",,html-keyboard-response,99,1052595,0.0-13.0-1.17,23773,List2A,white,man,,,,null,,,,
null,is dancing with,,html-keyboard-response,100,1054597,0.0-13.0-2.17,23773,List2A,white,man,,,,null,,,,
25885,,,survey-text,101,1080486,0.0-13.0-3.17,23773,List2A,white,man,,,,,"{""Q0"":""kate is dancing with fred""}","<img src=""stim_listA/dance3.gif""style=""height:400px;""></stim_listA>",is dancing with,
null,"<div style=""font-size:60px;"">+</div>",,html-keyboard-response,102,1080988,0.0-13.0-0.18,23773,List2A,white,man,,,,null,,,,
null,"<img src=""stim_listA/marry2.gif""style=""height:400px;""></stim_listA>",,html-keyboard-response,103,1082992,0.0-13.0-1.18,23773,List2A,white,man,,,,null,,,,
null,are marrying each other,,html-keyboard-response,104,1084996,0.0-13.0-2.18,23773,List2A,white,man,,,,null,,,,
39372,,,survey-text,105,1124372,0.0-13.0-3.18,23773,List2A,white,man,,,,,"{""Q0"":""luke and jane are marrying each other""}","<img src=""stim_listA/marry2.gif""style=""height:400px;""></stim_listA>",are marrying each other,
null,"<div style=""font-size:60px;"">+</div>",,html-keyboard-response,106,1124874,0.0-13.0-0.19,23773,List2A,white,man,,,,null,,,,
null,"<img src=""stim_listA/shout5.gif""style=""height:400px;""></stim_listA>",,html-keyboard-response,107,1126879,0.0-13.0-1.19,23773,List2A,white,man,,,,null,,,,
null,is shouting at,,html-keyboard-response,108,1128882,0.0-13.0-2.19,23773,List2A,white,man,,,,null,,,,
20256,,,survey-text,109,1149140,0.0-13.0-3.19,23773,List2A,white,man,,,,,"{""Q0"":""fred is shouting at luke""}","<img src=""stim_listA/shout5.gif""style=""height:400px;""></stim_listA>",is shouting at,
17594,"<img src='img/portrait_matrix_list2.jpg' style='width:900px;height:500px;''></img><p>If you have memorised all the portraits and names and are ready to start, press Continue.</p><p><strong>Please note: Your memory of these faces will be tested 4 times during this experiment.</strong></p>",0,html-button-response,110,1166736,0.0-14.0-0.0,23773,List2A,white,man,,,,,,,,
5028,"<img src=""portrait/WM1.jpg""style=""height:400px;""></img>",6,html-button-response,111,1172768,0.0-14.0-1.0,23773,List2A,white,man,,TRUE,6,,,,,
null,CORRECT,,html-keyboard-response,112,1174271,0.0-14.0-2.0-0.0,23773,List2A,white,man,,,,null,,,,
13396,"<img src=""portrait/WW2.jpg""style=""height:400px;""></img>",3,html-button-response,113,1187670,0.0-14.0-4.0,23773,List2A,white,man,,TRUE,3,,,,,
null,CORRECT,,html-keyboard-response,114,1189172,0.0-14.0-5.0-0.0,23773,List2A,white,man,,,,null,,,,
15067,"<img src=""portrait/BW2.jpg""style=""height:400px;""></img>",2,html-button-response,115,1204243,0.0-14.0-7.0,23773,List2A,white,man,,TRUE,2,,,,,
null,CORRECT,,html-keyboard-response,116,1205745,0.0-14.0-8.0-0.0,23773,List2A,white,man,,,,null,,,,
8730,"<img src=""portrait/WW1.jpg""style=""height:400px;""></img>",1,html-button-response,117,1214478,0.0-14.0-10.0,23773,List2A,white,man,,TRUE,1,,,,,
null,CORRECT,,html-keyboard-response,118,1215980,0.0-14.0-11.0-0.0,23773,List2A,white,man,,,,null,,,,
7649,"<img src=""portrait/WM2.jpg""style=""height:400px;""></img>",7,html-button-response,119,1223632,0.0-14.0-13.0,23773,List2A,white,man,,TRUE,7,,,,,
null,CORRECT,,html-keyboard-response,120,1225133,0.0-14.0-14.0-0.0,23773,List2A,white,man,,,,null,,,,
5966,"<img src=""portrait/BM2.jpg""style=""height:400px;""></img>",5,html-button-response,121,1231102,0.0-14.0-16.0,23773,List2A,white,man,,TRUE,5,,,,,
null,CORRECT,,html-keyboard-response,122,1232603,0.0-14.0-17.0-0.0,23773,List2A,white,man,,,,null,,,,
7391,"<img src=""portrait/BM1.jpg""style=""height:400px;""></img>",4,html-button-response,123,1239998,0.0-14.0-19.0,23773,List2A,white,man,,TRUE,4,,,,,
null,CORRECT,,html-keyboard-response,124,1241501,0.0-14.0-20.0-0.0,23773,List2A,white,man,,,,null,,,,
9135,"<img src=""portrait/BW1.jpg""style=""height:400px;""></img>",0,html-button-response,125,1250640,0.0-14.0-22.0,23773,List2A,white,man,,TRUE,0,,,,,
null,CORRECT,,html-keyboard-response,126,1252143,0.0-14.0-23.0-0.0,23773,List2A,white,man,,,,null,,,,
1725,<p>You got 8 out of 8 right first time. Press Continue.</p>,0,html-button-response,127,1253871,0.0-14.0-25.0,23773,List2A,white,man,,,,,,,,
null,"<div style=""font-size:60px;"">+</div>",,html-keyboard-response,128,1255374,0.0-15.0-0.0,23773,List2A,white,man,,,,null,,,,
null,"<img src=""stim_listA/argue2.gif""style=""height:400px;""></stim_listA>",,html-keyboard-response,129,1257378,0.0-15.0-1.0,23773,List2A,white,man,,,,null,,,,
null,are arguing with each other,,html-keyboard-response,130,1259380,0.0-15.0-2.0,23773,List2A,white,man,,,,null,,,,
26793,,,survey-text,131,1286176,0.0-15.0-3.0,23773,List2A,white,man,,,,,"{""Q0"":""luke and jane are arguing with each other""}","<img src=""stim_listA/argue2.gif""style=""height:400px;""></stim_listA>",are arguing with each other,
null,"<div style=""font-size:60px;"">+</div>",,html-keyboard-response,132,1286678,0.0-15.0-0.1,23773,List2A,white,man,,,,null,,,,
null,"<img src=""stim_listA/flirt6.gif""style=""height:400px;""></stim_listA>",,html-keyboard-response,133,1288681,0.0-15.0-1.1,23773,List2A,white,man,,,,null,,,,
null,are flirting with each other,,html-keyboard-response,134,1290682,0.0-15.0-2.1,23773,List2A,white,man,,,,null,,,,
39877,,,survey-text,135,1330561,0.0-15.0-3.1,23773,List2A,white,man,,,,,"{""Q0"":""fred are luke are flirting with each other""}","<img src=""stim_listA/flirt6.gif""style=""height:400px;""></stim_listA>",are flirting with each other,
null,"<div style=""font-size:60px;"">+</div>",,html-keyboard-response,136,1331063,0.0-15.0-0.2,23773,List2A,white,man,,,,null,,,,
null,"<img src=""stim_listA/kiss7.gif""style=""height:400px;""></stim_listA>",,html-keyboard-response,137,1333066,0.0-15.0-1.2,23773,List2A,white,man,,,,null,,,,
null,is kissing,,html-keyboard-response,138,1335067,0.0-15.0-2.2,23773,List2A,white,man,,,,null,,,,
26119,,,survey-text,139,1361188,0.0-15.0-3.2,23773,List2A,white,man,,,,,"{""Q0"":""beth is kissing ruth""}","<img src=""stim_listA/kiss7.gif""style=""height:400px;""></stim_listA>",is kissing,
null,"<div style=""font-size:60px;"">+</div>",,html-keyboard-response,140,1361689,0.0-15.0-0.3,23773,List2A,white,man,,,,null,,,,
null,"<img src=""stim_listA/shout6.gif""style=""height:400px;""></stim_listA>",,html-keyboard-response,141,1363693,0.0-15.0-1.3,23773,List2A,white,man,,,,null,,,,
null,are shouting at each other,,html-keyboard-response,142,1365694,0.0-15.0-2.3,23773,List2A,white,man,,,,null,,,,
28602,,,survey-text,143,1394298,0.0-15.0-3.3,23773,List2A,white,man,,,,,"{""Q0"":""dave and mike are shouting at each other""}","<img src=""stim_listA/shout6.gif""style=""height:400px;""></stim_listA>",are shouting at each other,
null,"<div style=""font-size:60px;"">+</div>",,html-keyboard-response,144,1394799,0.0-15.0-0.4,23773,List2A,white,man,,,,null,,,,
null,"<img src=""stim_listA/kiss4.gif""style=""height:400px;""></stim_listA>",,html-keyboard-response,145,1396805,0.0-15.0-1.4,23773,List2A,white,man,,,,null,,,,
null,are kissing each other,,html-keyboard-response,146,1398807,0.0-15.0-2.4,23773,List2A,white,man,,,,null,,,,
25777,,,survey-text,147,1424586,0.0-15.0-3.4,23773,List2A,white,man,,,,,"{""Q0"":""mike and kate are kissing each other""}","<img src=""stim_listA/kiss4.gif""style=""height:400px;""></stim_listA>",are kissing each other,
null,"<div style=""font-size:60px;"">+</div>",,html-keyboard-response,148,1425087,0.0-15.0-0.5,23773,List2A,white,man,,,,null,,,,
null,"<img src=""stim_listA/marry5.gif""style=""height:400px;""></stim_listA>",,html-keyboard-response,149,1427091,0.0-15.0-1.5,23773,List2A,white,man,,,,null,,,,
null,is marrying,,html-keyboard-response,150,1429092,0.0-15.0-2.5,23773,List2A,white,man,,,,null,,,,
30038,,,survey-text,151,1459133,0.0-15.0-3.5,23773,List2A,white,man,,,,,"{""Q0"":""fred is marrying dave""}","<img src=""stim_listA/marry5.gif""style=""height:400px;""></stim_listA>",is marrying,
null,"<div style=""font-size:60px;"">+</div>",,html-keyboard-response,152,1459634,0.0-15.0-0.6,23773,List2A,white,man,,,,null,,,,
null,"<img src=""stim_listA/argue4.gif""style=""height:400px;""></stim_listA>",,html-keyboard-response,153,1461637,0.0-15.0-1.6,23773,List2A,white,man,,,,null,,,,
null,are arguing with each other,,html-keyboard-response,154,1463638,0.0-15.0-2.6,23773,List2A,white,man,,,,null,,,,
42537,,,survey-text,155,1506178,0.0-15.0-3.6,23773,List2A,white,man,,,,,"{""Q0"":""beth and fred are arguing with each other""}","<img src=""stim_listA/argue4.gif""style=""height:400px;""></stim_listA>",are arguing with each other,
null,"<div style=""font-size:60px;"">+</div>",,html-keyboard-response,156,1506679,0.0-15.0-0.7,23773,List2A,white,man,,,,null,,,,
null,"<img src=""stim_listA/play6.gif""style=""height:400px;""></stim_listA>",,html-keyboard-response,157,1508682,0.0-15.0-1.7,23773,List2A,white,man,,,,null,,,,
null,are playing with each other,,html-keyboard-response,158,1510683,0.0-15.0-2.7,23773,List2A,white,man,,,,null,,,,
30413,,,survey-text,159,1541098,0.0-15.0-3.7,23773,List2A,white,man,,,,,"{""Q0"":""fred and luke are playing cards with each other""}","<img src=""stim_listA/play6.gif""style=""height:400px;""></stim_listA>",are playing with each other,
null,"<div style=""font-size:60px;"">+</div>",,html-keyboard-response,160,1541600,0.0-15.0-0.8,23773,List2A,white,man,,,,null,,,,
null,"<img src=""stim_listA/kiss2.gif""style=""height:400px;""></stim_listA>",,html-keyboard-response,161,1543603,0.0-15.0-1.8,23773,List2A,white,man,,,,null,,,,
null,are kissing each other,,html-keyboard-response,162,1545605,0.0-15.0-2.8,23773,List2A,white,man,,,,null,,,,
20218,,,survey-text,163,1565825,0.0-15.0-3.8,23773,List2A,white,man,,,,,"{""Q0"":""luke and jane are kissing each other""}","<img src=""stim_listA/kiss2.gif""style=""height:400px;""></stim_listA>",are kissing each other,
null,"<div style=""font-size:60px;"">+</div>",,html-keyboard-response,164,1566326,0.0-15.0-0.9,23773,List2A,white,man,,,,null,,,,
null,"<img src=""stim_listA/shout7.gif""style=""height:400px;""></stim_listA>",,html-keyboard-response,165,1568330,0.0-15.0-1.9,23773,List2A,white,man,,,,null,,,,
null,is shouting at,,html-keyboard-response,166,1570331,0.0-15.0-2.9,23773,List2A,white,man,,,,null,,,,
41750,,,survey-text,167,1612083,0.0-15.0-3.9,23773,List2A,white,man,,,,,"{""Q0"":""kate is shouting at jane""}","<img src=""stim_listA/shout7.gif""style=""height:400px;""></stim_listA>",is shouting at,
null,"<div style=""font-size:60px;"">+</div>",,html-keyboard-response,168,1612586,0.0-15.0-0.10,23773,List2A,white,man,,,,null,,,,
null,"<img src=""stim_listA/touch8.gif""style=""height:400px;""></stim_listA>",,html-keyboard-response,169,1614589,0.0-15.0-1.10,23773,List2A,white,man,,,,null,,,,
null,are touching each other,,html-keyboard-response,170,1616590,0.0-15.0-2.10,23773,List2A,white,man,,,,null,,,,
31636,,,survey-text,171,1648227,0.0-15.0-3.10,23773,List2A,white,man,,,,,"{""Q0"":""kate and ruth are touching each other""}","<img src=""stim_listA/touch8.gif""style=""height:400px;""></stim_listA>",are touching each other,
null,"<div style=""font-size:60px;"">+</div>",,html-keyboard-response,172,1648728,0.0-15.0-0.11,23773,List2A,white,man,,,,null,,,,
null,"<img src=""stim_listA/fight2.gif""style=""height:400px;""></stim_listA>",,html-keyboard-response,173,1650731,0.0-15.0-1.11,23773,List2A,white,man,,,,null,,,,
null,are fighting each other,,html-keyboard-response,174,1652733,0.0-15.0-2.11,23773,List2A,white,man,,,,null,,,,
18715,,,survey-text,175,1671450,0.0-15.0-3.11,23773,List2A,white,man,,,,,"{""Q0"":""ruth and luke are fighting each other""}","<img src=""stim_listA/fight2.gif""style=""height:400px;""></stim_listA>",are fighting each other,
null,"<div style=""font-size:60px;"">+</div>",,html-keyboard-response,176,1671951,0.0-15.0-0.12,23773,List2A,white,man,,,,null,,,,
null,"<img src=""stim_listA/talk8.gif""style=""height:400px;""></stim_listA>",,html-keyboard-response,177,1673954,0.0-15.0-1.12,23773,List2A,white,man,,,,null,,,,
null,are talking to each other,,html-keyboard-response,178,1675955,0.0-15.0-2.12,23773,List2A,white,man,,,,null,,,,
28114,,,survey-text,179,1704074,0.0-15.0-3.12,23773,List2A,white,man,,,,,"{""Q0"":""jane and beth are talking to each other""}","<img src=""stim_listA/talk8.gif""style=""height:400px;""></stim_listA>",are talking to each other,
null,"<div style=""font-size:60px;"">+</div>",,html-keyboard-response,180,1704583,0.0-15.0-0.13,23773,List2A,white,man,,,,null,,,,
null,"<img src=""stim_listA/kiss1.gif""style=""height:400px;""></stim_listA>",,html-keyboard-response,181,1706591,0.0-15.0-1.13,23773,List2A,white,man,,,,null,,,,
null,is kissing,,html-keyboard-response,182,1708604,0.0-15.0-2.13,23773,List2A,white,man,,,,null,,,,
18667,,,survey-text,183,1727273,0.0-15.0-3.13,23773,List2A,white,man,,,,,"{""Q0"":""ruth is kissing luke""}","<img src=""stim_listA/kiss1.gif""style=""height:400px;""></stim_listA>",is kissing,
null,"<div style=""font-size:60px;"">+</div>",,html-keyboard-response,184,1727775,0.0-15.0-0.14,23773,List2A,white,man,,,,null,,,,
null,"<img src=""stim_listA/kiss6.gif""style=""height:400px;""></stim_listA>",,html-keyboard-response,185,1729778,0.0-15.0-1.14,23773,List2A,white,man,,,,null,,,,
null,are kissing each other,,html-keyboard-response,186,1731780,0.0-15.0-2.14,23773,List2A,white,man,,,,null,,,,
24686,,,survey-text,187,1756468,0.0-15.0-3.14,23773,List2A,white,man,,,,,"{""Q0"":""dave and mike are kissing each other""}","<img src=""stim_listA/kiss6.gif""style=""height:400px;""></stim_listA>",are kissing each other,
null,"<div style=""font-size:60px;"">+</div>",,html-keyboard-response,188,1756970,0.0-15.0-0.15,23773,List2A,white,man,,,,null,,,,
null,"<img src=""stim_listA/argue1.gif""style=""height:400px;""></stim_listA>",,html-keyboard-response,189,1758974,0.0-15.0-1.15,23773,List2A,white,man,,,,null,,,,
null,is arguing with,,html-keyboard-response,190,1760975,0.0-15.0-2.15,23773,List2A,white,man,,,,null,,,,
21083,,,survey-text,191,1782060,0.0-15.0-3.15,23773,List2A,white,man,,,,,"{""Q0"":""dave is arguing with ruth""}","<img src=""stim_listA/argue1.gif""style=""height:400px;""></stim_listA>",is arguing with,
null,"<div style=""font-size:60px;"">+</div>",,html-keyboard-response,192,1782562,0.0-15.0-0.16,23773,List2A,white,man,,,,null,,,,
null,"<img src=""stim_listA/touch4.gif""style=""height:400px;""></stim_listA>",,html-keyboard-response,193,1784565,0.0-15.0-1.16,23773,List2A,white,man,,,,null,,,,
null,are touching each other,,html-keyboard-response,194,1786566,0.0-15.0-2.16,23773,List2A,white,man,,,,null,,,,
20045,,,survey-text,195,1806613,0.0-15.0-3.16,23773,List2A,white,man,,,,,"{""Q0"":""fred and beth are touching each other""}","<img src=""stim_listA/touch4.gif""style=""height:400px;""></stim_listA>",are touching each other,
null,"<div style=""font-size:60px;"">+</div>",,html-keyboard-response,196,1807115,0.0-15.0-0.17,23773,List2A,white,man,,,,null,,,,
null,"<img src=""stim_listA/argue6.gif""style=""height:400px;""></stim_listA>",,html-keyboard-response,197,1809118,0.0-15.0-1.17,23773,List2A,white,man,,,,null,,,,
null,are arguing with each other,,html-keyboard-response,198,1811119,0.0-15.0-2.17,23773,List2A,white,man,,,,null,,,,
27114,,,survey-text,199,1838235,0.0-15.0-3.17,23773,List2A,white,man,,,,,"{""Q0"":""luke and mike are arguing with each other""}","<img src=""stim_listA/argue6.gif""style=""height:400px;""></stim_listA>",are arguing with each other,
null,"<div style=""font-size:60px;"">+</div>",,html-keyboard-response,200,1838737,0.0-15.0-0.18,23773,List2A,white,man,,,,null,,,,
null,"<img src=""stim_listA/talk4.gif""style=""height:400px;""></stim_listA>",,html-keyboard-response,201,1840740,0.0-15.0-1.18,23773,List2A,white,man,,,,null,,,,
null,are talking to each other,,html-keyboard-response,202,1842742,0.0-15.0-2.18,23773,List2A,white,man,,,,null,,,,
22754,,,survey-text,203,1865499,0.0-15.0-3.18,23773,List2A,white,man,,,,,"{""Q0"":""beth and mike are talking to each other""}","<img src=""stim_listA/talk4.gif""style=""height:400px;""></stim_listA>",are talking to each other,
null,"<div style=""font-size:60px;"">+</div>",,html-keyboard-response,204,1866000,0.0-15.0-0.19,23773,List2A,white,man,,,,null,,,,
null,"<img src=""stim_listA/dance6.gif""style=""height:400px;""></stim_listA>",,html-keyboard-response,205,1868003,0.0-15.0-1.19,23773,List2A,white,man,,,,null,,,,
null,are dancing with each other,,html-keyboard-response,206,1870004,0.0-15.0-2.19,23773,List2A,white,man,,,,null,,,,
30399,,,survey-text,207,1900405,0.0-15.0-3.19,23773,List2A,white,man,,,,,"{""Q0"":""dave and fred are dancing with each other""}","<img src=""stim_listA/dance6.gif""style=""height:400px;""></stim_listA>",are dancing with each other,
36570,"<img src='img/portrait_matrix_list2.jpg' style='width:900px;height:500px;''></img><p>If you have memorised all the portraits and names and are ready to start, press Continue.</p><p><strong>Please note: Your memory of these faces will be tested 4 times during this experiment.</strong></p>",0,html-button-response,208,1936977,0.0-16.0-0.0,23773,List2A,white,man,,,,,,,,
5621,"<img src=""portrait/WW2.jpg""style=""height:400px;""></img>",3,html-button-response,209,1943616,0.0-16.0-1.0,23773,List2A,white,man,,TRUE,3,,,,,
null,CORRECT,,html-keyboard-response,210,1945129,0.0-16.0-2.0-0.0,23773,List2A,white,man,,,,null,,,,
3969,"<img src=""portrait/WM1.jpg""style=""height:400px;""></img>",6,html-button-response,211,1949101,0.0-16.0-4.0,23773,List2A,white,man,,TRUE,6,,,,,
null,CORRECT,,html-keyboard-response,212,1950609,0.0-16.0-5.0-0.0,23773,List2A,white,man,,,,null,,,,
4598,"<img src=""portrait/BM1.jpg""style=""height:400px;""></img>",4,html-button-response,213,1955216,0.0-16.0-7.0,23773,List2A,white,man,,TRUE,4,,,,,
null,CORRECT,,html-keyboard-response,214,1956718,0.0-16.0-8.0-0.0,23773,List2A,white,man,,,,null,,,,
4134,"<img src=""portrait/WW1.jpg""style=""height:400px;""></img>",1,html-button-response,215,1960857,0.0-16.0-10.0,23773,List2A,white,man,,TRUE,1,,,,,
null,CORRECT,,html-keyboard-response,216,1962358,0.0-16.0-11.0-0.0,23773,List2A,white,man,,,,null,,,,
3469,"<img src=""portrait/BW1.jpg""style=""height:400px;""></img>",0,html-button-response,217,1965830,0.0-16.0-13.0,23773,List2A,white,man,,TRUE,0,,,,,
null,CORRECT,,html-keyboard-response,218,1967333,0.0-16.0-14.0-0.0,23773,List2A,white,man,,,,null,,,,
4906,"<img src=""portrait/WM2.jpg""style=""height:400px;""></img>",7,html-button-response,219,1972241,0.0-16.0-16.0,23773,List2A,white,man,,TRUE,7,,,,,
null,CORRECT,,html-keyboard-response,220,1973743,0.0-16.0-17.0-0.0,23773,List2A,white,man,,,,null,,,,
6648,"<img src=""portrait/BM2.jpg""style=""height:400px;""></img>",5,html-button-response,221,1980394,0.0-16.0-19.0,23773,List2A,white,man,,TRUE,5,,,,,
null,CORRECT,,html-keyboard-response,222,1981895,0.0-16.0-20.0-0.0,23773,List2A,white,man,,,,null,,,,
4059,"<img src=""portrait/BW2.jpg""style=""height:400px;""></img>",2,html-button-response,223,1985957,0.0-16.0-22.0,23773,List2A,white,man,,TRUE,2,,,,,
null,CORRECT,,html-keyboard-response,224,1987460,0.0-16.0-23.0-0.0,23773,List2A,white,man,,,,null,,,,
1799,<p>You got 8 out of 8 right first time. Press Continue.</p>,0,html-button-response,225,1989261,0.0-16.0-25.0,23773,List2A,white,man,,,,,,,,
null,"<div style=""font-size:60px;"">+</div>",,html-keyboard-response,226,1990764,0.0-17.0-0.0,23773,List2A,white,man,,,,null,,,,
null,"<img src=""stim_listA/flirt5.gif""style=""height:400px;""></stim_listA>",,html-keyboard-response,227,1992767,0.0-17.0-1.0,23773,List2A,white,man,,,,null,,,,
null,is flirting with,,html-keyboard-response,228,1994768,0.0-17.0-2.0,23773,List2A,white,man,,,,null,,,,
28802,,,survey-text,229,2023572,0.0-17.0-3.0,23773,List2A,white,man,,,,,"{""Q0"":""luke is flirting with mike""}","<img src=""stim_listA/flirt5.gif""style=""height:400px;""></stim_listA>",is flirting with,
null,"<div style=""font-size:60px;"">+</div>",,html-keyboard-response,230,2024074,0.0-17.0-0.1,23773,List2A,white,man,,,,null,,,,
null,"<img src=""stim_listA/fight4.gif""style=""height:400px;""></stim_listA>",,html-keyboard-response,231,2026077,0.0-17.0-1.1,23773,List2A,white,man,,,,null,,,,
null,are fighting each other,,html-keyboard-response,232,2028078,0.0-17.0-2.1,23773,List2A,white,man,,,,null,,,,
17301,,,survey-text,233,2045381,0.0-17.0-3.1,23773,List2A,white,man,,,,,"{""Q0"":""beth and fred are fighting each other""}","<img src=""stim_listA/fight4.gif""style=""height:400px;""></stim_listA>",are fighting each other,
null,"<div style=""font-size:60px;"">+</div>",,html-keyboard-response,234,2045883,0.0-17.0-0.2,23773,List2A,white,man,,,,null,,,,
null,"<img src=""stim_listA/talk1.gif""style=""height:400px;""></stim_listA>",,html-keyboard-response,235,2047886,0.0-17.0-1.2,23773,List2A,white,man,,,,null,,,,
null,is talking to,,html-keyboard-response,236,2049887,0.0-17.0-2.2,23773,List2A,white,man,,,,null,,,,
22120,,,survey-text,237,2072009,0.0-17.0-3.2,23773,List2A,white,man,,,,,"{""Q0"":""luke is talking to jane""}","<img src=""stim_listA/talk1.gif""style=""height:400px;""></stim_listA>",is talking to,
null,"<div style=""font-size:60px;"">+</div>",,html-keyboard-response,238,2072510,0.0-17.0-0.3,23773,List2A,white,man,,,,null,,,,
null,"<img src=""stim_listA/touch3.gif""style=""height:400px;""></stim_listA>",,html-keyboard-response,239,2074514,0.0-17.0-1.3,23773,List2A,white,man,,,,null,,,,
null,is touching,,html-keyboard-response,240,2076518,0.0-17.0-2.3,23773,List2A,white,man,,,,null,,,,
20293,,,survey-text,241,2096812,0.0-17.0-3.3,23773,List2A,white,man,,,,,"{""Q0"":""mike is touching kate""}","<img src=""stim_listA/touch3.gif""style=""height:400px;""></stim_listA>",is touching,
null,"<div style=""font-size:60px;"">+</div>",,html-keyboard-response,242,2097315,0.0-17.0-0.4,23773,List2A,white,man,,,,null,,,,
null,"<img src=""stim_listA/fight3.gif""style=""height:400px;""></stim_listA>",,html-keyboard-response,243,2099318,0.0-17.0-1.4,23773,List2A,white,man,,,,null,,,,
null,is fighting,,html-keyboard-response,244,2101319,0.0-17.0-2.4,23773,List2A,white,man,,,,null,,,,
15791,,,survey-text,245,2117112,0.0-17.0-3.4,23773,List2A,white,man,,,,,"{""Q0"":""mike is fighting kate""}","<img src=""stim_listA/fight3.gif""style=""height:400px;""></stim_listA>",is fighting,
null,"<div style=""font-size:60px;"">+</div>",,html-keyboard-response,246,2117614,0.0-17.0-0.5,23773,List2A,white,man,,,,null,,,,
null,"<img src=""stim_listA/touch1.gif""style=""height:400px;""></stim_listA>",,html-keyboard-response,247,2119617,0.0-17.0-1.5,23773,List2A,white,man,,,,null,,,,
null,is touching,,html-keyboard-response,248,2121619,0.0-17.0-2.5,23773,List2A,white,man,,,,null,,,,
17227,,,survey-text,249,2138848,0.0-17.0-3.5,23773,List2A,white,man,,,,,"{""Q0"":""jane is touching dave""}","<img src=""stim_listA/touch1.gif""style=""height:400px;""></stim_listA>",is touching,
null,"<div style=""font-size:60px;"">+</div>",,html-keyboard-response,250,2139350,0.0-17.0-0.6,23773,List2A,white,man,,,,null,,,,
null,"<img src=""stim_listA/play7.gif""style=""height:400px;""></stim_listA>",,html-keyboard-response,251,2141356,0.0-17.0-1.6,23773,List2A,white,man,,,,null,,,,
null,is playing with,,html-keyboard-response,252,2143357,0.0-17.0-2.6,23773,List2A,white,man,,,,null,,,,
21289,,,survey-text,253,2164648,0.0-17.0-3.6,23773,List2A,white,man,,,,,"{""Q0"":""jane is playing cards with kate""}","<img src=""stim_listA/play7.gif""style=""height:400px;""></stim_listA>",is playing with,
null,"<div style=""font-size:60px;"">+</div>",,html-keyboard-response,254,2165150,0.0-17.0-0.7,23773,List2A,white,man,,,,null,,,,
null,"<img src=""stim_listA/play8.gif""style=""height:400px;""></stim_listA>",,html-keyboard-response,255,2167156,0.0-17.0-1.7,23773,List2A,white,man,,,,null,,,,
null,are playing with each other,,html-keyboard-response,256,2169157,0.0-17.0-2.7,23773,List2A,white,man,,,,null,,,,
27708,,,survey-text,257,2196867,0.0-17.0-3.7,23773,List2A,white,man,,,,,"{""Q0"":""beth and ruth are playing cards with each other""}","<img src=""stim_listA/play8.gif""style=""height:400px;""></stim_listA>",are playing with each other,
null,"<div style=""font-size:60px;"">+</div>",,html-keyboard-response,258,2197369,0.0-17.0-0.8,23773,List2A,white,man,,,,null,,,,
null,"<img src=""stim_listA/fight5.gif""style=""height:400px;""></stim_listA>",,html-keyboard-response,259,2199373,0.0-17.0-1.8,23773,List2A,white,man,,,,null,,,,
null,is fighting,,html-keyboard-response,260,2201373,0.0-17.0-2.8,23773,List2A,white,man,,,,null,,,,
23399,,,survey-text,261,2224774,0.0-17.0-3.8,23773,List2A,white,man,,,,,"{""Q0"":""dave is fighting mike""}","<img src=""stim_listA/fight5.gif""style=""height:400px;""></stim_listA>",is fighting,
null,"<div style=""font-size:60px;"">+</div>",,html-keyboard-response,262,2225275,0.0-17.0-0.9,23773,List2A,white,man,,,,null,,,,
null,"<img src=""stim_listA/touch5.gif""style=""height:400px;""></stim_listA>",,html-keyboard-response,263,2227278,0.0-17.0-1.9,23773,List2A,white,man,,,,null,,,,
null,is touching,,html-keyboard-response,264,2229279,0.0-17.0-2.9,23773,List2A,white,man,,,,null,,,,
16318,,,survey-text,265,2245598,0.0-17.0-3.9,23773,List2A,white,man,,,,,"{""Q0"":""dave is touching mike""}","<img src=""stim_listA/touch5.gif""style=""height:400px;""></stim_listA>",is touching,
null,"<div style=""font-size:60px;"">+</div>",,html-keyboard-response,266,2246101,0.0-17.0-0.10,23773,List2A,white,man,,,,null,,,,
null,"<img src=""stim_listA/talk3.gif""style=""height:400px;""></stim_listA>",,html-keyboard-response,267,2248103,0.0-17.0-1.10,23773,List2A,white,man,,,,null,,,,
null,is talking to,,html-keyboard-response,268,2250104,0.0-17.0-2.10,23773,List2A,white,man,,,,null,,,,
23049,,,survey-text,269,2273155,0.0-17.0-3.10,23773,List2A,white,man,,,,,"{""Q0"":""kate is talking to fred""}","<img src=""stim_listA/talk3.gif""style=""height:400px;""></stim_listA>",is talking to,
null,"<div style=""font-size:60px;"">+</div>",,html-keyboard-response,270,2273657,0.0-17.0-0.11,23773,List2A,white,man,,,,null,,,,
null,"<img src=""stim_listA/marry6.gif""style=""height:400px;""></stim_listA>",,html-keyboard-response,271,2275661,0.0-17.0-1.11,23773,List2A,white,man,,,,null,,,,
null,are marrying each other,,html-keyboard-response,272,2277662,0.0-17.0-2.11,23773,List2A,white,man,,,,null,,,,
19871,,,survey-text,273,2297535,0.0-17.0-3.11,23773,List2A,white,man,,,,,"{""Q0"":""luke and mike are marrying each other""}","<img src=""stim_listA/marry6.gif""style=""height:400px;""></stim_listA>",are marrying each other,
null,"<div style=""font-size:60px;"">+</div>",,html-keyboard-response,274,2298036,0.0-17.0-0.12,23773,List2A,white,man,,,,null,,,,
null,"<img src=""stim_listA/touch7.gif""style=""height:400px;""></stim_listA>",,html-keyboard-response,275,2300039,0.0-17.0-1.12,23773,List2A,white,man,,,,null,,,,
null,is touching,,html-keyboard-response,276,2302040,0.0-17.0-2.12,23773,List2A,white,man,,,,null,,,,
22900,,,survey-text,277,2324942,0.0-17.0-3.12,23773,List2A,white,man,,,,,"{""Q0"":""jane is touching kate""}","<img src=""stim_listA/touch7.gif""style=""height:400px;""></stim_listA>",is touching,
null,"<div style=""font-size:60px;"">+</div>",,html-keyboard-response,278,2325444,0.0-17.0-0.13,23773,List2A,white,man,,,,null,,,,
null,"<img src=""stim_listA/marry4.gif""style=""height:400px;""></stim_listA>",,html-keyboard-response,279,2327451,0.0-17.0-1.13,23773,List2A,white,man,,,,null,,,,
null,are marrying each other,,html-keyboard-response,280,2329452,0.0-17.0-2.13,23773,List2A,white,man,,,,null,,,,
41854,,,survey-text,281,2371309,0.0-17.0-3.13,23773,List2A,white,man,,,,,"{""Q0"":""kate and fred are marrying each other""}","<img src=""stim_listA/marry4.gif""style=""height:400px;""></stim_listA>",are marrying each other,
null,"<div style=""font-size:60px;"">+</div>",,html-keyboard-response,282,2371810,0.0-17.0-0.14,23773,List2A,white,man,,,,null,,,,
null,"<img src=""stim_listA/play5.gif""style=""height:400px;""></stim_listA>",,html-keyboard-response,283,2373815,0.0-17.0-1.14,23773,List2A,white,man,,,,null,,,,
null,is playing with,,html-keyboard-response,284,2375816,0.0-17.0-2.14,23773,List2A,white,man,,,,null,,,,
35738,,,survey-text,285,2411557,0.0-17.0-3.14,23773,List2A,white,man,,,,,"{""Q0"":""dave is playing cards with mike""}","<img src=""stim_listA/play5.gif""style=""height:400px;""></stim_listA>",is playing with,
null,"<div style=""font-size:60px;"">+</div>",,html-keyboard-response,286,2412059,0.0-17.0-0.15,23773,List2A,white,man,,,,null,,,,
null,"<img src=""stim_listA/kiss3.gif""style=""height:400px;""></stim_listA>",,html-keyboard-response,287,2414062,0.0-17.0-1.15,23773,List2A,white,man,,,,null,,,,
null,is kissing,,html-keyboard-response,288,2416062,0.0-17.0-2.15,23773,List2A,white,man,,,,null,,,,
15844,,,survey-text,289,2431908,0.0-17.0-3.15,23773,List2A,white,man,,,,,"{""Q0"":""beth is kissing fred""}","<img src=""stim_listA/kiss3.gif""style=""height:400px;""></stim_listA>",is kissing,
null,"<div style=""font-size:60px;"">+</div>",,html-keyboard-response,290,2432410,0.0-17.0-0.16,23773,List2A,white,man,,,,null,,,,
null,"<img src=""stim_listA/argue7.gif""style=""height:400px;""></stim_listA>",,html-keyboard-response,291,2434414,0.0-17.0-1.16,23773,List2A,white,man,,,,null,,,,
null,is arguing with,,html-keyboard-response,292,2436415,0.0-17.0-2.16,23773,List2A,white,man,,,,null,,,,
21122,,,survey-text,293,2457540,0.0-17.0-3.16,23773,List2A,white,man,,,,,"{""Q0"":""beth is arguing with jane""}","<img src=""stim_listA/argue7.gif""style=""height:400px;""></stim_listA>",is arguing with,
null,"<div style=""font-size:60px;"">+</div>",,html-keyboard-response,294,2458042,0.0-17.0-0.17,23773,List2A,white,man,,,,null,,,,
null,"<img src=""stim_listA/fight8.gif""style=""height:400px;""></stim_listA>",,html-keyboard-response,295,2460045,0.0-17.0-1.17,23773,List2A,white,man,,,,null,,,,
null,are fighting each other,,html-keyboard-response,296,2462046,0.0-17.0-2.17,23773,List2A,white,man,,,,null,,,,
23199,,,survey-text,297,2485246,0.0-17.0-3.17,23773,List2A,white,man,,,,,"{""Q0"":""beth and ruth are fighting each other""}","<img src=""stim_listA/fight8.gif""style=""height:400px;""></stim_listA>",are fighting each other,
null,"<div style=""font-size:60px;"">+</div>",,html-keyboard-response,298,2485749,0.0-17.0-0.18,23773,List2A,white,man,,,,null,,,,
null,"<img src=""stim_listA/talk5.gif""style=""height:400px;""></stim_listA>",,html-keyboard-response,299,2487753,0.0-17.0-1.18,23773,List2A,white,man,,,,null,,,,
null,is talking to,,html-keyboard-response,300,2489754,0.0-17.0-2.18,23773,List2A,white,man,,,,null,,,,
18336,,,survey-text,301,2508093,0.0-17.0-3.18,23773,List2A,white,man,,,,,"{""Q0"":""luke is talking to mike""}","<img src=""stim_listA/talk5.gif""style=""height:400px;""></stim_listA>",is talking to,
null,"<div style=""font-size:60px;"">+</div>",,html-keyboard-response,302,2508594,0.0-17.0-0.19,23773,List2A,white,man,,,,null,,,,
null,"<img src=""stim_listA/play2.gif""style=""height:400px;""></stim_listA>",,html-keyboard-response,303,2510598,0.0-17.0-1.19,23773,List2A,white,man,,,,null,,,,
null,are playing with each other,,html-keyboard-response,304,2512599,0.0-17.0-2.19,23773,List2A,white,man,,,,null,,,,
19996,,,survey-text,305,2532597,0.0-17.0-3.19,23773,List2A,white,man,,,,,"{""Q0"":""ruth and like are playing cards with each other""}","<img src=""stim_listA/play2.gif""style=""height:400px;""></stim_listA>",are playing with each other,
21050,"<img src='img/portrait_matrix_list2.jpg' style='width:900px;height:500px;''></img><p>If you have memorised all the portraits and names and are ready to start, press Continue.</p><p><strong>Please note: Your memory of these faces will be tested 4 times during this experiment.</strong></p>",0,html-button-response,306,2553650,0.0-18.0-0.0,23773,List2A,white,man,,,,,,,,
3592,"<img src=""portrait/WW2.jpg""style=""height:400px;""></img>",3,html-button-response,307,2558246,0.0-18.0-1.0,23773,List2A,white,man,,TRUE,3,,,,,
null,CORRECT,,html-keyboard-response,308,2559747,0.0-18.0-2.0-0.0,23773,List2A,white,man,,,,null,,,,
5384,"<img src=""portrait/WW1.jpg""style=""height:400px;""></img>",1,html-button-response,309,2565134,0.0-18.0-4.0,23773,List2A,white,man,,TRUE,1,,,,,
null,CORRECT,,html-keyboard-response,310,2566637,0.0-18.0-5.0-0.0,23773,List2A,white,man,,,,null,,,,
3827,"<img src=""portrait/WM1.jpg""style=""height:400px;""></img>",6,html-button-response,311,2570466,0.0-18.0-7.0,23773,List2A,white,man,,TRUE,6,,,,,
null,CORRECT,,html-keyboard-response,312,2571967,0.0-18.0-8.0-0.0,23773,List2A,white,man,,,,null,,,,
4249,"<img src=""portrait/WM2.jpg""style=""height:400px;""></img>",7,html-button-response,313,2576219,0.0-18.0-10.0,23773,List2A,white,man,,TRUE,7,,,,,
null,CORRECT,,html-keyboard-response,314,2577720,0.0-18.0-11.0-0.0,23773,List2A,white,man,,,,null,,,,
7066,"<img src=""portrait/BM1.jpg""style=""height:400px;""></img>",4,html-button-response,315,2584789,0.0-18.0-13.0,23773,List2A,white,man,,TRUE,4,,,,,
null,CORRECT,,html-keyboard-response,316,2586291,0.0-18.0-14.0-0.0,23773,List2A,white,man,,,,null,,,,
5281,"<img src=""portrait/BW2.jpg""style=""height:400px;""></img>",2,html-button-response,317,2591575,0.0-18.0-16.0,23773,List2A,white,man,,TRUE,2,,,,,
null,CORRECT,,html-keyboard-response,318,2593077,0.0-18.0-17.0-0.0,23773,List2A,white,man,,,,null,,,,
4599,"<img src=""portrait/BW1.jpg""style=""height:400px;""></img>",0,html-button-response,319,2597679,0.0-18.0-19.0,23773,List2A,white,man,,TRUE,0,,,,,
null,CORRECT,,html-keyboard-response,320,2599181,0.0-18.0-20.0-0.0,23773,List2A,white,man,,,,null,,,,
4186,"<img src=""portrait/BM2.jpg""style=""height:400px;""></img>",5,html-button-response,321,2603370,0.0-18.0-22.0,23773,List2A,white,man,,TRUE,5,,,,,
null,CORRECT,,html-keyboard-response,322,2604873,0.0-18.0-23.0-0.0,23773,List2A,white,man,,,,null,,,,
1671,<p>You got 8 out of 8 right first time. Press Continue.</p>,0,html-button-response,323,2606547,0.0-18.0-25.0,23773,List2A,white,man,,,,,,,,
null,"<div style=""font-size:60px;"">+</div>",,html-keyboard-response,324,2608049,0.0-19.0-0.0,23773,List2A,white,man,,,,null,,,,
null,"<img src=""stim_listA/flirt3.gif""style=""height:400px;""></stim_listA>",,html-keyboard-response,325,2610053,0.0-19.0-1.0,23773,List2A,white,man,,,,null,,,,
null,is flirting with,,html-keyboard-response,326,2612055,0.0-19.0-2.0,23773,List2A,white,man,,,,null,,,,
32555,,,survey-text,327,2644612,0.0-19.0-3.0,23773,List2A,white,man,,,,,"{""Q0"":""beth is flirting with kate""}","<img src=""stim_listA/flirt3.gif""style=""height:400px;""></stim_listA>",is flirting with,
null,"<div style=""font-size:60px;"">+</div>",,html-keyboard-response,328,2645114,0.0-19.0-0.1,23773,List2A,white,man,,,,null,,,,
null,"<img src=""stim_listA/touch2.gif""style=""height:400px;""></stim_listA>",,html-keyboard-response,329,2647120,0.0-19.0-1.1,23773,List2A,white,man,,,,null,,,,
null,are touching each other,,html-keyboard-response,330,2649121,0.0-19.0-2.1,23773,List2A,white,man,,,,null,,,,
17350,,,survey-text,331,2666474,0.0-19.0-3.1,23773,List2A,white,man,,,,,"{""Q0"":""luke and ruth are touching each other""}","<img src=""stim_listA/touch2.gif""style=""height:400px;""></stim_listA>",are touching each other,
null,"<div style=""font-size:60px;"">+</div>",,html-keyboard-response,332,2666976,0.0-19.0-0.2,23773,List2A,white,man,,,,null,,,,
null,"<img src=""stim_listA/talk2.gif""style=""height:400px;""></stim_listA>",,html-keyboard-response,333,2668980,0.0-19.0-1.2,23773,List2A,white,man,,,,null,,,,
null,are talking to each other,,html-keyboard-response,334,2670982,0.0-19.0-2.2,23773,List2A,white,man,,,,null,,,,
29082,,,survey-text,335,2700066,0.0-19.0-3.2,23773,List2A,white,man,,,,,"{""Q0"":""dave and ruth are talking to each other""}","<img src=""stim_listA/talk2.gif""style=""height:400px;""></stim_listA>",are talking to each other,
null,"<div style=""font-size:60px;"">+</div>",,html-keyboard-response,336,2700568,0.0-19.0-0.3,23773,List2A,white,man,,,,null,,,,
null,"<img src=""stim_listA/marry7.gif""style=""height:400px;""></stim_listA>",,html-keyboard-response,337,2702572,0.0-19.0-1.3,23773,List2A,white,man,,,,null,,,,
null,is marrying,,html-keyboard-response,338,2704572,0.0-19.0-2.3,23773,List2A,white,man,,,,null,,,,
23229,,,survey-text,339,2727803,0.0-19.0-3.3,23773,List2A,white,man,,,,,"{""Q0"":""kate is marrying jane""}","<img src=""stim_listA/marry7.gif""style=""height:400px;""></stim_listA>",is marrying,
null,"<div style=""font-size:60px;"">+</div>",,html-keyboard-response,340,2728305,0.0-19.0-0.4,23773,List2A,white,man,,,,null,,,,
null,"<img src=""stim_listA/shout8.gif""style=""height:400px;""></stim_listA>",,html-keyboard-response,341,2730309,0.0-19.0-1.4,23773,List2A,white,man,,,,null,,,,
null,are shouting at each other,,html-keyboard-response,342,2732310,0.0-19.0-2.4,23773,List2A,white,man,,,,null,,,,
19829,,,survey-text,343,2752141,0.0-19.0-3.4,23773,List2A,white,man,,,,,"{""Q0"":""kate and jane are shouting at each other""}","<img src=""stim_listA/shout8.gif""style=""height:400px;""></stim_listA>",are shouting at each other,
null,"<div style=""font-size:60px;"">+</div>",,html-keyboard-response,344,2752644,0.0-19.0-0.5,23773,List2A,white,man,,,,null,,,,
null,"<img src=""stim_listA/touch6.gif""style=""height:400px;""></stim_listA>",,html-keyboard-response,345,2754650,0.0-19.0-1.5,23773,List2A,white,man,,,,null,,,,
null,are touching each other,,html-keyboard-response,346,2756651,0.0-19.0-2.5,23773,List2A,white,man,,,,null,,,,
25743,,,survey-text,347,2782396,0.0-19.0-3.5,23773,List2A,white,man,,,,,"{""Q0"":""luke and fred are touching each other""}","<img src=""stim_listA/touch6.gif""style=""height:400px;""></stim_listA>",are touching each other,
null,"<div style=""font-size:60px;"">+</div>",,html-keyboard-response,348,2782898,0.0-19.0-0.6,23773,List2A,white,man,,,,null,,,,
null,"<img src=""stim_listA/play1.gif""style=""height:400px;""></stim_listA>",,html-keyboard-response,349,2784902,0.0-19.0-1.6,23773,List2A,white,man,,,,null,,,,
null,is playing with,,html-keyboard-response,350,2786903,0.0-19.0-2.6,23773,List2A,white,man,,,,null,,,,
32752,,,survey-text,351,2819658,0.0-19.0-3.6,23773,List2A,white,man,,,,,"{""Q0"":""jane is playing cards with dave""}","<img src=""stim_listA/play1.gif""style=""height:400px;""></stim_listA>",is playing with,
null,"<div style=""font-size:60px;"">+</div>",,html-keyboard-response,352,2820160,0.0-19.0-0.7,23773,List2A,white,man,,,,null,,,,
null,"<img src=""stim_listA/argue8.gif""style=""height:400px;""></stim_listA>",,html-keyboard-response,353,2822164,0.0-19.0-1.7,23773,List2A,white,man,,,,null,,,,
null,are arguing with each other,,html-keyboard-response,354,2824165,0.0-19.0-2.7,23773,List2A,white,man,,,,null,,,,
22828,,,survey-text,355,2846996,0.0-19.0-3.7,23773,List2A,white,man,,,,,"{""Q0"":""jane and kate are arguing with each other""}","<img src=""stim_listA/argue8.gif""style=""height:400px;""></stim_listA>",are arguing with each other,
null,"<div style=""font-size:60px;"">+</div>",,html-keyboard-response,356,2847498,0.0-19.0-0.8,23773,List2A,white,man,,,,null,,,,
null,"<img src=""stim_listA/shout3.gif""style=""height:400px;""></stim_listA>",,html-keyboard-response,357,2849501,0.0-19.0-1.8,23773,List2A,white,man,,,,null,,,,
null,is shouting at,,html-keyboard-response,358,2851502,0.0-19.0-2.8,23773,List2A,white,man,,,,null,,,,
19217,,,survey-text,359,2870720,0.0-19.0-3.8,23773,List2A,white,man,,,,,"{""Q0"":""beth is shouting at fred""}","<img src=""stim_listA/shout3.gif""style=""height:400px;""></stim_listA>",is shouting at,
null,"<div style=""font-size:60px;"">+</div>",,html-keyboard-response,360,2871222,0.0-19.0-0.9,23773,List2A,white,man,,,,null,,,,
null,"<img src=""stim_listA/fight7.gif""style=""height:400px;""></stim_listA>",,html-keyboard-response,361,2873225,0.0-19.0-1.9,23773,List2A,white,man,,,,null,,,,
null,is fighting,,html-keyboard-response,362,2875227,0.0-19.0-2.9,23773,List2A,white,man,,,,null,,,,
19332,,,survey-text,363,2894561,0.0-19.0-3.9,23773,List2A,white,man,,,,,"{""Q0"":""jane is fighting kate""}","<img src=""stim_listA/fight7.gif""style=""height:400px;""></stim_listA>",is fighting,
null,"<div style=""font-size:60px;"">+</div>",,html-keyboard-response,364,2895063,0.0-19.0-0.10,23773,List2A,white,man,,,,null,,,,
null,"<img src=""stim_listA/dance1.gif""style=""height:400px;""></stim_listA>",,html-keyboard-response,365,2897066,0.0-19.0-1.10,23773,List2A,white,man,,,,null,,,,
null,is dancing with,,html-keyboard-response,366,2899067,0.0-19.0-2.10,23773,List2A,white,man,,,,null,,,,
18458,,,survey-text,367,2917527,0.0-19.0-3.10,23773,List2A,white,man,,,,,"{""Q0"":""ruth is dancing with luke""}","<img src=""stim_listA/dance1.gif""style=""height:400px;""></stim_listA>",is dancing with,
null,"<div style=""font-size:60px;"">+</div>",,html-keyboard-response,368,2918028,0.0-19.0-0.11,23773,List2A,white,man,,,,null,,,,
null,"<img src=""stim_listA/marry8.gif""style=""height:400px;""></stim_listA>",,html-keyboard-response,369,2920031,0.0-19.0-1.11,23773,List2A,white,man,,,,null,,,,
null,are marrying each other,,html-keyboard-response,370,2922032,0.0-19.0-2.11,23773,List2A,white,man,,,,null,,,,
23487,,,survey-text,371,2945520,0.0-19.0-3.11,23773,List2A,white,man,,,,,"{""Q0"":""ruth and kate are marrying each other""}","<img src=""stim_listA/marry8.gif""style=""height:400px;""></stim_listA>",are marrying each other,
null,"<div style=""font-size:60px;"">+</div>",,html-keyboard-response,372,2946023,0.0-19.0-0.12,23773,List2A,white,man,,,,null,,,,
null,"<img src=""stim_listA/dance2.gif""style=""height:400px;""></stim_listA>",,html-keyboard-response,373,2948026,0.0-19.0-1.12,23773,List2A,white,man,,,,null,,,,
null,are dancing with each other,,html-keyboard-response,374,2950027,0.0-19.0-2.12,23773,List2A,white,man,,,,null,,,,
21144,,,survey-text,375,2971174,0.0-19.0-3.12,23773,List2A,white,man,,,,,"{""Q0"":""dave and ruth are dancing with each other""}","<img src=""stim_listA/dance2.gif""style=""height:400px;""></stim_listA>",are dancing with each other,
null,"<div style=""font-size:60px;"">+</div>",,html-keyboard-response,376,2971676,0.0-19.0-0.13,23773,List2A,white,man,,,,null,,,,
null,"<img src=""stim_listA/flirt8.gif""style=""height:400px;""></stim_listA>",,html-keyboard-response,377,2973681,0.0-19.0-1.13,23773,List2A,white,man,,,,null,,,,
null,are flirting with each other,,html-keyboard-response,378,2975683,0.0-19.0-2.13,23773,List2A,white,man,,,,null,,,,
22762,,,survey-text,379,2998447,0.0-19.0-3.13,23773,List2A,white,man,,,,,"{""Q0"":""jane and kate are flirting with each other""}","<img src=""stim_listA/flirt8.gif""style=""height:400px;""></stim_listA>",are flirting with each other,
null,"<div style=""font-size:60px;"">+</div>",,html-keyboard-response,380,2998948,0.0-19.0-0.14,23773,List2A,white,man,,,,null,,,,
null,"<img src=""stim_listA/flirt2.gif""style=""height:400px;""></stim_listA>",,html-keyboard-response,381,3000951,0.0-19.0-1.14,23773,List2A,white,man,,,,null,,,,
null,are flirting with each other,,html-keyboard-response,382,3002956,0.0-19.0-2.14,23773,List2A,white,man,,,,null,,,,
19822,,,survey-text,383,3022780,0.0-19.0-3.14,23773,List2A,white,man,,,,,"{""Q0"":""dave and ruth are flirting with each other""}","<img src=""stim_listA/flirt2.gif""style=""height:400px;""></stim_listA>",are flirting with each other,
null,"<div style=""font-size:60px;"">+</div>",,html-keyboard-response,384,3023282,0.0-19.0-0.15,23773,List2A,white,man,,,,null,,,,
null,"<img src=""stim_listA/fight6.gif""style=""height:400px;""></stim_listA>",,html-keyboard-response,385,3025289,0.0-19.0-1.15,23773,List2A,white,man,,,,null,,,,
null,are fighting each other,,html-keyboard-response,386,3027290,0.0-19.0-2.15,23773,List2A,white,man,,,,null,,,,
16383,,,survey-text,387,3043675,0.0-19.0-3.15,23773,List2A,white,man,,,,,"{""Q0"":""luke and fred are fighting each other""}","<img src=""stim_listA/fight6.gif""style=""height:400px;""></stim_listA>",are fighting each other,
null,"<div style=""font-size:60px;"">+</div>",,html-keyboard-response,388,3044176,0.0-19.0-0.16,23773,List2A,white,man,,,,null,,,,
null,"<img src=""stim_listA/play3.gif""style=""height:400px;""></stim_listA>",,html-keyboard-response,389,3046179,0.0-19.0-1.16,23773,List2A,white,man,,,,null,,,,
null,is playing with,,html-keyboard-response,390,3048181,0.0-19.0-2.16,23773,List2A,white,man,,,,null,,,,
18240,,,survey-text,391,3066424,0.0-19.0-3.16,23773,List2A,white,man,,,,,"{""Q0"":""mike is playing cards with beth""}","<img src=""stim_listA/play3.gif""style=""height:400px;""></stim_listA>",is playing with,
null,"<div style=""font-size:60px;"">+</div>",,html-keyboard-response,392,3066925,0.0-19.0-0.17,23773,List2A,white,man,,,,null,,,,
null,"<img src=""stim_listA/marry1.gif""style=""height:400px;""></stim_listA>",,html-keyboard-response,393,3068928,0.0-19.0-1.17,23773,List2A,white,man,,,,null,,,,
null,is marrying,,html-keyboard-response,394,3070930,0.0-19.0-2.17,23773,List2A,white,man,,,,null,,,,
19584,,,survey-text,395,3090517,0.0-19.0-3.17,23773,List2A,white,man,,,,,"{""Q0"":""dave is marrying ruth""}","<img src=""stim_listA/marry1.gif""style=""height:400px;""></stim_listA>",is marrying,
null,"<div style=""font-size:60px;"">+</div>",,html-keyboard-response,396,3091019,0.0-19.0-0.18,23773,List2A,white,man,,,,null,,,,
null,"<img src=""stim_listA/dance5.gif""style=""height:400px;""></stim_listA>",,html-keyboard-response,397,3093022,0.0-19.0-1.18,23773,List2A,white,man,,,,null,,,,
null,is dancing with,,html-keyboard-response,398,3095023,0.0-19.0-2.18,23773,List2A,white,man,,,,null,,,,
18750,,,survey-text,399,3113775,0.0-19.0-3.18,23773,List2A,white,man,,,,,"{""Q0"":""luke is dancing with mike""}","<img src=""stim_listA/dance5.gif""style=""height:400px;""></stim_listA>",is dancing with,
null,"<div style=""font-size:60px;"">+</div>",,html-keyboard-response,400,3114277,0.0-19.0-0.19,23773,List2A,white,man,,,,null,,,,
null,"<img src=""stim_listA/kiss5.gif""style=""height:400px;""></stim_listA>",,html-keyboard-response,401,3116281,0.0-19.0-1.19,23773,List2A,white,man,,,,null,,,,
null,is kissing,,html-keyboard-response,402,3118285,0.0-19.0-2.19,23773,List2A,white,man,,,,null,,,,
19261,,,survey-text,403,3137548,0.0-19.0-3.19,23773,List2A,white,man,,,,,"{""Q0"":""luke is kissing fred""}","<img src=""stim_listA/kiss5.gif""style=""height:400px;""></stim_listA>",is kissing,
2836,<p>Thank you for completing that task.</p><p>The final part of this session is a short questionnaire.</p><p>Press Continue.</p>,0,html-button-response,404,3140387,0.0-20.0,23773,List2A,white,man,,,,,,,,
28965,,,survey-text,405,3170357,0.0-21.0,23773,List2A,white,man,,,,,"{""Q0"":""41"",""Q1"":""English"",""Q2"":""English"",""Q3"":""England"",""Q4"":""White"",""Q5"":""Male""}",,,demographics
15421,,,survey-likert,406,3185784,0.0-22.0,23773,List2A,white,man,,,,,"{""Q0"":4}",,,likert_ESS
7570,,,survey-likert,407,3193365,0.0-23.0,23773,List2A,white,man,,,,,"{""Q0"":4}",,,likert_NSSAL_Q1
3537,,,survey-likert,408,3196914,0.0-24.0,23773,List2A,white,man,,,,,"{""Q0"":4}",,,likert_NSSAL_Q2
3949,,,survey-likert,409,3200872,0.0-25.0,23773,List2A,white,man,,,,,"{""Q0"":4}",,,likert_CGRS_Q1
4000,,,survey-likert,410,3204883,0.0-26.0,23773,List2A,white,man,,,,,"{""Q0"":4}",,,likert_CGRS_Q2
3227,,,survey-likert,411,3208121,0.0-27.0,23773,List2A,white,man,,,,,"{""Q0"":4}",,,likert_CGRS_Q3
10419,,,survey-text,412,3218551,0.0-28.0,23773,List2A,white,man,,,,,"{""Q0"":""ccc""}",,,worker_id
7834,,,external-html,413,3226533,0.0-29.0,23773,List2A,white,man,debrief.html,,,,,,,
