rt,stimulus,button_pressed,trial_type,trial_index,time_elapsed,internal_node_id,subject,list,ppt_race,ppt_gender,url,first_guess,correct,key_press,responses,image_type,phrase_type,test_part
1769,Welcome to the experiment. Press Continue to begin.,0,html-button-response,0,1776,0.0-0.0,23825,List2A,black,woman,,,,,,,,
5748,,,external-html,1,8712,0.0-1.0,23825,List2A,black,woman,consent.html,,,,,,,
18576,"<p>On the next page, you will see portraits of 8 people and their names.</p><p>Your first task is to take a few minutes to memorise the names of these people.</p><p>You will have to recall their names during the rest of the experiment, so it is</p><p>essential that you try to memorise these people and their names as best as you can.</p><br><p><strong>You will then be tested on your memory of these names and portraits.</strong></p><br><p>The experiment will start after you have completed this memory test.</p><br><p>Ready?</p>",0,html-button-response,2,27293,0.0-2.0,23825,List2A,black,woman,,,,,,,,
81297,"<img src='img/portrait_matrix_list2.jpg' style='width:900px;height:500px;''></img><p>If you have memorised all the portraits and names and are ready to start, press Continue.</p><p><strong>Please note: Your memory of these faces will be tested 4 times during this experiment.</strong></p>",0,html-button-response,3,109599,0.0-3.0-0.0,23825,List2A,black,woman,,,,,,,,
2991,"<img src=""portrait/BW1.jpg""style=""height:400px;""></img>",0,html-button-response,4,113597,0.0-3.0-1.0,23825,List2A,black,woman,,TRUE,0,,,,,
null,CORRECT,,html-keyboard-response,5,115109,0.0-3.0-2.0-0.0,23825,List2A,black,woman,,,,null,,,,
3038,"<img src=""portrait/BM2.jpg""style=""height:400px;""></img>",5,html-button-response,6,118153,0.0-3.0-4.0,23825,List2A,black,woman,,TRUE,5,,,,,
null,CORRECT,,html-keyboard-response,7,119664,0.0-3.0-5.0-0.0,23825,List2A,black,woman,,,,null,,,,
5210,"<img src=""portrait/WM1.jpg""style=""height:400px;""></img>",6,html-button-response,8,124880,0.0-3.0-7.0,23825,List2A,black,woman,,TRUE,6,,,,,
null,CORRECT,,html-keyboard-response,9,126383,0.0-3.0-8.0-0.0,23825,List2A,black,woman,,,,null,,,,
3472,"<img src=""portrait/BM1.jpg""style=""height:400px;""></img>",4,html-button-response,10,129859,0.0-3.0-10.0,23825,List2A,black,woman,,TRUE,4,,,,,
null,CORRECT,,html-keyboard-response,11,131370,0.0-3.0-11.0-0.0,23825,List2A,black,woman,,,,null,,,,
2133,"<img src=""portrait/WM2.jpg""style=""height:400px;""></img>",7,html-button-response,12,133507,0.0-3.0-13.0,23825,List2A,black,woman,,TRUE,7,,,,,
null,CORRECT,,html-keyboard-response,13,135014,0.0-3.0-14.0-0.0,23825,List2A,black,woman,,,,null,,,,
3317,"<img src=""portrait/WW1.jpg""style=""height:400px;""></img>",1,html-button-response,14,138335,0.0-3.0-16.0,23825,List2A,black,woman,,TRUE,1,,,,,
null,CORRECT,,html-keyboard-response,15,139839,0.0-3.0-17.0-0.0,23825,List2A,black,woman,,,,null,,,,
2239,"<img src=""portrait/WW2.jpg""style=""height:400px;""></img>",3,html-button-response,16,142082,0.0-3.0-19.0,23825,List2A,black,woman,,TRUE,3,,,,,
null,CORRECT,,html-keyboard-response,17,143591,0.0-3.0-20.0-0.0,23825,List2A,black,woman,,,,null,,,,
2006,"<img src=""portrait/BW2.jpg""style=""height:400px;""></img>",2,html-button-response,18,145601,0.0-3.0-22.0,23825,List2A,black,woman,,TRUE,2,,,,,
null,CORRECT,,html-keyboard-response,19,147108,0.0-3.0-23.0-0.0,23825,List2A,black,woman,,,,null,,,,
1565,<p>You got 8 out of 8 right first time. Press Continue.</p>,0,html-button-response,20,148678,0.0-3.0-25.0,23825,List2A,black,woman,,,,,,,,
21394,"<p>In this experiment, you will view photographs of the people from the memory game interacting.</p><p>By using the <strong>exact</strong> phrase given <i>after</i> the photograph appears and recalling the correct names of the people in the photographs, form a sentence describing the interaction. You do not need to capitalise names.</p><p>Type your answer in the space provided. Please complete every sentence before moving onto the next trial.</p><p>You will only have a few seconds to memorise each given photograph and phrase before you can respond, so try your best to focus.</p><p>An example is given below. Press 'Continue' when you are ready.</p><img src='img/speaking_example.jpg' style='width:800px;height:460px;''></img>",0,html-button-response,21,171083,0.0-4.0,23825,List2A,black,woman,,,,,,,,
1911,"<p>Before the experiment starts, you will watch two example trials. Press 'Continue'.</p>",0,html-button-response,22,174001,0.0-5.0,23825,List2A,black,woman,,,,,,,,
null,<img src='img/meet_eg.gif' style='height:400px;''></img>,,html-keyboard-response,23,177010,0.0-6.0,23825,List2A,black,woman,,,,null,,,,
null,<p>is meeting</p>,,html-keyboard-response,24,179015,0.0-7.0,23825,List2A,black,woman,,,,null,,,,
2979,<p><b>Answer:</b> jane is meeting ruth</p>,0,html-button-response,25,181998,0.0-8.0,23825,List2A,black,woman,,,,,,,,
null,<img src='img/look_eg.gif' style='height:400px;''></img>,,html-keyboard-response,26,185006,0.0-9.0,23825,List2A,black,woman,,,,null,,,,
null,<p>are looking at each other</p>,,html-keyboard-response,27,187011,0.0-10.0,23825,List2A,black,woman,,,,null,,,,
1671,<p><b>Answer:</b> fred and mike are looking at each other</p>,0,html-button-response,28,188686,0.0-11.0,23825,List2A,black,woman,,,,,,,,
14617,"<p>Ready to start the experiment?</p><br><p><strong>Remember to describe the picture using a full sentence,</strong></p><p><strong>that combines the names of the people with the <i>exact</i> phrase given.</strong></p><p><strong>To receive full payment you must do this correctly.</strong></p><p><strong> You do not need to capitalise names or use punctuation.</strong></p><br><p>Press 'Continue' to begin.</p>",0,html-button-response,29,204312,0.0-12.0,23825,List2A,black,woman,,,,,,,,
null,"<div style=""font-size:60px;"">+</div>",,html-keyboard-response,30,205822,0.0-13.0-0.0,23825,List2A,black,woman,,,,null,,,,
null,"<img src=""stim_listA/play6.gif""style=""height:400px;""></stim_listA>",,html-keyboard-response,31,207830,0.0-13.0-1.0,23825,List2A,black,woman,,,,null,,,,
null,are playing with each other,,html-keyboard-response,32,209835,0.0-13.0-2.0,23825,List2A,black,woman,,,,null,,,,
8974,,,survey-text,33,218813,0.0-13.0-3.0,23825,List2A,black,woman,,,,,"{""Q0"":""luke and fred are playing with each other""}","<img src=""stim_listA/play6.gif""style=""height:400px;""></stim_listA>",are playing with each other,
null,"<div style=""font-size:60px;"">+</div>",,html-keyboard-response,34,219320,0.0-13.0-0.1,23825,List2A,black,woman,,,,null,,,,
null,"<img src=""stim_listA/flirt4.gif""style=""height:400px;""></stim_listA>",,html-keyboard-response,35,221325,0.0-13.0-1.1,23825,List2A,black,woman,,,,null,,,,
null,are flirting with each other,,html-keyboard-response,36,223328,0.0-13.0-2.1,23825,List2A,black,woman,,,,null,,,,
8238,,,survey-text,37,231568,0.0-13.0-3.1,23825,List2A,black,woman,,,,,"{""Q0"":""kate and mike are flirting with each other""}","<img src=""stim_listA/flirt4.gif""style=""height:400px;""></stim_listA>",are flirting with each other,
null,"<div style=""font-size:60px;"">+</div>",,html-keyboard-response,38,232072,0.0-13.0-0.2,23825,List2A,black,woman,,,,null,,,,
null,"<img src=""stim_listA/argue1.gif""style=""height:400px;""></stim_listA>",,html-keyboard-response,39,234077,0.0-13.0-1.2,23825,List2A,black,woman,,,,null,,,,
null,is arguing with,,html-keyboard-response,40,236082,0.0-13.0-2.2,23825,List2A,black,woman,,,,null,,,,
17288,,,survey-text,41,253374,0.0-13.0-3.2,23825,List2A,black,woman,,,,,"{""Q0"":""ruth is arguing with dave""}","<img src=""stim_listA/argue1.gif""style=""height:400px;""></stim_listA>",is arguing with,
null,"<div style=""font-size:60px;"">+</div>",,html-keyboard-response,42,253879,0.0-13.0-0.3,23825,List2A,black,woman,,,,null,,,,
null,"<img src=""stim_listA/marry7.gif""style=""height:400px;""></stim_listA>",,html-keyboard-response,43,255887,0.0-13.0-1.3,23825,List2A,black,woman,,,,null,,,,
null,is marrying,,html-keyboard-response,44,257892,0.0-13.0-2.3,23825,List2A,black,woman,,,,null,,,,
8034,,,survey-text,45,265929,0.0-13.0-3.3,23825,List2A,black,woman,,,,,"{""Q0"":""jane is marrying kate""}","<img src=""stim_listA/marry7.gif""style=""height:400px;""></stim_listA>",is marrying,
null,"<div style=""font-size:60px;"">+</div>",,html-keyboard-response,46,266436,0.0-13.0-0.4,23825,List2A,black,woman,,,,null,,,,
null,"<img src=""stim_listA/dance6.gif""style=""height:400px;""></stim_listA>",,html-keyboard-response,47,268440,0.0-13.0-1.4,23825,List2A,black,woman,,,,null,,,,
null,are dancing with each other,,html-keyboard-response,48,270444,0.0-13.0-2.4,23825,List2A,black,woman,,,,null,,,,
7087,,,survey-text,49,277533,0.0-13.0-3.4,23825,List2A,black,woman,,,,,"{""Q0"":""fred is dancing with dave""}","<img src=""stim_listA/dance6.gif""style=""height:400px;""></stim_listA>",are dancing with each other,
null,"<div style=""font-size:60px;"">+</div>",,html-keyboard-response,50,278037,0.0-13.0-0.5,23825,List2A,black,woman,,,,null,,,,
null,"<img src=""stim_listA/argue5.gif""style=""height:400px;""></stim_listA>",,html-keyboard-response,51,280043,0.0-13.0-1.5,23825,List2A,black,woman,,,,null,,,,
null,is arguing with,,html-keyboard-response,52,282050,0.0-13.0-2.5,23825,List2A,black,woman,,,,null,,,,
6411,,,survey-text,53,288463,0.0-13.0-3.5,23825,List2A,black,woman,,,,,"{""Q0"":""fred is arguing with mike""}","<img src=""stim_listA/argue5.gif""style=""height:400px;""></stim_listA>",is arguing with,
null,"<div style=""font-size:60px;"">+</div>",,html-keyboard-response,54,288969,0.0-13.0-0.6,23825,List2A,black,woman,,,,null,,,,
null,"<img src=""stim_listA/dance2.gif""style=""height:400px;""></stim_listA>",,html-keyboard-response,55,290976,0.0-13.0-1.6,23825,List2A,black,woman,,,,null,,,,
null,are dancing with each other,,html-keyboard-response,56,292979,0.0-13.0-2.6,23825,List2A,black,woman,,,,null,,,,
8199,,,survey-text,57,301181,0.0-13.0-3.6,23825,List2A,black,woman,,,,,"{""Q0"":""ruth is dancing with dave""}","<img src=""stim_listA/dance2.gif""style=""height:400px;""></stim_listA>",are dancing with each other,
null,"<div style=""font-size:60px;"">+</div>",,html-keyboard-response,58,301688,0.0-13.0-0.7,23825,List2A,black,woman,,,,null,,,,
null,"<img src=""stim_listA/flirt7.gif""style=""height:400px;""></stim_listA>",,html-keyboard-response,59,303695,0.0-13.0-1.7,23825,List2A,black,woman,,,,null,,,,
null,is flirting with,,html-keyboard-response,60,305697,0.0-13.0-2.7,23825,List2A,black,woman,,,,null,,,,
6768,,,survey-text,61,312469,0.0-13.0-3.7,23825,List2A,black,woman,,,,,"{""Q0"":""ruth is flirting with kate""}","<img src=""stim_listA/flirt7.gif""style=""height:400px;""></stim_listA>",is flirting with,
null,"<div style=""font-size:60px;"">+</div>",,html-keyboard-response,62,312974,0.0-13.0-0.8,23825,List2A,black,woman,,,,null,,,,
null,"<img src=""stim_listA/play2.gif""style=""height:400px;""></stim_listA>",,html-keyboard-response,63,314980,0.0-13.0-1.8,23825,List2A,black,woman,,,,null,,,,
null,are playing with each other,,html-keyboard-response,64,316984,0.0-13.0-2.8,23825,List2A,black,woman,,,,null,,,,
8268,,,survey-text,65,325256,0.0-13.0-3.8,23825,List2A,black,woman,,,,,"{""Q0"":""ruth is playing with mike""}","<img src=""stim_listA/play2.gif""style=""height:400px;""></stim_listA>",are playing with each other,
null,"<div style=""font-size:60px;"">+</div>",,html-keyboard-response,66,325766,0.0-13.0-0.9,23825,List2A,black,woman,,,,null,,,,
null,"<img src=""stim_listA/dance3.gif""style=""height:400px;""></stim_listA>",,html-keyboard-response,67,327772,0.0-13.0-1.9,23825,List2A,black,woman,,,,null,,,,
null,is dancing with,,html-keyboard-response,68,329777,0.0-13.0-2.9,23825,List2A,black,woman,,,,null,,,,
5931,,,survey-text,69,335711,0.0-13.0-3.9,23825,List2A,black,woman,,,,,"{""Q0"":""fred is dancing with kate""}","<img src=""stim_listA/dance3.gif""style=""height:400px;""></stim_listA>",is dancing with,
null,"<div style=""font-size:60px;"">+</div>",,html-keyboard-response,70,336216,0.0-13.0-0.10,23825,List2A,black,woman,,,,null,,,,
null,"<img src=""stim_listA/kiss4.gif""style=""height:400px;""></stim_listA>",,html-keyboard-response,71,338222,0.0-13.0-1.10,23825,List2A,black,woman,,,,null,,,,
null,are kissing each other,,html-keyboard-response,72,340226,0.0-13.0-2.10,23825,List2A,black,woman,,,,null,,,,
10637,,,survey-text,73,350865,0.0-13.0-3.10,23825,List2A,black,woman,,,,,"{""Q0"":""mike and kate are kissing each other""}","<img src=""stim_listA/kiss4.gif""style=""height:400px;""></stim_listA>",are kissing each other,
null,"<div style=""font-size:60px;"">+</div>",,html-keyboard-response,74,351371,0.0-13.0-0.11,23825,List2A,black,woman,,,,null,,,,
null,"<img src=""stim_listA/talk5.gif""style=""height:400px;""></stim_listA>",,html-keyboard-response,75,353378,0.0-13.0-1.11,23825,List2A,black,woman,,,,null,,,,
null,is talking to,,html-keyboard-response,76,355382,0.0-13.0-2.11,23825,List2A,black,woman,,,,null,,,,
13688,,,survey-text,77,369073,0.0-13.0-3.11,23825,List2A,black,woman,,,,,"{""Q0"":""luke and mike are talking to each other""}","<img src=""stim_listA/talk5.gif""style=""height:400px;""></stim_listA>",is talking to,
null,"<div style=""font-size:60px;"">+</div>",,html-keyboard-response,78,369578,0.0-13.0-0.12,23825,List2A,black,woman,,,,null,,,,
null,"<img src=""stim_listA/fight2.gif""style=""height:400px;""></stim_listA>",,html-keyboard-response,79,371583,0.0-13.0-1.12,23825,List2A,black,woman,,,,null,,,,
null,are fighting each other,,html-keyboard-response,80,373587,0.0-13.0-2.12,23825,List2A,black,woman,,,,null,,,,
10036,,,survey-text,81,383626,0.0-13.0-3.12,23825,List2A,black,woman,,,,,"{""Q0"":""rith and luke are fighting with each other""}","<img src=""stim_listA/fight2.gif""style=""height:400px;""></stim_listA>",are fighting each other,
null,"<div style=""font-size:60px;"">+</div>",,html-keyboard-response,82,384133,0.0-13.0-0.13,23825,List2A,black,woman,,,,null,,,,
null,"<img src=""stim_listA/kiss5.gif""style=""height:400px;""></stim_listA>",,html-keyboard-response,83,386141,0.0-13.0-1.13,23825,List2A,black,woman,,,,null,,,,
null,is kissing,,html-keyboard-response,84,388145,0.0-13.0-2.13,23825,List2A,black,woman,,,,null,,,,
5728,,,survey-text,85,393875,0.0-13.0-3.13,23825,List2A,black,woman,,,,,"{""Q0"":""mike is kissing fred""}","<img src=""stim_listA/kiss5.gif""style=""height:400px;""></stim_listA>",is kissing,
null,"<div style=""font-size:60px;"">+</div>",,html-keyboard-response,86,394382,0.0-13.0-0.14,23825,List2A,black,woman,,,,null,,,,
null,"<img src=""stim_listA/kiss8.gif""style=""height:400px;""></stim_listA>",,html-keyboard-response,87,396388,0.0-13.0-1.14,23825,List2A,black,woman,,,,null,,,,
null,are kissing each other,,html-keyboard-response,88,398393,0.0-13.0-2.14,23825,List2A,black,woman,,,,null,,,,
9809,,,survey-text,89,408204,0.0-13.0-3.14,23825,List2A,black,woman,,,,,"{""Q0"":""kate and jane are kissing each other""}","<img src=""stim_listA/kiss8.gif""style=""height:400px;""></stim_listA>",are kissing each other,
null,"<div style=""font-size:60px;"">+</div>",,html-keyboard-response,90,408708,0.0-13.0-0.15,23825,List2A,black,woman,,,,null,,,,
null,"<img src=""stim_listA/fight8.gif""style=""height:400px;""></stim_listA>",,html-keyboard-response,91,410716,0.0-13.0-1.15,23825,List2A,black,woman,,,,null,,,,
null,are fighting each other,,html-keyboard-response,92,412721,0.0-13.0-2.15,23825,List2A,black,woman,,,,null,,,,
11777,,,survey-text,93,424500,0.0-13.0-3.15,23825,List2A,black,woman,,,,,"{""Q0"":""beth and ruth are fighting each other""}","<img src=""stim_listA/fight8.gif""style=""height:400px;""></stim_listA>",are fighting each other,
null,"<div style=""font-size:60px;"">+</div>",,html-keyboard-response,94,425015,0.0-13.0-0.16,23825,List2A,black,woman,,,,null,,,,
null,"<img src=""stim_listA/touch5.gif""style=""height:400px;""></stim_listA>",,html-keyboard-response,95,427021,0.0-13.0-1.16,23825,List2A,black,woman,,,,null,,,,
null,is touching,,html-keyboard-response,96,429027,0.0-13.0-2.16,23825,List2A,black,woman,,,,null,,,,
5978,,,survey-text,97,435008,0.0-13.0-3.16,23825,List2A,black,woman,,,,,"{""Q0"":""mike is touching dave""}","<img src=""stim_listA/touch5.gif""style=""height:400px;""></stim_listA>",is touching,
null,"<div style=""font-size:60px;"">+</div>",,html-keyboard-response,98,435513,0.0-13.0-0.17,23825,List2A,black,woman,,,,null,,,,
null,"<img src=""stim_listA/kiss7.gif""style=""height:400px;""></stim_listA>",,html-keyboard-response,99,437519,0.0-13.0-1.17,23825,List2A,black,woman,,,,null,,,,
null,is kissing,,html-keyboard-response,100,439522,0.0-13.0-2.17,23825,List2A,black,woman,,,,null,,,,
4888,,,survey-text,101,444412,0.0-13.0-3.17,23825,List2A,black,woman,,,,,"{""Q0"":""beth is kissing ruth""}","<img src=""stim_listA/kiss7.gif""style=""height:400px;""></stim_listA>",is kissing,
null,"<div style=""font-size:60px;"">+</div>",,html-keyboard-response,102,444919,0.0-13.0-0.18,23825,List2A,black,woman,,,,null,,,,
null,"<img src=""stim_listA/dance7.gif""style=""height:400px;""></stim_listA>",,html-keyboard-response,103,446927,0.0-13.0-1.18,23825,List2A,black,woman,,,,null,,,,
null,is dancing with,,html-keyboard-response,104,448932,0.0-13.0-2.18,23825,List2A,black,woman,,,,null,,,,
6815,,,survey-text,105,455750,0.0-13.0-3.18,23825,List2A,black,woman,,,,,"{""Q0"":""ruth is dancing with kate""}","<img src=""stim_listA/dance7.gif""style=""height:400px;""></stim_listA>",is dancing with,
null,"<div style=""font-size:60px;"">+</div>",,html-keyboard-response,106,456254,0.0-13.0-0.19,23825,List2A,black,woman,,,,null,,,,
null,"<img src=""stim_listA/shout1.gif""style=""height:400px;""></stim_listA>",,html-keyboard-response,107,458260,0.0-13.0-1.19,23825,List2A,black,woman,,,,null,,,,
null,is shouting at,,html-keyboard-response,108,460263,0.0-13.0-2.19,23825,List2A,black,woman,,,,null,,,,
8119,,,survey-text,109,468384,0.0-13.0-3.19,23825,List2A,black,woman,,,,,"{""Q0"":""ruth is shouting at luke""}","<img src=""stim_listA/shout1.gif""style=""height:400px;""></stim_listA>",is shouting at,
11812,"<img src='img/portrait_matrix_list2.jpg' style='width:900px;height:500px;''></img><p>If you have memorised all the portraits and names and are ready to start, press Continue.</p><p><strong>Please note: Your memory of these faces will be tested 4 times during this experiment.</strong></p>",0,html-button-response,110,480199,0.0-14.0-0.0,23825,List2A,black,woman,,,,,,,,
1736,"<img src=""portrait/BW2.jpg""style=""height:400px;""></img>",2,html-button-response,111,482943,0.0-14.0-1.0,23825,List2A,black,woman,,TRUE,2,,,,,
null,CORRECT,,html-keyboard-response,112,484450,0.0-14.0-2.0-0.0,23825,List2A,black,woman,,,,null,,,,
2600,"<img src=""portrait/WM1.jpg""style=""height:400px;""></img>",6,html-button-response,113,487054,0.0-14.0-4.0,23825,List2A,black,woman,,TRUE,6,,,,,
null,CORRECT,,html-keyboard-response,114,488562,0.0-14.0-5.0-0.0,23825,List2A,black,woman,,,,null,,,,
1823,"<img src=""portrait/WW2.jpg""style=""height:400px;""></img>",3,html-button-response,115,490389,0.0-14.0-7.0,23825,List2A,black,woman,,TRUE,3,,,,,
null,CORRECT,,html-keyboard-response,116,491898,0.0-14.0-8.0-0.0,23825,List2A,black,woman,,,,null,,,,
3109,"<img src=""portrait/WM2.jpg""style=""height:400px;""></img>",7,html-button-response,117,495011,0.0-14.0-10.0,23825,List2A,black,woman,,TRUE,7,,,,,
null,CORRECT,,html-keyboard-response,118,496519,0.0-14.0-11.0-0.0,23825,List2A,black,woman,,,,null,,,,
1876,"<img src=""portrait/WW1.jpg""style=""height:400px;""></img>",1,html-button-response,119,498398,0.0-14.0-13.0,23825,List2A,black,woman,,TRUE,1,,,,,
null,CORRECT,,html-keyboard-response,120,499903,0.0-14.0-14.0-0.0,23825,List2A,black,woman,,,,null,,,,
1612,"<img src=""portrait/BW1.jpg""style=""height:400px;""></img>",0,html-button-response,121,501520,0.0-14.0-16.0,23825,List2A,black,woman,,TRUE,0,,,,,
null,CORRECT,,html-keyboard-response,122,503028,0.0-14.0-17.0-0.0,23825,List2A,black,woman,,,,null,,,,
1861,"<img src=""portrait/BM1.jpg""style=""height:400px;""></img>",4,html-button-response,123,504893,0.0-14.0-19.0,23825,List2A,black,woman,,TRUE,4,,,,,
null,CORRECT,,html-keyboard-response,124,506397,0.0-14.0-20.0-0.0,23825,List2A,black,woman,,,,null,,,,
2030,"<img src=""portrait/BM2.jpg""style=""height:400px;""></img>",5,html-button-response,125,508433,0.0-14.0-22.0,23825,List2A,black,woman,,TRUE,5,,,,,
null,CORRECT,,html-keyboard-response,126,509943,0.0-14.0-23.0-0.0,23825,List2A,black,woman,,,,null,,,,
1188,<p>You got 8 out of 8 right first time. Press Continue.</p>,0,html-button-response,127,511134,0.0-14.0-25.0,23825,List2A,black,woman,,,,,,,,
null,"<div style=""font-size:60px;"">+</div>",,html-keyboard-response,128,512647,0.0-15.0-0.0,23825,List2A,black,woman,,,,null,,,,
null,"<img src=""stim_listA/play1.gif""style=""height:400px;""></stim_listA>",,html-keyboard-response,129,514651,0.0-15.0-1.0,23825,List2A,black,woman,,,,null,,,,
null,is playing with,,html-keyboard-response,130,516653,0.0-15.0-2.0,23825,List2A,black,woman,,,,null,,,,
10495,,,survey-text,131,527151,0.0-15.0-3.0,23825,List2A,black,woman,,,,,"{""Q0"":""jane is playing with dave""}","<img src=""stim_listA/play1.gif""style=""height:400px;""></stim_listA>",is playing with,
null,"<div style=""font-size:60px;"">+</div>",,html-keyboard-response,132,527658,0.0-15.0-0.1,23825,List2A,black,woman,,,,null,,,,
null,"<img src=""stim_listA/shout5.gif""style=""height:400px;""></stim_listA>",,html-keyboard-response,133,529663,0.0-15.0-1.1,23825,List2A,black,woman,,,,null,,,,
null,is shouting at,,html-keyboard-response,134,531666,0.0-15.0-2.1,23825,List2A,black,woman,,,,null,,,,
6765,,,survey-text,135,538435,0.0-15.0-3.1,23825,List2A,black,woman,,,,,"{""Q0"":""fred is shouting at luke""}","<img src=""stim_listA/shout5.gif""style=""height:400px;""></stim_listA>",is shouting at,
null,"<div style=""font-size:60px;"">+</div>",,html-keyboard-response,136,538938,0.0-15.0-0.2,23825,List2A,black,woman,,,,null,,,,
null,"<img src=""stim_listA/talk8.gif""style=""height:400px;""></stim_listA>",,html-keyboard-response,137,540944,0.0-15.0-1.2,23825,List2A,black,woman,,,,null,,,,
null,are talking to each other,,html-keyboard-response,138,542948,0.0-15.0-2.2,23825,List2A,black,woman,,,,null,,,,
9760,,,survey-text,139,552711,0.0-15.0-3.2,23825,List2A,black,woman,,,,,"{""Q0"":""jane and beth are talking to each other""}","<img src=""stim_listA/talk8.gif""style=""height:400px;""></stim_listA>",are talking to each other,
null,"<div style=""font-size:60px;"">+</div>",,html-keyboard-response,140,553217,0.0-15.0-0.3,23825,List2A,black,woman,,,,null,,,,
null,"<img src=""stim_listA/talk3.gif""style=""height:400px;""></stim_listA>",,html-keyboard-response,141,555221,0.0-15.0-1.3,23825,List2A,black,woman,,,,null,,,,
null,is talking to,,html-keyboard-response,142,557224,0.0-15.0-2.3,23825,List2A,black,woman,,,,null,,,,
8572,,,survey-text,143,565798,0.0-15.0-3.3,23825,List2A,black,woman,,,,,"{""Q0"":""kate is talking to fred""}","<img src=""stim_listA/talk3.gif""style=""height:400px;""></stim_listA>",is talking to,
null,"<div style=""font-size:60px;"">+</div>",,html-keyboard-response,144,566305,0.0-15.0-0.4,23825,List2A,black,woman,,,,null,,,,
null,"<img src=""stim_listA/play7.gif""style=""height:400px;""></stim_listA>",,html-keyboard-response,145,568312,0.0-15.0-1.4,23825,List2A,black,woman,,,,null,,,,
null,is playing with,,html-keyboard-response,146,570314,0.0-15.0-2.4,23825,List2A,black,woman,,,,null,,,,
6758,,,survey-text,147,577074,0.0-15.0-3.4,23825,List2A,black,woman,,,,,"{""Q0"":""jane is playing with kate""}","<img src=""stim_listA/play7.gif""style=""height:400px;""></stim_listA>",is playing with,
null,"<div style=""font-size:60px;"">+</div>",,html-keyboard-response,148,577578,0.0-15.0-0.5,23825,List2A,black,woman,,,,null,,,,
null,"<img src=""stim_listA/marry8.gif""style=""height:400px;""></stim_listA>",,html-keyboard-response,149,579584,0.0-15.0-1.5,23825,List2A,black,woman,,,,null,,,,
null,are marrying each other,,html-keyboard-response,150,581586,0.0-15.0-2.5,23825,List2A,black,woman,,,,null,,,,
8643,,,survey-text,151,590232,0.0-15.0-3.5,23825,List2A,black,woman,,,,,"{""Q0"":""ruth and kate are marrying each other""}","<img src=""stim_listA/marry8.gif""style=""height:400px;""></stim_listA>",are marrying each other,
null,"<div style=""font-size:60px;"">+</div>",,html-keyboard-response,152,590736,0.0-15.0-0.6,23825,List2A,black,woman,,,,null,,,,
null,"<img src=""stim_listA/touch8.gif""style=""height:400px;""></stim_listA>",,html-keyboard-response,153,592742,0.0-15.0-1.6,23825,List2A,black,woman,,,,null,,,,
null,are touching each other,,html-keyboard-response,154,594747,0.0-15.0-2.6,23825,List2A,black,woman,,,,null,,,,
8115,,,survey-text,155,602864,0.0-15.0-3.6,23825,List2A,black,woman,,,,,"{""Q0"":""beth and ruth are touching each other""}","<img src=""stim_listA/touch8.gif""style=""height:400px;""></stim_listA>",are touching each other,
null,"<div style=""font-size:60px;"">+</div>",,html-keyboard-response,156,603367,0.0-15.0-0.7,23825,List2A,black,woman,,,,null,,,,
null,"<img src=""stim_listA/argue4.gif""style=""height:400px;""></stim_listA>",,html-keyboard-response,157,605375,0.0-15.0-1.7,23825,List2A,black,woman,,,,null,,,,
null,are arguing with each other,,html-keyboard-response,158,607377,0.0-15.0-2.7,23825,List2A,black,woman,,,,null,,,,
8694,,,survey-text,159,616074,0.0-15.0-3.7,23825,List2A,black,woman,,,,,"{""Q0"":""fred and kate are arguing with each other""}","<img src=""stim_listA/argue4.gif""style=""height:400px;""></stim_listA>",are arguing with each other,
null,"<div style=""font-size:60px;"">+</div>",,html-keyboard-response,160,616578,0.0-15.0-0.8,23825,List2A,black,woman,,,,null,,,,
null,"<img src=""stim_listA/play5.gif""style=""height:400px;""></stim_listA>",,html-keyboard-response,161,618583,0.0-15.0-1.8,23825,List2A,black,woman,,,,null,,,,
null,is playing with,,html-keyboard-response,162,620585,0.0-15.0-2.8,23825,List2A,black,woman,,,,null,,,,
7460,,,survey-text,163,628048,0.0-15.0-3.8,23825,List2A,black,woman,,,,,"{""Q0"":""mike is playing with dave""}","<img src=""stim_listA/play5.gif""style=""height:400px;""></stim_listA>",is playing with,
null,"<div style=""font-size:60px;"">+</div>",,html-keyboard-response,164,628551,0.0-15.0-0.9,23825,List2A,black,woman,,,,null,,,,
null,"<img src=""stim_listA/flirt1.gif""style=""height:400px;""></stim_listA>",,html-keyboard-response,165,630557,0.0-15.0-1.9,23825,List2A,black,woman,,,,null,,,,
null,is flirting with,,html-keyboard-response,166,632561,0.0-15.0-2.9,23825,List2A,black,woman,,,,null,,,,
7904,,,survey-text,167,640468,0.0-15.0-3.9,23825,List2A,black,woman,,,,,"{""Q0"":""jane is flirting with luke""}","<img src=""stim_listA/flirt1.gif""style=""height:400px;""></stim_listA>",is flirting with,
null,"<div style=""font-size:60px;"">+</div>",,html-keyboard-response,168,640974,0.0-15.0-0.10,23825,List2A,black,woman,,,,null,,,,
null,"<img src=""stim_listA/argue7.gif""style=""height:400px;""></stim_listA>",,html-keyboard-response,169,642981,0.0-15.0-1.10,23825,List2A,black,woman,,,,null,,,,
null,is arguing with,,html-keyboard-response,170,644984,0.0-15.0-2.10,23825,List2A,black,woman,,,,null,,,,
6521,,,survey-text,171,651508,0.0-15.0-3.10,23825,List2A,black,woman,,,,,"{""Q0"":""jane is arguing with beth""}","<img src=""stim_listA/argue7.gif""style=""height:400px;""></stim_listA>",is arguing with,
null,"<div style=""font-size:60px;"">+</div>",,html-keyboard-response,172,652012,0.0-15.0-0.11,23825,List2A,black,woman,,,,null,,,,
null,"<img src=""stim_listA/talk1.gif""style=""height:400px;""></stim_listA>",,html-keyboard-response,173,654019,0.0-15.0-1.11,23825,List2A,black,woman,,,,null,,,,
null,is talking to,,html-keyboard-response,174,656023,0.0-15.0-2.11,23825,List2A,black,woman,,,,null,,,,
7224,,,survey-text,175,663249,0.0-15.0-3.11,23825,List2A,black,woman,,,,,"{""Q0"":""jane is talking to luke""}","<img src=""stim_listA/talk1.gif""style=""height:400px;""></stim_listA>",is talking to,
null,"<div style=""font-size:60px;"">+</div>",,html-keyboard-response,176,663755,0.0-15.0-0.12,23825,List2A,black,woman,,,,null,,,,
null,"<img src=""stim_listA/dance8.gif""style=""height:400px;""></stim_listA>",,html-keyboard-response,177,665762,0.0-15.0-1.12,23825,List2A,black,woman,,,,null,,,,
null,are dancing with each other,,html-keyboard-response,178,667765,0.0-15.0-2.12,23825,List2A,black,woman,,,,null,,,,
10131,,,survey-text,179,677898,0.0-15.0-3.12,23825,List2A,black,woman,,,,,"{""Q0"":""jane and beth are dancing with each other""}","<img src=""stim_listA/dance8.gif""style=""height:400px;""></stim_listA>",are dancing with each other,
null,"<div style=""font-size:60px;"">+</div>",,html-keyboard-response,180,678402,0.0-15.0-0.13,23825,List2A,black,woman,,,,null,,,,
null,"<img src=""stim_listA/shout7.gif""style=""height:400px;""></stim_listA>",,html-keyboard-response,181,680408,0.0-15.0-1.13,23825,List2A,black,woman,,,,null,,,,
null,is shouting at,,html-keyboard-response,182,682414,0.0-15.0-2.13,23825,List2A,black,woman,,,,null,,,,
5890,,,survey-text,183,688307,0.0-15.0-3.13,23825,List2A,black,woman,,,,,"{""Q0"":""beth is shouting at ruth""}","<img src=""stim_listA/shout7.gif""style=""height:400px;""></stim_listA>",is shouting at,
null,"<div style=""font-size:60px;"">+</div>",,html-keyboard-response,184,688811,0.0-15.0-0.14,23825,List2A,black,woman,,,,null,,,,
null,"<img src=""stim_listA/shout2.gif""style=""height:400px;""></stim_listA>",,html-keyboard-response,185,690818,0.0-15.0-1.14,23825,List2A,black,woman,,,,null,,,,
null,are shouting at each other,,html-keyboard-response,186,692820,0.0-15.0-2.14,23825,List2A,black,woman,,,,null,,,,
8441,,,survey-text,187,701263,0.0-15.0-3.14,23825,List2A,black,woman,,,,,"{""Q0"":""jane and dave are shouting at each other""}","<img src=""stim_listA/shout2.gif""style=""height:400px;""></stim_listA>",are shouting at each other,
null,"<div style=""font-size:60px;"">+</div>",,html-keyboard-response,188,701766,0.0-15.0-0.15,23825,List2A,black,woman,,,,null,,,,
null,"<img src=""stim_listA/play3.gif""style=""height:400px;""></stim_listA>",,html-keyboard-response,189,703773,0.0-15.0-1.15,23825,List2A,black,woman,,,,null,,,,
null,is playing with,,html-keyboard-response,190,705775,0.0-15.0-2.15,23825,List2A,black,woman,,,,null,,,,
6573,,,survey-text,191,712350,0.0-15.0-3.15,23825,List2A,black,woman,,,,,"{""Q0"":""kate is playing with mike""}","<img src=""stim_listA/play3.gif""style=""height:400px;""></stim_listA>",is playing with,
null,"<div style=""font-size:60px;"">+</div>",,html-keyboard-response,192,712858,0.0-15.0-0.16,23825,List2A,black,woman,,,,null,,,,
null,"<img src=""stim_listA/touch4.gif""style=""height:400px;""></stim_listA>",,html-keyboard-response,193,714865,0.0-15.0-1.16,23825,List2A,black,woman,,,,null,,,,
null,are touching each other,,html-keyboard-response,194,716869,0.0-15.0-2.16,23825,List2A,black,woman,,,,null,,,,
9943,,,survey-text,195,726815,0.0-15.0-3.16,23825,List2A,black,woman,,,,,"{""Q0"":""beth and fred are touching each other""}","<img src=""stim_listA/touch4.gif""style=""height:400px;""></stim_listA>",are touching each other,
null,"<div style=""font-size:60px;"">+</div>",,html-keyboard-response,196,727320,0.0-15.0-0.17,23825,List2A,black,woman,,,,null,,,,
null,"<img src=""stim_listA/dance4.gif""style=""height:400px;""></stim_listA>",,html-keyboard-response,197,729325,0.0-15.0-1.17,23825,List2A,black,woman,,,,null,,,,
null,are dancing with each other,,html-keyboard-response,198,731329,0.0-15.0-2.17,23825,List2A,black,woman,,,,null,,,,
8648,,,survey-text,199,739980,0.0-15.0-3.17,23825,List2A,black,woman,,,,,"{""Q0"":""mike and beth are dancing with each other""}","<img src=""stim_listA/dance4.gif""style=""height:400px;""></stim_listA>",are dancing with each other,
null,"<div style=""font-size:60px;"">+</div>",,html-keyboard-response,200,740486,0.0-15.0-0.18,23825,List2A,black,woman,,,,null,,,,
null,"<img src=""stim_listA/kiss2.gif""style=""height:400px;""></stim_listA>",,html-keyboard-response,201,742490,0.0-15.0-1.18,23825,List2A,black,woman,,,,null,,,,
null,are kissing each other,,html-keyboard-response,202,744496,0.0-15.0-2.18,23825,List2A,black,woman,,,,null,,,,
10412,,,survey-text,203,754911,0.0-15.0-3.18,23825,List2A,black,woman,,,,,"{""Q0"":""jane and dave are kissing each other""}","<img src=""stim_listA/kiss2.gif""style=""height:400px;""></stim_listA>",are kissing each other,
null,"<div style=""font-size:60px;"">+</div>",,html-keyboard-response,204,755417,0.0-15.0-0.19,23825,List2A,black,woman,,,,null,,,,
null,"<img src=""stim_listA/touch2.gif""style=""height:400px;""></stim_listA>",,html-keyboard-response,205,757422,0.0-15.0-1.19,23825,List2A,black,woman,,,,null,,,,
null,are touching each other,,html-keyboard-response,206,759425,0.0-15.0-2.19,23825,List2A,black,woman,,,,null,,,,
8007,,,survey-text,207,767435,0.0-15.0-3.19,23825,List2A,black,woman,,,,,"{""Q0"":""ruth and luke are touching each other""}","<img src=""stim_listA/touch2.gif""style=""height:400px;""></stim_listA>",are touching each other,
6522,"<img src='img/portrait_matrix_list2.jpg' style='width:900px;height:500px;''></img><p>If you have memorised all the portraits and names and are ready to start, press Continue.</p><p><strong>Please note: Your memory of these faces will be tested 4 times during this experiment.</strong></p>",0,html-button-response,208,773960,0.0-16.0-0.0,23825,List2A,black,woman,,,,,,,,
1751,"<img src=""portrait/BW2.jpg""style=""height:400px;""></img>",2,html-button-response,209,776717,0.0-16.0-1.0,23825,List2A,black,woman,,TRUE,2,,,,,
null,CORRECT,,html-keyboard-response,210,778225,0.0-16.0-2.0-0.0,23825,List2A,black,woman,,,,null,,,,
3254,"<img src=""portrait/WM2.jpg""style=""height:400px;""></img>",7,html-button-response,211,781484,0.0-16.0-4.0,23825,List2A,black,woman,,TRUE,7,,,,,
null,CORRECT,,html-keyboard-response,212,782993,0.0-16.0-5.0-0.0,23825,List2A,black,woman,,,,null,,,,
2507,"<img src=""portrait/WW1.jpg""style=""height:400px;""></img>",1,html-button-response,213,785505,0.0-16.0-7.0,23825,List2A,black,woman,,TRUE,1,,,,,
null,CORRECT,,html-keyboard-response,214,787015,0.0-16.0-8.0-0.0,23825,List2A,black,woman,,,,null,,,,
2039,"<img src=""portrait/BM1.jpg""style=""height:400px;""></img>",4,html-button-response,215,789059,0.0-16.0-10.0,23825,List2A,black,woman,,TRUE,4,,,,,
null,CORRECT,,html-keyboard-response,216,790566,0.0-16.0-11.0-0.0,23825,List2A,black,woman,,,,null,,,,
1595,"<img src=""portrait/BM2.jpg""style=""height:400px;""></img>",5,html-button-response,217,792165,0.0-16.0-13.0,23825,List2A,black,woman,,TRUE,5,,,,,
null,CORRECT,,html-keyboard-response,218,793674,0.0-16.0-14.0-0.0,23825,List2A,black,woman,,,,null,,,,
1662,"<img src=""portrait/WW2.jpg""style=""height:400px;""></img>",3,html-button-response,219,795340,0.0-16.0-16.0,23825,List2A,black,woman,,TRUE,3,,,,,
null,CORRECT,,html-keyboard-response,220,796849,0.0-16.0-17.0-0.0,23825,List2A,black,woman,,,,null,,,,
2127,"<img src=""portrait/BW1.jpg""style=""height:400px;""></img>",0,html-button-response,221,798979,0.0-16.0-19.0,23825,List2A,black,woman,,TRUE,0,,,,,
null,CORRECT,,html-keyboard-response,222,800487,0.0-16.0-20.0-0.0,23825,List2A,black,woman,,,,null,,,,
2576,"<img src=""portrait/WM1.jpg""style=""height:400px;""></img>",6,html-button-response,223,803068,0.0-16.0-22.0,23825,List2A,black,woman,,TRUE,6,,,,,
null,CORRECT,,html-keyboard-response,224,804576,0.0-16.0-23.0-0.0,23825,List2A,black,woman,,,,null,,,,
1379,<p>You got 8 out of 8 right first time. Press Continue.</p>,0,html-button-response,225,805959,0.0-16.0-25.0,23825,List2A,black,woman,,,,,,,,
null,"<div style=""font-size:60px;"">+</div>",,html-keyboard-response,226,807466,0.0-17.0-0.0,23825,List2A,black,woman,,,,null,,,,
null,"<img src=""stim_listA/kiss1.gif""style=""height:400px;""></stim_listA>",,html-keyboard-response,227,809471,0.0-17.0-1.0,23825,List2A,black,woman,,,,null,,,,
null,is kissing,,html-keyboard-response,228,811475,0.0-17.0-2.0,23825,List2A,black,woman,,,,null,,,,
5081,,,survey-text,229,816558,0.0-17.0-3.0,23825,List2A,black,woman,,,,,"{""Q0"":""luke is kissing ruth""}","<img src=""stim_listA/kiss1.gif""style=""height:400px;""></stim_listA>",is kissing,
null,"<div style=""font-size:60px;"">+</div>",,html-keyboard-response,230,817063,0.0-17.0-0.1,23825,List2A,black,woman,,,,null,,,,
null,"<img src=""stim_listA/talk7.gif""style=""height:400px;""></stim_listA>",,html-keyboard-response,231,819069,0.0-17.0-1.1,23825,List2A,black,woman,,,,null,,,,
null,is talking to,,html-keyboard-response,232,821074,0.0-17.0-2.1,23825,List2A,black,woman,,,,null,,,,
5716,,,survey-text,233,826792,0.0-17.0-3.1,23825,List2A,black,woman,,,,,"{""Q0"":""ruth is talking to kate""}","<img src=""stim_listA/talk7.gif""style=""height:400px;""></stim_listA>",is talking to,
null,"<div style=""font-size:60px;"">+</div>",,html-keyboard-response,234,827296,0.0-17.0-0.2,23825,List2A,black,woman,,,,null,,,,
null,"<img src=""stim_listA/argue3.gif""style=""height:400px;""></stim_listA>",,html-keyboard-response,235,829301,0.0-17.0-1.2,23825,List2A,black,woman,,,,null,,,,
null,is arguing with,,html-keyboard-response,236,831304,0.0-17.0-2.2,23825,List2A,black,woman,,,,null,,,,
5588,,,survey-text,237,836896,0.0-17.0-3.2,23825,List2A,black,woman,,,,,"{""Q0"":""beth is arguing with mike""}","<img src=""stim_listA/argue3.gif""style=""height:400px;""></stim_listA>",is arguing with,
null,"<div style=""font-size:60px;"">+</div>",,html-keyboard-response,238,837403,0.0-17.0-0.3,23825,List2A,black,woman,,,,null,,,,
null,"<img src=""stim_listA/flirt3.gif""style=""height:400px;""></stim_listA>",,html-keyboard-response,239,839408,0.0-17.0-1.3,23825,List2A,black,woman,,,,null,,,,
null,is flirting with,,html-keyboard-response,240,841414,0.0-17.0-2.3,23825,List2A,black,woman,,,,null,,,,
7722,,,survey-text,241,849138,0.0-17.0-3.3,23825,List2A,black,woman,,,,,"{""Q0"":""kate is flirting with fred""}","<img src=""stim_listA/flirt3.gif""style=""height:400px;""></stim_listA>",is flirting with,
null,"<div style=""font-size:60px;"">+</div>",,html-keyboard-response,242,849644,0.0-17.0-0.4,23825,List2A,black,woman,,,,null,,,,
null,"<img src=""stim_listA/talk6.gif""style=""height:400px;""></stim_listA>",,html-keyboard-response,243,851654,0.0-17.0-1.4,23825,List2A,black,woman,,,,null,,,,
null,are talking to each other,,html-keyboard-response,244,853663,0.0-17.0-2.4,23825,List2A,black,woman,,,,null,,,,
8142,,,survey-text,245,861808,0.0-17.0-3.4,23825,List2A,black,woman,,,,,"{""Q0"":""fred and dave are talking to each other""}","<img src=""stim_listA/talk6.gif""style=""height:400px;""></stim_listA>",are talking to each other,
null,"<div style=""font-size:60px;"">+</div>",,html-keyboard-response,246,862311,0.0-17.0-0.5,23825,List2A,black,woman,,,,null,,,,
null,"<img src=""stim_listA/marry6.gif""style=""height:400px;""></stim_listA>",,html-keyboard-response,247,864316,0.0-17.0-1.5,23825,List2A,black,woman,,,,null,,,,
null,are marrying each other,,html-keyboard-response,248,866319,0.0-17.0-2.5,23825,List2A,black,woman,,,,null,,,,
7896,,,survey-text,249,874218,0.0-17.0-3.5,23825,List2A,black,woman,,,,,"{""Q0"":""mike and luke are marrying each other""}","<img src=""stim_listA/marry6.gif""style=""height:400px;""></stim_listA>",are marrying each other,
null,"<div style=""font-size:60px;"">+</div>",,html-keyboard-response,250,874721,0.0-17.0-0.6,23825,List2A,black,woman,,,,null,,,,
null,"<img src=""stim_listA/dance5.gif""style=""height:400px;""></stim_listA>",,html-keyboard-response,251,876729,0.0-17.0-1.6,23825,List2A,black,woman,,,,null,,,,
null,is dancing with,,html-keyboard-response,252,878732,0.0-17.0-2.6,23825,List2A,black,woman,,,,null,,,,
6134,,,survey-text,253,884870,0.0-17.0-3.6,23825,List2A,black,woman,,,,,"{""Q0"":""mike is dancing with luke""}","<img src=""stim_listA/dance5.gif""style=""height:400px;""></stim_listA>",is dancing with,
null,"<div style=""font-size:60px;"">+</div>",,html-keyboard-response,254,885373,0.0-17.0-0.7,23825,List2A,black,woman,,,,null,,,,
null,"<img src=""stim_listA/play4.gif""style=""height:400px;""></stim_listA>",,html-keyboard-response,255,887380,0.0-17.0-1.7,23825,List2A,black,woman,,,,null,,,,
null,are playing with each other,,html-keyboard-response,256,889384,0.0-17.0-2.7,23825,List2A,black,woman,,,,null,,,,
8449,,,survey-text,257,897836,0.0-17.0-3.7,23825,List2A,black,woman,,,,,"{""Q0"":""fred and beth are playing with each other""}","<img src=""stim_listA/play4.gif""style=""height:400px;""></stim_listA>",are playing with each other,
null,"<div style=""font-size:60px;"">+</div>",,html-keyboard-response,258,898341,0.0-17.0-0.8,23825,List2A,black,woman,,,,null,,,,
null,"<img src=""stim_listA/fight4.gif""style=""height:400px;""></stim_listA>",,html-keyboard-response,259,900348,0.0-17.0-1.8,23825,List2A,black,woman,,,,null,,,,
null,are fighting each other,,html-keyboard-response,260,902353,0.0-17.0-2.8,23825,List2A,black,woman,,,,null,,,,
7542,,,survey-text,261,909898,0.0-17.0-3.8,23825,List2A,black,woman,,,,,"{""Q0"":""fred and beth are fighting with each other""}","<img src=""stim_listA/fight4.gif""style=""height:400px;""></stim_listA>",are fighting each other,
null,"<div style=""font-size:60px;"">+</div>",,html-keyboard-response,262,910403,0.0-17.0-0.9,23825,List2A,black,woman,,,,null,,,,
null,"<img src=""stim_listA/flirt8.gif""style=""height:400px;""></stim_listA>",,html-keyboard-response,263,912410,0.0-17.0-1.9,23825,List2A,black,woman,,,,null,,,,
null,are flirting with each other,,html-keyboard-response,264,914414,0.0-17.0-2.9,23825,List2A,black,woman,,,,null,,,,
8561,,,survey-text,265,922978,0.0-17.0-3.9,23825,List2A,black,woman,,,,,"{""Q0"":""beth and jane are flirting with each other""}","<img src=""stim_listA/flirt8.gif""style=""height:400px;""></stim_listA>",are flirting with each other,
null,"<div style=""font-size:60px;"">+</div>",,html-keyboard-response,266,923483,0.0-17.0-0.10,23825,List2A,black,woman,,,,null,,,,
null,"<img src=""stim_listA/marry1.gif""style=""height:400px;""></stim_listA>",,html-keyboard-response,267,925491,0.0-17.0-1.10,23825,List2A,black,woman,,,,null,,,,
null,is marrying,,html-keyboard-response,268,927495,0.0-17.0-2.10,23825,List2A,black,woman,,,,null,,,,
5333,,,survey-text,269,932831,0.0-17.0-3.10,23825,List2A,black,woman,,,,,"{""Q0"":""ruth is marrying dave""}","<img src=""stim_listA/marry1.gif""style=""height:400px;""></stim_listA>",is marrying,
null,"<div style=""font-size:60px;"">+</div>",,html-keyboard-response,270,933336,0.0-17.0-0.11,23825,List2A,black,woman,,,,null,,,,
null,"<img src=""stim_listA/marry4.gif""style=""height:400px;""></stim_listA>",,html-keyboard-response,271,935340,0.0-17.0-1.11,23825,List2A,black,woman,,,,null,,,,
null,are marrying each other,,html-keyboard-response,272,937344,0.0-17.0-2.11,23825,List2A,black,woman,,,,null,,,,
8334,,,survey-text,273,945682,0.0-17.0-3.11,23825,List2A,black,woman,,,,,"{""Q0"":""kate and fred are marrying each other""}","<img src=""stim_listA/marry4.gif""style=""height:400px;""></stim_listA>",are marrying each other,
null,"<div style=""font-size:60px;"">+</div>",,html-keyboard-response,274,946188,0.0-17.0-0.12,23825,List2A,black,woman,,,,null,,,,
null,"<img src=""stim_listA/flirt5.gif""style=""height:400px;""></stim_listA>",,html-keyboard-response,275,948194,0.0-17.0-1.12,23825,List2A,black,woman,,,,null,,,,
null,is flirting with,,html-keyboard-response,276,950196,0.0-17.0-2.12,23825,List2A,black,woman,,,,null,,,,
6371,,,survey-text,277,956570,0.0-17.0-3.12,23825,List2A,black,woman,,,,,"{""Q0"":""mike is flirting with luke""}","<img src=""stim_listA/flirt5.gif""style=""height:400px;""></stim_listA>",is flirting with,
null,"<div style=""font-size:60px;"">+</div>",,html-keyboard-response,278,957078,0.0-17.0-0.13,23825,List2A,black,woman,,,,null,,,,
null,"<img src=""stim_listA/kiss6.gif""style=""height:400px;""></stim_listA>",,html-keyboard-response,279,959084,0.0-17.0-1.13,23825,List2A,black,woman,,,,null,,,,
null,are kissing each other,,html-keyboard-response,280,961087,0.0-17.0-2.13,23825,List2A,black,woman,,,,null,,,,
7405,,,survey-text,281,968494,0.0-17.0-3.13,23825,List2A,black,woman,,,,,"{""Q0"":""mike and dave are kissing each other""}","<img src=""stim_listA/kiss6.gif""style=""height:400px;""></stim_listA>",are kissing each other,
null,"<div style=""font-size:60px;"">+</div>",,html-keyboard-response,282,969000,0.0-17.0-0.14,23825,List2A,black,woman,,,,null,,,,
null,"<img src=""stim_listA/talk4.gif""style=""height:400px;""></stim_listA>",,html-keyboard-response,283,971006,0.0-17.0-1.14,23825,List2A,black,woman,,,,null,,,,
null,are talking to each other,,html-keyboard-response,284,973010,0.0-17.0-2.14,23825,List2A,black,woman,,,,null,,,,
7986,,,survey-text,285,980998,0.0-17.0-3.14,23825,List2A,black,woman,,,,,"{""Q0"":""beth and mike are talking to each other""}","<img src=""stim_listA/talk4.gif""style=""height:400px;""></stim_listA>",are talking to each other,
null,"<div style=""font-size:60px;"">+</div>",,html-keyboard-response,286,981505,0.0-17.0-0.15,23825,List2A,black,woman,,,,null,,,,
null,"<img src=""stim_listA/touch1.gif""style=""height:400px;""></stim_listA>",,html-keyboard-response,287,983512,0.0-17.0-1.15,23825,List2A,black,woman,,,,null,,,,
null,is touching,,html-keyboard-response,288,985514,0.0-17.0-2.15,23825,List2A,black,woman,,,,null,,,,
4640,,,survey-text,289,990157,0.0-17.0-3.15,23825,List2A,black,woman,,,,,"{""Q0"":""jane is touching dave""}","<img src=""stim_listA/touch1.gif""style=""height:400px;""></stim_listA>",is touching,
null,"<div style=""font-size:60px;"">+</div>",,html-keyboard-response,290,990661,0.0-17.0-0.16,23825,List2A,black,woman,,,,null,,,,
null,"<img src=""stim_listA/argue8.gif""style=""height:400px;""></stim_listA>",,html-keyboard-response,291,992665,0.0-17.0-1.16,23825,List2A,black,woman,,,,null,,,,
null,are arguing with each other,,html-keyboard-response,292,994668,0.0-17.0-2.16,23825,List2A,black,woman,,,,null,,,,
8362,,,survey-text,293,1003033,0.0-17.0-3.16,23825,List2A,black,woman,,,,,"{""Q0"":""kate and ruth are arguing with each other""}","<img src=""stim_listA/argue8.gif""style=""height:400px;""></stim_listA>",are arguing with each other,
null,"<div style=""font-size:60px;"">+</div>",,html-keyboard-response,294,1003540,0.0-17.0-0.17,23825,List2A,black,woman,,,,null,,,,
null,"<img src=""stim_listA/flirt6.gif""style=""height:400px;""></stim_listA>",,html-keyboard-response,295,1005545,0.0-17.0-1.17,23825,List2A,black,woman,,,,null,,,,
null,are flirting with each other,,html-keyboard-response,296,1007550,0.0-17.0-2.17,23825,List2A,black,woman,,,,null,,,,
7413,,,survey-text,297,1014965,0.0-17.0-3.17,23825,List2A,black,woman,,,,,"{""Q0"":""fred and dave are flirting with each other""}","<img src=""stim_listA/flirt6.gif""style=""height:400px;""></stim_listA>",are flirting with each other,
null,"<div style=""font-size:60px;"">+</div>",,html-keyboard-response,298,1015469,0.0-17.0-0.18,23825,List2A,black,woman,,,,null,,,,
null,"<img src=""stim_listA/talk2.gif""style=""height:400px;""></stim_listA>",,html-keyboard-response,299,1017477,0.0-17.0-1.18,23825,List2A,black,woman,,,,null,,,,
null,are talking to each other,,html-keyboard-response,300,1019484,0.0-17.0-2.18,23825,List2A,black,woman,,,,null,,,,
7311,,,survey-text,301,1026797,0.0-17.0-3.18,23825,List2A,black,woman,,,,,"{""Q0"":""ruth and dave are talking to each other""}","<img src=""stim_listA/talk2.gif""style=""height:400px;""></stim_listA>",are talking to each other,
null,"<div style=""font-size:60px;"">+</div>",,html-keyboard-response,302,1027302,0.0-17.0-0.19,23825,List2A,black,woman,,,,null,,,,
null,"<img src=""stim_listA/argue6.gif""style=""height:400px;""></stim_listA>",,html-keyboard-response,303,1029307,0.0-17.0-1.19,23825,List2A,black,woman,,,,null,,,,
null,are arguing with each other,,html-keyboard-response,304,1031310,0.0-17.0-2.19,23825,List2A,black,woman,,,,null,,,,
10256,,,survey-text,305,1041569,0.0-17.0-3.19,23825,List2A,black,woman,,,,,"{""Q0"":""mike and luke are arguing with each other""}","<img src=""stim_listA/argue6.gif""style=""height:400px;""></stim_listA>",are arguing with each other,
3968,"<img src='img/portrait_matrix_list2.jpg' style='width:900px;height:500px;''></img><p>If you have memorised all the portraits and names and are ready to start, press Continue.</p><p><strong>Please note: Your memory of these faces will be tested 4 times during this experiment.</strong></p>",0,html-button-response,306,1045541,0.0-18.0-0.0,23825,List2A,black,woman,,,,,,,,
1873,"<img src=""portrait/WW2.jpg""style=""height:400px;""></img>",3,html-button-response,307,1048422,0.0-18.0-1.0,23825,List2A,black,woman,,TRUE,3,,,,,
null,CORRECT,,html-keyboard-response,308,1049932,0.0-18.0-2.0-0.0,23825,List2A,black,woman,,,,null,,,,
3314,"<img src=""portrait/BM1.jpg""style=""height:400px;""></img>",4,html-button-response,309,1053250,0.0-18.0-4.0,23825,List2A,black,woman,,TRUE,4,,,,,
null,CORRECT,,html-keyboard-response,310,1054759,0.0-18.0-5.0-0.0,23825,List2A,black,woman,,,,null,,,,
1829,"<img src=""portrait/WM1.jpg""style=""height:400px;""></img>",6,html-button-response,311,1056593,0.0-18.0-7.0,23825,List2A,black,woman,,TRUE,6,,,,,
null,CORRECT,,html-keyboard-response,312,1058097,0.0-18.0-8.0-0.0,23825,List2A,black,woman,,,,null,,,,
1384,"<img src=""portrait/BM2.jpg""style=""height:400px;""></img>",5,html-button-response,313,1059486,0.0-18.0-10.0,23825,List2A,black,woman,,TRUE,5,,,,,
null,CORRECT,,html-keyboard-response,314,1060993,0.0-18.0-11.0-0.0,23825,List2A,black,woman,,,,null,,,,
1420,"<img src=""portrait/WM2.jpg""style=""height:400px;""></img>",7,html-button-response,315,1062417,0.0-18.0-13.0,23825,List2A,black,woman,,TRUE,7,,,,,
null,CORRECT,,html-keyboard-response,316,1063926,0.0-18.0-14.0-0.0,23825,List2A,black,woman,,,,null,,,,
1776,"<img src=""portrait/BW2.jpg""style=""height:400px;""></img>",2,html-button-response,317,1065706,0.0-18.0-16.0,23825,List2A,black,woman,,TRUE,2,,,,,
null,CORRECT,,html-keyboard-response,318,1067215,0.0-18.0-17.0-0.0,23825,List2A,black,woman,,,,null,,,,
1583,"<img src=""portrait/WW1.jpg""style=""height:400px;""></img>",1,html-button-response,319,1068802,0.0-18.0-19.0,23825,List2A,black,woman,,TRUE,1,,,,,
null,CORRECT,,html-keyboard-response,320,1070310,0.0-18.0-20.0-0.0,23825,List2A,black,woman,,,,null,,,,
1026,"<img src=""portrait/BW1.jpg""style=""height:400px;""></img>",0,html-button-response,321,1071339,0.0-18.0-22.0,23825,List2A,black,woman,,TRUE,0,,,,,
null,CORRECT,,html-keyboard-response,322,1072847,0.0-18.0-23.0-0.0,23825,List2A,black,woman,,,,null,,,,
832,<p>You got 8 out of 8 right first time. Press Continue.</p>,0,html-button-response,323,1073684,0.0-18.0-25.0,23825,List2A,black,woman,,,,,,,,
null,"<div style=""font-size:60px;"">+</div>",,html-keyboard-response,324,1075192,0.0-19.0-0.0,23825,List2A,black,woman,,,,null,,,,
null,"<img src=""stim_listA/fight3.gif""style=""height:400px;""></stim_listA>",,html-keyboard-response,325,1077200,0.0-19.0-1.0,23825,List2A,black,woman,,,,null,,,,
null,is fighting,,html-keyboard-response,326,1079203,0.0-19.0-2.0,23825,List2A,black,woman,,,,null,,,,
6653,,,survey-text,327,1085859,0.0-19.0-3.0,23825,List2A,black,woman,,,,,"{""Q0"":""mike is fighting kate""}","<img src=""stim_listA/fight3.gif""style=""height:400px;""></stim_listA>",is fighting,
null,"<div style=""font-size:60px;"">+</div>",,html-keyboard-response,328,1086366,0.0-19.0-0.1,23825,List2A,black,woman,,,,null,,,,
null,"<img src=""stim_listA/shout4.gif""style=""height:400px;""></stim_listA>",,html-keyboard-response,329,1088373,0.0-19.0-1.1,23825,List2A,black,woman,,,,null,,,,
null,are shouting at each other,,html-keyboard-response,330,1090377,0.0-19.0-2.1,23825,List2A,black,woman,,,,null,,,,
7541,,,survey-text,331,1097920,0.0-19.0-3.1,23825,List2A,black,woman,,,,,"{""Q0"":""mike and kate are shouting at each other""}","<img src=""stim_listA/shout4.gif""style=""height:400px;""></stim_listA>",are shouting at each other,
null,"<div style=""font-size:60px;"">+</div>",,html-keyboard-response,332,1098426,0.0-19.0-0.2,23825,List2A,black,woman,,,,null,,,,
null,"<img src=""stim_listA/shout6.gif""style=""height:400px;""></stim_listA>",,html-keyboard-response,333,1100431,0.0-19.0-1.2,23825,List2A,black,woman,,,,null,,,,
null,are shouting at each other,,html-keyboard-response,334,1102434,0.0-19.0-2.2,23825,List2A,black,woman,,,,null,,,,
7423,,,survey-text,335,1109859,0.0-19.0-3.2,23825,List2A,black,woman,,,,,"{""Q0"":""mike and dave are shouting at each other""}","<img src=""stim_listA/shout6.gif""style=""height:400px;""></stim_listA>",are shouting at each other,
null,"<div style=""font-size:60px;"">+</div>",,html-keyboard-response,336,1110363,0.0-19.0-0.3,23825,List2A,black,woman,,,,null,,,,
null,"<img src=""stim_listA/play8.gif""style=""height:400px;""></stim_listA>",,html-keyboard-response,337,1112370,0.0-19.0-1.3,23825,List2A,black,woman,,,,null,,,,
null,are playing with each other,,html-keyboard-response,338,1114373,0.0-19.0-2.3,23825,List2A,black,woman,,,,null,,,,
9371,,,survey-text,339,1123748,0.0-19.0-3.3,23825,List2A,black,woman,,,,,"{""Q0"":""beth and ruth are playing with each other""}","<img src=""stim_listA/play8.gif""style=""height:400px;""></stim_listA>",are playing with each other,
null,"<div style=""font-size:60px;"">+</div>",,html-keyboard-response,340,1124252,0.0-19.0-0.4,23825,List2A,black,woman,,,,null,,,,
null,"<img src=""stim_listA/shout8.gif""style=""height:400px;""></stim_listA>",,html-keyboard-response,341,1126259,0.0-19.0-1.4,23825,List2A,black,woman,,,,null,,,,
null,are shouting at each other,,html-keyboard-response,342,1128263,0.0-19.0-2.4,23825,List2A,black,woman,,,,null,,,,
8670,,,survey-text,343,1136936,0.0-19.0-3.4,23825,List2A,black,woman,,,,,"{""Q0"":""kate and jane are shouting at each other""}","<img src=""stim_listA/shout8.gif""style=""height:400px;""></stim_listA>",are shouting at each other,
null,"<div style=""font-size:60px;"">+</div>",,html-keyboard-response,344,1137441,0.0-19.0-0.5,23825,List2A,black,woman,,,,null,,,,
null,"<img src=""stim_listA/marry3.gif""style=""height:400px;""></stim_listA>",,html-keyboard-response,345,1139449,0.0-19.0-1.5,23825,List2A,black,woman,,,,null,,,,
null,is marrying,,html-keyboard-response,346,1141452,0.0-19.0-2.5,23825,List2A,black,woman,,,,null,,,,
5207,,,survey-text,347,1146660,0.0-19.0-3.5,23825,List2A,black,woman,,,,,"{""Q0"":""beth is marrying mike""}","<img src=""stim_listA/marry3.gif""style=""height:400px;""></stim_listA>",is marrying,
null,"<div style=""font-size:60px;"">+</div>",,html-keyboard-response,348,1147165,0.0-19.0-0.6,23825,List2A,black,woman,,,,null,,,,
null,"<img src=""stim_listA/flirt2.gif""style=""height:400px;""></stim_listA>",,html-keyboard-response,349,1149170,0.0-19.0-1.6,23825,List2A,black,woman,,,,null,,,,
null,are flirting with each other,,html-keyboard-response,350,1151175,0.0-19.0-2.6,23825,List2A,black,woman,,,,null,,,,
8916,,,survey-text,351,1160093,0.0-19.0-3.6,23825,List2A,black,woman,,,,,"{""Q0"":""ruth and dave are flirting with each other""}","<img src=""stim_listA/flirt2.gif""style=""height:400px;""></stim_listA>",are flirting with each other,
null,"<div style=""font-size:60px;"">+</div>",,html-keyboard-response,352,1160599,0.0-19.0-0.7,23825,List2A,black,woman,,,,null,,,,
null,"<img src=""stim_listA/marry5.gif""style=""height:400px;""></stim_listA>",,html-keyboard-response,353,1162606,0.0-19.0-1.7,23825,List2A,black,woman,,,,null,,,,
null,is marrying,,html-keyboard-response,354,1164611,0.0-19.0-2.7,23825,List2A,black,woman,,,,null,,,,
5165,,,survey-text,355,1169779,0.0-19.0-3.7,23825,List2A,black,woman,,,,,"{""Q0"":""dave is marrying fred""}","<img src=""stim_listA/marry5.gif""style=""height:400px;""></stim_listA>",is marrying,
null,"<div style=""font-size:60px;"">+</div>",,html-keyboard-response,356,1170286,0.0-19.0-0.8,23825,List2A,black,woman,,,,null,,,,
null,"<img src=""stim_listA/fight7.gif""style=""height:400px;""></stim_listA>",,html-keyboard-response,357,1172293,0.0-19.0-1.8,23825,List2A,black,woman,,,,null,,,,
null,is fighting,,html-keyboard-response,358,1174297,0.0-19.0-2.8,23825,List2A,black,woman,,,,null,,,,
6414,,,survey-text,359,1180715,0.0-19.0-3.8,23825,List2A,black,woman,,,,,"{""Q0"":""jane is fighting kate""}","<img src=""stim_listA/fight7.gif""style=""height:400px;""></stim_listA>",is fighting,
null,"<div style=""font-size:60px;"">+</div>",,html-keyboard-response,360,1181221,0.0-19.0-0.9,23825,List2A,black,woman,,,,null,,,,
null,"<img src=""stim_listA/touch6.gif""style=""height:400px;""></stim_listA>",,html-keyboard-response,361,1183229,0.0-19.0-1.9,23825,List2A,black,woman,,,,null,,,,
null,are touching each other,,html-keyboard-response,362,1185233,0.0-19.0-2.9,23825,List2A,black,woman,,,,null,,,,
11706,,,survey-text,363,1196942,0.0-19.0-3.9,23825,List2A,black,woman,,,,,"{""Q0"":""fred and luke are touching each other""}","<img src=""stim_listA/touch6.gif""style=""height:400px;""></stim_listA>",are touching each other,
null,"<div style=""font-size:60px;"">+</div>",,html-keyboard-response,364,1197448,0.0-19.0-0.10,23825,List2A,black,woman,,,,null,,,,
null,"<img src=""stim_listA/fight5.gif""style=""height:400px;""></stim_listA>",,html-keyboard-response,365,1199456,0.0-19.0-1.10,23825,List2A,black,woman,,,,null,,,,
null,is fighting,,html-keyboard-response,366,1201458,0.0-19.0-2.10,23825,List2A,black,woman,,,,null,,,,
5404,,,survey-text,367,1206865,0.0-19.0-3.10,23825,List2A,black,woman,,,,,"{""Q0"":""mike is fighting dave""}","<img src=""stim_listA/fight5.gif""style=""height:400px;""></stim_listA>",is fighting,
null,"<div style=""font-size:60px;"">+</div>",,html-keyboard-response,368,1207373,0.0-19.0-0.11,23825,List2A,black,woman,,,,null,,,,
null,"<img src=""stim_listA/fight1.gif""style=""height:400px;""></stim_listA>",,html-keyboard-response,369,1209380,0.0-19.0-1.11,23825,List2A,black,woman,,,,null,,,,
null,is fighting,,html-keyboard-response,370,1211385,0.0-19.0-2.11,23825,List2A,black,woman,,,,null,,,,
4546,,,survey-text,371,1215934,0.0-19.0-3.11,23825,List2A,black,woman,,,,,"{""Q0"":""dave is fighting jane""}","<img src=""stim_listA/fight1.gif""style=""height:400px;""></stim_listA>",is fighting,
null,"<div style=""font-size:60px;"">+</div>",,html-keyboard-response,372,1216438,0.0-19.0-0.12,23825,List2A,black,woman,,,,null,,,,
null,"<img src=""stim_listA/dance1.gif""style=""height:400px;""></stim_listA>",,html-keyboard-response,373,1218445,0.0-19.0-1.12,23825,List2A,black,woman,,,,null,,,,
null,is dancing with,,html-keyboard-response,374,1220449,0.0-19.0-2.12,23825,List2A,black,woman,,,,null,,,,
6158,,,survey-text,375,1226609,0.0-19.0-3.12,23825,List2A,black,woman,,,,,"{""Q0"":""luke is dancing with jane""}","<img src=""stim_listA/dance1.gif""style=""height:400px;""></stim_listA>",is dancing with,
null,"<div style=""font-size:60px;"">+</div>",,html-keyboard-response,376,1227116,0.0-19.0-0.13,23825,List2A,black,woman,,,,null,,,,
null,"<img src=""stim_listA/marry2.gif""style=""height:400px;""></stim_listA>",,html-keyboard-response,377,1229124,0.0-19.0-1.13,23825,List2A,black,woman,,,,null,,,,
null,are marrying each other,,html-keyboard-response,378,1231128,0.0-19.0-2.13,23825,List2A,black,woman,,,,null,,,,
8454,,,survey-text,379,1239585,0.0-19.0-3.13,23825,List2A,black,woman,,,,,"{""Q0"":""luke and jane are marrying each other""}","<img src=""stim_listA/marry2.gif""style=""height:400px;""></stim_listA>",are marrying each other,
null,"<div style=""font-size:60px;"">+</div>",,html-keyboard-response,380,1240090,0.0-19.0-0.14,23825,List2A,black,woman,,,,null,,,,
null,"<img src=""stim_listA/touch7.gif""style=""height:400px;""></stim_listA>",,html-keyboard-response,381,1242099,0.0-19.0-1.14,23825,List2A,black,woman,,,,null,,,,
null,is touching,,html-keyboard-response,382,1244103,0.0-19.0-2.14,23825,List2A,black,woman,,,,null,,,,
4387,,,survey-text,383,1248493,0.0-19.0-3.14,23825,List2A,black,woman,,,,,"{""Q0"":""jane is touching kate""}","<img src=""stim_listA/touch7.gif""style=""height:400px;""></stim_listA>",is touching,
null,"<div style=""font-size:60px;"">+</div>",,html-keyboard-response,384,1248997,0.0-19.0-0.15,23825,List2A,black,woman,,,,null,,,,
null,"<img src=""stim_listA/kiss3.gif""style=""height:400px;""></stim_listA>",,html-keyboard-response,385,1251004,0.0-19.0-1.15,23825,List2A,black,woman,,,,null,,,,
null,is kissing,,html-keyboard-response,386,1253007,0.0-19.0-2.15,23825,List2A,black,woman,,,,null,,,,
4720,,,survey-text,387,1257731,0.0-19.0-3.15,23825,List2A,black,woman,,,,,"{""Q0"":""fred is kissing beth""}","<img src=""stim_listA/kiss3.gif""style=""height:400px;""></stim_listA>",is kissing,
null,"<div style=""font-size:60px;"">+</div>",,html-keyboard-response,388,1258238,0.0-19.0-0.16,23825,List2A,black,woman,,,,null,,,,
null,"<img src=""stim_listA/argue2.gif""style=""height:400px;""></stim_listA>",,html-keyboard-response,389,1260244,0.0-19.0-1.16,23825,List2A,black,woman,,,,null,,,,
null,are arguing with each other,,html-keyboard-response,390,1262247,0.0-19.0-2.16,23825,List2A,black,woman,,,,null,,,,
8549,,,survey-text,391,1270800,0.0-19.0-3.16,23825,List2A,black,woman,,,,,"{""Q0"":""jane and luke are arguing with each other""}","<img src=""stim_listA/argue2.gif""style=""height:400px;""></stim_listA>",are arguing with each other,
null,"<div style=""font-size:60px;"">+</div>",,html-keyboard-response,392,1271302,0.0-19.0-0.17,23825,List2A,black,woman,,,,null,,,,
null,"<img src=""stim_listA/shout3.gif""style=""height:400px;""></stim_listA>",,html-keyboard-response,393,1273307,0.0-19.0-1.17,23825,List2A,black,woman,,,,null,,,,
null,is shouting at,,html-keyboard-response,394,1275311,0.0-19.0-2.17,23825,List2A,black,woman,,,,null,,,,
5620,,,survey-text,395,1280933,0.0-19.0-3.17,23825,List2A,black,woman,,,,,"{""Q0"":""fred is shouting at beth""}","<img src=""stim_listA/shout3.gif""style=""height:400px;""></stim_listA>",is shouting at,
null,"<div style=""font-size:60px;"">+</div>",,html-keyboard-response,396,1281440,0.0-19.0-0.18,23825,List2A,black,woman,,,,null,,,,
null,"<img src=""stim_listA/fight6.gif""style=""height:400px;""></stim_listA>",,html-keyboard-response,397,1283447,0.0-19.0-1.18,23825,List2A,black,woman,,,,null,,,,
null,are fighting each other,,html-keyboard-response,398,1285450,0.0-19.0-2.18,23825,List2A,black,woman,,,,null,,,,
8982,,,survey-text,399,1294435,0.0-19.0-3.18,23825,List2A,black,woman,,,,,"{""Q0"":""fred and mike are fighting with each other""}","<img src=""stim_listA/fight6.gif""style=""height:400px;""></stim_listA>",are fighting each other,
null,"<div style=""font-size:60px;"">+</div>",,html-keyboard-response,400,1294939,0.0-19.0-0.19,23825,List2A,black,woman,,,,null,,,,
null,"<img src=""stim_listA/touch3.gif""style=""height:400px;""></stim_listA>",,html-keyboard-response,401,1296945,0.0-19.0-1.19,23825,List2A,black,woman,,,,null,,,,
null,is touching,,html-keyboard-response,402,1298950,0.0-19.0-2.19,23825,List2A,black,woman,,,,null,,,,
5100,,,survey-text,403,1304053,0.0-19.0-3.19,23825,List2A,black,woman,,,,,"{""Q0"":""mike is touching kate""}","<img src=""stim_listA/touch3.gif""style=""height:400px;""></stim_listA>",is touching,
2056,<p>Thank you for completing that task.</p><p>The final part of this session is a short questionnaire.</p><p>Press Continue.</p>,0,html-button-response,404,1306113,0.0-20.0,23825,List2A,black,woman,,,,,,,,
25180,,,survey-text,405,1332302,0.0-21.0,23825,List2A,black,woman,,,,,"{""Q0"":""21"",""Q1"":""English"",""Q2"":""English"",""Q3"":""USA"",""Q4"":""Black"",""Q5"":""Female""}",,,demographics
5621,,,survey-likert,406,1337932,0.0-22.0,23825,List2A,black,woman,,,,,"{""Q0"":4}",,,likert_ESS
6244,,,survey-likert,407,1344244,0.0-23.0,23825,List2A,black,woman,,,,,"{""Q0"":4}",,,likert_NSSAL_Q1
2994,,,survey-likert,408,1347306,0.0-24.0,23825,List2A,black,woman,,,,,"{""Q0"":4}",,,likert_NSSAL_Q2
3352,,,survey-likert,409,1350717,0.0-25.0,23825,List2A,black,woman,,,,,"{""Q0"":4}",,,likert_CGRS_Q1
2529,,,survey-likert,410,1353313,0.0-26.0,23825,List2A,black,woman,,,,,"{""Q0"":4}",,,likert_CGRS_Q2
2479,,,survey-likert,411,1355856,0.0-27.0,23825,List2A,black,woman,,,,,"{""Q0"":4}",,,likert_CGRS_Q3
4030,,,survey-text,412,1359952,0.0-28.0,23825,List2A,black,woman,,,,,"{""Q0"":""ccc""}",,,worker_id
4450,,,external-html,413,1364971,0.0-29.0,23825,List2A,black,woman,debrief.html,,,,,,,
