rt,stimulus,button_pressed,trial_type,trial_index,time_elapsed,internal_node_id,subject,list,ppt_race,ppt_gender,url,first_guess,correct,key_press,responses,image_type,phrase_type,test_part
1383,Welcome to the experiment. Press Continue to begin.,0,html-button-response,0,1385,0.0-0.0,23842,List1B,black,man,,,,,,,,
172678,,,external-html,1,175097,0.0-1.0,23842,List1B,black,man,consent.html,,,,,,,
11758,"<p>On the next page, you will see portraits of 8 people and their names.</p><p>Your first task is to take a few minutes to memorise the names of these people.</p><p>You will have to recall their names during the rest of the experiment, so it is</p><p>essential that you try to memorise these people and their names as best as you can.</p><br><p><strong>You will then be tested on your memory of these names and portraits.</strong></p><br><p>The experiment will start after you have completed this memory test.</p><br><p>Ready?</p>",0,html-button-response,2,186856,0.0-2.0,23842,List1B,black,man,,,,,,,,
132548,"<img src='img/portrait_matrix_list1.jpg' style='width:900px;height:500px;''></img><p>If you have memorised all the portraits and names and are ready to start, press Continue.</p><p><strong>Please note: Your memory of these faces will be tested 4 times during this experiment.</strong></p>",0,html-button-response,3,320407,0.0-3.0-0.0,23842,List1B,black,man,,,,,,,,
7486,"<img src=""portrait/BW1.jpg""style=""height:400px;""></img>",0,html-button-response,4,328896,0.0-3.0-1.0,23842,List1B,black,man,,TRUE,0,,,,,
null,CORRECT,,html-keyboard-response,5,330400,0.0-3.0-2.0-0.0,23842,List1B,black,man,,,,null,,,,
2086,"<img src=""portrait/WM2.jpg""style=""height:400px;""></img>",7,html-button-response,6,332488,0.0-3.0-4.0,23842,List1B,black,man,,TRUE,7,,,,,
null,CORRECT,,html-keyboard-response,7,333992,0.0-3.0-5.0-0.0,23842,List1B,black,man,,,,null,,,,
3863,"<img src=""portrait/WW1.jpg""style=""height:400px;""></img>",1,html-button-response,8,337855,0.0-3.0-7.0,23842,List1B,black,man,,TRUE,1,,,,,
null,CORRECT,,html-keyboard-response,9,339357,0.0-3.0-8.0-0.0,23842,List1B,black,man,,,,null,,,,
3441,"<img src=""portrait/WW2.jpg""style=""height:400px;""></img>",3,html-button-response,10,342800,0.0-3.0-10.0,23842,List1B,black,man,,TRUE,3,,,,,
null,CORRECT,,html-keyboard-response,11,344303,0.0-3.0-11.0-0.0,23842,List1B,black,man,,,,null,,,,
3120,"<img src=""portrait/BM2.jpg""style=""height:400px;""></img>",5,html-button-response,12,347423,0.0-3.0-13.0,23842,List1B,black,man,,TRUE,5,,,,,
null,CORRECT,,html-keyboard-response,13,348925,0.0-3.0-14.0-0.0,23842,List1B,black,man,,,,null,,,,
2417,"<img src=""portrait/BW2.jpg""style=""height:400px;""></img>",2,html-button-response,14,351343,0.0-3.0-16.0,23842,List1B,black,man,,TRUE,2,,,,,
null,CORRECT,,html-keyboard-response,15,352847,0.0-3.0-17.0-0.0,23842,List1B,black,man,,,,null,,,,
2032,"<img src=""portrait/BM1.jpg""style=""height:400px;""></img>",4,html-button-response,16,354879,0.0-3.0-19.0,23842,List1B,black,man,,TRUE,4,,,,,
null,CORRECT,,html-keyboard-response,17,356382,0.0-3.0-20.0-0.0,23842,List1B,black,man,,,,null,,,,
2297,"<img src=""portrait/WM1.jpg""style=""height:400px;""></img>",7,html-button-response,18,358680,0.0-3.0-22.0,23842,List1B,black,man,,TRUE,6,,,,,
3789,"<img src=""portrait/WM1.jpg""style=""height:400px;""></img>",6,html-button-response,19,363472,0.0-3.0-24.0-0.0,23842,List1B,black,man,,FALSE,6,,,,,
null,CORRECT,,html-keyboard-response,20,364974,0.0-3.0-24.0-1.0-0.0,23842,List1B,black,man,,,,null,,,,
1360,<p>You got 7 out of 8 right first time. Press Continue.</p>,0,html-button-response,21,366335,0.0-3.0-25.0,23842,List1B,black,man,,,,,,,,
1678,"As you did not score 100%, the memory game will repeat. Press Continue.",0,html-button-response,22,369015,0.0-3.0-26.0-0.0,23842,List1B,black,man,,,,,,,,
1061,"<img src='img/portrait_matrix_list1.jpg' style='width:900px;height:500px;''></img><p>If you have memorised all the portraits and names and are ready to start, press Continue.</p><p><strong>Please note: Your memory of these faces will be tested 4 times during this experiment.</strong></p>",0,html-button-response,23,371079,0.0-3.1-0.1,23842,List1B,black,man,,,,,,,,
1181,"<img src=""portrait/BW1.jpg""style=""height:400px;""></img>",0,html-button-response,24,373263,0.0-3.1-1.1,23842,List1B,black,man,,TRUE,0,,,,,
null,CORRECT,,html-keyboard-response,25,374765,0.0-3.1-2.1-0.1,23842,List1B,black,man,,,,null,,,,
1272,"<img src=""portrait/WM2.jpg""style=""height:400px;""></img>",7,html-button-response,26,376039,0.0-3.1-4.1,23842,List1B,black,man,,TRUE,7,,,,,
null,CORRECT,,html-keyboard-response,27,377542,0.0-3.1-5.1-0.1,23842,List1B,black,man,,,,null,,,,
1737,"<img src=""portrait/WW1.jpg""style=""height:400px;""></img>",2,html-button-response,28,379279,0.0-3.1-7.1,23842,List1B,black,man,,TRUE,1,,,,,
2093,"<img src=""portrait/WW1.jpg""style=""height:400px;""></img>",1,html-button-response,29,382375,0.0-3.1-9.1-0.1,23842,List1B,black,man,,FALSE,1,,,,,
null,CORRECT,,html-keyboard-response,30,383880,0.0-3.1-9.1-1.1-0.1,23842,List1B,black,man,,,,null,,,,
1406,"<img src=""portrait/WW2.jpg""style=""height:400px;""></img>",3,html-button-response,31,385287,0.0-3.1-10.1,23842,List1B,black,man,,TRUE,3,,,,,
null,CORRECT,,html-keyboard-response,32,386792,0.0-3.1-11.1-0.1,23842,List1B,black,man,,,,null,,,,
1503,"<img src=""portrait/BM2.jpg""style=""height:400px;""></img>",5,html-button-response,33,388295,0.0-3.1-13.1,23842,List1B,black,man,,TRUE,5,,,,,
null,CORRECT,,html-keyboard-response,34,389800,0.0-3.1-14.1-0.1,23842,List1B,black,man,,,,null,,,,
885,"<img src=""portrait/BW2.jpg""style=""height:400px;""></img>",2,html-button-response,35,390687,0.0-3.1-16.1,23842,List1B,black,man,,TRUE,2,,,,,
null,CORRECT,,html-keyboard-response,36,392190,0.0-3.1-17.1-0.1,23842,List1B,black,man,,,,null,,,,
1928,"<img src=""portrait/BM1.jpg""style=""height:400px;""></img>",4,html-button-response,37,394119,0.0-3.1-19.1,23842,List1B,black,man,,TRUE,4,,,,,
null,CORRECT,,html-keyboard-response,38,395623,0.0-3.1-20.1-0.1,23842,List1B,black,man,,,,null,,,,
3063,"<img src=""portrait/WM1.jpg""style=""height:400px;""></img>",6,html-button-response,39,398687,0.0-3.1-22.1,23842,List1B,black,man,,TRUE,6,,,,,
null,CORRECT,,html-keyboard-response,40,400189,0.0-3.1-23.1-0.1,23842,List1B,black,man,,,,null,,,,
696,<p>You got 7 out of 8 right first time. Press Continue.</p>,0,html-button-response,41,400887,0.0-3.1-25.1,23842,List1B,black,man,,,,,,,,
693,"As you did not score 100%, the memory game will repeat. Press Continue.",0,html-button-response,42,402583,0.0-3.1-26.1-0.1,23842,List1B,black,man,,,,,,,,
829,"<img src='img/portrait_matrix_list1.jpg' style='width:900px;height:500px;''></img><p>If you have memorised all the portraits and names and are ready to start, press Continue.</p><p><strong>Please note: Your memory of these faces will be tested 4 times during this experiment.</strong></p>",0,html-button-response,43,404415,0.0-3.2-0.2,23842,List1B,black,man,,,,,,,,
796,"<img src=""portrait/BW1.jpg""style=""height:400px;""></img>",0,html-button-response,44,406215,0.0-3.2-1.2,23842,List1B,black,man,,TRUE,0,,,,,
null,CORRECT,,html-keyboard-response,45,407719,0.0-3.2-2.2-0.2,23842,List1B,black,man,,,,null,,,,
1840,"<img src=""portrait/WM2.jpg""style=""height:400px;""></img>",7,html-button-response,46,409561,0.0-3.2-4.2,23842,List1B,black,man,,TRUE,7,,,,,
null,CORRECT,,html-keyboard-response,47,411063,0.0-3.2-5.2-0.2,23842,List1B,black,man,,,,null,,,,
2440,"<img src=""portrait/WW1.jpg""style=""height:400px;""></img>",1,html-button-response,48,413503,0.0-3.2-7.2,23842,List1B,black,man,,TRUE,1,,,,,
null,CORRECT,,html-keyboard-response,49,415006,0.0-3.2-8.2-0.2,23842,List1B,black,man,,,,null,,,,
1672,"<img src=""portrait/WW2.jpg""style=""height:400px;""></img>",3,html-button-response,50,416679,0.0-3.2-10.2,23842,List1B,black,man,,TRUE,3,,,,,
null,CORRECT,,html-keyboard-response,51,418183,0.0-3.2-11.2-0.2,23842,List1B,black,man,,,,null,,,,
1896,"<img src=""portrait/BM2.jpg""style=""height:400px;""></img>",5,html-button-response,52,420079,0.0-3.2-13.2,23842,List1B,black,man,,TRUE,5,,,,,
null,CORRECT,,html-keyboard-response,53,421582,0.0-3.2-14.2-0.2,23842,List1B,black,man,,,,null,,,,
2200,"<img src=""portrait/BW2.jpg""style=""height:400px;""></img>",2,html-button-response,54,423783,0.0-3.2-16.2,23842,List1B,black,man,,TRUE,2,,,,,
null,CORRECT,,html-keyboard-response,55,425286,0.0-3.2-17.2-0.2,23842,List1B,black,man,,,,null,,,,
1457,"<img src=""portrait/BM1.jpg""style=""height:400px;""></img>",4,html-button-response,56,426743,0.0-3.2-19.2,23842,List1B,black,man,,TRUE,4,,,,,
null,CORRECT,,html-keyboard-response,57,428245,0.0-3.2-20.2-0.2,23842,List1B,black,man,,,,null,,,,
889,"<img src=""portrait/WM1.jpg""style=""height:400px;""></img>",6,html-button-response,58,429135,0.0-3.2-22.2,23842,List1B,black,man,,TRUE,6,,,,,
null,CORRECT,,html-keyboard-response,59,430638,0.0-3.2-23.2-0.2,23842,List1B,black,man,,,,null,,,,
1015,<p>You got 8 out of 8 right first time. Press Continue.</p>,0,html-button-response,60,431655,0.0-3.2-25.2,23842,List1B,black,man,,,,,,,,
41357,"<p>In this experiment, you will view photographs of the people from the memory game interacting.</p><p>By using the <strong>exact</strong> phrase given <i>after</i> the photograph appears and recalling the correct names of the people in the photographs, form a sentence describing the interaction. You do not need to capitalise names.</p><p>Type your answer in the space provided. Please complete every sentence before moving onto the next trial.</p><p>You will only have a few seconds to memorise each given photograph and phrase before you can respond, so try your best to focus.</p><p>An example is given below. Press 'Continue' when you are ready.</p><img src='img/speaking_example.jpg' style='width:800px;height:460px;''></img>",0,html-button-response,61,474016,0.0-4.0,23842,List1B,black,man,,,,,,,,
974,"<p>Before the experiment starts, you will watch two example trials. Press 'Continue'.</p>",0,html-button-response,62,475992,0.0-5.0,23842,List1B,black,man,,,,,,,,
null,<img src='img/meet_eg.gif' style='height:400px;''></img>,,html-keyboard-response,63,478996,0.0-6.0,23842,List1B,black,man,,,,null,,,,
null,<p>is meeting</p>,,html-keyboard-response,64,480998,0.0-7.0,23842,List1B,black,man,,,,null,,,,
2489,<p><b>Answer:</b> kate is meeting beth</p>,0,html-button-response,65,483488,0.0-8.0,23842,List1B,black,man,,,,,,,,
null,<img src='img/look_eg.gif' style='height:400px;''></img>,,html-keyboard-response,66,486491,0.0-9.0,23842,List1B,black,man,,,,null,,,,
null,<p>are looking at each other</p>,,html-keyboard-response,67,488492,0.0-10.0,23842,List1B,black,man,,,,null,,,,
1323,<p><b>Answer:</b> luke and dave are looking at each other</p>,0,html-button-response,68,489816,0.0-11.0,23842,List1B,black,man,,,,,,,,
7158,"<p>Ready to start the experiment?</p><br><p><strong>Remember to describe the picture using a full sentence,</strong></p><p><strong>that combines the names of the people with the <i>exact</i> phrase given.</strong></p><p><strong>To receive full payment you must do this correctly.</strong></p><p><strong> You do not need to capitalise names or use punctuation.</strong></p><br><p>Press 'Continue' to begin.</p>",0,html-button-response,69,497976,0.0-12.0,23842,List1B,black,man,,,,,,,,
null,"<div style=""font-size:60px;"">+</div>",,html-keyboard-response,70,499478,0.0-13.0-0.0,23842,List1B,black,man,,,,null,,,,
null,"<img src=""stim_listB/shout2.gif""style=""height:400px;""></stim_listB>",,html-keyboard-response,71,501481,0.0-13.0-1.0,23842,List1B,black,man,,,,null,,,,
null,are shouting at each other,,html-keyboard-response,72,503482,0.0-13.0-2.0,23842,List1B,black,man,,,,null,,,,
26852,,,survey-text,73,530335,0.0-13.0-3.0,23842,List1B,black,man,,,,,"{""Q0"":""mike and kate are shouting at each other""}","<img src=""stim_listB/shout2.gif""style=""height:400px;""></stim_listB>",are shouting at each other,
null,"<div style=""font-size:60px;"">+</div>",,html-keyboard-response,74,530837,0.0-13.0-0.1,23842,List1B,black,man,,,,null,,,,
null,"<img src=""stim_listB/dance1.gif""style=""height:400px;""></stim_listB>",,html-keyboard-response,75,532839,0.0-13.0-1.1,23842,List1B,black,man,,,,null,,,,
null,is dancing with,,html-keyboard-response,76,534840,0.0-13.0-2.1,23842,List1B,black,man,,,,null,,,,
6326,,,survey-text,77,541167,0.0-13.0-3.1,23842,List1B,black,man,,,,,"{""Q0"":""dave is dancing with kate""}","<img src=""stim_listB/dance1.gif""style=""height:400px;""></stim_listB>",is dancing with,
null,"<div style=""font-size:60px;"">+</div>",,html-keyboard-response,78,541668,0.0-13.0-0.2,23842,List1B,black,man,,,,null,,,,
null,"<img src=""stim_listB/play2.gif""style=""height:400px;""></stim_listB>",,html-keyboard-response,79,543670,0.0-13.0-1.2,23842,List1B,black,man,,,,null,,,,
null,are playing with each other,,html-keyboard-response,80,545672,0.0-13.0-2.2,23842,List1B,black,man,,,,null,,,,
15999,,,survey-text,81,561671,0.0-13.0-3.2,23842,List1B,black,man,,,,,"{""Q0"":""Fred and beth are playing with eachother""}","<img src=""stim_listB/play2.gif""style=""height:400px;""></stim_listB>",are playing with each other,
null,"<div style=""font-size:60px;"">+</div>",,html-keyboard-response,82,562172,0.0-13.0-0.3,23842,List1B,black,man,,,,null,,,,
null,"<img src=""stim_listB/kiss3.gif""style=""height:400px;""></stim_listB>",,html-keyboard-response,83,564174,0.0-13.0-1.3,23842,List1B,black,man,,,,null,,,,
null,is kissing,,html-keyboard-response,84,566175,0.0-13.0-2.3,23842,List1B,black,man,,,,null,,,,
8126,,,survey-text,85,574303,0.0-13.0-3.3,23842,List1B,black,man,,,,,"{""Q0"":""luke is kissing ruth""}","<img src=""stim_listB/kiss3.gif""style=""height:400px;""></stim_listB>",is kissing,
null,"<div style=""font-size:60px;"">+</div>",,html-keyboard-response,86,574804,0.0-13.0-0.4,23842,List1B,black,man,,,,null,,,,
null,"<img src=""stim_listB/fight2.gif""style=""height:400px;""></stim_listB>",,html-keyboard-response,87,576805,0.0-13.0-1.4,23842,List1B,black,man,,,,null,,,,
null,are fighting each other,,html-keyboard-response,88,578806,0.0-13.0-2.4,23842,List1B,black,man,,,,null,,,,
12639,,,survey-text,89,591446,0.0-13.0-3.4,23842,List1B,black,man,,,,,"{""Q0"":""fred and beth are fighting eachother""}","<img src=""stim_listB/fight2.gif""style=""height:400px;""></stim_listB>",are fighting each other,
null,"<div style=""font-size:60px;"">+</div>",,html-keyboard-response,90,591948,0.0-13.0-0.5,23842,List1B,black,man,,,,null,,,,
null,"<img src=""stim_listB/argue2.gif""style=""height:400px;""></stim_listB>",,html-keyboard-response,91,593950,0.0-13.0-1.5,23842,List1B,black,man,,,,null,,,,
null,are arguing with each other,,html-keyboard-response,92,595952,0.0-13.0-2.5,23842,List1B,black,man,,,,null,,,,
19061,,,survey-text,93,615015,0.0-13.0-3.5,23842,List1B,black,man,,,,,"{""Q0"":""Fred and Kate are arguing with each other""}","<img src=""stim_listB/argue2.gif""style=""height:400px;""></stim_listB>",are arguing with each other,
null,"<div style=""font-size:60px;"">+</div>",,html-keyboard-response,94,615517,0.0-13.0-0.6,23842,List1B,black,man,,,,null,,,,
null,"<img src=""stim_listB/shout7.gif""style=""height:400px;""></stim_listB>",,html-keyboard-response,95,617518,0.0-13.0-1.6,23842,List1B,black,man,,,,null,,,,
null,is shouting at,,html-keyboard-response,96,619520,0.0-13.0-2.6,23842,List1B,black,man,,,,null,,,,
10182,,,survey-text,97,629702,0.0-13.0-3.6,23842,List1B,black,man,,,,,"{""Q0"":""Ruth is shouting at Beth""}","<img src=""stim_listB/shout7.gif""style=""height:400px;""></stim_listB>",is shouting at,
null,"<div style=""font-size:60px;"">+</div>",,html-keyboard-response,98,630205,0.0-13.0-0.7,23842,List1B,black,man,,,,null,,,,
null,"<img src=""stim_listB/play1.gif""style=""height:400px;""></stim_listB>",,html-keyboard-response,99,632208,0.0-13.0-1.7,23842,List1B,black,man,,,,null,,,,
null,is playing with,,html-keyboard-response,100,634210,0.0-13.0-2.7,23842,List1B,black,man,,,,null,,,,
7540,,,survey-text,101,641750,0.0-13.0-3.7,23842,List1B,black,man,,,,,"{""Q0"":""Mike is playing with Kate""}","<img src=""stim_listB/play1.gif""style=""height:400px;""></stim_listB>",is playing with,
null,"<div style=""font-size:60px;"">+</div>",,html-keyboard-response,102,642252,0.0-13.0-0.8,23842,List1B,black,man,,,,null,,,,
null,"<img src=""stim_listB/fight5.gif""style=""height:400px;""></stim_listB>",,html-keyboard-response,103,644255,0.0-13.0-1.8,23842,List1B,black,man,,,,null,,,,
null,is fighting,,html-keyboard-response,104,646256,0.0-13.0-2.8,23842,List1B,black,man,,,,null,,,,
5910,,,survey-text,105,652167,0.0-13.0-3.8,23842,List1B,black,man,,,,,"{""Q0"":""Dave is fighting mike""}","<img src=""stim_listB/fight5.gif""style=""height:400px;""></stim_listB>",is fighting,
null,"<div style=""font-size:60px;"">+</div>",,html-keyboard-response,106,652669,0.0-13.0-0.9,23842,List1B,black,man,,,,null,,,,
null,"<img src=""stim_listB/dance7.gif""style=""height:400px;""></stim_listB>",,html-keyboard-response,107,654671,0.0-13.0-1.9,23842,List1B,black,man,,,,null,,,,
null,is dancing with,,html-keyboard-response,108,656673,0.0-13.0-2.9,23842,List1B,black,man,,,,null,,,,
12797,,,survey-text,109,669471,0.0-13.0-3.9,23842,List1B,black,man,,,,,"{""Q0"":""Beth is dancing with Jane""}","<img src=""stim_listB/dance7.gif""style=""height:400px;""></stim_listB>",is dancing with,
null,"<div style=""font-size:60px;"">+</div>",,html-keyboard-response,110,669973,0.0-13.0-0.10,23842,List1B,black,man,,,,null,,,,
null,"<img src=""stim_listB/kiss8.gif""style=""height:400px;""></stim_listB>",,html-keyboard-response,111,671975,0.0-13.0-1.10,23842,List1B,black,man,,,,null,,,,
null,are kissing each other,,html-keyboard-response,112,673976,0.0-13.0-2.10,23842,List1B,black,man,,,,null,,,,
15879,,,survey-text,113,689855,0.0-13.0-3.10,23842,List1B,black,man,,,,,"{""Q0"":""Kate and Jane are kissing each other""}","<img src=""stim_listB/kiss8.gif""style=""height:400px;""></stim_listB>",are kissing each other,
null,"<div style=""font-size:60px;"">+</div>",,html-keyboard-response,114,690357,0.0-13.0-0.11,23842,List1B,black,man,,,,null,,,,
null,"<img src=""stim_listB/play7.gif""style=""height:400px;""></stim_listB>",,html-keyboard-response,115,692359,0.0-13.0-1.11,23842,List1B,black,man,,,,null,,,,
null,is playing with,,html-keyboard-response,116,694360,0.0-13.0-2.11,23842,List1B,black,man,,,,null,,,,
11445,,,survey-text,117,705807,0.0-13.0-3.11,23842,List1B,black,man,,,,,"{""Q0"":""Jane is playing with Kate""}","<img src=""stim_listB/play7.gif""style=""height:400px;""></stim_listB>",is playing with,
null,"<div style=""font-size:60px;"">+</div>",,html-keyboard-response,118,706308,0.0-13.0-0.12,23842,List1B,black,man,,,,null,,,,
null,"<img src=""stim_listB/argue5.gif""style=""height:400px;""></stim_listB>",,html-keyboard-response,119,708310,0.0-13.0-1.12,23842,List1B,black,man,,,,null,,,,
null,is arguing with,,html-keyboard-response,120,710312,0.0-13.0-2.12,23842,List1B,black,man,,,,null,,,,
9549,,,survey-text,121,719862,0.0-13.0-3.12,23842,List1B,black,man,,,,,"{""Q0"":""Mike is arguing with Luke ""}","<img src=""stim_listB/argue5.gif""style=""height:400px;""></stim_listB>",is arguing with,
null,"<div style=""font-size:60px;"">+</div>",,html-keyboard-response,122,720364,0.0-13.0-0.13,23842,List1B,black,man,,,,null,,,,
null,"<img src=""stim_listB/kiss6.gif""style=""height:400px;""></stim_listB>",,html-keyboard-response,123,722366,0.0-13.0-1.13,23842,List1B,black,man,,,,null,,,,
null,are kissing each other,,html-keyboard-response,124,724367,0.0-13.0-2.13,23842,List1B,black,man,,,,null,,,,
9822,,,survey-text,125,734190,0.0-13.0-3.13,23842,List1B,black,man,,,,,"{""Q0"":""Mike and Dave are kissing each other ""}","<img src=""stim_listB/kiss6.gif""style=""height:400px;""></stim_listB>",are kissing each other,
null,"<div style=""font-size:60px;"">+</div>",,html-keyboard-response,126,734692,0.0-13.0-0.14,23842,List1B,black,man,,,,null,,,,
null,"<img src=""stim_listB/flirt5.gif""style=""height:400px;""></stim_listB>",,html-keyboard-response,127,736694,0.0-13.0-1.14,23842,List1B,black,man,,,,null,,,,
null,is flirting with,,html-keyboard-response,128,738696,0.0-13.0-2.14,23842,List1B,black,man,,,,null,,,,
8950,,,survey-text,129,747646,0.0-13.0-3.14,23842,List1B,black,man,,,,,"{""Q0"":""Dave is flirting with Fred  ""}","<img src=""stim_listB/flirt5.gif""style=""height:400px;""></stim_listB>",is flirting with,
null,"<div style=""font-size:60px;"">+</div>",,html-keyboard-response,130,748148,0.0-13.0-0.15,23842,List1B,black,man,,,,null,,,,
null,"<img src=""stim_listB/dance6.gif""style=""height:400px;""></stim_listB>",,html-keyboard-response,131,750151,0.0-13.0-1.15,23842,List1B,black,man,,,,null,,,,
null,are dancing with each other,,html-keyboard-response,132,752152,0.0-13.0-2.15,23842,List1B,black,man,,,,null,,,,
7886,,,survey-text,133,760038,0.0-13.0-3.15,23842,List1B,black,man,,,,,"{""Q0"":""Mike and Luke are dancing with each other""}","<img src=""stim_listB/dance6.gif""style=""height:400px;""></stim_listB>",are dancing with each other,
null,"<div style=""font-size:60px;"">+</div>",,html-keyboard-response,134,760541,0.0-13.0-0.16,23842,List1B,black,man,,,,null,,,,
null,"<img src=""stim_listB/talk4.gif""style=""height:400px;""></stim_listB>",,html-keyboard-response,135,762542,0.0-13.0-1.16,23842,List1B,black,man,,,,null,,,,
null,are talking to each other,,html-keyboard-response,136,764543,0.0-13.0-2.16,23842,List1B,black,man,,,,null,,,,
12494,,,survey-text,137,777038,0.0-13.0-3.16,23842,List1B,black,man,,,,,"{""Q0"":""Dave and Ruth are talking to each other""}","<img src=""stim_listB/talk4.gif""style=""height:400px;""></stim_listB>",are talking to each other,
null,"<div style=""font-size:60px;"">+</div>",,html-keyboard-response,138,777541,0.0-13.0-0.17,23842,List1B,black,man,,,,null,,,,
null,"<img src=""stim_listB/kiss2.gif""style=""height:400px;""></stim_listB>",,html-keyboard-response,139,779543,0.0-13.0-1.17,23842,List1B,black,man,,,,null,,,,
null,are kissing each other,,html-keyboard-response,140,781546,0.0-13.0-2.17,23842,List1B,black,man,,,,null,,,,
8308,,,survey-text,141,789855,0.0-13.0-3.17,23842,List1B,black,man,,,,,"{""Q0"":""Mike and Kate are kissing each other""}","<img src=""stim_listB/kiss2.gif""style=""height:400px;""></stim_listB>",are kissing each other,
null,"<div style=""font-size:60px;"">+</div>",,html-keyboard-response,142,790357,0.0-13.0-0.18,23842,List1B,black,man,,,,null,,,,
null,"<img src=""stim_listB/touch6.gif""style=""height:400px;""></stim_listB>",,html-keyboard-response,143,792359,0.0-13.0-1.18,23842,List1B,black,man,,,,null,,,,
null,are touching each other,,html-keyboard-response,144,794361,0.0-13.0-2.18,23842,List1B,black,man,,,,null,,,,
14765,,,survey-text,145,809127,0.0-13.0-3.18,23842,List1B,black,man,,,,,"{""Q0"":""Fred and Luke are touching each other ""}","<img src=""stim_listB/touch6.gif""style=""height:400px;""></stim_listB>",are touching each other,
null,"<div style=""font-size:60px;"">+</div>",,html-keyboard-response,146,809629,0.0-13.0-0.19,23842,List1B,black,man,,,,null,,,,
null,"<img src=""stim_listB/play6.gif""style=""height:400px;""></stim_listB>",,html-keyboard-response,147,811631,0.0-13.0-1.19,23842,List1B,black,man,,,,null,,,,
null,are playing with each other,,html-keyboard-response,148,813633,0.0-13.0-2.19,23842,List1B,black,man,,,,null,,,,
7860,,,survey-text,149,821495,0.0-13.0-3.19,23842,List1B,black,man,,,,,"{""Q0"":""Fred and Luke are playing with each other""}","<img src=""stim_listB/play6.gif""style=""height:400px;""></stim_listB>",are playing with each other,
14215,"<img src='img/portrait_matrix_list1.jpg' style='width:900px;height:500px;''></img><p>If you have memorised all the portraits and names and are ready to start, press Continue.</p><p><strong>Please note: Your memory of these faces will be tested 4 times during this experiment.</strong></p>",0,html-button-response,150,835711,0.0-14.0-0.0,23842,List1B,black,man,,,,,,,,
4670,"<img src=""portrait/BW1.jpg""style=""height:400px;""></img>",0,html-button-response,151,841383,0.0-14.0-1.0,23842,List1B,black,man,,TRUE,0,,,,,
null,CORRECT,,html-keyboard-response,152,842886,0.0-14.0-2.0-0.0,23842,List1B,black,man,,,,null,,,,
1399,"<img src=""portrait/WM2.jpg""style=""height:400px;""></img>",7,html-button-response,153,844287,0.0-14.0-4.0,23842,List1B,black,man,,TRUE,7,,,,,
null,CORRECT,,html-keyboard-response,154,845790,0.0-14.0-5.0-0.0,23842,List1B,black,man,,,,null,,,,
1687,"<img src=""portrait/WM1.jpg""style=""height:400px;""></img>",6,html-button-response,155,847479,0.0-14.0-7.0,23842,List1B,black,man,,TRUE,6,,,,,
null,CORRECT,,html-keyboard-response,156,848982,0.0-14.0-8.0-0.0,23842,List1B,black,man,,,,null,,,,
1216,"<img src=""portrait/BM1.jpg""style=""height:400px;""></img>",4,html-button-response,157,850199,0.0-14.0-10.0,23842,List1B,black,man,,TRUE,4,,,,,
null,CORRECT,,html-keyboard-response,158,851701,0.0-14.0-11.0-0.0,23842,List1B,black,man,,,,null,,,,
4984,"<img src=""portrait/WW1.jpg""style=""height:400px;""></img>",1,html-button-response,159,856687,0.0-14.0-13.0,23842,List1B,black,man,,TRUE,1,,,,,
null,CORRECT,,html-keyboard-response,160,858189,0.0-14.0-14.0-0.0,23842,List1B,black,man,,,,null,,,,
1705,"<img src=""portrait/BW2.jpg""style=""height:400px;""></img>",2,html-button-response,161,859895,0.0-14.0-16.0,23842,List1B,black,man,,TRUE,2,,,,,
null,CORRECT,,html-keyboard-response,162,861398,0.0-14.0-17.0-0.0,23842,List1B,black,man,,,,null,,,,
1344,"<img src=""portrait/BM2.jpg""style=""height:400px;""></img>",5,html-button-response,163,862743,0.0-14.0-19.0,23842,List1B,black,man,,TRUE,5,,,,,
null,CORRECT,,html-keyboard-response,164,864246,0.0-14.0-20.0-0.0,23842,List1B,black,man,,,,null,,,,
1375,"<img src=""portrait/WW2.jpg""style=""height:400px;""></img>",3,html-button-response,165,865623,0.0-14.0-22.0,23842,List1B,black,man,,TRUE,3,,,,,
null,CORRECT,,html-keyboard-response,166,867127,0.0-14.0-23.0-0.0,23842,List1B,black,man,,,,null,,,,
1111,<p>You got 8 out of 8 right first time. Press Continue.</p>,0,html-button-response,167,868238,0.0-14.0-25.0,23842,List1B,black,man,,,,,,,,
null,"<div style=""font-size:60px;"">+</div>",,html-keyboard-response,168,869741,0.0-15.0-0.0,23842,List1B,black,man,,,,null,,,,
null,"<img src=""stim_listB/shout5.gif""style=""height:400px;""></stim_listB>",,html-keyboard-response,169,871742,0.0-15.0-1.0,23842,List1B,black,man,,,,null,,,,
null,is shouting at,,html-keyboard-response,170,873744,0.0-15.0-2.0,23842,List1B,black,man,,,,null,,,,
9509,,,survey-text,171,883255,0.0-15.0-3.0,23842,List1B,black,man,,,,,"{""Q0"":""Luke is shouting at Fred""}","<img src=""stim_listB/shout5.gif""style=""height:400px;""></stim_listB>",is shouting at,
null,"<div style=""font-size:60px;"">+</div>",,html-keyboard-response,172,883756,0.0-15.0-0.1,23842,List1B,black,man,,,,null,,,,
null,"<img src=""stim_listB/marry6.gif""style=""height:400px;""></stim_listB>",,html-keyboard-response,173,885759,0.0-15.0-1.1,23842,List1B,black,man,,,,null,,,,
null,are marrying each other,,html-keyboard-response,174,887761,0.0-15.0-2.1,23842,List1B,black,man,,,,null,,,,
8213,,,survey-text,175,895974,0.0-15.0-3.1,23842,List1B,black,man,,,,,"{""Q0"":""Fred and Dave are marrying each other""}","<img src=""stim_listB/marry6.gif""style=""height:400px;""></stim_listB>",are marrying each other,
null,"<div style=""font-size:60px;"">+</div>",,html-keyboard-response,176,896477,0.0-15.0-0.2,23842,List1B,black,man,,,,null,,,,
null,"<img src=""stim_listB/talk3.gif""style=""height:400px;""></stim_listB>",,html-keyboard-response,177,898479,0.0-15.0-1.2,23842,List1B,black,man,,,,null,,,,
null,is talking to,,html-keyboard-response,178,900480,0.0-15.0-2.2,23842,List1B,black,man,,,,null,,,,
7901,,,survey-text,179,908382,0.0-15.0-3.2,23842,List1B,black,man,,,,,"{""Q0"":""Jane is talking to Luke""}","<img src=""stim_listB/talk3.gif""style=""height:400px;""></stim_listB>",is talking to,
null,"<div style=""font-size:60px;"">+</div>",,html-keyboard-response,180,908884,0.0-15.0-0.3,23842,List1B,black,man,,,,null,,,,
null,"<img src=""stim_listB/fight4.gif""style=""height:400px;""></stim_listB>",,html-keyboard-response,181,910886,0.0-15.0-1.3,23842,List1B,black,man,,,,null,,,,
null,are fighting each other,,html-keyboard-response,182,912887,0.0-15.0-2.3,23842,List1B,black,man,,,,null,,,,
9199,,,survey-text,183,922086,0.0-15.0-3.3,23842,List1B,black,man,,,,,"{""Q0"":""Luke and Ruth are fighting each other""}","<img src=""stim_listB/fight4.gif""style=""height:400px;""></stim_listB>",are fighting each other,
null,"<div style=""font-size:60px;"">+</div>",,html-keyboard-response,184,922589,0.0-15.0-0.4,23842,List1B,black,man,,,,null,,,,
null,"<img src=""stim_listB/dance8.gif""style=""height:400px;""></stim_listB>",,html-keyboard-response,185,924590,0.0-15.0-1.4,23842,List1B,black,man,,,,null,,,,
null,are dancing with each other,,html-keyboard-response,186,926592,0.0-15.0-2.4,23842,List1B,black,man,,,,null,,,,
12877,,,survey-text,187,939471,0.0-15.0-3.4,23842,List1B,black,man,,,,,"{""Q0"":""Kate and Ruth are dancing with each other""}","<img src=""stim_listB/dance8.gif""style=""height:400px;""></stim_listB>",are dancing with each other,
null,"<div style=""font-size:60px;"">+</div>",,html-keyboard-response,188,939973,0.0-15.0-0.5,23842,List1B,black,man,,,,null,,,,
null,"<img src=""stim_listB/dance2.gif""style=""height:400px;""></stim_listB>",,html-keyboard-response,189,941974,0.0-15.0-1.5,23842,List1B,black,man,,,,null,,,,
null,are dancing with each other,,html-keyboard-response,190,943976,0.0-15.0-2.5,23842,List1B,black,man,,,,null,,,,
12757,,,survey-text,191,956735,0.0-15.0-3.5,23842,List1B,black,man,,,,,"{""Q0"":""Mike and Beth are dancing with each other ""}","<img src=""stim_listB/dance2.gif""style=""height:400px;""></stim_listB>",are dancing with each other,
null,"<div style=""font-size:60px;"">+</div>",,html-keyboard-response,192,957237,0.0-15.0-0.6,23842,List1B,black,man,,,,null,,,,
null,"<img src=""stim_listB/kiss5.gif""style=""height:400px;""></stim_listB>",,html-keyboard-response,193,959240,0.0-15.0-1.6,23842,List1B,black,man,,,,null,,,,
null,is kissing,,html-keyboard-response,194,961242,0.0-15.0-2.6,23842,List1B,black,man,,,,null,,,,
4731,,,survey-text,195,965974,0.0-15.0-3.6,23842,List1B,black,man,,,,,"{""Q0"":""Luke is kissing Fred""}","<img src=""stim_listB/kiss5.gif""style=""height:400px;""></stim_listB>",is kissing,
null,"<div style=""font-size:60px;"">+</div>",,html-keyboard-response,196,966476,0.0-15.0-0.7,23842,List1B,black,man,,,,null,,,,
null,"<img src=""stim_listB/argue6.gif""style=""height:400px;""></stim_listB>",,html-keyboard-response,197,968479,0.0-15.0-1.7,23842,List1B,black,man,,,,null,,,,
null,are arguing with each other,,html-keyboard-response,198,970480,0.0-15.0-2.7,23842,List1B,black,man,,,,null,,,,
8222,,,survey-text,199,978702,0.0-15.0-3.7,23842,List1B,black,man,,,,,"{""Q0"":""Dave and Fred are arguing with each other""}","<img src=""stim_listB/argue6.gif""style=""height:400px;""></stim_listB>",are arguing with each other,
null,"<div style=""font-size:60px;"">+</div>",,html-keyboard-response,200,979204,0.0-15.0-0.8,23842,List1B,black,man,,,,null,,,,
null,"<img src=""stim_listB/marry8.gif""style=""height:400px;""></stim_listB>",,html-keyboard-response,201,981206,0.0-15.0-1.8,23842,List1B,black,man,,,,null,,,,
null,are marrying each other,,html-keyboard-response,202,983206,0.0-15.0-2.8,23842,List1B,black,man,,,,null,,,,
9983,,,survey-text,203,993191,0.0-15.0-3.8,23842,List1B,black,man,,,,,"{""Q0"":""Beth and Jane are marrying each other""}","<img src=""stim_listB/marry8.gif""style=""height:400px;""></stim_listB>",are marrying each other,
null,"<div style=""font-size:60px;"">+</div>",,html-keyboard-response,204,993692,0.0-15.0-0.9,23842,List1B,black,man,,,,null,,,,
null,"<img src=""stim_listB/shout4.gif""style=""height:400px;""></stim_listB>",,html-keyboard-response,205,995694,0.0-15.0-1.9,23842,List1B,black,man,,,,null,,,,
null,are shouting at each other,,html-keyboard-response,206,997696,0.0-15.0-2.9,23842,List1B,black,man,,,,null,,,,
10230,,,survey-text,207,1007927,0.0-15.0-3.9,23842,List1B,black,man,,,,,"{""Q0"":""Dave and Jane are shouting at each other""}","<img src=""stim_listB/shout4.gif""style=""height:400px;""></stim_listB>",are shouting at each other,
null,"<div style=""font-size:60px;"">+</div>",,html-keyboard-response,208,1008429,0.0-15.0-0.10,23842,List1B,black,man,,,,null,,,,
null,"<img src=""stim_listB/touch7.gif""style=""height:400px;""></stim_listB>",,html-keyboard-response,209,1010431,0.0-15.0-1.10,23842,List1B,black,man,,,,null,,,,
null,is touching,,html-keyboard-response,210,1012433,0.0-15.0-2.10,23842,List1B,black,man,,,,null,,,,
6860,,,survey-text,211,1019295,0.0-15.0-3.10,23842,List1B,black,man,,,,,"{""Q0"":""Jane is touching Kate""}","<img src=""stim_listB/touch7.gif""style=""height:400px;""></stim_listB>",is touching,
null,"<div style=""font-size:60px;"">+</div>",,html-keyboard-response,212,1019796,0.0-15.0-0.11,23842,List1B,black,man,,,,null,,,,
null,"<img src=""stim_listB/kiss4.gif""style=""height:400px;""></stim_listB>",,html-keyboard-response,213,1021798,0.0-15.0-1.11,23842,List1B,black,man,,,,null,,,,
null,are kissing each other,,html-keyboard-response,214,1023800,0.0-15.0-2.11,23842,List1B,black,man,,,,null,,,,
9302,,,survey-text,215,1033102,0.0-15.0-3.11,23842,List1B,black,man,,,,,"{""Q0"":""Dave and Jane are kissing each other""}","<img src=""stim_listB/kiss4.gif""style=""height:400px;""></stim_listB>",are kissing each other,
null,"<div style=""font-size:60px;"">+</div>",,html-keyboard-response,216,1033604,0.0-15.0-0.12,23842,List1B,black,man,,,,null,,,,
null,"<img src=""stim_listB/flirt8.gif""style=""height:400px;""></stim_listB>",,html-keyboard-response,217,1035606,0.0-15.0-1.12,23842,List1B,black,man,,,,null,,,,
null,are flirting with each other,,html-keyboard-response,218,1037608,0.0-15.0-2.12,23842,List1B,black,man,,,,null,,,,
10077,,,survey-text,219,1047686,0.0-15.0-3.12,23842,List1B,black,man,,,,,"{""Q0"":""Kate and Ruth are flirting with each other""}","<img src=""stim_listB/flirt8.gif""style=""height:400px;""></stim_listB>",are flirting with each other,
null,"<div style=""font-size:60px;"">+</div>",,html-keyboard-response,220,1048189,0.0-15.0-0.13,23842,List1B,black,man,,,,null,,,,
null,"<img src=""stim_listB/fight6.gif""style=""height:400px;""></stim_listB>",,html-keyboard-response,221,1050190,0.0-15.0-1.13,23842,List1B,black,man,,,,null,,,,
null,are fighting each other,,html-keyboard-response,222,1052193,0.0-15.0-2.13,23842,List1B,black,man,,,,null,,,,
10149,,,survey-text,223,1062342,0.0-15.0-3.13,23842,List1B,black,man,,,,,"{""Q0"":""Dave and Luke are fighting with each other""}","<img src=""stim_listB/fight6.gif""style=""height:400px;""></stim_listB>",are fighting each other,
null,"<div style=""font-size:60px;"">+</div>",,html-keyboard-response,224,1062844,0.0-15.0-0.14,23842,List1B,black,man,,,,null,,,,
null,"<img src=""stim_listB/flirt3.gif""style=""height:400px;""></stim_listB>",,html-keyboard-response,225,1064847,0.0-15.0-1.14,23842,List1B,black,man,,,,null,,,,
null,is flirting with,,html-keyboard-response,226,1066848,0.0-15.0-2.14,23842,List1B,black,man,,,,null,,,,
8045,,,survey-text,227,1074894,0.0-15.0-3.14,23842,List1B,black,man,,,,,"{""Q0"":""Jane is flirting with Luke""}","<img src=""stim_listB/flirt3.gif""style=""height:400px;""></stim_listB>",is flirting with,
null,"<div style=""font-size:60px;"">+</div>",,html-keyboard-response,228,1075396,0.0-15.0-0.15,23842,List1B,black,man,,,,null,,,,
null,"<img src=""stim_listB/argue7.gif""style=""height:400px;""></stim_listB>",,html-keyboard-response,229,1077398,0.0-15.0-1.15,23842,List1B,black,man,,,,null,,,,
null,is arguing with,,html-keyboard-response,230,1079400,0.0-15.0-2.15,23842,List1B,black,man,,,,null,,,,
8470,,,survey-text,231,1087870,0.0-15.0-3.15,23842,List1B,black,man,,,,,"{""Q0"":""Ruth is arguing with Kate""}","<img src=""stim_listB/argue7.gif""style=""height:400px;""></stim_listB>",is arguing with,
null,"<div style=""font-size:60px;"">+</div>",,html-keyboard-response,232,1088373,0.0-15.0-0.16,23842,List1B,black,man,,,,null,,,,
null,"<img src=""stim_listB/flirt4.gif""style=""height:400px;""></stim_listB>",,html-keyboard-response,233,1090375,0.0-15.0-1.16,23842,List1B,black,man,,,,null,,,,
null,are flirting with each other,,html-keyboard-response,234,1092376,0.0-15.0-2.16,23842,List1B,black,man,,,,null,,,,
9277,,,survey-text,235,1101654,0.0-15.0-3.16,23842,List1B,black,man,,,,,"{""Q0"":""Dave and Ruth are flirting with each other""}","<img src=""stim_listB/flirt4.gif""style=""height:400px;""></stim_listB>",are flirting with each other,
null,"<div style=""font-size:60px;"">+</div>",,html-keyboard-response,236,1102156,0.0-15.0-0.17,23842,List1B,black,man,,,,null,,,,
null,"<img src=""stim_listB/touch8.gif""style=""height:400px;""></stim_listB>",,html-keyboard-response,237,1104159,0.0-15.0-1.17,23842,List1B,black,man,,,,null,,,,
null,are touching each other,,html-keyboard-response,238,1106161,0.0-15.0-2.17,23842,List1B,black,man,,,,null,,,,
9900,,,survey-text,239,1116062,0.0-15.0-3.17,23842,List1B,black,man,,,,,"{""Q0"":""Beth and ruth are touching each other""}","<img src=""stim_listB/touch8.gif""style=""height:400px;""></stim_listB>",are touching each other,
null,"<div style=""font-size:60px;"">+</div>",,html-keyboard-response,240,1116564,0.0-15.0-0.18,23842,List1B,black,man,,,,null,,,,
null,"<img src=""stim_listB/play3.gif""style=""height:400px;""></stim_listB>",,html-keyboard-response,241,1118566,0.0-15.0-1.18,23842,List1B,black,man,,,,null,,,,
null,is playing with,,html-keyboard-response,242,1120568,0.0-15.0-2.18,23842,List1B,black,man,,,,null,,,,
8940,,,survey-text,243,1129510,0.0-15.0-3.18,23842,List1B,black,man,,,,,"{""Q0"":""Jane is playing with Dave""}","<img src=""stim_listB/play3.gif""style=""height:400px;""></stim_listB>",is playing with,
null,"<div style=""font-size:60px;"">+</div>",,html-keyboard-response,244,1130012,0.0-15.0-0.19,23842,List1B,black,man,,,,null,,,,
null,"<img src=""stim_listB/fight7.gif""style=""height:400px;""></stim_listB>",,html-keyboard-response,245,1132014,0.0-15.0-1.19,23842,List1B,black,man,,,,null,,,,
null,is fighting,,html-keyboard-response,246,1134016,0.0-15.0-2.19,23842,List1B,black,man,,,,null,,,,
8517,,,survey-text,247,1142534,0.0-15.0-3.19,23842,List1B,black,man,,,,,"{""Q0"":""Jane is fighting Kate""}","<img src=""stim_listB/fight7.gif""style=""height:400px;""></stim_listB>",is fighting,
7998,"<img src='img/portrait_matrix_list1.jpg' style='width:900px;height:500px;''></img><p>If you have memorised all the portraits and names and are ready to start, press Continue.</p><p><strong>Please note: Your memory of these faces will be tested 4 times during this experiment.</strong></p>",0,html-button-response,248,1150534,0.0-16.0-0.0,23842,List1B,black,man,,,,,,,,
2196,"<img src=""portrait/BM2.jpg""style=""height:400px;""></img>",5,html-button-response,249,1153734,0.0-16.0-1.0,23842,List1B,black,man,,TRUE,5,,,,,
null,CORRECT,,html-keyboard-response,250,1155237,0.0-16.0-2.0-0.0,23842,List1B,black,man,,,,null,,,,
2976,"<img src=""portrait/WW1.jpg""style=""height:400px;""></img>",1,html-button-response,251,1158214,0.0-16.0-4.0,23842,List1B,black,man,,TRUE,1,,,,,
null,CORRECT,,html-keyboard-response,252,1159717,0.0-16.0-5.0-0.0,23842,List1B,black,man,,,,null,,,,
2287,"<img src=""portrait/BW1.jpg""style=""height:400px;""></img>",0,html-button-response,253,1162006,0.0-16.0-7.0,23842,List1B,black,man,,TRUE,0,,,,,
null,CORRECT,,html-keyboard-response,254,1163509,0.0-16.0-8.0-0.0,23842,List1B,black,man,,,,null,,,,
1663,"<img src=""portrait/WM2.jpg""style=""height:400px;""></img>",7,html-button-response,255,1165174,0.0-16.0-10.0,23842,List1B,black,man,,TRUE,7,,,,,
null,CORRECT,,html-keyboard-response,256,1166678,0.0-16.0-11.0-0.0,23842,List1B,black,man,,,,null,,,,
1334,"<img src=""portrait/WM1.jpg""style=""height:400px;""></img>",5,html-button-response,257,1168014,0.0-16.0-13.0,23842,List1B,black,man,,TRUE,6,,,,,
1404,"<img src=""portrait/WM1.jpg""style=""height:400px;""></img>",6,html-button-response,258,1170422,0.0-16.0-15.0-0.0,23842,List1B,black,man,,FALSE,6,,,,,
null,CORRECT,,html-keyboard-response,259,1171924,0.0-16.0-15.0-1.0-0.0,23842,List1B,black,man,,,,null,,,,
1376,"<img src=""portrait/BW2.jpg""style=""height:400px;""></img>",2,html-button-response,260,1173302,0.0-16.0-16.0,23842,List1B,black,man,,TRUE,2,,,,,
null,CORRECT,,html-keyboard-response,261,1174805,0.0-16.0-17.0-0.0,23842,List1B,black,man,,,,null,,,,
944,"<img src=""portrait/WW2.jpg""style=""height:400px;""></img>",3,html-button-response,262,1175750,0.0-16.0-19.0,23842,List1B,black,man,,TRUE,3,,,,,
null,CORRECT,,html-keyboard-response,263,1177254,0.0-16.0-20.0-0.0,23842,List1B,black,man,,,,null,,,,
1935,"<img src=""portrait/BM1.jpg""style=""height:400px;""></img>",4,html-button-response,264,1179190,0.0-16.0-22.0,23842,List1B,black,man,,TRUE,4,,,,,
null,CORRECT,,html-keyboard-response,265,1180693,0.0-16.0-23.0-0.0,23842,List1B,black,man,,,,null,,,,
775,<p>You got 7 out of 8 right first time. Press Continue.</p>,0,html-button-response,266,1181470,0.0-16.0-25.0,23842,List1B,black,man,,,,,,,,
1557,"As you did not score 100%, the memory game will repeat. Press Continue.",0,html-button-response,267,1184030,0.0-16.0-26.0-0.0,23842,List1B,black,man,,,,,,,,
884,"<img src='img/portrait_matrix_list1.jpg' style='width:900px;height:500px;''></img><p>If you have memorised all the portraits and names and are ready to start, press Continue.</p><p><strong>Please note: Your memory of these faces will be tested 4 times during this experiment.</strong></p>",0,html-button-response,268,1185918,0.0-16.1-0.1,23842,List1B,black,man,,,,,,,,
2309,"<img src=""portrait/BM2.jpg""style=""height:400px;""></img>",5,html-button-response,269,1189230,0.0-16.1-1.1,23842,List1B,black,man,,TRUE,5,,,,,
null,CORRECT,,html-keyboard-response,270,1190733,0.0-16.1-2.1-0.1,23842,List1B,black,man,,,,null,,,,
4240,"<img src=""portrait/WW1.jpg""style=""height:400px;""></img>",1,html-button-response,271,1194974,0.0-16.1-4.1,23842,List1B,black,man,,TRUE,1,,,,,
null,CORRECT,,html-keyboard-response,272,1196477,0.0-16.1-5.1-0.1,23842,List1B,black,man,,,,null,,,,
1487,"<img src=""portrait/BW1.jpg""style=""height:400px;""></img>",0,html-button-response,273,1197966,0.0-16.1-7.1,23842,List1B,black,man,,TRUE,0,,,,,
null,CORRECT,,html-keyboard-response,274,1199470,0.0-16.1-8.1-0.1,23842,List1B,black,man,,,,null,,,,
1294,"<img src=""portrait/WM2.jpg""style=""height:400px;""></img>",7,html-button-response,275,1200766,0.0-16.1-10.1,23842,List1B,black,man,,TRUE,7,,,,,
null,CORRECT,,html-keyboard-response,276,1202269,0.0-16.1-11.1-0.1,23842,List1B,black,man,,,,null,,,,
4102,"<img src=""portrait/WM1.jpg""style=""height:400px;""></img>",6,html-button-response,277,1206374,0.0-16.1-13.1,23842,List1B,black,man,,TRUE,6,,,,,
null,CORRECT,,html-keyboard-response,278,1207877,0.0-16.1-14.1-0.1,23842,List1B,black,man,,,,null,,,,
1607,"<img src=""portrait/BW2.jpg""style=""height:400px;""></img>",2,html-button-response,279,1209486,0.0-16.1-16.1,23842,List1B,black,man,,TRUE,2,,,,,
null,CORRECT,,html-keyboard-response,280,1210989,0.0-16.1-17.1-0.1,23842,List1B,black,man,,,,null,,,,
2440,"<img src=""portrait/WW2.jpg""style=""height:400px;""></img>",3,html-button-response,281,1213430,0.0-16.1-19.1,23842,List1B,black,man,,TRUE,3,,,,,
null,CORRECT,,html-keyboard-response,282,1214934,0.0-16.1-20.1-0.1,23842,List1B,black,man,,,,null,,,,
2487,"<img src=""portrait/BM1.jpg""style=""height:400px;""></img>",4,html-button-response,283,1217422,0.0-16.1-22.1,23842,List1B,black,man,,TRUE,4,,,,,
null,CORRECT,,html-keyboard-response,284,1218924,0.0-16.1-23.1-0.1,23842,List1B,black,man,,,,null,,,,
800,<p>You got 8 out of 8 right first time. Press Continue.</p>,0,html-button-response,285,1219725,0.0-16.1-25.1,23842,List1B,black,man,,,,,,,,
null,"<div style=""font-size:60px;"">+</div>",,html-keyboard-response,286,1221230,0.0-17.0-0.0,23842,List1B,black,man,,,,null,,,,
null,"<img src=""stim_listB/touch1.gif""style=""height:400px;""></stim_listB>",,html-keyboard-response,287,1223232,0.0-17.0-1.0,23842,List1B,black,man,,,,null,,,,
null,is touching,,html-keyboard-response,288,1225234,0.0-17.0-2.0,23842,List1B,black,man,,,,null,,,,
21227,,,survey-text,289,1246462,0.0-17.0-3.0,23842,List1B,black,man,,,,,"{""Q0"":""Kate is touching Mike""}","<img src=""stim_listB/touch1.gif""style=""height:400px;""></stim_listB>",is touching,
null,"<div style=""font-size:60px;"">+</div>",,html-keyboard-response,290,1246964,0.0-17.0-0.1,23842,List1B,black,man,,,,null,,,,
null,"<img src=""stim_listB/marry1.gif""style=""height:400px;""></stim_listB>",,html-keyboard-response,291,1248965,0.0-17.0-1.1,23842,List1B,black,man,,,,null,,,,
null,is marrying,,html-keyboard-response,292,1250966,0.0-17.0-2.1,23842,List1B,black,man,,,,null,,,,
4311,,,survey-text,293,1255278,0.0-17.0-3.1,23842,List1B,black,man,,,,,"{""Q0"":""Beth is marrying mike""}","<img src=""stim_listB/marry1.gif""style=""height:400px;""></stim_listB>",is marrying,
null,"<div style=""font-size:60px;"">+</div>",,html-keyboard-response,294,1255780,0.0-17.0-0.2,23842,List1B,black,man,,,,null,,,,
null,"<img src=""stim_listB/talk2.gif""style=""height:400px;""></stim_listB>",,html-keyboard-response,295,1257781,0.0-17.0-1.2,23842,List1B,black,man,,,,null,,,,
null,are talking to each other,,html-keyboard-response,296,1259783,0.0-17.0-2.2,23842,List1B,black,man,,,,null,,,,
19462,,,survey-text,297,1279246,0.0-17.0-3.2,23842,List1B,black,man,,,,,"{""Q0"":""Mike and Beth are talking to each other""}","<img src=""stim_listB/talk2.gif""style=""height:400px;""></stim_listB>",are talking to each other,
null,"<div style=""font-size:60px;"">+</div>",,html-keyboard-response,298,1279748,0.0-17.0-0.3,23842,List1B,black,man,,,,null,,,,
null,"<img src=""stim_listB/kiss7.gif""style=""height:400px;""></stim_listB>",,html-keyboard-response,299,1281750,0.0-17.0-1.3,23842,List1B,black,man,,,,null,,,,
null,is kissing,,html-keyboard-response,300,1283751,0.0-17.0-2.3,23842,List1B,black,man,,,,null,,,,
4823,,,survey-text,301,1288574,0.0-17.0-3.3,23842,List1B,black,man,,,,,"{""Q0"":""Ruth is kissing Beth""}","<img src=""stim_listB/kiss7.gif""style=""height:400px;""></stim_listB>",is kissing,
null,"<div style=""font-size:60px;"">+</div>",,html-keyboard-response,302,1289076,0.0-17.0-0.4,23842,List1B,black,man,,,,null,,,,
null,"<img src=""stim_listB/kiss1.gif""style=""height:400px;""></stim_listB>",,html-keyboard-response,303,1291078,0.0-17.0-1.4,23842,List1B,black,man,,,,null,,,,
null,is kissing,,html-keyboard-response,304,1293080,0.0-17.0-2.4,23842,List1B,black,man,,,,null,,,,
6445,,,survey-text,305,1299526,0.0-17.0-3.4,23842,List1B,black,man,,,,,"{""Q0"":""Fred is kissing Beth""}","<img src=""stim_listB/kiss1.gif""style=""height:400px;""></stim_listB>",is kissing,
null,"<div style=""font-size:60px;"">+</div>",,html-keyboard-response,306,1300029,0.0-17.0-0.5,23842,List1B,black,man,,,,null,,,,
null,"<img src=""stim_listB/play5.gif""style=""height:400px;""></stim_listB>",,html-keyboard-response,307,1302030,0.0-17.0-1.5,23842,List1B,black,man,,,,null,,,,
null,is playing with,,html-keyboard-response,308,1304033,0.0-17.0-2.5,23842,List1B,black,man,,,,null,,,,
5132,,,survey-text,309,1309166,0.0-17.0-3.5,23842,List1B,black,man,,,,,"{""Q0"":""Dave is playing with Mike""}","<img src=""stim_listB/play5.gif""style=""height:400px;""></stim_listB>",is playing with,
null,"<div style=""font-size:60px;"">+</div>",,html-keyboard-response,310,1309668,0.0-17.0-0.6,23842,List1B,black,man,,,,null,,,,
null,"<img src=""stim_listB/argue3.gif""style=""height:400px;""></stim_listB>",,html-keyboard-response,311,1311670,0.0-17.0-1.6,23842,List1B,black,man,,,,null,,,,
null,is arguing with,,html-keyboard-response,312,1313673,0.0-17.0-2.6,23842,List1B,black,man,,,,null,,,,
13685,,,survey-text,313,1327358,0.0-17.0-3.6,23842,List1B,black,man,,,,,"{""Q0"":""n/a""}","<img src=""stim_listB/argue3.gif""style=""height:400px;""></stim_listB>",is arguing with,
null,"<div style=""font-size:60px;"">+</div>",,html-keyboard-response,314,1327860,0.0-17.0-0.7,23842,List1B,black,man,,,,null,,,,
null,"<img src=""stim_listB/touch2.gif""style=""height:400px;""></stim_listB>",,html-keyboard-response,315,1329863,0.0-17.0-1.7,23842,List1B,black,man,,,,null,,,,
null,are touching each other,,html-keyboard-response,316,1331864,0.0-17.0-2.7,23842,List1B,black,man,,,,null,,,,
12124,,,survey-text,317,1343990,0.0-17.0-3.7,23842,List1B,black,man,,,,,"{""Q0"":""Fred and Beth are touching each other""}","<img src=""stim_listB/touch2.gif""style=""height:400px;""></stim_listB>",are touching each other,
null,"<div style=""font-size:60px;"">+</div>",,html-keyboard-response,318,1344492,0.0-17.0-0.8,23842,List1B,black,man,,,,null,,,,
null,"<img src=""stim_listB/touch5.gif""style=""height:400px;""></stim_listB>",,html-keyboard-response,319,1346494,0.0-17.0-1.8,23842,List1B,black,man,,,,null,,,,
null,is touching,,html-keyboard-response,320,1348495,0.0-17.0-2.8,23842,List1B,black,man,,,,null,,,,
9711,,,survey-text,321,1358206,0.0-17.0-3.8,23842,List1B,black,man,,,,,"{""Q0"":""Dave is touching mike""}","<img src=""stim_listB/touch5.gif""style=""height:400px;""></stim_listB>",is touching,
null,"<div style=""font-size:60px;"">+</div>",,html-keyboard-response,322,1358708,0.0-17.0-0.9,23842,List1B,black,man,,,,null,,,,
null,"<img src=""stim_listB/dance3.gif""style=""height:400px;""></stim_listB>",,html-keyboard-response,323,1360710,0.0-17.0-1.9,23842,List1B,black,man,,,,null,,,,
null,is dancing with,,html-keyboard-response,324,1362713,0.0-17.0-2.9,23842,List1B,black,man,,,,null,,,,
5964,,,survey-text,325,1368678,0.0-17.0-3.9,23842,List1B,black,man,,,,,"{""Q0"":""Jane is dancing with Luke""}","<img src=""stim_listB/dance3.gif""style=""height:400px;""></stim_listB>",is dancing with,
null,"<div style=""font-size:60px;"">+</div>",,html-keyboard-response,326,1369180,0.0-17.0-0.10,23842,List1B,black,man,,,,null,,,,
null,"<img src=""stim_listB/fight1.gif""style=""height:400px;""></stim_listB>",,html-keyboard-response,327,1371182,0.0-17.0-1.10,23842,List1B,black,man,,,,null,,,,
null,is fighting,,html-keyboard-response,328,1373183,0.0-17.0-2.10,23842,List1B,black,man,,,,null,,,,
4854,,,survey-text,329,1378038,0.0-17.0-3.10,23842,List1B,black,man,,,,,"{""Q0"":""Kate is fighting Mike""}","<img src=""stim_listB/fight1.gif""style=""height:400px;""></stim_listB>",is fighting,
null,"<div style=""font-size:60px;"">+</div>",,html-keyboard-response,330,1378540,0.0-17.0-0.11,23842,List1B,black,man,,,,null,,,,
null,"<img src=""stim_listB/marry5.gif""style=""height:400px;""></stim_listB>",,html-keyboard-response,331,1380542,0.0-17.0-1.11,23842,List1B,black,man,,,,null,,,,
null,is marrying,,html-keyboard-response,332,1382542,0.0-17.0-2.11,23842,List1B,black,man,,,,null,,,,
5447,,,survey-text,333,1387990,0.0-17.0-3.11,23842,List1B,black,man,,,,,"{""Q0"":""Luke is marrying Mike""}","<img src=""stim_listB/marry5.gif""style=""height:400px;""></stim_listB>",is marrying,
null,"<div style=""font-size:60px;"">+</div>",,html-keyboard-response,334,1388492,0.0-17.0-0.12,23842,List1B,black,man,,,,null,,,,
null,"<img src=""stim_listB/talk8.gif""style=""height:400px;""></stim_listB>",,html-keyboard-response,335,1390494,0.0-17.0-1.12,23842,List1B,black,man,,,,null,,,,
null,are talking to each other,,html-keyboard-response,336,1392495,0.0-17.0-2.12,23842,List1B,black,man,,,,null,,,,
9127,,,survey-text,337,1401622,0.0-17.0-3.12,23842,List1B,black,man,,,,,"{""Q0"":""Kate and Ruth are talking to each other""}","<img src=""stim_listB/talk8.gif""style=""height:400px;""></stim_listB>",are talking to each other,
null,"<div style=""font-size:60px;"">+</div>",,html-keyboard-response,338,1402124,0.0-17.0-0.13,23842,List1B,black,man,,,,null,,,,
null,"<img src=""stim_listB/flirt6.gif""style=""height:400px;""></stim_listB>",,html-keyboard-response,339,1404126,0.0-17.0-1.13,23842,List1B,black,man,,,,null,,,,
null,are flirting with each other,,html-keyboard-response,340,1406127,0.0-17.0-2.13,23842,List1B,black,man,,,,null,,,,
12406,,,survey-text,341,1418534,0.0-17.0-3.13,23842,List1B,black,man,,,,,"{""Q0"":""Mike and Luke are flirting with each other ""}","<img src=""stim_listB/flirt6.gif""style=""height:400px;""></stim_listB>",are flirting with each other,
null,"<div style=""font-size:60px;"">+</div>",,html-keyboard-response,342,1419036,0.0-17.0-0.14,23842,List1B,black,man,,,,null,,,,
null,"<img src=""stim_listB/play4.gif""style=""height:400px;""></stim_listB>",,html-keyboard-response,343,1421037,0.0-17.0-1.14,23842,List1B,black,man,,,,null,,,,
null,are playing with each other,,html-keyboard-response,344,1423038,0.0-17.0-2.14,23842,List1B,black,man,,,,null,,,,
8702,,,survey-text,345,1431742,0.0-17.0-3.14,23842,List1B,black,man,,,,,"{""Q0"":""Luke and Ruth are playing with each other""}","<img src=""stim_listB/play4.gif""style=""height:400px;""></stim_listB>",are playing with each other,
null,"<div style=""font-size:60px;"">+</div>",,html-keyboard-response,346,1432243,0.0-17.0-0.15,23842,List1B,black,man,,,,null,,,,
null,"<img src=""stim_listB/marry2.gif""style=""height:400px;""></stim_listB>",,html-keyboard-response,347,1434245,0.0-17.0-1.15,23842,List1B,black,man,,,,null,,,,
null,are marrying each other,,html-keyboard-response,348,1436246,0.0-17.0-2.15,23842,List1B,black,man,,,,null,,,,
9256,,,survey-text,349,1445502,0.0-17.0-3.15,23842,List1B,black,man,,,,,"{""Q0"":""Fred and Kate are marrying each other""}","<img src=""stim_listB/marry2.gif""style=""height:400px;""></stim_listB>",are marrying each other,
null,"<div style=""font-size:60px;"">+</div>",,html-keyboard-response,350,1446003,0.0-17.0-0.16,23842,List1B,black,man,,,,null,,,,
null,"<img src=""stim_listB/flirt1.gif""style=""height:400px;""></stim_listB>",,html-keyboard-response,351,1448005,0.0-17.0-1.16,23842,List1B,black,man,,,,null,,,,
null,is flirting with,,html-keyboard-response,352,1450007,0.0-17.0-2.16,23842,List1B,black,man,,,,null,,,,
6582,,,survey-text,353,1456590,0.0-17.0-3.16,23842,List1B,black,man,,,,,"{""Q0"":""Kate is flirting with Fred""}","<img src=""stim_listB/flirt1.gif""style=""height:400px;""></stim_listB>",is flirting with,
null,"<div style=""font-size:60px;"">+</div>",,html-keyboard-response,354,1457092,0.0-17.0-0.17,23842,List1B,black,man,,,,null,,,,
null,"<img src=""stim_listB/touch3.gif""style=""height:400px;""></stim_listB>",,html-keyboard-response,355,1459094,0.0-17.0-1.17,23842,List1B,black,man,,,,null,,,,
null,is touching,,html-keyboard-response,356,1461095,0.0-17.0-2.17,23842,List1B,black,man,,,,null,,,,
6127,,,survey-text,357,1467222,0.0-17.0-3.17,23842,List1B,black,man,,,,,"{""Q0"":""Dave is touching Jane""}","<img src=""stim_listB/touch3.gif""style=""height:400px;""></stim_listB>",is touching,
null,"<div style=""font-size:60px;"">+</div>",,html-keyboard-response,358,1467724,0.0-17.0-0.18,23842,List1B,black,man,,,,null,,,,
null,"<img src=""stim_listB/marry4.gif""style=""height:400px;""></stim_listB>",,html-keyboard-response,359,1469726,0.0-17.0-1.18,23842,List1B,black,man,,,,null,,,,
null,are marrying each other,,html-keyboard-response,360,1471727,0.0-17.0-2.18,23842,List1B,black,man,,,,null,,,,
7325,,,survey-text,361,1479054,0.0-17.0-3.18,23842,List1B,black,man,,,,,"{""Q0"":""Luke and Jane are marrying each other""}","<img src=""stim_listB/marry4.gif""style=""height:400px;""></stim_listB>",are marrying each other,
null,"<div style=""font-size:60px;"">+</div>",,html-keyboard-response,362,1479556,0.0-17.0-0.19,23842,List1B,black,man,,,,null,,,,
null,"<img src=""stim_listB/talk1.gif""style=""height:400px;""></stim_listB>",,html-keyboard-response,363,1481558,0.0-17.0-1.19,23842,List1B,black,man,,,,null,,,,
null,is talking to,,html-keyboard-response,364,1483560,0.0-17.0-2.19,23842,List1B,black,man,,,,null,,,,
4742,,,survey-text,365,1488302,0.0-17.0-3.19,23842,List1B,black,man,,,,,"{""Q0"":""Kate is talking to Fred""}","<img src=""stim_listB/talk1.gif""style=""height:400px;""></stim_listB>",is talking to,
2150,"<img src='img/portrait_matrix_list1.jpg' style='width:900px;height:500px;''></img><p>If you have memorised all the portraits and names and are ready to start, press Continue.</p><p><strong>Please note: Your memory of these faces will be tested 4 times during this experiment.</strong></p>",0,html-button-response,366,1490454,0.0-18.0-0.0,23842,List1B,black,man,,,,,,,,
1117,"<img src=""portrait/WM2.jpg""style=""height:400px;""></img>",7,html-button-response,367,1492574,0.0-18.0-1.0,23842,List1B,black,man,,TRUE,7,,,,,
null,CORRECT,,html-keyboard-response,368,1494077,0.0-18.0-2.0-0.0,23842,List1B,black,man,,,,null,,,,
2072,"<img src=""portrait/WM1.jpg""style=""height:400px;""></img>",6,html-button-response,369,1496150,0.0-18.0-4.0,23842,List1B,black,man,,TRUE,6,,,,,
null,CORRECT,,html-keyboard-response,370,1497653,0.0-18.0-5.0-0.0,23842,List1B,black,man,,,,null,,,,
1671,"<img src=""portrait/BW2.jpg""style=""height:400px;""></img>",2,html-button-response,371,1499326,0.0-18.0-7.0,23842,List1B,black,man,,TRUE,2,,,,,
null,CORRECT,,html-keyboard-response,372,1500831,0.0-18.0-8.0-0.0,23842,List1B,black,man,,,,null,,,,
934,"<img src=""portrait/WW2.jpg""style=""height:400px;""></img>",3,html-button-response,373,1501766,0.0-18.0-10.0,23842,List1B,black,man,,TRUE,3,,,,,
null,CORRECT,,html-keyboard-response,374,1503268,0.0-18.0-11.0-0.0,23842,List1B,black,man,,,,null,,,,
1736,"<img src=""portrait/BM1.jpg""style=""height:400px;""></img>",4,html-button-response,375,1505006,0.0-18.0-13.0,23842,List1B,black,man,,TRUE,4,,,,,
null,CORRECT,,html-keyboard-response,376,1506510,0.0-18.0-14.0-0.0,23842,List1B,black,man,,,,null,,,,
2054,"<img src=""portrait/BM2.jpg""style=""height:400px;""></img>",5,html-button-response,377,1508566,0.0-18.0-16.0,23842,List1B,black,man,,TRUE,5,,,,,
null,CORRECT,,html-keyboard-response,378,1510069,0.0-18.0-17.0-0.0,23842,List1B,black,man,,,,null,,,,
1335,"<img src=""portrait/BW1.jpg""style=""height:400px;""></img>",0,html-button-response,379,1511406,0.0-18.0-19.0,23842,List1B,black,man,,TRUE,0,,,,,
null,CORRECT,,html-keyboard-response,380,1512909,0.0-18.0-20.0-0.0,23842,List1B,black,man,,,,null,,,,
3535,"<img src=""portrait/WW1.jpg""style=""height:400px;""></img>",1,html-button-response,381,1516446,0.0-18.0-22.0,23842,List1B,black,man,,TRUE,1,,,,,
null,CORRECT,,html-keyboard-response,382,1517949,0.0-18.0-23.0-0.0,23842,List1B,black,man,,,,null,,,,
687,<p>You got 8 out of 8 right first time. Press Continue.</p>,0,html-button-response,383,1518638,0.0-18.0-25.0,23842,List1B,black,man,,,,,,,,
null,"<div style=""font-size:60px;"">+</div>",,html-keyboard-response,384,1520141,0.0-19.0-0.0,23842,List1B,black,man,,,,null,,,,
null,"<img src=""stim_listB/shout3.gif""style=""height:400px;""></stim_listB>",,html-keyboard-response,385,1522142,0.0-19.0-1.0,23842,List1B,black,man,,,,null,,,,
null,is shouting at,,html-keyboard-response,386,1524143,0.0-19.0-2.0,23842,List1B,black,man,,,,null,,,,
6046,,,survey-text,387,1530189,0.0-19.0-3.0,23842,List1B,black,man,,,,,"{""Q0"":""Luke is shouting at Ruth""}","<img src=""stim_listB/shout3.gif""style=""height:400px;""></stim_listB>",is shouting at,
null,"<div style=""font-size:60px;"">+</div>",,html-keyboard-response,388,1530692,0.0-19.0-0.1,23842,List1B,black,man,,,,null,,,,
null,"<img src=""stim_listB/talk7.gif""style=""height:400px;""></stim_listB>",,html-keyboard-response,389,1532694,0.0-19.0-1.1,23842,List1B,black,man,,,,null,,,,
null,is talking to,,html-keyboard-response,390,1534696,0.0-19.0-2.1,23842,List1B,black,man,,,,null,,,,
5765,,,survey-text,391,1540461,0.0-19.0-3.1,23842,List1B,black,man,,,,,"{""Q0"":""Jane is talking to Beth""}","<img src=""stim_listB/talk7.gif""style=""height:400px;""></stim_listB>",is talking to,
null,"<div style=""font-size:60px;"">+</div>",,html-keyboard-response,392,1540963,0.0-19.0-0.2,23842,List1B,black,man,,,,null,,,,
null,"<img src=""stim_listB/argue4.gif""style=""height:400px;""></stim_listB>",,html-keyboard-response,393,1542965,0.0-19.0-1.2,23842,List1B,black,man,,,,null,,,,
null,are arguing with each other,,html-keyboard-response,394,1544966,0.0-19.0-2.2,23842,List1B,black,man,,,,null,,,,
10887,,,survey-text,395,1555853,0.0-19.0-3.2,23842,List1B,black,man,,,,,"{""Q0"":""Luke and Jane are arguing with each other""}","<img src=""stim_listB/argue4.gif""style=""height:400px;""></stim_listB>",are arguing with each other,
null,"<div style=""font-size:60px;"">+</div>",,html-keyboard-response,396,1556354,0.0-19.0-0.3,23842,List1B,black,man,,,,null,,,,
null,"<img src=""stim_listB/argue1.gif""style=""height:400px;""></stim_listB>",,html-keyboard-response,397,1558357,0.0-19.0-1.3,23842,List1B,black,man,,,,null,,,,
null,is arguing with,,html-keyboard-response,398,1560358,0.0-19.0-2.3,23842,List1B,black,man,,,,null,,,,
6030,,,survey-text,399,1566389,0.0-19.0-3.3,23842,List1B,black,man,,,,,"{""Q0"":""Mike is arguing with Beth""}","<img src=""stim_listB/argue1.gif""style=""height:400px;""></stim_listB>",is arguing with,
null,"<div style=""font-size:60px;"">+</div>",,html-keyboard-response,400,1566892,0.0-19.0-0.4,23842,List1B,black,man,,,,null,,,,
null,"<img src=""stim_listB/marry7.gif""style=""height:400px;""></stim_listB>",,html-keyboard-response,401,1568893,0.0-19.0-1.4,23842,List1B,black,man,,,,null,,,,
null,is marrying,,html-keyboard-response,402,1570894,0.0-19.0-2.4,23842,List1B,black,man,,,,null,,,,
6758,,,survey-text,403,1577653,0.0-19.0-3.4,23842,List1B,black,man,,,,,"{""Q0"":""Ruth is marrying Kate""}","<img src=""stim_listB/marry7.gif""style=""height:400px;""></stim_listB>",is marrying,
null,"<div style=""font-size:60px;"">+</div>",,html-keyboard-response,404,1578155,0.0-19.0-0.5,23842,List1B,black,man,,,,null,,,,
null,"<img src=""stim_listB/flirt7.gif""style=""height:400px;""></stim_listB>",,html-keyboard-response,405,1580158,0.0-19.0-1.5,23842,List1B,black,man,,,,null,,,,
null,is flirting with,,html-keyboard-response,406,1582158,0.0-19.0-2.5,23842,List1B,black,man,,,,null,,,,
7622,,,survey-text,407,1589781,0.0-19.0-3.5,23842,List1B,black,man,,,,,"{""Q0"":""Jane is flirting with Beth""}","<img src=""stim_listB/flirt7.gif""style=""height:400px;""></stim_listB>",is flirting with,
null,"<div style=""font-size:60px;"">+</div>",,html-keyboard-response,408,1590283,0.0-19.0-0.6,23842,List1B,black,man,,,,null,,,,
null,"<img src=""stim_listB/shout6.gif""style=""height:400px;""></stim_listB>",,html-keyboard-response,409,1592285,0.0-19.0-1.6,23842,List1B,black,man,,,,null,,,,
null,are shouting at each other,,html-keyboard-response,410,1594285,0.0-19.0-2.6,23842,List1B,black,man,,,,null,,,,
6983,,,survey-text,411,1601270,0.0-19.0-3.6,23842,List1B,black,man,,,,,"{""Q0"":""Mike and Dave are shouting at each other""}","<img src=""stim_listB/shout6.gif""style=""height:400px;""></stim_listB>",are shouting at each other,
null,"<div style=""font-size:60px;"">+</div>",,html-keyboard-response,412,1601771,0.0-19.0-0.7,23842,List1B,black,man,,,,null,,,,
null,"<img src=""stim_listB/shout1.gif""style=""height:400px;""></stim_listB>",,html-keyboard-response,413,1603774,0.0-19.0-1.7,23842,List1B,black,man,,,,null,,,,
null,is shouting at,,html-keyboard-response,414,1605777,0.0-19.0-2.7,23842,List1B,black,man,,,,null,,,,
7676,,,survey-text,415,1613453,0.0-19.0-3.7,23842,List1B,black,man,,,,,"{""Q0"":""Fred is shouting at Beth""}","<img src=""stim_listB/shout1.gif""style=""height:400px;""></stim_listB>",is shouting at,
null,"<div style=""font-size:60px;"">+</div>",,html-keyboard-response,416,1613954,0.0-19.0-0.8,23842,List1B,black,man,,,,null,,,,
null,"<img src=""stim_listB/fight8.gif""style=""height:400px;""></stim_listB>",,html-keyboard-response,417,1615957,0.0-19.0-1.8,23842,List1B,black,man,,,,null,,,,
null,are fighting each other,,html-keyboard-response,418,1617958,0.0-19.0-2.8,23842,List1B,black,man,,,,null,,,,
8990,,,survey-text,419,1626949,0.0-19.0-3.8,23842,List1B,black,man,,,,,"{""Q0"":""Beth and Ruth are fighting each other""}","<img src=""stim_listB/fight8.gif""style=""height:400px;""></stim_listB>",are fighting each other,
null,"<div style=""font-size:60px;"">+</div>",,html-keyboard-response,420,1627451,0.0-19.0-0.9,23842,List1B,black,man,,,,null,,,,
null,"<img src=""stim_listB/touch4.gif""style=""height:400px;""></stim_listB>",,html-keyboard-response,421,1629453,0.0-19.0-1.9,23842,List1B,black,man,,,,null,,,,
null,are touching each other,,html-keyboard-response,422,1631454,0.0-19.0-2.9,23842,List1B,black,man,,,,null,,,,
8815,,,survey-text,423,1640269,0.0-19.0-3.9,23842,List1B,black,man,,,,,"{""Q0"":""Luke and Ruth are touching each other""}","<img src=""stim_listB/touch4.gif""style=""height:400px;""></stim_listB>",are touching each other,
null,"<div style=""font-size:60px;"">+</div>",,html-keyboard-response,424,1640770,0.0-19.0-0.10,23842,List1B,black,man,,,,null,,,,
null,"<img src=""stim_listB/talk6.gif""style=""height:400px;""></stim_listB>",,html-keyboard-response,425,1642772,0.0-19.0-1.10,23842,List1B,black,man,,,,null,,,,
null,are talking to each other,,html-keyboard-response,426,1644774,0.0-19.0-2.10,23842,List1B,black,man,,,,null,,,,
6559,,,survey-text,427,1651333,0.0-19.0-3.10,23842,List1B,black,man,,,,,"{""Q0"":""Mike and Luke are talking to each other""}","<img src=""stim_listB/talk6.gif""style=""height:400px;""></stim_listB>",are talking to each other,
null,"<div style=""font-size:60px;"">+</div>",,html-keyboard-response,428,1651834,0.0-19.0-0.11,23842,List1B,black,man,,,,null,,,,
null,"<img src=""stim_listB/shout8.gif""style=""height:400px;""></stim_listB>",,html-keyboard-response,429,1653835,0.0-19.0-1.11,23842,List1B,black,man,,,,null,,,,
null,are shouting at each other,,html-keyboard-response,430,1655837,0.0-19.0-2.11,23842,List1B,black,man,,,,null,,,,
8791,,,survey-text,431,1664629,0.0-19.0-3.11,23842,List1B,black,man,,,,,"{""Q0"":""Kate and Jane are shouting at each other""}","<img src=""stim_listB/shout8.gif""style=""height:400px;""></stim_listB>",are shouting at each other,
null,"<div style=""font-size:60px;"">+</div>",,html-keyboard-response,432,1665130,0.0-19.0-0.12,23842,List1B,black,man,,,,null,,,,
null,"<img src=""stim_listB/flirt2.gif""style=""height:400px;""></stim_listB>",,html-keyboard-response,433,1667132,0.0-19.0-1.12,23842,List1B,black,man,,,,null,,,,
null,are flirting with each other,,html-keyboard-response,434,1669134,0.0-19.0-2.12,23842,List1B,black,man,,,,null,,,,
8047,,,survey-text,435,1677181,0.0-19.0-3.12,23842,List1B,black,man,,,,,"{""Q0"":""Mike and Beth are flirting with each other""}","<img src=""stim_listB/flirt2.gif""style=""height:400px;""></stim_listB>",are flirting with each other,
null,"<div style=""font-size:60px;"">+</div>",,html-keyboard-response,436,1677682,0.0-19.0-0.13,23842,List1B,black,man,,,,null,,,,
null,"<img src=""stim_listB/argue8.gif""style=""height:400px;""></stim_listB>",,html-keyboard-response,437,1679684,0.0-19.0-1.13,23842,List1B,black,man,,,,null,,,,
null,are arguing with each other,,html-keyboard-response,438,1681686,0.0-19.0-2.13,23842,List1B,black,man,,,,null,,,,
8005,,,survey-text,439,1689693,0.0-19.0-3.13,23842,List1B,black,man,,,,,"{""Q0"":""Beth and Jane are arguing with each other""}","<img src=""stim_listB/argue8.gif""style=""height:400px;""></stim_listB>",are arguing with each other,
null,"<div style=""font-size:60px;"">+</div>",,html-keyboard-response,440,1690195,0.0-19.0-0.14,23842,List1B,black,man,,,,null,,,,
null,"<img src=""stim_listB/marry3.gif""style=""height:400px;""></stim_listB>",,html-keyboard-response,441,1692197,0.0-19.0-1.14,23842,List1B,black,man,,,,null,,,,
null,is marrying,,html-keyboard-response,442,1694200,0.0-19.0-2.14,23842,List1B,black,man,,,,null,,,,
8052,,,survey-text,443,1702253,0.0-19.0-3.14,23842,List1B,black,man,,,,,"{""Q0"":""Dave is marrying Ruth""}","<img src=""stim_listB/marry3.gif""style=""height:400px;""></stim_listB>",is marrying,
null,"<div style=""font-size:60px;"">+</div>",,html-keyboard-response,444,1702755,0.0-19.0-0.15,23842,List1B,black,man,,,,null,,,,
null,"<img src=""stim_listB/dance5.gif""style=""height:400px;""></stim_listB>",,html-keyboard-response,445,1704758,0.0-19.0-1.15,23842,List1B,black,man,,,,null,,,,
null,is dancing with,,html-keyboard-response,446,1706760,0.0-19.0-2.15,23842,List1B,black,man,,,,null,,,,
5164,,,survey-text,447,1711925,0.0-19.0-3.15,23842,List1B,black,man,,,,,"{""Q0"":""Fred is dancing with Dave""}","<img src=""stim_listB/dance5.gif""style=""height:400px;""></stim_listB>",is dancing with,
null,"<div style=""font-size:60px;"">+</div>",,html-keyboard-response,448,1712428,0.0-19.0-0.16,23842,List1B,black,man,,,,null,,,,
null,"<img src=""stim_listB/dance4.gif""style=""height:400px;""></stim_listB>",,html-keyboard-response,449,1714430,0.0-19.0-1.16,23842,List1B,black,man,,,,null,,,,
null,are dancing with each other,,html-keyboard-response,450,1716432,0.0-19.0-2.16,23842,List1B,black,man,,,,null,,,,
11981,,,survey-text,451,1728413,0.0-19.0-3.16,23842,List1B,black,man,,,,,"{""Q0"":""Dave and Ruth are dancing with each other ""}","<img src=""stim_listB/dance4.gif""style=""height:400px;""></stim_listB>",are dancing with each other,
null,"<div style=""font-size:60px;"">+</div>",,html-keyboard-response,452,1728914,0.0-19.0-0.17,23842,List1B,black,man,,,,null,,,,
null,"<img src=""stim_listB/talk5.gif""style=""height:400px;""></stim_listB>",,html-keyboard-response,453,1730917,0.0-19.0-1.17,23842,List1B,black,man,,,,null,,,,
null,is talking to,,html-keyboard-response,454,1732919,0.0-19.0-2.17,23842,List1B,black,man,,,,null,,,,
5782,,,survey-text,455,1738702,0.0-19.0-3.17,23842,List1B,black,man,,,,,"{""Q0"":""Fred is talking to Dave ""}","<img src=""stim_listB/talk5.gif""style=""height:400px;""></stim_listB>",is talking to,
null,"<div style=""font-size:60px;"">+</div>",,html-keyboard-response,456,1739203,0.0-19.0-0.18,23842,List1B,black,man,,,,null,,,,
null,"<img src=""stim_listB/fight3.gif""style=""height:400px;""></stim_listB>",,html-keyboard-response,457,1741205,0.0-19.0-1.18,23842,List1B,black,man,,,,null,,,,
null,is fighting,,html-keyboard-response,458,1743207,0.0-19.0-2.18,23842,List1B,black,man,,,,null,,,,
6277,,,survey-text,459,1749485,0.0-19.0-3.18,23842,List1B,black,man,,,,,"{""Q0"":""Dave is fighting Jane""}","<img src=""stim_listB/fight3.gif""style=""height:400px;""></stim_listB>",is fighting,
null,"<div style=""font-size:60px;"">+</div>",,html-keyboard-response,460,1749987,0.0-19.0-0.19,23842,List1B,black,man,,,,null,,,,
null,"<img src=""stim_listB/play8.gif""style=""height:400px;""></stim_listB>",,html-keyboard-response,461,1751988,0.0-19.0-1.19,23842,List1B,black,man,,,,null,,,,
null,are playing with each other,,html-keyboard-response,462,1753989,0.0-19.0-2.19,23842,List1B,black,man,,,,null,,,,
9439,,,survey-text,463,1763429,0.0-19.0-3.19,23842,List1B,black,man,,,,,"{""Q0"":""Beth and Ruth are playing with each other""}","<img src=""stim_listB/play8.gif""style=""height:400px;""></stim_listB>",are playing with each other,
1143,<p>Thank you for completing that task.</p><p>The final part of this session is a short questionnaire.</p><p>Press Continue.</p>,0,html-button-response,464,1764573,0.0-20.0,23842,List1B,black,man,,,,,,,,
19974,,,survey-text,465,1785549,0.0-21.0,23842,List1B,black,man,,,,,"{""Q0"":""24"",""Q1"":""English"",""Q2"":""English"",""Q3"":""United Kingdom"",""Q4"":""Black "",""Q5"":""Male""}",,,demographics
6270,,,survey-likert,466,1791822,0.0-22.0,23842,List1B,black,man,,,,,"{""Q0"":3}",,,likert_ESS
10600,,,survey-likert,467,1802438,0.0-23.0,23842,List1B,black,man,,,,,"{""Q0"":2}",,,likert_NSSAL_Q1
3872,,,survey-likert,468,1806326,0.0-24.0,23842,List1B,black,man,,,,,"{""Q0"":2}",,,likert_NSSAL_Q2
3528,,,survey-likert,469,1809870,0.0-25.0,23842,List1B,black,man,,,,,"{""Q0"":4}",,,likert_CGRS_Q1
3472,,,survey-likert,470,1813357,0.0-26.0,23842,List1B,black,man,,,,,"{""Q0"":4}",,,likert_CGRS_Q2
2008,,,survey-likert,471,1815382,0.0-27.0,23842,List1B,black,man,,,,,"{""Q0"":4}",,,likert_CGRS_Q3
9872,,,survey-text,472,1825269,0.0-28.0,23842,List1B,black,man,,,,,"{""Q0"":""ccc""}",,,worker_id
18804,,,external-html,473,1844157,0.0-29.0,23842,List1B,black,man,debrief.html,,,,,,,
