rt,stimulus,button_pressed,trial_type,trial_index,time_elapsed,internal_node_id,subject,list,ppt_race,ppt_gender,url,first_guess,correct,key_press,responses,image_type,phrase_type,test_part
2618,Welcome to the experiment. Press Continue to begin.,0,html-button-response,0,2622,0.0-0.0,23910,List2A,black,woman,,,,,,,,
11789,,,external-html,1,15430,0.0-1.0,23910,List2A,black,woman,consent.html,,,,,,,
23125,"<p>On the next page, you will see portraits of 8 people and their names.</p><p>Your first task is to take a few minutes to memorise the names of these people.</p><p>You will have to recall their names during the rest of the experiment, so it is</p><p>essential that you try to memorise these people and their names as best as you can.</p><br><p><strong>You will then be tested on your memory of these names and portraits.</strong></p><br><p>The experiment will start after you have completed this memory test.</p><br><p>Ready?</p>",0,html-button-response,2,38558,0.0-2.0,23910,List2A,black,woman,,,,,,,,
269137,"<img src='img/portrait_matrix_list2.jpg' style='width:900px;height:500px;''></img><p>If you have memorised all the portraits and names and are ready to start, press Continue.</p><p><strong>Please note: Your memory of these faces will be tested 4 times during this experiment.</strong></p>",0,html-button-response,3,308714,0.0-3.0-0.0,23910,List2A,black,woman,,,,,,,,
8691,"<img src=""portrait/BM1.jpg""style=""height:400px;""></img>",4,html-button-response,4,318419,0.0-3.0-1.0,23910,List2A,black,woman,,TRUE,4,,,,,
null,CORRECT,,html-keyboard-response,5,319945,0.0-3.0-2.0-0.0,23910,List2A,black,woman,,,,null,,,,
4524,"<img src=""portrait/WW1.jpg""style=""height:400px;""></img>",1,html-button-response,6,324471,0.0-3.0-4.0,23910,List2A,black,woman,,TRUE,1,,,,,
null,CORRECT,,html-keyboard-response,7,325995,0.0-3.0-5.0-0.0,23910,List2A,black,woman,,,,null,,,,
5777,"<img src=""portrait/BW2.jpg""style=""height:400px;""></img>",2,html-button-response,8,331774,0.0-3.0-7.0,23910,List2A,black,woman,,TRUE,2,,,,,
null,CORRECT,,html-keyboard-response,9,333304,0.0-3.0-8.0-0.0,23910,List2A,black,woman,,,,null,,,,
3199,"<img src=""portrait/WM2.jpg""style=""height:400px;""></img>",7,html-button-response,10,336505,0.0-3.0-10.0,23910,List2A,black,woman,,TRUE,7,,,,,
null,CORRECT,,html-keyboard-response,11,338035,0.0-3.0-11.0-0.0,23910,List2A,black,woman,,,,null,,,,
4560,"<img src=""portrait/WM1.jpg""style=""height:400px;""></img>",6,html-button-response,12,342598,0.0-3.0-13.0,23910,List2A,black,woman,,TRUE,6,,,,,
null,CORRECT,,html-keyboard-response,13,344104,0.0-3.0-14.0-0.0,23910,List2A,black,woman,,,,null,,,,
3725,"<img src=""portrait/BM2.jpg""style=""height:400px;""></img>",5,html-button-response,14,347832,0.0-3.0-16.0,23910,List2A,black,woman,,TRUE,5,,,,,
null,CORRECT,,html-keyboard-response,15,349365,0.0-3.0-17.0-0.0,23910,List2A,black,woman,,,,null,,,,
4374,"<img src=""portrait/WW2.jpg""style=""height:400px;""></img>",3,html-button-response,16,353742,0.0-3.0-19.0,23910,List2A,black,woman,,TRUE,3,,,,,
null,CORRECT,,html-keyboard-response,17,355270,0.0-3.0-20.0-0.0,23910,List2A,black,woman,,,,null,,,,
6731,"<img src=""portrait/BW1.jpg""style=""height:400px;""></img>",0,html-button-response,18,362004,0.0-3.0-22.0,23910,List2A,black,woman,,TRUE,0,,,,,
null,CORRECT,,html-keyboard-response,19,363537,0.0-3.0-23.0-0.0,23910,List2A,black,woman,,,,null,,,,
3426,<p>You got 8 out of 8 right first time. Press Continue.</p>,0,html-button-response,20,366966,0.0-3.0-25.0,23910,List2A,black,woman,,,,,,,,
80148,"<p>In this experiment, you will view photographs of the people from the memory game interacting.</p><p>By using the <strong>exact</strong> phrase given <i>after</i> the photograph appears and recalling the correct names of the people in the photographs, form a sentence describing the interaction. You do not need to capitalise names.</p><p>Type your answer in the space provided. Please complete every sentence before moving onto the next trial.</p><p>You will only have a few seconds to memorise each given photograph and phrase before you can respond, so try your best to focus.</p><p>An example is given below. Press 'Continue' when you are ready.</p><img src='img/speaking_example.jpg' style='width:800px;height:460px;''></img>",0,html-button-response,21,448127,0.0-4.0,23910,List2A,black,woman,,,,,,,,
74961,"<p>Before the experiment starts, you will watch two example trials. Press 'Continue'.</p>",0,html-button-response,22,524107,0.0-5.0,23910,List2A,black,woman,,,,,,,,
null,<img src='img/meet_eg.gif' style='height:400px;''></img>,,html-keyboard-response,23,527125,0.0-6.0,23910,List2A,black,woman,,,,null,,,,
null,<p>is meeting</p>,,html-keyboard-response,24,529137,0.0-7.0,23910,List2A,black,woman,,,,null,,,,
15146,<p><b>Answer:</b> jane is meeting ruth</p>,0,html-button-response,25,544286,0.0-8.0,23910,List2A,black,woman,,,,,,,,
null,<img src='img/look_eg.gif' style='height:400px;''></img>,,html-keyboard-response,26,547314,0.0-9.0,23910,List2A,black,woman,,,,null,,,,
null,<p>are looking at each other</p>,,html-keyboard-response,27,549335,0.0-10.0,23910,List2A,black,woman,,,,null,,,,
4595,<p><b>Answer:</b> fred and mike are looking at each other</p>,0,html-button-response,28,553931,0.0-11.0,23910,List2A,black,woman,,,,,,,,
96464,"<p>Ready to start the experiment?</p><br><p><strong>Remember to describe the picture using a full sentence,</strong></p><p><strong>that combines the names of the people with the <i>exact</i> phrase given.</strong></p><p><strong>To receive full payment you must do this correctly.</strong></p><p><strong> You do not need to capitalise names or use punctuation.</strong></p><br><p>Press 'Continue' to begin.</p>",0,html-button-response,29,651409,0.0-12.0,23910,List2A,black,woman,,,,,,,,
null,"<div style=""font-size:60px;"">+</div>",,html-keyboard-response,30,652933,0.0-13.0-0.0,23910,List2A,black,woman,,,,null,,,,
null,"<img src=""stim_listA/argue3.gif""style=""height:400px;""></stim_listA>",,html-keyboard-response,31,654944,0.0-13.0-1.0,23910,List2A,black,woman,,,,null,,,,
null,is arguing with,,html-keyboard-response,32,656954,0.0-13.0-2.0,23910,List2A,black,woman,,,,null,,,,
21782,,,survey-text,33,678736,0.0-13.0-3.0,23910,List2A,black,woman,,,,,"{""Q0"":""mike is arguing with kate""}","<img src=""stim_listA/argue3.gif""style=""height:400px;""></stim_listA>",is arguing with,
null,"<div style=""font-size:60px;"">+</div>",,html-keyboard-response,34,679245,0.0-13.0-0.1,23910,List2A,black,woman,,,,null,,,,
null,"<img src=""stim_listA/touch5.gif""style=""height:400px;""></stim_listA>",,html-keyboard-response,35,681245,0.0-13.0-1.1,23910,List2A,black,woman,,,,null,,,,
null,is touching,,html-keyboard-response,36,683255,0.0-13.0-2.1,23910,List2A,black,woman,,,,null,,,,
9010,,,survey-text,37,692267,0.0-13.0-3.1,23910,List2A,black,woman,,,,,"{""Q0"":""mike is touching dave""}","<img src=""stim_listA/touch5.gif""style=""height:400px;""></stim_listA>",is touching,
null,"<div style=""font-size:60px;"">+</div>",,html-keyboard-response,38,692774,0.0-13.0-0.2,23910,List2A,black,woman,,,,null,,,,
null,"<img src=""stim_listA/play8.gif""style=""height:400px;""></stim_listA>",,html-keyboard-response,39,694794,0.0-13.0-1.2,23910,List2A,black,woman,,,,null,,,,
null,are playing with each other,,html-keyboard-response,40,696804,0.0-13.0-2.2,23910,List2A,black,woman,,,,null,,,,
16287,,,survey-text,41,713093,0.0-13.0-3.2,23910,List2A,black,woman,,,,,"{""Q0"":""kate and ruth are talking""}","<img src=""stim_listA/play8.gif""style=""height:400px;""></stim_listA>",are playing with each other,
null,"<div style=""font-size:60px;"">+</div>",,html-keyboard-response,42,713614,0.0-13.0-0.3,23910,List2A,black,woman,,,,null,,,,
null,"<img src=""stim_listA/fight3.gif""style=""height:400px;""></stim_listA>",,html-keyboard-response,43,715625,0.0-13.0-1.3,23910,List2A,black,woman,,,,null,,,,
null,is fighting,,html-keyboard-response,44,717633,0.0-13.0-2.3,23910,List2A,black,woman,,,,null,,,,
17193,,,survey-text,45,734828,0.0-13.0-3.3,23910,List2A,black,woman,,,,,"{""Q0"":""mike and kate are fighting""}","<img src=""stim_listA/fight3.gif""style=""height:400px;""></stim_listA>",is fighting,
null,"<div style=""font-size:60px;"">+</div>",,html-keyboard-response,46,735344,0.0-13.0-0.4,23910,List2A,black,woman,,,,null,,,,
null,"<img src=""stim_listA/dance6.gif""style=""height:400px;""></stim_listA>",,html-keyboard-response,47,737354,0.0-13.0-1.4,23910,List2A,black,woman,,,,null,,,,
null,are dancing with each other,,html-keyboard-response,48,739374,0.0-13.0-2.4,23910,List2A,black,woman,,,,null,,,,
11355,,,survey-text,49,750729,0.0-13.0-3.4,23910,List2A,black,woman,,,,,"{""Q0"":""dave and fred are dancing""}","<img src=""stim_listA/dance6.gif""style=""height:400px;""></stim_listA>",are dancing with each other,
null,"<div style=""font-size:60px;"">+</div>",,html-keyboard-response,50,751233,0.0-13.0-0.5,23910,List2A,black,woman,,,,null,,,,
null,"<img src=""stim_listA/fight1.gif""style=""height:400px;""></stim_listA>",,html-keyboard-response,51,753255,0.0-13.0-1.5,23910,List2A,black,woman,,,,null,,,,
null,is fighting,,html-keyboard-response,52,755274,0.0-13.0-2.5,23910,List2A,black,woman,,,,null,,,,
9171,,,survey-text,53,764445,0.0-13.0-3.5,23910,List2A,black,woman,,,,,"{""Q0"":""jane and dave are fighting""}","<img src=""stim_listA/fight1.gif""style=""height:400px;""></stim_listA>",is fighting,
null,"<div style=""font-size:60px;"">+</div>",,html-keyboard-response,54,764953,0.0-13.0-0.6,23910,List2A,black,woman,,,,null,,,,
null,"<img src=""stim_listA/marry3.gif""style=""height:400px;""></stim_listA>",,html-keyboard-response,55,766966,0.0-13.0-1.6,23910,List2A,black,woman,,,,null,,,,
null,is marrying,,html-keyboard-response,56,768974,0.0-13.0-2.6,23910,List2A,black,woman,,,,null,,,,
14961,,,survey-text,57,783936,0.0-13.0-3.6,23910,List2A,black,woman,,,,,"{""Q0"":""mike and kate are marrying""}","<img src=""stim_listA/marry3.gif""style=""height:400px;""></stim_listA>",is marrying,
null,"<div style=""font-size:60px;"">+</div>",,html-keyboard-response,58,784454,0.0-13.0-0.7,23910,List2A,black,woman,,,,null,,,,
null,"<img src=""stim_listA/dance2.gif""style=""height:400px;""></stim_listA>",,html-keyboard-response,59,786464,0.0-13.0-1.7,23910,List2A,black,woman,,,,null,,,,
null,are dancing with each other,,html-keyboard-response,60,788483,0.0-13.0-2.7,23910,List2A,black,woman,,,,null,,,,
15737,,,survey-text,61,804222,0.0-13.0-3.7,23910,List2A,black,woman,,,,,"{""Q0"":""dave and ruth are dancing with each other""}","<img src=""stim_listA/dance2.gif""style=""height:400px;""></stim_listA>",are dancing with each other,
null,"<div style=""font-size:60px;"">+</div>",,html-keyboard-response,62,804728,0.0-13.0-0.8,23910,List2A,black,woman,,,,null,,,,
null,"<img src=""stim_listA/marry5.gif""style=""height:400px;""></stim_listA>",,html-keyboard-response,63,806744,0.0-13.0-1.8,23910,List2A,black,woman,,,,null,,,,
null,is marrying,,html-keyboard-response,64,808753,0.0-13.0-2.8,23910,List2A,black,woman,,,,null,,,,
18680,,,survey-text,65,827433,0.0-13.0-3.8,23910,List2A,black,woman,,,,,"{""Q0"":""dave and fred are marrying""}","<img src=""stim_listA/marry5.gif""style=""height:400px;""></stim_listA>",is marrying,
null,"<div style=""font-size:60px;"">+</div>",,html-keyboard-response,66,827952,0.0-13.0-0.9,23910,List2A,black,woman,,,,null,,,,
null,"<img src=""stim_listA/flirt4.gif""style=""height:400px;""></stim_listA>",,html-keyboard-response,67,829967,0.0-13.0-1.9,23910,List2A,black,woman,,,,null,,,,
null,are flirting with each other,,html-keyboard-response,68,831978,0.0-13.0-2.9,23910,List2A,black,woman,,,,null,,,,
16403,,,survey-text,69,848381,0.0-13.0-3.9,23910,List2A,black,woman,,,,,"{""Q0"":""kate and mike are flirting""}","<img src=""stim_listA/flirt4.gif""style=""height:400px;""></stim_listA>",are flirting with each other,
null,"<div style=""font-size:60px;"">+</div>",,html-keyboard-response,70,848893,0.0-13.0-0.10,23910,List2A,black,woman,,,,null,,,,
null,"<img src=""stim_listA/shout3.gif""style=""height:400px;""></stim_listA>",,html-keyboard-response,71,850904,0.0-13.0-1.10,23910,List2A,black,woman,,,,null,,,,
null,is shouting at,,html-keyboard-response,72,852914,0.0-13.0-2.10,23910,List2A,black,woman,,,,null,,,,
15911,,,survey-text,73,868827,0.0-13.0-3.10,23910,List2A,black,woman,,,,,"{""Q0"":""kate and fred are shouting a lot""}","<img src=""stim_listA/shout3.gif""style=""height:400px;""></stim_listA>",is shouting at,
null,"<div style=""font-size:60px;"">+</div>",,html-keyboard-response,74,869334,0.0-13.0-0.11,23910,List2A,black,woman,,,,null,,,,
null,"<img src=""stim_listA/argue2.gif""style=""height:400px;""></stim_listA>",,html-keyboard-response,75,871353,0.0-13.0-1.11,23910,List2A,black,woman,,,,null,,,,
null,are arguing with each other,,html-keyboard-response,76,873363,0.0-13.0-2.11,23910,List2A,black,woman,,,,null,,,,
20930,,,survey-text,77,894295,0.0-13.0-3.11,23910,List2A,black,woman,,,,,"{""Q0"":""jane and luke are arguing""}","<img src=""stim_listA/argue2.gif""style=""height:400px;""></stim_listA>",are arguing with each other,
null,"<div style=""font-size:60px;"">+</div>",,html-keyboard-response,78,894813,0.0-13.0-0.12,23910,List2A,black,woman,,,,null,,,,
null,"<img src=""stim_listA/kiss3.gif""style=""height:400px;""></stim_listA>",,html-keyboard-response,79,896825,0.0-13.0-1.12,23910,List2A,black,woman,,,,null,,,,
null,is kissing,,html-keyboard-response,80,898834,0.0-13.0-2.12,23910,List2A,black,woman,,,,null,,,,
11015,,,survey-text,81,909849,0.0-13.0-3.12,23910,List2A,black,woman,,,,,"{""Q0"":""kate and fred are kissing""}","<img src=""stim_listA/kiss3.gif""style=""height:400px;""></stim_listA>",is kissing,
null,"<div style=""font-size:60px;"">+</div>",,html-keyboard-response,82,910365,0.0-13.0-0.13,23910,List2A,black,woman,,,,null,,,,
null,"<img src=""stim_listA/argue5.gif""style=""height:400px;""></stim_listA>",,html-keyboard-response,83,912373,0.0-13.0-1.13,23910,List2A,black,woman,,,,null,,,,
null,is arguing with,,html-keyboard-response,84,914373,0.0-13.0-2.13,23910,List2A,black,woman,,,,null,,,,
11238,,,survey-text,85,925612,0.0-13.0-3.13,23910,List2A,black,woman,,,,,"{""Q0"":""dave is arguing with fred""}","<img src=""stim_listA/argue5.gif""style=""height:400px;""></stim_listA>",is arguing with,
null,"<div style=""font-size:60px;"">+</div>",,html-keyboard-response,86,926114,0.0-13.0-0.14,23910,List2A,black,woman,,,,null,,,,
null,"<img src=""stim_listA/kiss6.gif""style=""height:400px;""></stim_listA>",,html-keyboard-response,87,928134,0.0-13.0-1.14,23910,List2A,black,woman,,,,null,,,,
null,are kissing each other,,html-keyboard-response,88,930149,0.0-13.0-2.14,23910,List2A,black,woman,,,,null,,,,
12287,,,survey-text,89,942437,0.0-13.0-3.14,23910,List2A,black,woman,,,,,"{""Q0"":""mike and dave are kissing each other""}","<img src=""stim_listA/kiss6.gif""style=""height:400px;""></stim_listA>",are kissing each other,
null,"<div style=""font-size:60px;"">+</div>",,html-keyboard-response,90,942953,0.0-13.0-0.15,23910,List2A,black,woman,,,,null,,,,
null,"<img src=""stim_listA/marry2.gif""style=""height:400px;""></stim_listA>",,html-keyboard-response,91,944969,0.0-13.0-1.15,23910,List2A,black,woman,,,,null,,,,
null,are marrying each other,,html-keyboard-response,92,946983,0.0-13.0-2.15,23910,List2A,black,woman,,,,null,,,,
14567,,,survey-text,93,961550,0.0-13.0-3.15,23910,List2A,black,woman,,,,,"{""Q0"":""luke and jane are marrying each other""}","<img src=""stim_listA/marry2.gif""style=""height:400px;""></stim_listA>",are marrying each other,
null,"<div style=""font-size:60px;"">+</div>",,html-keyboard-response,94,962053,0.0-13.0-0.16,23910,List2A,black,woman,,,,null,,,,
null,"<img src=""stim_listA/marry7.gif""style=""height:400px;""></stim_listA>",,html-keyboard-response,95,964074,0.0-13.0-1.16,23910,List2A,black,woman,,,,null,,,,
null,is marrying,,html-keyboard-response,96,966094,0.0-13.0-2.16,23910,List2A,black,woman,,,,null,,,,
11352,,,survey-text,97,977447,0.0-13.0-3.16,23910,List2A,black,woman,,,,,"{""Q0"":""jane is marrying kate""}","<img src=""stim_listA/marry7.gif""style=""height:400px;""></stim_listA>",is marrying,
null,"<div style=""font-size:60px;"">+</div>",,html-keyboard-response,98,977964,0.0-13.0-0.17,23910,List2A,black,woman,,,,null,,,,
null,"<img src=""stim_listA/argue1.gif""style=""height:400px;""></stim_listA>",,html-keyboard-response,99,979973,0.0-13.0-1.17,23910,List2A,black,woman,,,,null,,,,
null,is arguing with,,html-keyboard-response,100,981982,0.0-13.0-2.17,23910,List2A,black,woman,,,,null,,,,
8323,,,survey-text,101,990307,0.0-13.0-3.17,23910,List2A,black,woman,,,,,"{""Q0"":""dave is arguing with ruth""}","<img src=""stim_listA/argue1.gif""style=""height:400px;""></stim_listA>",is arguing with,
null,"<div style=""font-size:60px;"">+</div>",,html-keyboard-response,102,990822,0.0-13.0-0.18,23910,List2A,black,woman,,,,null,,,,
null,"<img src=""stim_listA/play6.gif""style=""height:400px;""></stim_listA>",,html-keyboard-response,103,992833,0.0-13.0-1.18,23910,List2A,black,woman,,,,null,,,,
null,are playing with each other,,html-keyboard-response,104,994854,0.0-13.0-2.18,23910,List2A,black,woman,,,,null,,,,
17322,,,survey-text,105,1012178,0.0-13.0-3.18,23910,List2A,black,woman,,,,,"{""Q0"":""fred and luke are marrying each other""}","<img src=""stim_listA/play6.gif""style=""height:400px;""></stim_listA>",are playing with each other,
null,"<div style=""font-size:60px;"">+</div>",,html-keyboard-response,106,1012693,0.0-13.0-0.19,23910,List2A,black,woman,,,,null,,,,
null,"<img src=""stim_listA/talk1.gif""style=""height:400px;""></stim_listA>",,html-keyboard-response,107,1014714,0.0-13.0-1.19,23910,List2A,black,woman,,,,null,,,,
null,is talking to,,html-keyboard-response,108,1016724,0.0-13.0-2.19,23910,List2A,black,woman,,,,null,,,,
13367,,,survey-text,109,1030092,0.0-13.0-3.19,23910,List2A,black,woman,,,,,"{""Q0"":""luke and jane are talking to each other""}","<img src=""stim_listA/talk1.gif""style=""height:400px;""></stim_listA>",is talking to,
54090,"<img src='img/portrait_matrix_list2.jpg' style='width:900px;height:500px;''></img><p>If you have memorised all the portraits and names and are ready to start, press Continue.</p><p><strong>Please note: Your memory of these faces will be tested 4 times during this experiment.</strong></p>",0,html-button-response,110,1084185,0.0-14.0-0.0,23910,List2A,black,woman,,,,,,,,
4155,"<img src=""portrait/WM1.jpg""style=""height:400px;""></img>",6,html-button-response,111,1089360,0.0-14.0-1.0,23910,List2A,black,woman,,TRUE,6,,,,,
null,CORRECT,,html-keyboard-response,112,1090882,0.0-14.0-2.0-0.0,23910,List2A,black,woman,,,,null,,,,
3391,"<img src=""portrait/BW1.jpg""style=""height:400px;""></img>",1,html-button-response,113,1094276,0.0-14.0-4.0,23910,List2A,black,woman,,TRUE,0,,,,,
3977,"<img src=""portrait/BW1.jpg""style=""height:400px;""></img>",0,html-button-response,114,1099273,0.0-14.0-6.0-0.0,23910,List2A,black,woman,,FALSE,0,,,,,
null,CORRECT,,html-keyboard-response,115,1100794,0.0-14.0-6.0-1.0-0.0,23910,List2A,black,woman,,,,null,,,,
4643,"<img src=""portrait/BM2.jpg""style=""height:400px;""></img>",5,html-button-response,116,1105440,0.0-14.0-7.0,23910,List2A,black,woman,,TRUE,5,,,,,
null,CORRECT,,html-keyboard-response,117,1106973,0.0-14.0-8.0-0.0,23910,List2A,black,woman,,,,null,,,,
2361,"<img src=""portrait/WM2.jpg""style=""height:400px;""></img>",7,html-button-response,118,1109335,0.0-14.0-10.0,23910,List2A,black,woman,,TRUE,7,,,,,
null,CORRECT,,html-keyboard-response,119,1110873,0.0-14.0-11.0-0.0,23910,List2A,black,woman,,,,null,,,,
3094,"<img src=""portrait/WW2.jpg""style=""height:400px;""></img>",3,html-button-response,120,1113967,0.0-14.0-13.0,23910,List2A,black,woman,,TRUE,3,,,,,
null,CORRECT,,html-keyboard-response,121,1115493,0.0-14.0-14.0-0.0,23910,List2A,black,woman,,,,null,,,,
3167,"<img src=""portrait/BW2.jpg""style=""height:400px;""></img>",2,html-button-response,122,1118661,0.0-14.0-16.0,23910,List2A,black,woman,,TRUE,2,,,,,
null,CORRECT,,html-keyboard-response,123,1120183,0.0-14.0-17.0-0.0,23910,List2A,black,woman,,,,null,,,,
3865,"<img src=""portrait/WW1.jpg""style=""height:400px;""></img>",1,html-button-response,124,1124050,0.0-14.0-19.0,23910,List2A,black,woman,,TRUE,1,,,,,
null,CORRECT,,html-keyboard-response,125,1125554,0.0-14.0-20.0-0.0,23910,List2A,black,woman,,,,null,,,,
2633,"<img src=""portrait/BM1.jpg""style=""height:400px;""></img>",4,html-button-response,126,1128188,0.0-14.0-22.0,23910,List2A,black,woman,,TRUE,4,,,,,
null,CORRECT,,html-keyboard-response,127,1129695,0.0-14.0-23.0-0.0,23910,List2A,black,woman,,,,null,,,,
3214,<p>You got 7 out of 8 right first time. Press Continue.</p>,0,html-button-response,128,1132911,0.0-14.0-25.0,23910,List2A,black,woman,,,,,,,,
4988,"As you did not score 100%, the memory game will repeat. Press Continue.",0,html-button-response,129,1138905,0.0-14.0-26.0-0.0,23910,List2A,black,woman,,,,,,,,
6762,"<img src='img/portrait_matrix_list2.jpg' style='width:900px;height:500px;''></img><p>If you have memorised all the portraits and names and are ready to start, press Continue.</p><p><strong>Please note: Your memory of these faces will be tested 4 times during this experiment.</strong></p>",0,html-button-response,130,1146688,0.0-14.1-0.1,23910,List2A,black,woman,,,,,,,,
3312,"<img src=""portrait/WM1.jpg""style=""height:400px;""></img>",6,html-button-response,131,1151008,0.0-14.1-1.1,23910,List2A,black,woman,,TRUE,6,,,,,
null,CORRECT,,html-keyboard-response,132,1152522,0.0-14.1-2.1-0.1,23910,List2A,black,woman,,,,null,,,,
4368,"<img src=""portrait/BW1.jpg""style=""height:400px;""></img>",0,html-button-response,133,1156891,0.0-14.1-4.1,23910,List2A,black,woman,,TRUE,0,,,,,
null,CORRECT,,html-keyboard-response,134,1158407,0.0-14.1-5.1-0.1,23910,List2A,black,woman,,,,null,,,,
2893,"<img src=""portrait/BM2.jpg""style=""height:400px;""></img>",5,html-button-response,135,1161301,0.0-14.1-7.1,23910,List2A,black,woman,,TRUE,5,,,,,
null,CORRECT,,html-keyboard-response,136,1162823,0.0-14.1-8.1-0.1,23910,List2A,black,woman,,,,null,,,,
4060,"<img src=""portrait/WM2.jpg""style=""height:400px;""></img>",7,html-button-response,137,1166885,0.0-14.1-10.1,23910,List2A,black,woman,,TRUE,7,,,,,
null,CORRECT,,html-keyboard-response,138,1168413,0.0-14.1-11.1-0.1,23910,List2A,black,woman,,,,null,,,,
2436,"<img src=""portrait/WW2.jpg""style=""height:400px;""></img>",3,html-button-response,139,1170852,0.0-14.1-13.1,23910,List2A,black,woman,,TRUE,3,,,,,
null,CORRECT,,html-keyboard-response,140,1172372,0.0-14.1-14.1-0.1,23910,List2A,black,woman,,,,null,,,,
3595,"<img src=""portrait/BW2.jpg""style=""height:400px;""></img>",2,html-button-response,141,1175968,0.0-14.1-16.1,23910,List2A,black,woman,,TRUE,2,,,,,
null,CORRECT,,html-keyboard-response,142,1177483,0.0-14.1-17.1-0.1,23910,List2A,black,woman,,,,null,,,,
2692,"<img src=""portrait/WW1.jpg""style=""height:400px;""></img>",1,html-button-response,143,1180177,0.0-14.1-19.1,23910,List2A,black,woman,,TRUE,1,,,,,
null,CORRECT,,html-keyboard-response,144,1181704,0.0-14.1-20.1-0.1,23910,List2A,black,woman,,,,null,,,,
2508,"<img src=""portrait/BM1.jpg""style=""height:400px;""></img>",4,html-button-response,145,1184215,0.0-14.1-22.1,23910,List2A,black,woman,,TRUE,4,,,,,
null,CORRECT,,html-keyboard-response,146,1185733,0.0-14.1-23.1-0.1,23910,List2A,black,woman,,,,null,,,,
2317,<p>You got 8 out of 8 right first time. Press Continue.</p>,0,html-button-response,147,1188050,0.0-14.1-25.1,23910,List2A,black,woman,,,,,,,,
null,"<div style=""font-size:60px;"">+</div>",,html-keyboard-response,148,1189562,0.0-15.0-0.0,23910,List2A,black,woman,,,,null,,,,
null,"<img src=""stim_listA/flirt8.gif""style=""height:400px;""></stim_listA>",,html-keyboard-response,149,1191573,0.0-15.0-1.0,23910,List2A,black,woman,,,,null,,,,
null,are flirting with each other,,html-keyboard-response,150,1193593,0.0-15.0-2.0,23910,List2A,black,woman,,,,null,,,,
11660,,,survey-text,151,1205254,0.0-15.0-3.0,23910,List2A,black,woman,,,,,"{""Q0"":""jane and kate are flirting with each other""}","<img src=""stim_listA/flirt8.gif""style=""height:400px;""></stim_listA>",are flirting with each other,
null,"<div style=""font-size:60px;"">+</div>",,html-keyboard-response,152,1205773,0.0-15.0-0.1,23910,List2A,black,woman,,,,null,,,,
null,"<img src=""stim_listA/marry4.gif""style=""height:400px;""></stim_listA>",,html-keyboard-response,153,1207785,0.0-15.0-1.1,23910,List2A,black,woman,,,,null,,,,
null,are marrying each other,,html-keyboard-response,154,1209793,0.0-15.0-2.1,23910,List2A,black,woman,,,,null,,,,
13182,,,survey-text,155,1222976,0.0-15.0-3.1,23910,List2A,black,woman,,,,,"{""Q0"":""fred and kate are marrying each other ""}","<img src=""stim_listA/marry4.gif""style=""height:400px;""></stim_listA>",are marrying each other,
null,"<div style=""font-size:60px;"">+</div>",,html-keyboard-response,156,1223492,0.0-15.0-0.2,23910,List2A,black,woman,,,,null,,,,
null,"<img src=""stim_listA/touch6.gif""style=""height:400px;""></stim_listA>",,html-keyboard-response,157,1225503,0.0-15.0-1.2,23910,List2A,black,woman,,,,null,,,,
null,are touching each other,,html-keyboard-response,158,1227513,0.0-15.0-2.2,23910,List2A,black,woman,,,,null,,,,
11364,,,survey-text,159,1238877,0.0-15.0-3.2,23910,List2A,black,woman,,,,,"{""Q0"":""luke and fred are touching each other""}","<img src=""stim_listA/touch6.gif""style=""height:400px;""></stim_listA>",are touching each other,
null,"<div style=""font-size:60px;"">+</div>",,html-keyboard-response,160,1239382,0.0-15.0-0.3,23910,List2A,black,woman,,,,null,,,,
null,"<img src=""stim_listA/dance3.gif""style=""height:400px;""></stim_listA>",,html-keyboard-response,161,1241393,0.0-15.0-1.3,23910,List2A,black,woman,,,,null,,,,
null,is dancing with,,html-keyboard-response,162,1243412,0.0-15.0-2.3,23910,List2A,black,woman,,,,null,,,,
11188,,,survey-text,163,1254601,0.0-15.0-3.3,23910,List2A,black,woman,,,,,"{""Q0"":""fred is dancing with kate""}","<img src=""stim_listA/dance3.gif""style=""height:400px;""></stim_listA>",is dancing with,
null,"<div style=""font-size:60px;"">+</div>",,html-keyboard-response,164,1255112,0.0-15.0-0.4,23910,List2A,black,woman,,,,null,,,,
null,"<img src=""stim_listA/touch3.gif""style=""height:400px;""></stim_listA>",,html-keyboard-response,165,1257131,0.0-15.0-1.4,23910,List2A,black,woman,,,,null,,,,
null,is touching,,html-keyboard-response,166,1259141,0.0-15.0-2.4,23910,List2A,black,woman,,,,null,,,,
13895,,,survey-text,167,1273037,0.0-15.0-3.4,23910,List2A,black,woman,,,,,"{""Q0"":""mike and kate are touching each other""}","<img src=""stim_listA/touch3.gif""style=""height:400px;""></stim_listA>",is touching,
null,"<div style=""font-size:60px;"">+</div>",,html-keyboard-response,168,1273542,0.0-15.0-0.5,23910,List2A,black,woman,,,,null,,,,
null,"<img src=""stim_listA/fight8.gif""style=""height:400px;""></stim_listA>",,html-keyboard-response,169,1275555,0.0-15.0-1.5,23910,List2A,black,woman,,,,null,,,,
null,are fighting each other,,html-keyboard-response,170,1277572,0.0-15.0-2.5,23910,List2A,black,woman,,,,null,,,,
13473,,,survey-text,171,1291046,0.0-15.0-3.5,23910,List2A,black,woman,,,,,"{""Q0"":""kate and ruth are fighting each other""}","<img src=""stim_listA/fight8.gif""style=""height:400px;""></stim_listA>",are fighting each other,
null,"<div style=""font-size:60px;"">+</div>",,html-keyboard-response,172,1291562,0.0-15.0-0.6,23910,List2A,black,woman,,,,null,,,,
null,"<img src=""stim_listA/kiss7.gif""style=""height:400px;""></stim_listA>",,html-keyboard-response,173,1293573,0.0-15.0-1.6,23910,List2A,black,woman,,,,null,,,,
null,is kissing,,html-keyboard-response,174,1295582,0.0-15.0-2.6,23910,List2A,black,woman,,,,null,,,,
10680,,,survey-text,175,1306262,0.0-15.0-3.6,23910,List2A,black,woman,,,,,"{""Q0"":""ruth is kissing kate""}","<img src=""stim_listA/kiss7.gif""style=""height:400px;""></stim_listA>",is kissing,
null,"<div style=""font-size:60px;"">+</div>",,html-keyboard-response,176,1306782,0.0-15.0-0.7,23910,List2A,black,woman,,,,null,,,,
null,"<img src=""stim_listA/talk8.gif""style=""height:400px;""></stim_listA>",,html-keyboard-response,177,1308792,0.0-15.0-1.7,23910,List2A,black,woman,,,,null,,,,
null,are talking to each other,,html-keyboard-response,178,1310802,0.0-15.0-2.7,23910,List2A,black,woman,,,,null,,,,
37970,,,survey-text,179,1348773,0.0-15.0-3.7,23910,List2A,black,woman,,,,,"{""Q0"":""jane and beth are talking to each other""}","<img src=""stim_listA/talk8.gif""style=""height:400px;""></stim_listA>",are talking to each other,
null,"<div style=""font-size:60px;"">+</div>",,html-keyboard-response,180,1349293,0.0-15.0-0.8,23910,List2A,black,woman,,,,null,,,,
null,"<img src=""stim_listA/touch2.gif""style=""height:400px;""></stim_listA>",,html-keyboard-response,181,1351313,0.0-15.0-1.8,23910,List2A,black,woman,,,,null,,,,
null,are touching each other,,html-keyboard-response,182,1353333,0.0-15.0-2.8,23910,List2A,black,woman,,,,null,,,,
13831,,,survey-text,183,1367166,0.0-15.0-3.8,23910,List2A,black,woman,,,,,"{""Q0"":""ruth and luke are touching each other""}","<img src=""stim_listA/touch2.gif""style=""height:400px;""></stim_listA>",are touching each other,
null,"<div style=""font-size:60px;"">+</div>",,html-keyboard-response,184,1367681,0.0-15.0-0.9,23910,List2A,black,woman,,,,null,,,,
null,"<img src=""stim_listA/touch7.gif""style=""height:400px;""></stim_listA>",,html-keyboard-response,185,1369692,0.0-15.0-1.9,23910,List2A,black,woman,,,,null,,,,
null,is touching,,html-keyboard-response,186,1371713,0.0-15.0-2.9,23910,List2A,black,woman,,,,null,,,,
19156,,,survey-text,187,1390869,0.0-15.0-3.9,23910,List2A,black,woman,,,,,"{""Q0"":""beth and kate are touching each other""}","<img src=""stim_listA/touch7.gif""style=""height:400px;""></stim_listA>",is touching,
null,"<div style=""font-size:60px;"">+</div>",,html-keyboard-response,188,1391371,0.0-15.0-0.10,23910,List2A,black,woman,,,,null,,,,
null,"<img src=""stim_listA/marry6.gif""style=""height:400px;""></stim_listA>",,html-keyboard-response,189,1393392,0.0-15.0-1.10,23910,List2A,black,woman,,,,null,,,,
null,are marrying each other,,html-keyboard-response,190,1395413,0.0-15.0-2.10,23910,List2A,black,woman,,,,null,,,,
12367,,,survey-text,191,1407780,0.0-15.0-3.10,23910,List2A,black,woman,,,,,"{""Q0"":""mike and luke are marrying each other""}","<img src=""stim_listA/marry6.gif""style=""height:400px;""></stim_listA>",are marrying each other,
null,"<div style=""font-size:60px;"">+</div>",,html-keyboard-response,192,1408281,0.0-15.0-0.11,23910,List2A,black,woman,,,,null,,,,
null,"<img src=""stim_listA/talk6.gif""style=""height:400px;""></stim_listA>",,html-keyboard-response,193,1410303,0.0-15.0-1.11,23910,List2A,black,woman,,,,null,,,,
null,are talking to each other,,html-keyboard-response,194,1412312,0.0-15.0-2.11,23910,List2A,black,woman,,,,null,,,,
13540,,,survey-text,195,1425854,0.0-15.0-3.11,23910,List2A,black,woman,,,,,"{""Q0"":""fred and dave are talking to each other""}","<img src=""stim_listA/talk6.gif""style=""height:400px;""></stim_listA>",are talking to each other,
null,"<div style=""font-size:60px;"">+</div>",,html-keyboard-response,196,1426372,0.0-15.0-0.12,23910,List2A,black,woman,,,,null,,,,
null,"<img src=""stim_listA/talk2.gif""style=""height:400px;""></stim_listA>",,html-keyboard-response,197,1428393,0.0-15.0-1.12,23910,List2A,black,woman,,,,null,,,,
null,are talking to each other,,html-keyboard-response,198,1430412,0.0-15.0-2.12,23910,List2A,black,woman,,,,null,,,,
11593,,,survey-text,199,1442005,0.0-15.0-3.12,23910,List2A,black,woman,,,,,"{""Q0"":""ruth and dave are talking to each other""}","<img src=""stim_listA/talk2.gif""style=""height:400px;""></stim_listA>",are talking to each other,
null,"<div style=""font-size:60px;"">+</div>",,html-keyboard-response,200,1442523,0.0-15.0-0.13,23910,List2A,black,woman,,,,null,,,,
null,"<img src=""stim_listA/shout7.gif""style=""height:400px;""></stim_listA>",,html-keyboard-response,201,1444532,0.0-15.0-1.13,23910,List2A,black,woman,,,,null,,,,
null,is shouting at,,html-keyboard-response,202,1446552,0.0-15.0-2.13,23910,List2A,black,woman,,,,null,,,,
38635,,,survey-text,203,1485189,0.0-15.0-3.13,23910,List2A,black,woman,,,,,"{""Q0"":""kate adn dave are shouting at each other""}","<img src=""stim_listA/shout7.gif""style=""height:400px;""></stim_listA>",is shouting at,
null,"<div style=""font-size:60px;"">+</div>",,html-keyboard-response,204,1485702,0.0-15.0-0.14,23910,List2A,black,woman,,,,null,,,,
null,"<img src=""stim_listA/argue8.gif""style=""height:400px;""></stim_listA>",,html-keyboard-response,205,1487722,0.0-15.0-1.14,23910,List2A,black,woman,,,,null,,,,
null,are arguing with each other,,html-keyboard-response,206,1489742,0.0-15.0-2.14,23910,List2A,black,woman,,,,null,,,,
15757,,,survey-text,207,1505500,0.0-15.0-3.14,23910,List2A,black,woman,,,,,"{""Q0"":""ruth and kate are arguing with each other""}","<img src=""stim_listA/argue8.gif""style=""height:400px;""></stim_listA>",are arguing with each other,
null,"<div style=""font-size:60px;"">+</div>",,html-keyboard-response,208,1506002,0.0-15.0-0.15,23910,List2A,black,woman,,,,null,,,,
null,"<img src=""stim_listA/kiss2.gif""style=""height:400px;""></stim_listA>",,html-keyboard-response,209,1508021,0.0-15.0-1.15,23910,List2A,black,woman,,,,null,,,,
null,are kissing each other,,html-keyboard-response,210,1510032,0.0-15.0-2.15,23910,List2A,black,woman,,,,null,,,,
12832,,,survey-text,211,1522865,0.0-15.0-3.15,23910,List2A,black,woman,,,,,"{""Q0"":""jane and dave are kissing each other""}","<img src=""stim_listA/kiss2.gif""style=""height:400px;""></stim_listA>",are kissing each other,
null,"<div style=""font-size:60px;"">+</div>",,html-keyboard-response,212,1523372,0.0-15.0-0.16,23910,List2A,black,woman,,,,null,,,,
null,"<img src=""stim_listA/flirt1.gif""style=""height:400px;""></stim_listA>",,html-keyboard-response,213,1525392,0.0-15.0-1.16,23910,List2A,black,woman,,,,null,,,,
null,is flirting with,,html-keyboard-response,214,1527399,0.0-15.0-2.16,23910,List2A,black,woman,,,,null,,,,
13956,,,survey-text,215,1541355,0.0-15.0-3.16,23910,List2A,black,woman,,,,,"{""Q0"":""luke and jane are flirting with each other""}","<img src=""stim_listA/flirt1.gif""style=""height:400px;""></stim_listA>",is flirting with,
null,"<div style=""font-size:60px;"">+</div>",,html-keyboard-response,216,1541871,0.0-15.0-0.17,23910,List2A,black,woman,,,,null,,,,
null,"<img src=""stim_listA/fight5.gif""style=""height:400px;""></stim_listA>",,html-keyboard-response,217,1543882,0.0-15.0-1.17,23910,List2A,black,woman,,,,null,,,,
null,is fighting,,html-keyboard-response,218,1545892,0.0-15.0-2.17,23910,List2A,black,woman,,,,null,,,,
8047,,,survey-text,219,1553941,0.0-15.0-3.17,23910,List2A,black,woman,,,,,"{""Q0"":""dave is fighting mike""}","<img src=""stim_listA/fight5.gif""style=""height:400px;""></stim_listA>",is fighting,
null,"<div style=""font-size:60px;"">+</div>",,html-keyboard-response,220,1554452,0.0-15.0-0.18,23910,List2A,black,woman,,,,null,,,,
null,"<img src=""stim_listA/play1.gif""style=""height:400px;""></stim_listA>",,html-keyboard-response,221,1556462,0.0-15.0-1.18,23910,List2A,black,woman,,,,null,,,,
null,is playing with,,html-keyboard-response,222,1558483,0.0-15.0-2.18,23910,List2A,black,woman,,,,null,,,,
9878,,,survey-text,223,1568362,0.0-15.0-3.18,23910,List2A,black,woman,,,,,"{""Q0"":""jane is playing with dave""}","<img src=""stim_listA/play1.gif""style=""height:400px;""></stim_listA>",is playing with,
null,"<div style=""font-size:60px;"">+</div>",,html-keyboard-response,224,1568872,0.0-15.0-0.19,23910,List2A,black,woman,,,,null,,,,
null,"<img src=""stim_listA/kiss4.gif""style=""height:400px;""></stim_listA>",,html-keyboard-response,225,1570882,0.0-15.0-1.19,23910,List2A,black,woman,,,,null,,,,
null,are kissing each other,,html-keyboard-response,226,1572903,0.0-15.0-2.19,23910,List2A,black,woman,,,,null,,,,
11675,,,survey-text,227,1584579,0.0-15.0-3.19,23910,List2A,black,woman,,,,,"{""Q0"":""kate and mike are kissing each other""}","<img src=""stim_listA/kiss4.gif""style=""height:400px;""></stim_listA>",are kissing each other,
65888,"<img src='img/portrait_matrix_list2.jpg' style='width:900px;height:500px;''></img><p>If you have memorised all the portraits and names and are ready to start, press Continue.</p><p><strong>Please note: Your memory of these faces will be tested 4 times during this experiment.</strong></p>",0,html-button-response,228,1650469,0.0-16.0-0.0,23910,List2A,black,woman,,,,,,,,
4275,"<img src=""portrait/WM2.jpg""style=""height:400px;""></img>",7,html-button-response,229,1655760,0.0-16.0-1.0,23910,List2A,black,woman,,TRUE,7,,,,,
null,CORRECT,,html-keyboard-response,230,1657282,0.0-16.0-2.0-0.0,23910,List2A,black,woman,,,,null,,,,
3512,"<img src=""portrait/BW2.jpg""style=""height:400px;""></img>",2,html-button-response,231,1660798,0.0-16.0-4.0,23910,List2A,black,woman,,TRUE,2,,,,,
null,CORRECT,,html-keyboard-response,232,1662313,0.0-16.0-5.0-0.0,23910,List2A,black,woman,,,,null,,,,
3016,"<img src=""portrait/WM1.jpg""style=""height:400px;""></img>",6,html-button-response,233,1665332,0.0-16.0-7.0,23910,List2A,black,woman,,TRUE,6,,,,,
null,CORRECT,,html-keyboard-response,234,1666872,0.0-16.0-8.0-0.0,23910,List2A,black,woman,,,,null,,,,
4050,"<img src=""portrait/WW1.jpg""style=""height:400px;""></img>",1,html-button-response,235,1670924,0.0-16.0-10.0,23910,List2A,black,woman,,TRUE,1,,,,,
null,CORRECT,,html-keyboard-response,236,1672451,0.0-16.0-11.0-0.0,23910,List2A,black,woman,,,,null,,,,
3456,"<img src=""portrait/BW1.jpg""style=""height:400px;""></img>",0,html-button-response,237,1675911,0.0-16.0-13.0,23910,List2A,black,woman,,TRUE,0,,,,,
null,CORRECT,,html-keyboard-response,238,1677452,0.0-16.0-14.0-0.0,23910,List2A,black,woman,,,,null,,,,
3121,"<img src=""portrait/BM1.jpg""style=""height:400px;""></img>",4,html-button-response,239,1680576,0.0-16.0-16.0,23910,List2A,black,woman,,TRUE,4,,,,,
null,CORRECT,,html-keyboard-response,240,1682104,0.0-16.0-17.0-0.0,23910,List2A,black,woman,,,,null,,,,
4427,"<img src=""portrait/WW2.jpg""style=""height:400px;""></img>",3,html-button-response,241,1686533,0.0-16.0-19.0,23910,List2A,black,woman,,TRUE,3,,,,,
null,CORRECT,,html-keyboard-response,242,1688071,0.0-16.0-20.0-0.0,23910,List2A,black,woman,,,,null,,,,
3101,"<img src=""portrait/BM2.jpg""style=""height:400px;""></img>",5,html-button-response,243,1691176,0.0-16.0-22.0,23910,List2A,black,woman,,TRUE,5,,,,,
null,CORRECT,,html-keyboard-response,244,1692701,0.0-16.0-23.0-0.0,23910,List2A,black,woman,,,,null,,,,
3783,<p>You got 8 out of 8 right first time. Press Continue.</p>,0,html-button-response,245,1696487,0.0-16.0-25.0,23910,List2A,black,woman,,,,,,,,
null,"<div style=""font-size:60px;"">+</div>",,html-keyboard-response,246,1698012,0.0-17.0-0.0,23910,List2A,black,woman,,,,null,,,,
null,"<img src=""stim_listA/touch4.gif""style=""height:400px;""></stim_listA>",,html-keyboard-response,247,1700022,0.0-17.0-1.0,23910,List2A,black,woman,,,,null,,,,
null,are touching each other,,html-keyboard-response,248,1702042,0.0-17.0-2.0,23910,List2A,black,woman,,,,null,,,,
20725,,,survey-text,249,1722768,0.0-17.0-3.0,23910,List2A,black,woman,,,,,"{""Q0"":""beth and fred are touching each other""}","<img src=""stim_listA/touch4.gif""style=""height:400px;""></stim_listA>",are touching each other,
null,"<div style=""font-size:60px;"">+</div>",,html-keyboard-response,250,1723276,0.0-17.0-0.1,23910,List2A,black,woman,,,,null,,,,
null,"<img src=""stim_listA/fight7.gif""style=""height:400px;""></stim_listA>",,html-keyboard-response,251,1725292,0.0-17.0-1.1,23910,List2A,black,woman,,,,null,,,,
null,is fighting,,html-keyboard-response,252,1727301,0.0-17.0-2.1,23910,List2A,black,woman,,,,null,,,,
14214,,,survey-text,253,1741516,0.0-17.0-3.1,23910,List2A,black,woman,,,,,"{""Q0"":""kate and jane are fighting each other""}","<img src=""stim_listA/fight7.gif""style=""height:400px;""></stim_listA>",is fighting,
null,"<div style=""font-size:60px;"">+</div>",,html-keyboard-response,254,1742031,0.0-17.0-0.2,23910,List2A,black,woman,,,,null,,,,
null,"<img src=""stim_listA/shout5.gif""style=""height:400px;""></stim_listA>",,html-keyboard-response,255,1744052,0.0-17.0-1.2,23910,List2A,black,woman,,,,null,,,,
null,is shouting at,,html-keyboard-response,256,1746062,0.0-17.0-2.2,23910,List2A,black,woman,,,,null,,,,
22462,,,survey-text,257,1768525,0.0-17.0-3.2,23910,List2A,black,woman,,,,,"{""Q0"":""luke is shouting at fred""}","<img src=""stim_listA/shout5.gif""style=""height:400px;""></stim_listA>",is shouting at,
null,"<div style=""font-size:60px;"">+</div>",,html-keyboard-response,258,1769031,0.0-17.0-0.3,23910,List2A,black,woman,,,,null,,,,
null,"<img src=""stim_listA/marry1.gif""style=""height:400px;""></stim_listA>",,html-keyboard-response,259,1771052,0.0-17.0-1.3,23910,List2A,black,woman,,,,null,,,,
null,is marrying,,html-keyboard-response,260,1773053,0.0-17.0-2.3,23910,List2A,black,woman,,,,null,,,,
15425,,,survey-text,261,1788479,0.0-17.0-3.3,23910,List2A,black,woman,,,,,"{""Q0"":""ruth is marrying dave""}","<img src=""stim_listA/marry1.gif""style=""height:400px;""></stim_listA>",is marrying,
null,"<div style=""font-size:60px;"">+</div>",,html-keyboard-response,262,1788992,0.0-17.0-0.4,23910,List2A,black,woman,,,,null,,,,
null,"<img src=""stim_listA/kiss1.gif""style=""height:400px;""></stim_listA>",,html-keyboard-response,263,1791001,0.0-17.0-1.4,23910,List2A,black,woman,,,,null,,,,
null,is kissing,,html-keyboard-response,264,1793022,0.0-17.0-2.4,23910,List2A,black,woman,,,,null,,,,
9605,,,survey-text,265,1802628,0.0-17.0-3.4,23910,List2A,black,woman,,,,,"{""Q0"":""ruth is kissing luke""}","<img src=""stim_listA/kiss1.gif""style=""height:400px;""></stim_listA>",is kissing,
null,"<div style=""font-size:60px;"">+</div>",,html-keyboard-response,266,1803131,0.0-17.0-0.5,23910,List2A,black,woman,,,,null,,,,
null,"<img src=""stim_listA/flirt7.gif""style=""height:400px;""></stim_listA>",,html-keyboard-response,267,1805141,0.0-17.0-1.5,23910,List2A,black,woman,,,,null,,,,
null,is flirting with,,html-keyboard-response,268,1807151,0.0-17.0-2.5,23910,List2A,black,woman,,,,null,,,,
17179,,,survey-text,269,1824332,0.0-17.0-3.5,23910,List2A,black,woman,,,,,"{""Q0"":""ruth is flirting with kate""}","<img src=""stim_listA/flirt7.gif""style=""height:400px;""></stim_listA>",is flirting with,
null,"<div style=""font-size:60px;"">+</div>",,html-keyboard-response,270,1824841,0.0-17.0-0.6,23910,List2A,black,woman,,,,null,,,,
null,"<img src=""stim_listA/dance4.gif""style=""height:400px;""></stim_listA>",,html-keyboard-response,271,1826856,0.0-17.0-1.6,23910,List2A,black,woman,,,,null,,,,
null,are dancing with each other,,html-keyboard-response,272,1828872,0.0-17.0-2.6,23910,List2A,black,woman,,,,null,,,,
13796,,,survey-text,273,1842669,0.0-17.0-3.6,23910,List2A,black,woman,,,,,"{""Q0"":""beth and mike are dancing with each other""}","<img src=""stim_listA/dance4.gif""style=""height:400px;""></stim_listA>",are dancing with each other,
null,"<div style=""font-size:60px;"">+</div>",,html-keyboard-response,274,1843186,0.0-17.0-0.7,23910,List2A,black,woman,,,,null,,,,
null,"<img src=""stim_listA/shout4.gif""style=""height:400px;""></stim_listA>",,html-keyboard-response,275,1845192,0.0-17.0-1.7,23910,List2A,black,woman,,,,null,,,,
null,are shouting at each other,,html-keyboard-response,276,1847211,0.0-17.0-2.7,23910,List2A,black,woman,,,,null,,,,
14983,,,survey-text,277,1862197,0.0-17.0-3.7,23910,List2A,black,woman,,,,,"{""Q0"":""kate and mike are shouting at each other""}","<img src=""stim_listA/shout4.gif""style=""height:400px;""></stim_listA>",are shouting at each other,
null,"<div style=""font-size:60px;"">+</div>",,html-keyboard-response,278,1862712,0.0-17.0-0.8,23910,List2A,black,woman,,,,null,,,,
null,"<img src=""stim_listA/dance8.gif""style=""height:400px;""></stim_listA>",,html-keyboard-response,279,1864722,0.0-17.0-1.8,23910,List2A,black,woman,,,,null,,,,
null,are dancing with each other,,html-keyboard-response,280,1866731,0.0-17.0-2.8,23910,List2A,black,woman,,,,null,,,,
13736,,,survey-text,281,1880469,0.0-17.0-3.8,23910,List2A,black,woman,,,,,"{""Q0"":""beth and jane are dancing with each other""}","<img src=""stim_listA/dance8.gif""style=""height:400px;""></stim_listA>",are dancing with each other,
null,"<div style=""font-size:60px;"">+</div>",,html-keyboard-response,282,1880980,0.0-17.0-0.9,23910,List2A,black,woman,,,,null,,,,
null,"<img src=""stim_listA/argue6.gif""style=""height:400px;""></stim_listA>",,html-keyboard-response,283,1883002,0.0-17.0-1.9,23910,List2A,black,woman,,,,null,,,,
null,are arguing with each other,,html-keyboard-response,284,1885011,0.0-17.0-2.9,23910,List2A,black,woman,,,,null,,,,
13440,,,survey-text,285,1898452,0.0-17.0-3.9,23910,List2A,black,woman,,,,,"{""Q0"":""luke and mike are arguing with each other""}","<img src=""stim_listA/argue6.gif""style=""height:400px;""></stim_listA>",are arguing with each other,
null,"<div style=""font-size:60px;"">+</div>",,html-keyboard-response,286,1898961,0.0-17.0-0.10,23910,List2A,black,woman,,,,null,,,,
null,"<img src=""stim_listA/fight2.gif""style=""height:400px;""></stim_listA>",,html-keyboard-response,287,1900971,0.0-17.0-1.10,23910,List2A,black,woman,,,,null,,,,
null,are fighting each other,,html-keyboard-response,288,1902973,0.0-17.0-2.10,23910,List2A,black,woman,,,,null,,,,
16299,,,survey-text,289,1919272,0.0-17.0-3.10,23910,List2A,black,woman,,,,,"{""Q0"":""ruth and luke are fighting each other""}","<img src=""stim_listA/fight2.gif""style=""height:400px;""></stim_listA>",are fighting each other,
null,"<div style=""font-size:60px;"">+</div>",,html-keyboard-response,290,1919791,0.0-17.0-0.11,23910,List2A,black,woman,,,,null,,,,
null,"<img src=""stim_listA/play4.gif""style=""height:400px;""></stim_listA>",,html-keyboard-response,291,1921802,0.0-17.0-1.11,23910,List2A,black,woman,,,,null,,,,
null,are playing with each other,,html-keyboard-response,292,1923811,0.0-17.0-2.11,23910,List2A,black,woman,,,,null,,,,
21721,,,survey-text,293,1945533,0.0-17.0-3.11,23910,List2A,black,woman,,,,,"{""Q0"":""beth and fred are playing with each other""}","<img src=""stim_listA/play4.gif""style=""height:400px;""></stim_listA>",are playing with each other,
null,"<div style=""font-size:60px;"">+</div>",,html-keyboard-response,294,1946051,0.0-17.0-0.12,23910,List2A,black,woman,,,,null,,,,
null,"<img src=""stim_listA/touch1.gif""style=""height:400px;""></stim_listA>",,html-keyboard-response,295,1948053,0.0-17.0-1.12,23910,List2A,black,woman,,,,null,,,,
null,is touching,,html-keyboard-response,296,1950061,0.0-17.0-2.12,23910,List2A,black,woman,,,,null,,,,
8102,,,survey-text,297,1958164,0.0-17.0-3.12,23910,List2A,black,woman,,,,,"{""Q0"":""jane is touching dave""}","<img src=""stim_listA/touch1.gif""style=""height:400px;""></stim_listA>",is touching,
null,"<div style=""font-size:60px;"">+</div>",,html-keyboard-response,298,1958681,0.0-17.0-0.13,23910,List2A,black,woman,,,,null,,,,
null,"<img src=""stim_listA/talk5.gif""style=""height:400px;""></stim_listA>",,html-keyboard-response,299,1960691,0.0-17.0-1.13,23910,List2A,black,woman,,,,null,,,,
null,is talking to,,html-keyboard-response,300,1962701,0.0-17.0-2.13,23910,List2A,black,woman,,,,null,,,,
13568,,,survey-text,301,1976272,0.0-17.0-3.13,23910,List2A,black,woman,,,,,"{""Q0"":""mike is talking to luke""}","<img src=""stim_listA/talk5.gif""style=""height:400px;""></stim_listA>",is talking to,
null,"<div style=""font-size:60px;"">+</div>",,html-keyboard-response,302,1976780,0.0-17.0-0.14,23910,List2A,black,woman,,,,null,,,,
null,"<img src=""stim_listA/play5.gif""style=""height:400px;""></stim_listA>",,html-keyboard-response,303,1978791,0.0-17.0-1.14,23910,List2A,black,woman,,,,null,,,,
null,is playing with,,html-keyboard-response,304,1980811,0.0-17.0-2.14,23910,List2A,black,woman,,,,null,,,,
7966,,,survey-text,305,1988778,0.0-17.0-3.14,23910,List2A,black,woman,,,,,"{""Q0"":""mike is playing with dave""}","<img src=""stim_listA/play5.gif""style=""height:400px;""></stim_listA>",is playing with,
null,"<div style=""font-size:60px;"">+</div>",,html-keyboard-response,306,1989294,0.0-17.0-0.15,23910,List2A,black,woman,,,,null,,,,
null,"<img src=""stim_listA/flirt2.gif""style=""height:400px;""></stim_listA>",,html-keyboard-response,307,1991301,0.0-17.0-1.15,23910,List2A,black,woman,,,,null,,,,
null,are flirting with each other,,html-keyboard-response,308,1993309,0.0-17.0-2.15,23910,List2A,black,woman,,,,null,,,,
11505,,,survey-text,309,2004814,0.0-17.0-3.15,23910,List2A,black,woman,,,,,"{""Q0"":""ruth and dave are flirting with each other""}","<img src=""stim_listA/flirt2.gif""style=""height:400px;""></stim_listA>",are flirting with each other,
null,"<div style=""font-size:60px;"">+</div>",,html-keyboard-response,310,2005331,0.0-17.0-0.16,23910,List2A,black,woman,,,,null,,,,
null,"<img src=""stim_listA/play3.gif""style=""height:400px;""></stim_listA>",,html-keyboard-response,311,2007350,0.0-17.0-1.16,23910,List2A,black,woman,,,,null,,,,
null,is playing with,,html-keyboard-response,312,2009361,0.0-17.0-2.16,23910,List2A,black,woman,,,,null,,,,
8111,,,survey-text,313,2017475,0.0-17.0-3.16,23910,List2A,black,woman,,,,,"{""Q0"":""mike is playing with kate""}","<img src=""stim_listA/play3.gif""style=""height:400px;""></stim_listA>",is playing with,
null,"<div style=""font-size:60px;"">+</div>",,html-keyboard-response,314,2017991,0.0-17.0-0.17,23910,List2A,black,woman,,,,null,,,,
null,"<img src=""stim_listA/kiss8.gif""style=""height:400px;""></stim_listA>",,html-keyboard-response,315,2020011,0.0-17.0-1.17,23910,List2A,black,woman,,,,null,,,,
null,are kissing each other,,html-keyboard-response,316,2022030,0.0-17.0-2.17,23910,List2A,black,woman,,,,null,,,,
24101,,,survey-text,317,2046133,0.0-17.0-3.17,23910,List2A,black,woman,,,,,"{""Q0"":""kate and jane are kissing each other""}","<img src=""stim_listA/kiss8.gif""style=""height:400px;""></stim_listA>",are kissing each other,
null,"<div style=""font-size:60px;"">+</div>",,html-keyboard-response,318,2046641,0.0-17.0-0.18,23910,List2A,black,woman,,,,null,,,,
null,"<img src=""stim_listA/shout8.gif""style=""height:400px;""></stim_listA>",,html-keyboard-response,319,2048661,0.0-17.0-1.18,23910,List2A,black,woman,,,,null,,,,
null,are shouting at each other,,html-keyboard-response,320,2050681,0.0-17.0-2.18,23910,List2A,black,woman,,,,null,,,,
14647,,,survey-text,321,2065330,0.0-17.0-3.18,23910,List2A,black,woman,,,,,"{""Q0"":""kate and jane are shouting at each other""}","<img src=""stim_listA/shout8.gif""style=""height:400px;""></stim_listA>",are shouting at each other,
null,"<div style=""font-size:60px;"">+</div>",,html-keyboard-response,322,2065831,0.0-17.0-0.19,23910,List2A,black,woman,,,,null,,,,
null,"<img src=""stim_listA/play7.gif""style=""height:400px;""></stim_listA>",,html-keyboard-response,323,2067841,0.0-17.0-1.19,23910,List2A,black,woman,,,,null,,,,
null,is playing with,,html-keyboard-response,324,2069851,0.0-17.0-2.19,23910,List2A,black,woman,,,,null,,,,
15229,,,survey-text,325,2085080,0.0-17.0-3.19,23910,List2A,black,woman,,,,,"{""Q0"":""kate is playing with jane""}","<img src=""stim_listA/play7.gif""style=""height:400px;""></stim_listA>",is playing with,
31433,"<img src='img/portrait_matrix_list2.jpg' style='width:900px;height:500px;''></img><p>If you have memorised all the portraits and names and are ready to start, press Continue.</p><p><strong>Please note: Your memory of these faces will be tested 4 times during this experiment.</strong></p>",0,html-button-response,326,2116516,0.0-18.0-0.0,23910,List2A,black,woman,,,,,,,,
3389,"<img src=""portrait/WW1.jpg""style=""height:400px;""></img>",1,html-button-response,327,2120916,0.0-18.0-1.0,23910,List2A,black,woman,,TRUE,1,,,,,
null,CORRECT,,html-keyboard-response,328,2122450,0.0-18.0-2.0-0.0,23910,List2A,black,woman,,,,null,,,,
3269,"<img src=""portrait/BW2.jpg""style=""height:400px;""></img>",2,html-button-response,329,2125721,0.0-18.0-4.0,23910,List2A,black,woman,,TRUE,2,,,,,
null,CORRECT,,html-keyboard-response,330,2127260,0.0-18.0-5.0-0.0,23910,List2A,black,woman,,,,null,,,,
4474,"<img src=""portrait/WM1.jpg""style=""height:400px;""></img>",6,html-button-response,331,2131738,0.0-18.0-7.0,23910,List2A,black,woman,,TRUE,6,,,,,
null,CORRECT,,html-keyboard-response,332,2133250,0.0-18.0-8.0-0.0,23910,List2A,black,woman,,,,null,,,,
2220,"<img src=""portrait/BM2.jpg""style=""height:400px;""></img>",5,html-button-response,333,2135472,0.0-18.0-10.0,23910,List2A,black,woman,,TRUE,5,,,,,
null,CORRECT,,html-keyboard-response,334,2136990,0.0-18.0-11.0-0.0,23910,List2A,black,woman,,,,null,,,,
2407,"<img src=""portrait/BW1.jpg""style=""height:400px;""></img>",0,html-button-response,335,2139399,0.0-18.0-13.0,23910,List2A,black,woman,,TRUE,0,,,,,
null,CORRECT,,html-keyboard-response,336,2140927,0.0-18.0-14.0-0.0,23910,List2A,black,woman,,,,null,,,,
3377,"<img src=""portrait/WW2.jpg""style=""height:400px;""></img>",3,html-button-response,337,2144306,0.0-18.0-16.0,23910,List2A,black,woman,,TRUE,3,,,,,
null,CORRECT,,html-keyboard-response,338,2145831,0.0-18.0-17.0-0.0,23910,List2A,black,woman,,,,null,,,,
4853,"<img src=""portrait/WM2.jpg""style=""height:400px;""></img>",7,html-button-response,339,2150686,0.0-18.0-19.0,23910,List2A,black,woman,,TRUE,7,,,,,
null,CORRECT,,html-keyboard-response,340,2152210,0.0-18.0-20.0-0.0,23910,List2A,black,woman,,,,null,,,,
3411,"<img src=""portrait/BM1.jpg""style=""height:400px;""></img>",4,html-button-response,341,2155622,0.0-18.0-22.0,23910,List2A,black,woman,,TRUE,4,,,,,
null,CORRECT,,html-keyboard-response,342,2157150,0.0-18.0-23.0-0.0,23910,List2A,black,woman,,,,null,,,,
2540,<p>You got 8 out of 8 right first time. Press Continue.</p>,0,html-button-response,343,2159692,0.0-18.0-25.0,23910,List2A,black,woman,,,,,,,,
null,"<div style=""font-size:60px;"">+</div>",,html-keyboard-response,344,2161230,0.0-19.0-0.0,23910,List2A,black,woman,,,,null,,,,
null,"<img src=""stim_listA/talk3.gif""style=""height:400px;""></stim_listA>",,html-keyboard-response,345,2163251,0.0-19.0-1.0,23910,List2A,black,woman,,,,null,,,,
null,is talking to,,html-keyboard-response,346,2165270,0.0-19.0-2.0,23910,List2A,black,woman,,,,null,,,,
12636,,,survey-text,347,2177907,0.0-19.0-3.0,23910,List2A,black,woman,,,,,"{""Q0"":""Kate is talking to fred""}","<img src=""stim_listA/talk3.gif""style=""height:400px;""></stim_listA>",is talking to,
null,"<div style=""font-size:60px;"">+</div>",,html-keyboard-response,348,2178410,0.0-19.0-0.1,23910,List2A,black,woman,,,,null,,,,
null,"<img src=""stim_listA/shout1.gif""style=""height:400px;""></stim_listA>",,html-keyboard-response,349,2180413,0.0-19.0-1.1,23910,List2A,black,woman,,,,null,,,,
null,is shouting at,,html-keyboard-response,350,2182421,0.0-19.0-2.1,23910,List2A,black,woman,,,,null,,,,
15202,,,survey-text,351,2197624,0.0-19.0-3.1,23910,List2A,black,woman,,,,,"{""Q0"":""ruth and luke are shouting at each other""}","<img src=""stim_listA/shout1.gif""style=""height:400px;""></stim_listA>",is shouting at,
null,"<div style=""font-size:60px;"">+</div>",,html-keyboard-response,352,2198140,0.0-19.0-0.2,23910,List2A,black,woman,,,,null,,,,
null,"<img src=""stim_listA/dance7.gif""style=""height:400px;""></stim_listA>",,html-keyboard-response,353,2200160,0.0-19.0-1.2,23910,List2A,black,woman,,,,null,,,,
null,is dancing with,,html-keyboard-response,354,2202171,0.0-19.0-2.2,23910,List2A,black,woman,,,,null,,,,
9826,,,survey-text,355,2211997,0.0-19.0-3.2,23910,List2A,black,woman,,,,,"{""Q0"":""kate is dancing with ruth""}","<img src=""stim_listA/dance7.gif""style=""height:400px;""></stim_listA>",is dancing with,
null,"<div style=""font-size:60px;"">+</div>",,html-keyboard-response,356,2212510,0.0-19.0-0.3,23910,List2A,black,woman,,,,null,,,,
null,"<img src=""stim_listA/flirt3.gif""style=""height:400px;""></stim_listA>",,html-keyboard-response,357,2214531,0.0-19.0-1.3,23910,List2A,black,woman,,,,null,,,,
null,is flirting with,,html-keyboard-response,358,2216539,0.0-19.0-2.3,23910,List2A,black,woman,,,,null,,,,
20225,,,survey-text,359,2236765,0.0-19.0-3.3,23910,List2A,black,woman,,,,,"{""Q0"":""beth is flirting with fred""}","<img src=""stim_listA/flirt3.gif""style=""height:400px;""></stim_listA>",is flirting with,
null,"<div style=""font-size:60px;"">+</div>",,html-keyboard-response,360,2237280,0.0-19.0-0.4,23910,List2A,black,woman,,,,null,,,,
null,"<img src=""stim_listA/talk4.gif""style=""height:400px;""></stim_listA>",,html-keyboard-response,361,2239303,0.0-19.0-1.4,23910,List2A,black,woman,,,,null,,,,
null,are talking to each other,,html-keyboard-response,362,2241310,0.0-19.0-2.4,23910,List2A,black,woman,,,,null,,,,
11799,,,survey-text,363,2253109,0.0-19.0-3.4,23910,List2A,black,woman,,,,,"{""Q0"":""beth and mike are talking together""}","<img src=""stim_listA/talk4.gif""style=""height:400px;""></stim_listA>",are talking to each other,
null,"<div style=""font-size:60px;"">+</div>",,html-keyboard-response,364,2253610,0.0-19.0-0.5,23910,List2A,black,woman,,,,null,,,,
null,"<img src=""stim_listA/play2.gif""style=""height:400px;""></stim_listA>",,html-keyboard-response,365,2255631,0.0-19.0-1.5,23910,List2A,black,woman,,,,null,,,,
null,are playing with each other,,html-keyboard-response,366,2257651,0.0-19.0-2.5,23910,List2A,black,woman,,,,null,,,,
12472,,,survey-text,367,2270124,0.0-19.0-3.5,23910,List2A,black,woman,,,,,"{""Q0"":""ruth and luke are playing with each other""}","<img src=""stim_listA/play2.gif""style=""height:400px;""></stim_listA>",are playing with each other,
null,"<div style=""font-size:60px;"">+</div>",,html-keyboard-response,368,2270631,0.0-19.0-0.6,23910,List2A,black,woman,,,,null,,,,
null,"<img src=""stim_listA/argue7.gif""style=""height:400px;""></stim_listA>",,html-keyboard-response,369,2272640,0.0-19.0-1.6,23910,List2A,black,woman,,,,null,,,,
null,is arguing with,,html-keyboard-response,370,2274660,0.0-19.0-2.6,23910,List2A,black,woman,,,,null,,,,
11776,,,survey-text,371,2286437,0.0-19.0-3.6,23910,List2A,black,woman,,,,,"{""Q0"":""jane is arguing with beth""}","<img src=""stim_listA/argue7.gif""style=""height:400px;""></stim_listA>",is arguing with,
null,"<div style=""font-size:60px;"">+</div>",,html-keyboard-response,372,2286951,0.0-19.0-0.7,23910,List2A,black,woman,,,,null,,,,
null,"<img src=""stim_listA/flirt6.gif""style=""height:400px;""></stim_listA>",,html-keyboard-response,373,2288970,0.0-19.0-1.7,23910,List2A,black,woman,,,,null,,,,
null,are flirting with each other,,html-keyboard-response,374,2290980,0.0-19.0-2.7,23910,List2A,black,woman,,,,null,,,,
16437,,,survey-text,375,2307418,0.0-19.0-3.7,23910,List2A,black,woman,,,,,"{""Q0"":""dave and fred are flirting with each other""}","<img src=""stim_listA/flirt6.gif""style=""height:400px;""></stim_listA>",are flirting with each other,
null,"<div style=""font-size:60px;"">+</div>",,html-keyboard-response,376,2307930,0.0-19.0-0.8,23910,List2A,black,woman,,,,null,,,,
null,"<img src=""stim_listA/argue4.gif""style=""height:400px;""></stim_listA>",,html-keyboard-response,377,2309950,0.0-19.0-1.8,23910,List2A,black,woman,,,,null,,,,
null,are arguing with each other,,html-keyboard-response,378,2311960,0.0-19.0-2.8,23910,List2A,black,woman,,,,null,,,,
16608,,,survey-text,379,2328569,0.0-19.0-3.8,23910,List2A,black,woman,,,,,"{""Q0"":""kate and fred are arguing with each other""}","<img src=""stim_listA/argue4.gif""style=""height:400px;""></stim_listA>",are arguing with each other,
null,"<div style=""font-size:60px;"">+</div>",,html-keyboard-response,380,2329091,0.0-19.0-0.9,23910,List2A,black,woman,,,,null,,,,
null,"<img src=""stim_listA/shout6.gif""style=""height:400px;""></stim_listA>",,html-keyboard-response,381,2331100,0.0-19.0-1.9,23910,List2A,black,woman,,,,null,,,,
null,are shouting at each other,,html-keyboard-response,382,2333110,0.0-19.0-2.9,23910,List2A,black,woman,,,,null,,,,
11605,,,survey-text,383,2344715,0.0-19.0-3.9,23910,List2A,black,woman,,,,,"{""Q0"":""dave and mike are shouting at each other""}","<img src=""stim_listA/shout6.gif""style=""height:400px;""></stim_listA>",are shouting at each other,
null,"<div style=""font-size:60px;"">+</div>",,html-keyboard-response,384,2345220,0.0-19.0-0.10,23910,List2A,black,woman,,,,null,,,,
null,"<img src=""stim_listA/talk7.gif""style=""height:400px;""></stim_listA>",,html-keyboard-response,385,2347229,0.0-19.0-1.10,23910,List2A,black,woman,,,,null,,,,
null,is talking to,,html-keyboard-response,386,2349240,0.0-19.0-2.10,23910,List2A,black,woman,,,,null,,,,
13251,,,survey-text,387,2362492,0.0-19.0-3.10,23910,List2A,black,woman,,,,,"{""Q0"":""kate is talking to ruth""}","<img src=""stim_listA/talk7.gif""style=""height:400px;""></stim_listA>",is talking to,
null,"<div style=""font-size:60px;"">+</div>",,html-keyboard-response,388,2363009,0.0-19.0-0.11,23910,List2A,black,woman,,,,null,,,,
null,"<img src=""stim_listA/touch8.gif""style=""height:400px;""></stim_listA>",,html-keyboard-response,389,2365030,0.0-19.0-1.11,23910,List2A,black,woman,,,,null,,,,
null,are touching each other,,html-keyboard-response,390,2367035,0.0-19.0-2.11,23910,List2A,black,woman,,,,null,,,,
18443,,,survey-text,391,2385478,0.0-19.0-3.11,23910,List2A,black,woman,,,,,"{""Q0"":""ruth and kate are touching each other""}","<img src=""stim_listA/touch8.gif""style=""height:400px;""></stim_listA>",are touching each other,
null,"<div style=""font-size:60px;"">+</div>",,html-keyboard-response,392,2385990,0.0-19.0-0.12,23910,List2A,black,woman,,,,null,,,,
null,"<img src=""stim_listA/shout2.gif""style=""height:400px;""></stim_listA>",,html-keyboard-response,393,2388009,0.0-19.0-1.12,23910,List2A,black,woman,,,,null,,,,
null,are shouting at each other,,html-keyboard-response,394,2390030,0.0-19.0-2.12,23910,List2A,black,woman,,,,null,,,,
11779,,,survey-text,395,2401810,0.0-19.0-3.12,23910,List2A,black,woman,,,,,"{""Q0"":""jane and dave are shouting at each other""}","<img src=""stim_listA/shout2.gif""style=""height:400px;""></stim_listA>",are shouting at each other,
null,"<div style=""font-size:60px;"">+</div>",,html-keyboard-response,396,2402321,0.0-19.0-0.13,23910,List2A,black,woman,,,,null,,,,
null,"<img src=""stim_listA/kiss5.gif""style=""height:400px;""></stim_listA>",,html-keyboard-response,397,2404326,0.0-19.0-1.13,23910,List2A,black,woman,,,,null,,,,
null,is kissing,,html-keyboard-response,398,2406327,0.0-19.0-2.13,23910,List2A,black,woman,,,,null,,,,
8283,,,survey-text,399,2414611,0.0-19.0-3.13,23910,List2A,black,woman,,,,,"{""Q0"":""fred is kissing luke""}","<img src=""stim_listA/kiss5.gif""style=""height:400px;""></stim_listA>",is kissing,
null,"<div style=""font-size:60px;"">+</div>",,html-keyboard-response,400,2415112,0.0-19.0-0.14,23910,List2A,black,woman,,,,null,,,,
null,"<img src=""stim_listA/fight4.gif""style=""height:400px;""></stim_listA>",,html-keyboard-response,401,2417131,0.0-19.0-1.14,23910,List2A,black,woman,,,,null,,,,
null,are fighting each other,,html-keyboard-response,402,2419142,0.0-19.0-2.14,23910,List2A,black,woman,,,,null,,,,
24395,,,survey-text,403,2443539,0.0-19.0-3.14,23910,List2A,black,woman,,,,,"{""Q0"":""beth and fred are fighting each other""}","<img src=""stim_listA/fight4.gif""style=""height:400px;""></stim_listA>",are fighting each other,
null,"<div style=""font-size:60px;"">+</div>",,html-keyboard-response,404,2444060,0.0-19.0-0.15,23910,List2A,black,woman,,,,null,,,,
null,"<img src=""stim_listA/dance1.gif""style=""height:400px;""></stim_listA>",,html-keyboard-response,405,2446069,0.0-19.0-1.15,23910,List2A,black,woman,,,,null,,,,
null,is dancing with,,html-keyboard-response,406,2448089,0.0-19.0-2.15,23910,List2A,black,woman,,,,null,,,,
7512,,,survey-text,407,2455602,0.0-19.0-3.15,23910,List2A,black,woman,,,,,"{""Q0"":""jane is dancing with luke""}","<img src=""stim_listA/dance1.gif""style=""height:400px;""></stim_listA>",is dancing with,
null,"<div style=""font-size:60px;"">+</div>",,html-keyboard-response,408,2456109,0.0-19.0-0.16,23910,List2A,black,woman,,,,null,,,,
null,"<img src=""stim_listA/dance5.gif""style=""height:400px;""></stim_listA>",,html-keyboard-response,409,2458110,0.0-19.0-1.16,23910,List2A,black,woman,,,,null,,,,
null,is dancing with,,html-keyboard-response,410,2460119,0.0-19.0-2.16,23910,List2A,black,woman,,,,null,,,,
10358,,,survey-text,411,2470478,0.0-19.0-3.16,23910,List2A,black,woman,,,,,"{""Q0"":""mike is dancing with luke""}","<img src=""stim_listA/dance5.gif""style=""height:400px;""></stim_listA>",is dancing with,
null,"<div style=""font-size:60px;"">+</div>",,html-keyboard-response,412,2470999,0.0-19.0-0.17,23910,List2A,black,woman,,,,null,,,,
null,"<img src=""stim_listA/flirt5.gif""style=""height:400px;""></stim_listA>",,html-keyboard-response,413,2473020,0.0-19.0-1.17,23910,List2A,black,woman,,,,null,,,,
null,is flirting with,,html-keyboard-response,414,2475040,0.0-19.0-2.17,23910,List2A,black,woman,,,,null,,,,
14851,,,survey-text,415,2489891,0.0-19.0-3.17,23910,List2A,black,woman,,,,,"{""Q0"":""mike and luke are flirting with each other""}","<img src=""stim_listA/flirt5.gif""style=""height:400px;""></stim_listA>",is flirting with,
null,"<div style=""font-size:60px;"">+</div>",,html-keyboard-response,416,2490409,0.0-19.0-0.18,23910,List2A,black,woman,,,,null,,,,
null,"<img src=""stim_listA/fight6.gif""style=""height:400px;""></stim_listA>",,html-keyboard-response,417,2492420,0.0-19.0-1.18,23910,List2A,black,woman,,,,null,,,,
null,are fighting each other,,html-keyboard-response,418,2494429,0.0-19.0-2.18,23910,List2A,black,woman,,,,null,,,,
14569,,,survey-text,419,2509000,0.0-19.0-3.18,23910,List2A,black,woman,,,,,"{""Q0"":""luke and fred are fighting each other""}","<img src=""stim_listA/fight6.gif""style=""height:400px;""></stim_listA>",are fighting each other,
null,"<div style=""font-size:60px;"">+</div>",,html-keyboard-response,420,2509509,0.0-19.0-0.19,23910,List2A,black,woman,,,,null,,,,
null,"<img src=""stim_listA/marry8.gif""style=""height:400px;""></stim_listA>",,html-keyboard-response,421,2511520,0.0-19.0-1.19,23910,List2A,black,woman,,,,null,,,,
null,are marrying each other,,html-keyboard-response,422,2513530,0.0-19.0-2.19,23910,List2A,black,woman,,,,null,,,,
13473,,,survey-text,423,2527004,0.0-19.0-3.19,23910,List2A,black,woman,,,,,"{""Q0"":""ruth and kate are marrying each other""}","<img src=""stim_listA/marry8.gif""style=""height:400px;""></stim_listA>",are marrying each other,
4501,<p>Thank you for completing that task.</p><p>The final part of this session is a short questionnaire.</p><p>Press Continue.</p>,0,html-button-response,424,2531507,0.0-20.0,23910,List2A,black,woman,,,,,,,,
77149,,,survey-text,425,2609672,0.0-21.0,23910,List2A,black,woman,,,,,"{""Q0"":""55"",""Q1"":""English"",""Q2"":""English"",""Q3"":""England"",""Q4"":""Black "",""Q5"":""Female""}",,,demographics
10587,,,survey-likert,426,2620262,0.0-22.0,23910,List2A,black,woman,,,,,"{""Q0"":4}",,,likert_ESS
8697,,,survey-likert,427,2628962,0.0-23.0,23910,List2A,black,woman,,,,,"{""Q0"":4}",,,likert_NSSAL_Q1
5771,,,survey-likert,428,2634737,0.0-24.0,23910,List2A,black,woman,,,,,"{""Q0"":4}",,,likert_NSSAL_Q2
8101,,,survey-likert,429,2642841,0.0-25.0,23910,List2A,black,woman,,,,,"{""Q0"":4}",,,likert_CGRS_Q1
5830,,,survey-likert,430,2648676,0.0-26.0,23910,List2A,black,woman,,,,,"{""Q0"":4}",,,likert_CGRS_Q2
5035,,,survey-likert,431,2653716,0.0-27.0,23910,List2A,black,woman,,,,,"{""Q0"":4}",,,likert_CGRS_Q3
153769,,,survey-text,432,2807489,0.0-28.0,23910,List2A,black,woman,,,,,"{""Q0"":""ccc""}",,,worker_id
56483,,,external-html,433,2864112,0.0-29.0,23910,List2A,black,woman,debrief.html,,,,,,,
