rt,stimulus,button_pressed,trial_type,trial_index,time_elapsed,internal_node_id,subject,list,ppt_race,ppt_gender,url,first_guess,correct,key_press,responses,image_type,phrase_type,test_part
2569,Welcome to the experiment. Press Continue to begin.,0,html-button-response,0,2572,0.0-0.0,24633,List2B,black,woman,,,,,,,,
89350,,,external-html,1,92962,0.0-1.0,24633,List2B,black,woman,consent.html,,,,,,,
23268,"<p>On the next page, you will see portraits of 8 people and their names.</p><p>Your first task is to take a few minutes to memorise the names of these people.</p><p>You will have to recall their names during the rest of the experiment, so it is</p><p>essential that you try to memorise these people and their names as best as you can.</p><br><p><strong>You will then be tested on your memory of these names and portraits.</strong></p><br><p>The experiment will start after you have completed this memory test.</p><br><p>Ready?</p>",0,html-button-response,2,116234,0.0-2.0,24633,List2B,black,woman,,,,,,,,
107242,"<img src='img/portrait_matrix_list2.jpg' style='width:900px;height:500px;''></img><p>If you have memorised all the portraits and names and are ready to start, press Continue.</p><p><strong>Please note: Your memory of these faces will be tested 4 times during this experiment.</strong></p>",0,html-button-response,3,224493,0.0-3.0-0.0,24633,List2B,black,woman,,,,,,,,
22873,"<img src=""portrait/WM1.jpg""style=""height:400px;""></img>",6,html-button-response,4,248372,0.0-3.0-1.0,24633,List2B,black,woman,,TRUE,6,,,,,
null,CORRECT,,html-keyboard-response,5,249883,0.0-3.0-2.0-0.0,24633,List2B,black,woman,,,,null,,,,
31063,"<img src=""portrait/BM2.jpg""style=""height:400px;""></img>",5,html-button-response,6,280950,0.0-3.0-4.0,24633,List2B,black,woman,,TRUE,5,,,,,
null,CORRECT,,html-keyboard-response,7,282453,0.0-3.0-5.0-0.0,24633,List2B,black,woman,,,,null,,,,
13615,"<img src=""portrait/WW2.jpg""style=""height:400px;""></img>",1,html-button-response,8,296071,0.0-3.0-7.0,24633,List2B,black,woman,,TRUE,3,,,,,
40567,"<img src=""portrait/WW2.jpg""style=""height:400px;""></img>",3,html-button-response,9,337642,0.0-3.0-9.0-0.0,24633,List2B,black,woman,,FALSE,3,,,,,
null,CORRECT,,html-keyboard-response,10,339147,0.0-3.0-9.0-1.0-0.0,24633,List2B,black,woman,,,,null,,,,
20617,"<img src=""portrait/BM1.jpg""style=""height:400px;""></img>",4,html-button-response,11,359767,0.0-3.0-10.0,24633,List2B,black,woman,,TRUE,4,,,,,
null,CORRECT,,html-keyboard-response,12,361275,0.0-3.0-11.0-0.0,24633,List2B,black,woman,,,,null,,,,
9935,"<img src=""portrait/BW1.jpg""style=""height:400px;""></img>",0,html-button-response,13,371213,0.0-3.0-13.0,24633,List2B,black,woman,,TRUE,0,,,,,
null,CORRECT,,html-keyboard-response,14,372716,0.0-3.0-14.0-0.0,24633,List2B,black,woman,,,,null,,,,
15101,"<img src=""portrait/WW1.jpg""style=""height:400px;""></img>",1,html-button-response,15,387820,0.0-3.0-16.0,24633,List2B,black,woman,,TRUE,1,,,,,
null,CORRECT,,html-keyboard-response,16,389327,0.0-3.0-17.0-0.0,24633,List2B,black,woman,,,,null,,,,
32947,"<img src=""portrait/BW2.jpg""style=""height:400px;""></img>",2,html-button-response,17,422276,0.0-3.0-19.0,24633,List2B,black,woman,,TRUE,2,,,,,
null,CORRECT,,html-keyboard-response,18,423778,0.0-3.0-20.0-0.0,24633,List2B,black,woman,,,,null,,,,
23914,"<img src=""portrait/WM2.jpg""style=""height:400px;""></img>",7,html-button-response,19,447696,0.0-3.0-22.0,24633,List2B,black,woman,,TRUE,7,,,,,
null,CORRECT,,html-keyboard-response,20,449201,0.0-3.0-23.0-0.0,24633,List2B,black,woman,,,,null,,,,
24376,<p>You got 7 out of 8 right first time. Press Continue.</p>,0,html-button-response,21,473580,0.0-3.0-25.0,24633,List2B,black,woman,,,,,,,,
4616,"As you did not score 100%, the memory game will repeat. Press Continue.",0,html-button-response,22,479198,0.0-3.0-26.0-0.0,24633,List2B,black,woman,,,,,,,,
36218,"<img src='img/portrait_matrix_list2.jpg' style='width:900px;height:500px;''></img><p>If you have memorised all the portraits and names and are ready to start, press Continue.</p><p><strong>Please note: Your memory of these faces will be tested 4 times during this experiment.</strong></p>",0,html-button-response,23,516426,0.0-3.1-0.1,24633,List2B,black,woman,,,,,,,,
10066,"<img src=""portrait/WM1.jpg""style=""height:400px;""></img>",6,html-button-response,24,527498,0.0-3.1-1.1,24633,List2B,black,woman,,TRUE,6,,,,,
null,CORRECT,,html-keyboard-response,25,529003,0.0-3.1-2.1-0.1,24633,List2B,black,woman,,,,null,,,,
10800,"<img src=""portrait/BM2.jpg""style=""height:400px;""></img>",5,html-button-response,26,539805,0.0-3.1-4.1,24633,List2B,black,woman,,TRUE,5,,,,,
null,CORRECT,,html-keyboard-response,27,541312,0.0-3.1-5.1-0.1,24633,List2B,black,woman,,,,null,,,,
13299,"<img src=""portrait/WW2.jpg""style=""height:400px;""></img>",3,html-button-response,28,554612,0.0-3.1-7.1,24633,List2B,black,woman,,TRUE,3,,,,,
null,CORRECT,,html-keyboard-response,29,556118,0.0-3.1-8.1-0.1,24633,List2B,black,woman,,,,null,,,,
8172,"<img src=""portrait/BM1.jpg""style=""height:400px;""></img>",4,html-button-response,30,564293,0.0-3.1-10.1,24633,List2B,black,woman,,TRUE,4,,,,,
null,CORRECT,,html-keyboard-response,31,565802,0.0-3.1-11.1-0.1,24633,List2B,black,woman,,,,null,,,,
8656,"<img src=""portrait/BW1.jpg""style=""height:400px;""></img>",0,html-button-response,32,574461,0.0-3.1-13.1,24633,List2B,black,woman,,TRUE,0,,,,,
null,CORRECT,,html-keyboard-response,33,575968,0.0-3.1-14.1-0.1,24633,List2B,black,woman,,,,null,,,,
8688,"<img src=""portrait/WW1.jpg""style=""height:400px;""></img>",1,html-button-response,34,584657,0.0-3.1-16.1,24633,List2B,black,woman,,TRUE,1,,,,,
null,CORRECT,,html-keyboard-response,35,586163,0.0-3.1-17.1-0.1,24633,List2B,black,woman,,,,null,,,,
8485,"<img src=""portrait/BW2.jpg""style=""height:400px;""></img>",2,html-button-response,36,594649,0.0-3.1-19.1,24633,List2B,black,woman,,TRUE,2,,,,,
null,CORRECT,,html-keyboard-response,37,596159,0.0-3.1-20.1-0.1,24633,List2B,black,woman,,,,null,,,,
6223,"<img src=""portrait/WM2.jpg""style=""height:400px;""></img>",7,html-button-response,38,602384,0.0-3.1-22.1,24633,List2B,black,woman,,TRUE,7,,,,,
null,CORRECT,,html-keyboard-response,39,603891,0.0-3.1-23.1-0.1,24633,List2B,black,woman,,,,null,,,,
3099,<p>You got 8 out of 8 right first time. Press Continue.</p>,0,html-button-response,40,606992,0.0-3.1-25.1,24633,List2B,black,woman,,,,,,,,
214452,"<p>In this experiment, you will view photographs of the people from the memory game interacting.</p><p>By using the <strong>exact</strong> phrase given <i>after</i> the photograph appears and recalling the correct names of the people in the photographs, form a sentence describing the interaction. You do not need to capitalise names.</p><p>Type your answer in the space provided. Please complete every sentence before moving onto the next trial.</p><p>You will only have a few seconds to memorise each given photograph and phrase before you can respond, so try your best to focus.</p><p>An example is given below. Press 'Continue' when you are ready.</p><img src='img/speaking_example.jpg' style='width:800px;height:460px;''></img>",0,html-button-response,41,822451,0.0-4.0,24633,List2B,black,woman,,,,,,,,
3802,"<p>Before the experiment starts, you will watch two example trials. Press 'Continue'.</p>",0,html-button-response,42,827256,0.0-5.0,24633,List2B,black,woman,,,,,,,,
null,<img src='img/meet_eg.gif' style='height:400px;''></img>,,html-keyboard-response,43,830261,0.0-6.0,24633,List2B,black,woman,,,,null,,,,
null,<p>is meeting</p>,,html-keyboard-response,44,832266,0.0-7.0,24633,List2B,black,woman,,,,null,,,,
5717,<p><b>Answer:</b> jane is meeting ruth</p>,0,html-button-response,45,837985,0.0-8.0,24633,List2B,black,woman,,,,,,,,
null,<img src='img/look_eg.gif' style='height:400px;''></img>,,html-keyboard-response,46,840992,0.0-9.0,24633,List2B,black,woman,,,,null,,,,
null,<p>are looking at each other</p>,,html-keyboard-response,47,842998,0.0-10.0,24633,List2B,black,woman,,,,null,,,,
3556,<p><b>Answer:</b> fred and mike are looking at each other</p>,0,html-button-response,48,846556,0.0-11.0,24633,List2B,black,woman,,,,,,,,
32699,"<p>Ready to start the experiment?</p><br><p><strong>Remember to describe the picture using a full sentence,</strong></p><p><strong>that combines the names of the people with the <i>exact</i> phrase given.</strong></p><p><strong>To receive full payment you must do this correctly.</strong></p><p><strong> You do not need to capitalise names or use punctuation.</strong></p><br><p>Press 'Continue' to begin.</p>",0,html-button-response,49,880257,0.0-12.0,24633,List2B,black,woman,,,,,,,,
null,"<div style=""font-size:60px;"">+</div>",,html-keyboard-response,50,881759,0.0-13.0-0.0,24633,List2B,black,woman,,,,null,,,,
null,"<img src=""stim_listB/argue5.gif""style=""height:400px;""></stim_listB>",,html-keyboard-response,51,883766,0.0-13.0-1.0,24633,List2B,black,woman,,,,null,,,,
null,is arguing with,,html-keyboard-response,52,885771,0.0-13.0-2.0,24633,List2B,black,woman,,,,null,,,,
41319,,,survey-text,53,927094,0.0-13.0-3.0,24633,List2B,black,woman,,,,,"{""Q0"":""Dave is speaking to Fred""}","<img src=""stim_listB/argue5.gif""style=""height:400px;""></stim_listB>",is arguing with,
null,"<div style=""font-size:60px;"">+</div>",,html-keyboard-response,54,927597,0.0-13.0-0.1,24633,List2B,black,woman,,,,null,,,,
null,"<img src=""stim_listB/argue4.gif""style=""height:400px;""></stim_listB>",,html-keyboard-response,55,929598,0.0-13.0-1.1,24633,List2B,black,woman,,,,null,,,,
null,are arguing with each other,,html-keyboard-response,56,931603,0.0-13.0-2.1,24633,List2B,black,woman,,,,null,,,,
44759,,,survey-text,57,976362,0.0-13.0-3.1,24633,List2B,black,woman,,,,,"{""Q0"":""Jane is speaking to Dave""}","<img src=""stim_listB/argue4.gif""style=""height:400px;""></stim_listB>",are arguing with each other,
null,"<div style=""font-size:60px;"">+</div>",,html-keyboard-response,58,976866,0.0-13.0-0.2,24633,List2B,black,woman,,,,null,,,,
null,"<img src=""stim_listB/fight2.gif""style=""height:400px;""></stim_listB>",,html-keyboard-response,59,978874,0.0-13.0-1.2,24633,List2B,black,woman,,,,null,,,,
null,are fighting each other,,html-keyboard-response,60,980879,0.0-13.0-2.2,24633,List2B,black,woman,,,,null,,,,
84182,,,survey-text,61,1065064,0.0-13.0-3.2,24633,List2B,black,woman,,,,,"{""Q0"":""Ruth is speaking to dave""}","<img src=""stim_listB/fight2.gif""style=""height:400px;""></stim_listB>",are fighting each other,
null,"<div style=""font-size:60px;"">+</div>",,html-keyboard-response,62,1065566,0.0-13.0-0.3,24633,List2B,black,woman,,,,null,,,,
null,"<img src=""stim_listB/fight3.gif""style=""height:400px;""></stim_listB>",,html-keyboard-response,63,1067572,0.0-13.0-1.3,24633,List2B,black,woman,,,,null,,,,
null,is fighting,,html-keyboard-response,64,1069578,0.0-13.0-2.3,24633,List2B,black,woman,,,,null,,,,
50029,,,survey-text,65,1119608,0.0-13.0-3.3,24633,List2B,black,woman,,,,,"{""Q0"":""Kate is speaking to Mike""}","<img src=""stim_listB/fight3.gif""style=""height:400px;""></stim_listB>",is fighting,
null,"<div style=""font-size:60px;"">+</div>",,html-keyboard-response,66,1120110,0.0-13.0-0.4,24633,List2B,black,woman,,,,null,,,,
null,"<img src=""stim_listB/kiss7.gif""style=""height:400px;""></stim_listB>",,html-keyboard-response,67,1122113,0.0-13.0-1.4,24633,List2B,black,woman,,,,null,,,,
null,is kissing,,html-keyboard-response,68,1124117,0.0-13.0-2.4,24633,List2B,black,woman,,,,null,,,,
48061,,,survey-text,69,1172180,0.0-13.0-3.4,24633,List2B,black,woman,,,,,"{""Q0"":""Beth is kissing Ruth""}","<img src=""stim_listB/kiss7.gif""style=""height:400px;""></stim_listB>",is kissing,
null,"<div style=""font-size:60px;"">+</div>",,html-keyboard-response,70,1172682,0.0-13.0-0.5,24633,List2B,black,woman,,,,null,,,,
null,"<img src=""stim_listB/talk5.gif""style=""height:400px;""></stim_listB>",,html-keyboard-response,71,1174689,0.0-13.0-1.5,24633,List2B,black,woman,,,,null,,,,
null,is talking to,,html-keyboard-response,72,1176691,0.0-13.0-2.5,24633,List2B,black,woman,,,,null,,,,
34373,,,survey-text,73,1211065,0.0-13.0-3.5,24633,List2B,black,woman,,,,,"{""Q0"":""mike is speaking to Luke""}","<img src=""stim_listB/talk5.gif""style=""height:400px;""></stim_listB>",is talking to,
null,"<div style=""font-size:60px;"">+</div>",,html-keyboard-response,74,1211566,0.0-13.0-0.6,24633,List2B,black,woman,,,,null,,,,
null,"<img src=""stim_listB/marry1.gif""style=""height:400px;""></stim_listB>",,html-keyboard-response,75,1213571,0.0-13.0-1.6,24633,List2B,black,woman,,,,null,,,,
null,is marrying,,html-keyboard-response,76,1215575,0.0-13.0-2.6,24633,List2B,black,woman,,,,null,,,,
68390,,,survey-text,77,1283967,0.0-13.0-3.6,24633,List2B,black,woman,,,,,"{""Q0"":""Dave is speaking to Luke""}","<img src=""stim_listB/marry1.gif""style=""height:400px;""></stim_listB>",is marrying,
null,"<div style=""font-size:60px;"">+</div>",,html-keyboard-response,78,1284469,0.0-13.0-0.7,24633,List2B,black,woman,,,,null,,,,
null,"<img src=""stim_listB/argue2.gif""style=""height:400px;""></stim_listB>",,html-keyboard-response,79,1286475,0.0-13.0-1.7,24633,List2B,black,woman,,,,null,,,,
null,are arguing with each other,,html-keyboard-response,80,1288479,0.0-13.0-2.7,24633,List2B,black,woman,,,,null,,,,
81488,,,survey-text,81,1369971,0.0-13.0-3.7,24633,List2B,black,woman,,,,,"{""Q0"":""Ruth and Dave is arguing with each other""}","<img src=""stim_listB/argue2.gif""style=""height:400px;""></stim_listB>",are arguing with each other,
null,"<div style=""font-size:60px;"">+</div>",,html-keyboard-response,82,1370473,0.0-13.0-0.8,24633,List2B,black,woman,,,,null,,,,
null,"<img src=""stim_listB/flirt3.gif""style=""height:400px;""></stim_listB>",,html-keyboard-response,83,1372477,0.0-13.0-1.8,24633,List2B,black,woman,,,,null,,,,
null,is flirting with,,html-keyboard-response,84,1374478,0.0-13.0-2.8,24633,List2B,black,woman,,,,null,,,,
51235,,,survey-text,85,1425715,0.0-13.0-3.8,24633,List2B,black,woman,,,,,"{""Q0"":""Fred is speaking to Kate""}","<img src=""stim_listB/flirt3.gif""style=""height:400px;""></stim_listB>",is flirting with,
null,"<div style=""font-size:60px;"">+</div>",,html-keyboard-response,86,1426216,0.0-13.0-0.9,24633,List2B,black,woman,,,,null,,,,
null,"<img src=""stim_listB/play1.gif""style=""height:400px;""></stim_listB>",,html-keyboard-response,87,1428222,0.0-13.0-1.9,24633,List2B,black,woman,,,,null,,,,
null,is playing with,,html-keyboard-response,88,1430227,0.0-13.0-2.9,24633,List2B,black,woman,,,,null,,,,
41571,,,survey-text,89,1471800,0.0-13.0-3.9,24633,List2B,black,woman,,,,,"{""Q0"":""Dave is playing with Jane""}","<img src=""stim_listB/play1.gif""style=""height:400px;""></stim_listB>",is playing with,
null,"<div style=""font-size:60px;"">+</div>",,html-keyboard-response,90,1472303,0.0-13.0-0.10,24633,List2B,black,woman,,,,null,,,,
null,"<img src=""stim_listB/dance1.gif""style=""height:400px;""></stim_listB>",,html-keyboard-response,91,1474308,0.0-13.0-1.10,24633,List2B,black,woman,,,,null,,,,
null,is dancing with,,html-keyboard-response,92,1476311,0.0-13.0-2.10,24633,List2B,black,woman,,,,null,,,,
33885,,,survey-text,93,1510204,0.0-13.0-3.10,24633,List2B,black,woman,,,,,"{""Q0"":""  Dave is dancing with Ruth""}","<img src=""stim_listB/dance1.gif""style=""height:400px;""></stim_listB>",is dancing with,
null,"<div style=""font-size:60px;"">+</div>",,html-keyboard-response,94,1510708,0.0-13.0-0.11,24633,List2B,black,woman,,,,null,,,,
null,"<img src=""stim_listB/shout3.gif""style=""height:400px;""></stim_listB>",,html-keyboard-response,95,1512710,0.0-13.0-1.11,24633,List2B,black,woman,,,,null,,,,
null,is shouting at,,html-keyboard-response,96,1514712,0.0-13.0-2.11,24633,List2B,black,woman,,,,null,,,,
31232,,,survey-text,97,1545946,0.0-13.0-3.11,24633,List2B,black,woman,,,,,"{""Q0"":""Fred is shouting at Beth""}","<img src=""stim_listB/shout3.gif""style=""height:400px;""></stim_listB>",is shouting at,
null,"<div style=""font-size:60px;"">+</div>",,html-keyboard-response,98,1546448,0.0-13.0-0.12,24633,List2B,black,woman,,,,null,,,,
null,"<img src=""stim_listB/play3.gif""style=""height:400px;""></stim_listB>",,html-keyboard-response,99,1548453,0.0-13.0-1.12,24633,List2B,black,woman,,,,null,,,,
null,is playing with,,html-keyboard-response,100,1550454,0.0-13.0-2.12,24633,List2B,black,woman,,,,null,,,,
70228,,,survey-text,101,1620685,0.0-13.0-3.12,24633,List2B,black,woman,,,,,"{""Q0"":""Kate is playing with Mike""}","<img src=""stim_listB/play3.gif""style=""height:400px;""></stim_listB>",is playing with,
null,"<div style=""font-size:60px;"">+</div>",,html-keyboard-response,102,1621188,0.0-13.0-0.13,24633,List2B,black,woman,,,,null,,,,
null,"<img src=""stim_listB/flirt8.gif""style=""height:400px;""></stim_listB>",,html-keyboard-response,103,1623194,0.0-13.0-1.13,24633,List2B,black,woman,,,,null,,,,
null,are flirting with each other,,html-keyboard-response,104,1625195,0.0-13.0-2.13,24633,List2B,black,woman,,,,null,,,,
102873,,,survey-text,105,1728070,0.0-13.0-3.13,24633,List2B,black,woman,,,,,"{""Q0"":""Jane and Beth are flirting with each other ""}","<img src=""stim_listB/flirt8.gif""style=""height:400px;""></stim_listB>",are flirting with each other,
null,"<div style=""font-size:60px;"">+</div>",,html-keyboard-response,106,1728573,0.0-13.0-0.14,24633,List2B,black,woman,,,,null,,,,
null,"<img src=""stim_listB/marry8.gif""style=""height:400px;""></stim_listB>",,html-keyboard-response,107,1730577,0.0-13.0-1.14,24633,List2B,black,woman,,,,null,,,,
null,are marrying each other,,html-keyboard-response,108,1732578,0.0-13.0-2.14,24633,List2B,black,woman,,,,null,,,,
75606,,,survey-text,109,1808184,0.0-13.0-3.14,24633,List2B,black,woman,,,,,"{""Q0"":""Kate and Ruth are marrying each other""}","<img src=""stim_listB/marry8.gif""style=""height:400px;""></stim_listB>",are marrying each other,
null,"<div style=""font-size:60px;"">+</div>",,html-keyboard-response,110,1808685,0.0-13.0-0.15,24633,List2B,black,woman,,,,null,,,,
null,"<img src=""stim_listB/fight4.gif""style=""height:400px;""></stim_listB>",,html-keyboard-response,111,1810691,0.0-13.0-1.15,24633,List2B,black,woman,,,,null,,,,
null,are fighting each other,,html-keyboard-response,112,1812692,0.0-13.0-2.15,24633,List2B,black,woman,,,,null,,,,
50363,,,survey-text,113,1863056,0.0-13.0-3.15,24633,List2B,black,woman,,,,,"{""Q0"":""Beth and Fred are fighting each other""}","<img src=""stim_listB/fight4.gif""style=""height:400px;""></stim_listB>",are fighting each other,
null,"<div style=""font-size:60px;"">+</div>",,html-keyboard-response,114,1863558,0.0-13.0-0.16,24633,List2B,black,woman,,,,null,,,,
null,"<img src=""stim_listB/kiss1.gif""style=""height:400px;""></stim_listB>",,html-keyboard-response,115,1865564,0.0-13.0-1.16,24633,List2B,black,woman,,,,null,,,,
null,is kissing,,html-keyboard-response,116,1867565,0.0-13.0-2.16,24633,List2B,black,woman,,,,null,,,,
34160,,,survey-text,117,1901726,0.0-13.0-3.16,24633,List2B,black,woman,,,,,"{""Q0"":"" Luke and ruth is kissing ""}","<img src=""stim_listB/kiss1.gif""style=""height:400px;""></stim_listB>",is kissing,
null,"<div style=""font-size:60px;"">+</div>",,html-keyboard-response,118,1902228,0.0-13.0-0.17,24633,List2B,black,woman,,,,null,,,,
null,"<img src=""stim_listB/touch7.gif""style=""height:400px;""></stim_listB>",,html-keyboard-response,119,1904232,0.0-13.0-1.17,24633,List2B,black,woman,,,,null,,,,
null,is touching,,html-keyboard-response,120,1906233,0.0-13.0-2.17,24633,List2B,black,woman,,,,null,,,,
67133,,,survey-text,121,1973368,0.0-13.0-3.17,24633,List2B,black,woman,,,,,"{""Q0"":""Jane and Ruth is touching ""}","<img src=""stim_listB/touch7.gif""style=""height:400px;""></stim_listB>",is touching,
null,"<div style=""font-size:60px;"">+</div>",,html-keyboard-response,122,1973875,0.0-13.0-0.18,24633,List2B,black,woman,,,,null,,,,
null,"<img src=""stim_listB/marry5.gif""style=""height:400px;""></stim_listB>",,html-keyboard-response,123,1975877,0.0-13.0-1.18,24633,List2B,black,woman,,,,null,,,,
null,is marrying,,html-keyboard-response,124,1977878,0.0-13.0-2.18,24633,List2B,black,woman,,,,null,,,,
34443,,,survey-text,125,2012323,0.0-13.0-3.18,24633,List2B,black,woman,,,,,"{""Q0"":""Fred and Dave is marrying""}","<img src=""stim_listB/marry5.gif""style=""height:400px;""></stim_listB>",is marrying,
null,"<div style=""font-size:60px;"">+</div>",,html-keyboard-response,126,2012826,0.0-13.0-0.19,24633,List2B,black,woman,,,,null,,,,
null,"<img src=""stim_listB/dance6.gif""style=""height:400px;""></stim_listB>",,html-keyboard-response,127,2014830,0.0-13.0-1.19,24633,List2B,black,woman,,,,null,,,,
null,are dancing with each other,,html-keyboard-response,128,2016832,0.0-13.0-2.19,24633,List2B,black,woman,,,,null,,,,
41585,,,survey-text,129,2058419,0.0-13.0-3.19,24633,List2B,black,woman,,,,,"{""Q0"":""Dave and Fred are dancing with each other""}","<img src=""stim_listB/dance6.gif""style=""height:400px;""></stim_listB>",are dancing with each other,
55434,"<img src='img/portrait_matrix_list2.jpg' style='width:900px;height:500px;''></img><p>If you have memorised all the portraits and names and are ready to start, press Continue.</p><p><strong>Please note: Your memory of these faces will be tested 4 times during this experiment.</strong></p>",0,html-button-response,130,2113860,0.0-14.0-0.0,24633,List2B,black,woman,,,,,,,,
17346,"<img src=""portrait/BM1.jpg""style=""height:400px;""></img>",4,html-button-response,131,2132210,0.0-14.0-1.0,24633,List2B,black,woman,,TRUE,4,,,,,
null,CORRECT,,html-keyboard-response,132,2133718,0.0-14.0-2.0-0.0,24633,List2B,black,woman,,,,null,,,,
10564,"<img src=""portrait/BW2.jpg""style=""height:400px;""></img>",2,html-button-response,133,2144284,0.0-14.0-4.0,24633,List2B,black,woman,,TRUE,2,,,,,
null,CORRECT,,html-keyboard-response,134,2145791,0.0-14.0-5.0-0.0,24633,List2B,black,woman,,,,null,,,,
9216,"<img src=""portrait/WM2.jpg""style=""height:400px;""></img>",7,html-button-response,135,2155009,0.0-14.0-7.0,24633,List2B,black,woman,,TRUE,7,,,,,
null,CORRECT,,html-keyboard-response,136,2156515,0.0-14.0-8.0-0.0,24633,List2B,black,woman,,,,null,,,,
14972,"<img src=""portrait/WW1.jpg""style=""height:400px;""></img>",1,html-button-response,137,2171490,0.0-14.0-10.0,24633,List2B,black,woman,,TRUE,1,,,,,
null,CORRECT,,html-keyboard-response,138,2173000,0.0-14.0-11.0-0.0,24633,List2B,black,woman,,,,null,,,,
11420,"<img src=""portrait/WW2.jpg""style=""height:400px;""></img>",3,html-button-response,139,2184422,0.0-14.0-13.0,24633,List2B,black,woman,,TRUE,3,,,,,
null,CORRECT,,html-keyboard-response,140,2185927,0.0-14.0-14.0-0.0,24633,List2B,black,woman,,,,null,,,,
11455,"<img src=""portrait/BW1.jpg""style=""height:400px;""></img>",0,html-button-response,141,2197384,0.0-14.0-16.0,24633,List2B,black,woman,,TRUE,0,,,,,
null,CORRECT,,html-keyboard-response,142,2198891,0.0-14.0-17.0-0.0,24633,List2B,black,woman,,,,null,,,,
8381,"<img src=""portrait/WM1.jpg""style=""height:400px;""></img>",6,html-button-response,143,2207274,0.0-14.0-19.0,24633,List2B,black,woman,,TRUE,6,,,,,
null,CORRECT,,html-keyboard-response,144,2208779,0.0-14.0-20.0-0.0,24633,List2B,black,woman,,,,null,,,,
5499,"<img src=""portrait/BM2.jpg""style=""height:400px;""></img>",5,html-button-response,145,2214285,0.0-14.0-22.0,24633,List2B,black,woman,,TRUE,5,,,,,
null,CORRECT,,html-keyboard-response,146,2215792,0.0-14.0-23.0-0.0,24633,List2B,black,woman,,,,null,,,,
3898,<p>You got 8 out of 8 right first time. Press Continue.</p>,0,html-button-response,147,2219693,0.0-14.0-25.0,24633,List2B,black,woman,,,,,,,,
null,"<div style=""font-size:60px;"">+</div>",,html-keyboard-response,148,2221196,0.0-15.0-0.0,24633,List2B,black,woman,,,,null,,,,
null,"<img src=""stim_listB/marry6.gif""style=""height:400px;""></stim_listB>",,html-keyboard-response,149,2223202,0.0-15.0-1.0,24633,List2B,black,woman,,,,null,,,,
null,are marrying each other,,html-keyboard-response,150,2225206,0.0-15.0-2.0,24633,List2B,black,woman,,,,null,,,,
36203,,,survey-text,151,2261411,0.0-15.0-3.0,24633,List2B,black,woman,,,,,"{""Q0"":""Luke and Mike are marrying each other""}","<img src=""stim_listB/marry6.gif""style=""height:400px;""></stim_listB>",are marrying each other,
null,"<div style=""font-size:60px;"">+</div>",,html-keyboard-response,152,2261914,0.0-15.0-0.1,24633,List2B,black,woman,,,,null,,,,
null,"<img src=""stim_listB/flirt5.gif""style=""height:400px;""></stim_listB>",,html-keyboard-response,153,2263921,0.0-15.0-1.1,24633,List2B,black,woman,,,,null,,,,
null,is flirting with,,html-keyboard-response,154,2265924,0.0-15.0-2.1,24633,List2B,black,woman,,,,null,,,,
41794,,,survey-text,155,2307719,0.0-15.0-3.1,24633,List2B,black,woman,,,,,"{""Q0"":""Mike and Luke are flirting with each other""}","<img src=""stim_listB/flirt5.gif""style=""height:400px;""></stim_listB>",is flirting with,
null,"<div style=""font-size:60px;"">+</div>",,html-keyboard-response,156,2308221,0.0-15.0-0.2,24633,List2B,black,woman,,,,null,,,,
null,"<img src=""stim_listB/dance2.gif""style=""height:400px;""></stim_listB>",,html-keyboard-response,157,2310224,0.0-15.0-1.2,24633,List2B,black,woman,,,,null,,,,
null,are dancing with each other,,html-keyboard-response,158,2312225,0.0-15.0-2.2,24633,List2B,black,woman,,,,null,,,,
42198,,,survey-text,159,2354425,0.0-15.0-3.2,24633,List2B,black,woman,,,,,"{""Q0"":""Dave and Ruth are dancing with each other""}","<img src=""stim_listB/dance2.gif""style=""height:400px;""></stim_listB>",are dancing with each other,
null,"<div style=""font-size:60px;"">+</div>",,html-keyboard-response,160,2354927,0.0-15.0-0.3,24633,List2B,black,woman,,,,null,,,,
null,"<img src=""stim_listB/marry2.gif""style=""height:400px;""></stim_listB>",,html-keyboard-response,161,2356930,0.0-15.0-1.3,24633,List2B,black,woman,,,,null,,,,
null,are marrying each other,,html-keyboard-response,162,2358932,0.0-15.0-2.3,24633,List2B,black,woman,,,,null,,,,
31863,,,survey-text,163,2390797,0.0-15.0-3.3,24633,List2B,black,woman,,,,,"{""Q0"":""Ruth and Dave are marrying each other""}","<img src=""stim_listB/marry2.gif""style=""height:400px;""></stim_listB>",are marrying each other,
null,"<div style=""font-size:60px;"">+</div>",,html-keyboard-response,164,2391298,0.0-15.0-0.4,24633,List2B,black,woman,,,,null,,,,
null,"<img src=""stim_listB/kiss5.gif""style=""height:400px;""></stim_listB>",,html-keyboard-response,165,2393303,0.0-15.0-1.4,24633,List2B,black,woman,,,,null,,,,
null,is kissing,,html-keyboard-response,166,2395304,0.0-15.0-2.4,24633,List2B,black,woman,,,,null,,,,
35766,,,survey-text,167,2431072,0.0-15.0-3.4,24633,List2B,black,woman,,,,,"{""Q0"":""Fred is kissing Dave""}","<img src=""stim_listB/kiss5.gif""style=""height:400px;""></stim_listB>",is kissing,
null,"<div style=""font-size:60px;"">+</div>",,html-keyboard-response,168,2431574,0.0-15.0-0.5,24633,List2B,black,woman,,,,null,,,,
null,"<img src=""stim_listB/flirt6.gif""style=""height:400px;""></stim_listB>",,html-keyboard-response,169,2433576,0.0-15.0-1.5,24633,List2B,black,woman,,,,null,,,,
null,are flirting with each other,,html-keyboard-response,170,2435577,0.0-15.0-2.5,24633,List2B,black,woman,,,,null,,,,
31689,,,survey-text,171,2467268,0.0-15.0-3.5,24633,List2B,black,woman,,,,,"{""Q0"":""Fred and dave are flirting with each other""}","<img src=""stim_listB/flirt6.gif""style=""height:400px;""></stim_listB>",are flirting with each other,
null,"<div style=""font-size:60px;"">+</div>",,html-keyboard-response,172,2467770,0.0-15.0-0.6,24633,List2B,black,woman,,,,null,,,,
null,"<img src=""stim_listB/flirt4.gif""style=""height:400px;""></stim_listB>",,html-keyboard-response,173,2469773,0.0-15.0-1.6,24633,List2B,black,woman,,,,null,,,,
null,are flirting with each other,,html-keyboard-response,174,2471776,0.0-15.0-2.6,24633,List2B,black,woman,,,,null,,,,
32013,,,survey-text,175,2503792,0.0-15.0-3.6,24633,List2B,black,woman,,,,,"{""Q0"":"" Beth and Mike are flirting with each other""}","<img src=""stim_listB/flirt4.gif""style=""height:400px;""></stim_listB>",are flirting with each other,
null,"<div style=""font-size:60px;"">+</div>",,html-keyboard-response,176,2504296,0.0-15.0-0.7,24633,List2B,black,woman,,,,null,,,,
null,"<img src=""stim_listB/argue6.gif""style=""height:400px;""></stim_listB>",,html-keyboard-response,177,2506298,0.0-15.0-1.7,24633,List2B,black,woman,,,,null,,,,
null,are arguing with each other,,html-keyboard-response,178,2508303,0.0-15.0-2.7,24633,List2B,black,woman,,,,null,,,,
36401,,,survey-text,179,2544706,0.0-15.0-3.7,24633,List2B,black,woman,,,,,"{""Q0"":""Luke and Mike are arguing with each other""}","<img src=""stim_listB/argue6.gif""style=""height:400px;""></stim_listB>",are arguing with each other,
null,"<div style=""font-size:60px;"">+</div>",,html-keyboard-response,180,2545208,0.0-15.0-0.8,24633,List2B,black,woman,,,,null,,,,
null,"<img src=""stim_listB/kiss6.gif""style=""height:400px;""></stim_listB>",,html-keyboard-response,181,2547213,0.0-15.0-1.8,24633,List2B,black,woman,,,,null,,,,
null,are kissing each other,,html-keyboard-response,182,2549220,0.0-15.0-2.8,24633,List2B,black,woman,,,,null,,,,
30974,,,survey-text,183,2580196,0.0-15.0-3.8,24633,List2B,black,woman,,,,,"{""Q0"":""Luke and mike are kissing each other""}","<img src=""stim_listB/kiss6.gif""style=""height:400px;""></stim_listB>",are kissing each other,
null,"<div style=""font-size:60px;"">+</div>",,html-keyboard-response,184,2580698,0.0-15.0-0.9,24633,List2B,black,woman,,,,null,,,,
null,"<img src=""stim_listB/touch1.gif""style=""height:400px;""></stim_listB>",,html-keyboard-response,185,2582704,0.0-15.0-1.9,24633,List2B,black,woman,,,,null,,,,
null,is touching,,html-keyboard-response,186,2584707,0.0-15.0-2.9,24633,List2B,black,woman,,,,null,,,,
34200,,,survey-text,187,2618909,0.0-15.0-3.9,24633,List2B,black,woman,,,,,"{""Q0"":""Dave is touching Jane""}","<img src=""stim_listB/touch1.gif""style=""height:400px;""></stim_listB>",is touching,
null,"<div style=""font-size:60px;"">+</div>",,html-keyboard-response,188,2619411,0.0-15.0-0.10,24633,List2B,black,woman,,,,null,,,,
null,"<img src=""stim_listB/talk8.gif""style=""height:400px;""></stim_listB>",,html-keyboard-response,189,2621413,0.0-15.0-1.10,24633,List2B,black,woman,,,,null,,,,
null,are talking to each other,,html-keyboard-response,190,2623414,0.0-15.0-2.10,24633,List2B,black,woman,,,,null,,,,
46896,,,survey-text,191,2670312,0.0-15.0-3.10,24633,List2B,black,woman,,,,,"{""Q0"":"" Kate and Ruth are talking to each other""}","<img src=""stim_listB/talk8.gif""style=""height:400px;""></stim_listB>",are talking to each other,
null,"<div style=""font-size:60px;"">+</div>",,html-keyboard-response,192,2670814,0.0-15.0-0.11,24633,List2B,black,woman,,,,null,,,,
null,"<img src=""stim_listB/flirt2.gif""style=""height:400px;""></stim_listB>",,html-keyboard-response,193,2672818,0.0-15.0-1.11,24633,List2B,black,woman,,,,null,,,,
null,are flirting with each other,,html-keyboard-response,194,2674822,0.0-15.0-2.11,24633,List2B,black,woman,,,,null,,,,
46917,,,survey-text,195,2721741,0.0-15.0-3.11,24633,List2B,black,woman,,,,,"{""Q0"":""Dave and Ruth are flirting with each other""}","<img src=""stim_listB/flirt2.gif""style=""height:400px;""></stim_listB>",are flirting with each other,
null,"<div style=""font-size:60px;"">+</div>",,html-keyboard-response,196,2722244,0.0-15.0-0.12,24633,List2B,black,woman,,,,null,,,,
null,"<img src=""stim_listB/dance7.gif""style=""height:400px;""></stim_listB>",,html-keyboard-response,197,2724255,0.0-15.0-1.12,24633,List2B,black,woman,,,,null,,,,
null,is dancing with,,html-keyboard-response,198,2726257,0.0-15.0-2.12,24633,List2B,black,woman,,,,null,,,,
65176,,,survey-text,199,2791435,0.0-15.0-3.12,24633,List2B,black,woman,,,,,"{""Q0"":""Jane and kate is dancing""}","<img src=""stim_listB/dance7.gif""style=""height:400px;""></stim_listB>",is dancing with,
null,"<div style=""font-size:60px;"">+</div>",,html-keyboard-response,200,2791936,0.0-15.0-0.13,24633,List2B,black,woman,,,,null,,,,
null,"<img src=""stim_listB/argue8.gif""style=""height:400px;""></stim_listB>",,html-keyboard-response,201,2793941,0.0-15.0-1.13,24633,List2B,black,woman,,,,null,,,,
null,are arguing with each other,,html-keyboard-response,202,2795947,0.0-15.0-2.13,24633,List2B,black,woman,,,,null,,,,
46354,,,survey-text,203,2842310,0.0-15.0-3.13,24633,List2B,black,woman,,,,,"{""Q0"":""Jane and Kate are arguing with each other""}","<img src=""stim_listB/argue8.gif""style=""height:400px;""></stim_listB>",are arguing with each other,
null,"<div style=""font-size:60px;"">+</div>",,html-keyboard-response,204,2842813,0.0-15.0-0.14,24633,List2B,black,woman,,,,null,,,,
null,"<img src=""stim_listB/marry7.gif""style=""height:400px;""></stim_listB>",,html-keyboard-response,205,2844820,0.0-15.0-1.14,24633,List2B,black,woman,,,,null,,,,
null,is marrying,,html-keyboard-response,206,2846821,0.0-15.0-2.14,24633,List2B,black,woman,,,,null,,,,
39345,,,survey-text,207,2886168,0.0-15.0-3.14,24633,List2B,black,woman,,,,,"{""Q0"":""Beth and Jane is marrying ""}","<img src=""stim_listB/marry7.gif""style=""height:400px;""></stim_listB>",is marrying,
null,"<div style=""font-size:60px;"">+</div>",,html-keyboard-response,208,2886681,0.0-15.0-0.15,24633,List2B,black,woman,,,,null,,,,
null,"<img src=""stim_listB/talk4.gif""style=""height:400px;""></stim_listB>",,html-keyboard-response,209,2888687,0.0-15.0-1.15,24633,List2B,black,woman,,,,null,,,,
null,are talking to each other,,html-keyboard-response,210,2890691,0.0-15.0-2.15,24633,List2B,black,woman,,,,null,,,,
42465,,,survey-text,211,2933158,0.0-15.0-3.15,24633,List2B,black,woman,,,,,"{""Q0"":""Beth and Fred are talking to each other""}","<img src=""stim_listB/talk4.gif""style=""height:400px;""></stim_listB>",are talking to each other,
null,"<div style=""font-size:60px;"">+</div>",,html-keyboard-response,212,2933661,0.0-15.0-0.16,24633,List2B,black,woman,,,,null,,,,
null,"<img src=""stim_listB/play8.gif""style=""height:400px;""></stim_listB>",,html-keyboard-response,213,2935664,0.0-15.0-1.16,24633,List2B,black,woman,,,,null,,,,
null,are playing with each other,,html-keyboard-response,214,2937665,0.0-15.0-2.16,24633,List2B,black,woman,,,,null,,,,
36003,,,survey-text,215,2973669,0.0-15.0-3.16,24633,List2B,black,woman,,,,,"{""Q0"":""Beth and Ruth are playing with each other""}","<img src=""stim_listB/play8.gif""style=""height:400px;""></stim_listB>",are playing with each other,
null,"<div style=""font-size:60px;"">+</div>",,html-keyboard-response,216,2974171,0.0-15.0-0.17,24633,List2B,black,woman,,,,null,,,,
null,"<img src=""stim_listB/argue1.gif""style=""height:400px;""></stim_listB>",,html-keyboard-response,217,2976176,0.0-15.0-1.17,24633,List2B,black,woman,,,,null,,,,
null,is arguing with,,html-keyboard-response,218,2978178,0.0-15.0-2.17,24633,List2B,black,woman,,,,null,,,,
43219,,,survey-text,219,3021399,0.0-15.0-3.17,24633,List2B,black,woman,,,,,"{""Q0"":""Ruth is arguing with Dave""}","<img src=""stim_listB/argue1.gif""style=""height:400px;""></stim_listB>",is arguing with,
null,"<div style=""font-size:60px;"">+</div>",,html-keyboard-response,220,3021902,0.0-15.0-0.18,24633,List2B,black,woman,,,,null,,,,
null,"<img src=""stim_listB/play4.gif""style=""height:400px;""></stim_listB>",,html-keyboard-response,221,3023907,0.0-15.0-1.18,24633,List2B,black,woman,,,,null,,,,
null,are playing with each other,,html-keyboard-response,222,3025908,0.0-15.0-2.18,24633,List2B,black,woman,,,,null,,,,
41534,,,survey-text,223,3067444,0.0-15.0-3.18,24633,List2B,black,woman,,,,,"{""Q0"":""Beth and Fred are playing with each other""}","<img src=""stim_listB/play4.gif""style=""height:400px;""></stim_listB>",are playing with each other,
null,"<div style=""font-size:60px;"">+</div>",,html-keyboard-response,224,3067946,0.0-15.0-0.19,24633,List2B,black,woman,,,,null,,,,
null,"<img src=""stim_listB/talk1.gif""style=""height:400px;""></stim_listB>",,html-keyboard-response,225,3069951,0.0-15.0-1.19,24633,List2B,black,woman,,,,null,,,,
null,is talking to,,html-keyboard-response,226,3071966,0.0-15.0-2.19,24633,List2B,black,woman,,,,null,,,,
28204,,,survey-text,227,3100173,0.0-15.0-3.19,24633,List2B,black,woman,,,,,"{""Q0"":""Ruth and dave is arguing""}","<img src=""stim_listB/talk1.gif""style=""height:400px;""></stim_listB>",is talking to,
14386,"<img src='img/portrait_matrix_list2.jpg' style='width:900px;height:500px;''></img><p>If you have memorised all the portraits and names and are ready to start, press Continue.</p><p><strong>Please note: Your memory of these faces will be tested 4 times during this experiment.</strong></p>",0,html-button-response,228,3114568,0.0-16.0-0.0,24633,List2B,black,woman,,,,,,,,
7628,"<img src=""portrait/WM1.jpg""style=""height:400px;""></img>",6,html-button-response,229,3123199,0.0-16.0-1.0,24633,List2B,black,woman,,TRUE,6,,,,,
null,CORRECT,,html-keyboard-response,230,3124711,0.0-16.0-2.0-0.0,24633,List2B,black,woman,,,,null,,,,
8170,"<img src=""portrait/BW2.jpg""style=""height:400px;""></img>",2,html-button-response,231,3132883,0.0-16.0-4.0,24633,List2B,black,woman,,TRUE,2,,,,,
null,CORRECT,,html-keyboard-response,232,3134389,0.0-16.0-5.0-0.0,24633,List2B,black,woman,,,,null,,,,
9209,"<img src=""portrait/BM2.jpg""style=""height:400px;""></img>",5,html-button-response,233,3143600,0.0-16.0-7.0,24633,List2B,black,woman,,TRUE,5,,,,,
null,CORRECT,,html-keyboard-response,234,3145106,0.0-16.0-8.0-0.0,24633,List2B,black,woman,,,,null,,,,
10404,"<img src=""portrait/BM1.jpg""style=""height:400px;""></img>",4,html-button-response,235,3155513,0.0-16.0-10.0,24633,List2B,black,woman,,TRUE,4,,,,,
null,CORRECT,,html-keyboard-response,236,3157025,0.0-16.0-11.0-0.0,24633,List2B,black,woman,,,,null,,,,
7337,"<img src=""portrait/WM2.jpg""style=""height:400px;""></img>",7,html-button-response,237,3164363,0.0-16.0-13.0,24633,List2B,black,woman,,TRUE,7,,,,,
null,CORRECT,,html-keyboard-response,238,3165869,0.0-16.0-14.0-0.0,24633,List2B,black,woman,,,,null,,,,
12036,"<img src=""portrait/WW2.jpg""style=""height:400px;""></img>",3,html-button-response,239,3177907,0.0-16.0-16.0,24633,List2B,black,woman,,TRUE,3,,,,,
null,CORRECT,,html-keyboard-response,240,3179412,0.0-16.0-17.0-0.0,24633,List2B,black,woman,,,,null,,,,
7635,"<img src=""portrait/BW1.jpg""style=""height:400px;""></img>",0,html-button-response,241,3187049,0.0-16.0-19.0,24633,List2B,black,woman,,TRUE,0,,,,,
null,CORRECT,,html-keyboard-response,242,3188556,0.0-16.0-20.0-0.0,24633,List2B,black,woman,,,,null,,,,
7473,"<img src=""portrait/WW1.jpg""style=""height:400px;""></img>",1,html-button-response,243,3196031,0.0-16.0-22.0,24633,List2B,black,woman,,TRUE,1,,,,,
null,CORRECT,,html-keyboard-response,244,3197534,0.0-16.0-23.0-0.0,24633,List2B,black,woman,,,,null,,,,
2814,<p>You got 8 out of 8 right first time. Press Continue.</p>,0,html-button-response,245,3200351,0.0-16.0-25.0,24633,List2B,black,woman,,,,,,,,
null,"<div style=""font-size:60px;"">+</div>",,html-keyboard-response,246,3201857,0.0-17.0-0.0,24633,List2B,black,woman,,,,null,,,,
null,"<img src=""stim_listB/fight6.gif""style=""height:400px;""></stim_listB>",,html-keyboard-response,247,3203859,0.0-17.0-1.0,24633,List2B,black,woman,,,,null,,,,
null,are fighting each other,,html-keyboard-response,248,3205862,0.0-17.0-2.0,24633,List2B,black,woman,,,,null,,,,
68165,,,survey-text,249,3274027,0.0-17.0-3.0,24633,List2B,black,woman,,,,,"{""Q0"":""Fred and Luke are fighting each other""}","<img src=""stim_listB/fight6.gif""style=""height:400px;""></stim_listB>",are fighting each other,
null,"<div style=""font-size:60px;"">+</div>",,html-keyboard-response,250,3274529,0.0-17.0-0.1,24633,List2B,black,woman,,,,null,,,,
null,"<img src=""stim_listB/fight7.gif""style=""height:400px;""></stim_listB>",,html-keyboard-response,251,3276534,0.0-17.0-1.1,24633,List2B,black,woman,,,,null,,,,
null,is fighting,,html-keyboard-response,252,3278535,0.0-17.0-2.1,24633,List2B,black,woman,,,,null,,,,
42950,,,survey-text,253,3321487,0.0-17.0-3.1,24633,List2B,black,woman,,,,,"{""Q0"":""Jane is fighting Kate""}","<img src=""stim_listB/fight7.gif""style=""height:400px;""></stim_listB>",is fighting,
null,"<div style=""font-size:60px;"">+</div>",,html-keyboard-response,254,3321988,0.0-17.0-0.2,24633,List2B,black,woman,,,,null,,,,
null,"<img src=""stim_listB/flirt1.gif""style=""height:400px;""></stim_listB>",,html-keyboard-response,255,3323992,0.0-17.0-1.2,24633,List2B,black,woman,,,,null,,,,
null,is flirting with,,html-keyboard-response,256,3325996,0.0-17.0-2.2,24633,List2B,black,woman,,,,null,,,,
34985,,,survey-text,257,3360982,0.0-17.0-3.2,24633,List2B,black,woman,,,,,"{""Q0"":""Dave is fighting Ruth""}","<img src=""stim_listB/flirt1.gif""style=""height:400px;""></stim_listB>",is flirting with,
null,"<div style=""font-size:60px;"">+</div>",,html-keyboard-response,258,3361484,0.0-17.0-0.3,24633,List2B,black,woman,,,,null,,,,
null,"<img src=""stim_listB/play6.gif""style=""height:400px;""></stim_listB>",,html-keyboard-response,259,3363490,0.0-17.0-1.3,24633,List2B,black,woman,,,,null,,,,
null,are playing with each other,,html-keyboard-response,260,3365492,0.0-17.0-2.3,24633,List2B,black,woman,,,,null,,,,
71854,,,survey-text,261,3437348,0.0-17.0-3.3,24633,List2B,black,woman,,,,,"{""Q0"":""Fred and Dave are playing with each other""}","<img src=""stim_listB/play6.gif""style=""height:400px;""></stim_listB>",are playing with each other,
null,"<div style=""font-size:60px;"">+</div>",,html-keyboard-response,262,3437850,0.0-17.0-0.4,24633,List2B,black,woman,,,,null,,,,
null,"<img src=""stim_listB/talk2.gif""style=""height:400px;""></stim_listB>",,html-keyboard-response,263,3439854,0.0-17.0-1.4,24633,List2B,black,woman,,,,null,,,,
null,are talking to each other,,html-keyboard-response,264,3441858,0.0-17.0-2.4,24633,List2B,black,woman,,,,null,,,,
31082,,,survey-text,265,3472941,0.0-17.0-3.4,24633,List2B,black,woman,,,,,"{""Q0"":""Ruth and Dave are taking to each other""}","<img src=""stim_listB/talk2.gif""style=""height:400px;""></stim_listB>",are talking to each other,
null,"<div style=""font-size:60px;"">+</div>",,html-keyboard-response,266,3473445,0.0-17.0-0.5,24633,List2B,black,woman,,,,null,,,,
null,"<img src=""stim_listB/kiss8.gif""style=""height:400px;""></stim_listB>",,html-keyboard-response,267,3475451,0.0-17.0-1.5,24633,List2B,black,woman,,,,null,,,,
null,are kissing each other,,html-keyboard-response,268,3477456,0.0-17.0-2.5,24633,List2B,black,woman,,,,null,,,,
29502,,,survey-text,269,3506961,0.0-17.0-3.5,24633,List2B,black,woman,,,,,"{""Q0"":""Jane and kate are kissing each other""}","<img src=""stim_listB/kiss8.gif""style=""height:400px;""></stim_listB>",are kissing each other,
null,"<div style=""font-size:60px;"">+</div>",,html-keyboard-response,270,3507463,0.0-17.0-0.6,24633,List2B,black,woman,,,,null,,,,
null,"<img src=""stim_listB/shout4.gif""style=""height:400px;""></stim_listB>",,html-keyboard-response,271,3509469,0.0-17.0-1.6,24633,List2B,black,woman,,,,null,,,,
null,are shouting at each other,,html-keyboard-response,272,3511470,0.0-17.0-2.6,24633,List2B,black,woman,,,,null,,,,
75470,,,survey-text,273,3586941,0.0-17.0-3.6,24633,List2B,black,woman,,,,,"{""Q0"":""Kate and ruth are shouting at each other""}","<img src=""stim_listB/shout4.gif""style=""height:400px;""></stim_listB>",are shouting at each other,
null,"<div style=""font-size:60px;"">+</div>",,html-keyboard-response,274,3587444,0.0-17.0-0.7,24633,List2B,black,woman,,,,null,,,,
null,"<img src=""stim_listB/argue7.gif""style=""height:400px;""></stim_listB>",,html-keyboard-response,275,3589447,0.0-17.0-1.7,24633,List2B,black,woman,,,,null,,,,
null,is arguing with,,html-keyboard-response,276,3591450,0.0-17.0-2.7,24633,List2B,black,woman,,,,null,,,,
32615,,,survey-text,277,3624066,0.0-17.0-3.7,24633,List2B,black,woman,,,,,"{""Q0"":""Beth is arguing with Jane""}","<img src=""stim_listB/argue7.gif""style=""height:400px;""></stim_listB>",is arguing with,
null,"<div style=""font-size:60px;"">+</div>",,html-keyboard-response,278,3624568,0.0-17.0-0.8,24633,List2B,black,woman,,,,null,,,,
null,"<img src=""stim_listB/play7.gif""style=""height:400px;""></stim_listB>",,html-keyboard-response,279,3626570,0.0-17.0-1.8,24633,List2B,black,woman,,,,null,,,,
null,is playing with,,html-keyboard-response,280,3628572,0.0-17.0-2.8,24633,List2B,black,woman,,,,null,,,,
28239,,,survey-text,281,3656812,0.0-17.0-3.8,24633,List2B,black,woman,,,,,"{""Q0"":"" Kate is playing with Jane""}","<img src=""stim_listB/play7.gif""style=""height:400px;""></stim_listB>",is playing with,
null,"<div style=""font-size:60px;"">+</div>",,html-keyboard-response,282,3657314,0.0-17.0-0.9,24633,List2B,black,woman,,,,null,,,,
null,"<img src=""stim_listB/kiss2.gif""style=""height:400px;""></stim_listB>",,html-keyboard-response,283,3659315,0.0-17.0-1.9,24633,List2B,black,woman,,,,null,,,,
null,are kissing each other,,html-keyboard-response,284,3661316,0.0-17.0-2.9,24633,List2B,black,woman,,,,null,,,,
31952,,,survey-text,285,3693269,0.0-17.0-3.9,24633,List2B,black,woman,,,,,"{""Q0"":""Dave and Jane are kissing each other""}","<img src=""stim_listB/kiss2.gif""style=""height:400px;""></stim_listB>",are kissing each other,
null,"<div style=""font-size:60px;"">+</div>",,html-keyboard-response,286,3693771,0.0-17.0-0.10,24633,List2B,black,woman,,,,null,,,,
null,"<img src=""stim_listB/dance8.gif""style=""height:400px;""></stim_listB>",,html-keyboard-response,287,3695773,0.0-17.0-1.10,24633,List2B,black,woman,,,,null,,,,
null,are dancing with each other,,html-keyboard-response,288,3697778,0.0-17.0-2.10,24633,List2B,black,woman,,,,null,,,,
32068,,,survey-text,289,3729847,0.0-17.0-3.10,24633,List2B,black,woman,,,,,"{""Q0"":""Jane and Beth are dancing with each other""}","<img src=""stim_listB/dance8.gif""style=""height:400px;""></stim_listB>",are dancing with each other,
null,"<div style=""font-size:60px;"">+</div>",,html-keyboard-response,290,3730351,0.0-17.0-0.11,24633,List2B,black,woman,,,,null,,,,
null,"<img src=""stim_listB/touch2.gif""style=""height:400px;""></stim_listB>",,html-keyboard-response,291,3732354,0.0-17.0-1.11,24633,List2B,black,woman,,,,null,,,,
null,are touching each other,,html-keyboard-response,292,3734356,0.0-17.0-2.11,24633,List2B,black,woman,,,,null,,,,
39412,,,survey-text,293,3773770,0.0-17.0-3.11,24633,List2B,black,woman,,,,,"{""Q0"":"" Ruth and Luke are touching each other""}","<img src=""stim_listB/touch2.gif""style=""height:400px;""></stim_listB>",are touching each other,
null,"<div style=""font-size:60px;"">+</div>",,html-keyboard-response,294,3774271,0.0-17.0-0.12,24633,List2B,black,woman,,,,null,,,,
null,"<img src=""stim_listB/argue3.gif""style=""height:400px;""></stim_listB>",,html-keyboard-response,295,3776274,0.0-17.0-1.12,24633,List2B,black,woman,,,,null,,,,
null,is arguing with,,html-keyboard-response,296,3778276,0.0-17.0-2.12,24633,List2B,black,woman,,,,null,,,,
37975,,,survey-text,297,3816251,0.0-17.0-3.12,24633,List2B,black,woman,,,,,"{""Q0"":""Beth is arguing with Mike""}","<img src=""stim_listB/argue3.gif""style=""height:400px;""></stim_listB>",is arguing with,
null,"<div style=""font-size:60px;"">+</div>",,html-keyboard-response,298,3816757,0.0-17.0-0.13,24633,List2B,black,woman,,,,null,,,,
null,"<img src=""stim_listB/shout8.gif""style=""height:400px;""></stim_listB>",,html-keyboard-response,299,3818763,0.0-17.0-1.13,24633,List2B,black,woman,,,,null,,,,
null,are shouting at each other,,html-keyboard-response,300,3820764,0.0-17.0-2.13,24633,List2B,black,woman,,,,null,,,,
33272,,,survey-text,301,3854037,0.0-17.0-3.13,24633,List2B,black,woman,,,,,"{""Q0"":""Jane and Kate are shouting with each other""}","<img src=""stim_listB/shout8.gif""style=""height:400px;""></stim_listB>",are shouting at each other,
null,"<div style=""font-size:60px;"">+</div>",,html-keyboard-response,302,3854538,0.0-17.0-0.14,24633,List2B,black,woman,,,,null,,,,
null,"<img src=""stim_listB/dance4.gif""style=""height:400px;""></stim_listB>",,html-keyboard-response,303,3856541,0.0-17.0-1.14,24633,List2B,black,woman,,,,null,,,,
null,are dancing with each other,,html-keyboard-response,304,3858543,0.0-17.0-2.14,24633,List2B,black,woman,,,,null,,,,
34447,,,survey-text,305,3892990,0.0-17.0-3.14,24633,List2B,black,woman,,,,,"{""Q0"":""Beth and Ruth are dancing with each other""}","<img src=""stim_listB/dance4.gif""style=""height:400px;""></stim_listB>",are dancing with each other,
null,"<div style=""font-size:60px;"">+</div>",,html-keyboard-response,306,3893492,0.0-17.0-0.15,24633,List2B,black,woman,,,,null,,,,
null,"<img src=""stim_listB/fight8.gif""style=""height:400px;""></stim_listB>",,html-keyboard-response,307,3895497,0.0-17.0-1.15,24633,List2B,black,woman,,,,null,,,,
null,are fighting each other,,html-keyboard-response,308,3897499,0.0-17.0-2.15,24633,List2B,black,woman,,,,null,,,,
34330,,,survey-text,309,3931830,0.0-17.0-3.15,24633,List2B,black,woman,,,,,"{""Q0"":""Beth and Ruth are fighting with each other""}","<img src=""stim_listB/fight8.gif""style=""height:400px;""></stim_listB>",are fighting each other,
null,"<div style=""font-size:60px;"">+</div>",,html-keyboard-response,310,3932335,0.0-17.0-0.16,24633,List2B,black,woman,,,,null,,,,
null,"<img src=""stim_listB/dance5.gif""style=""height:400px;""></stim_listB>",,html-keyboard-response,311,3934336,0.0-17.0-1.16,24633,List2B,black,woman,,,,null,,,,
null,is dancing with,,html-keyboard-response,312,3936338,0.0-17.0-2.16,24633,List2B,black,woman,,,,null,,,,
25962,,,survey-text,313,3962300,0.0-17.0-3.16,24633,List2B,black,woman,,,,,"{""Q0"":""Mike and Luke is dancing with each other""}","<img src=""stim_listB/dance5.gif""style=""height:400px;""></stim_listB>",is dancing with,
null,"<div style=""font-size:60px;"">+</div>",,html-keyboard-response,314,3962802,0.0-17.0-0.17,24633,List2B,black,woman,,,,null,,,,
null,"<img src=""stim_listB/touch4.gif""style=""height:400px;""></stim_listB>",,html-keyboard-response,315,3964808,0.0-17.0-1.17,24633,List2B,black,woman,,,,null,,,,
null,are touching each other,,html-keyboard-response,316,3966812,0.0-17.0-2.17,24633,List2B,black,woman,,,,null,,,,
25296,,,survey-text,317,3992109,0.0-17.0-3.17,24633,List2B,black,woman,,,,,"{""Q0"":""Beth and Fred are touching each other""}","<img src=""stim_listB/touch4.gif""style=""height:400px;""></stim_listB>",are touching each other,
null,"<div style=""font-size:60px;"">+</div>",,html-keyboard-response,318,3992610,0.0-17.0-0.18,24633,List2B,black,woman,,,,null,,,,
null,"<img src=""stim_listB/marry4.gif""style=""height:400px;""></stim_listB>",,html-keyboard-response,319,3994613,0.0-17.0-1.18,24633,List2B,black,woman,,,,null,,,,
null,are marrying each other,,html-keyboard-response,320,3996614,0.0-17.0-2.18,24633,List2B,black,woman,,,,null,,,,
53015,,,survey-text,321,4049629,0.0-17.0-3.18,24633,List2B,black,woman,,,,,"{""Q0"":""Beth and Dave are marrying each other""}","<img src=""stim_listB/marry4.gif""style=""height:400px;""></stim_listB>",are marrying each other,
null,"<div style=""font-size:60px;"">+</div>",,html-keyboard-response,322,4050131,0.0-17.0-0.19,24633,List2B,black,woman,,,,null,,,,
null,"<img src=""stim_listB/shout5.gif""style=""height:400px;""></stim_listB>",,html-keyboard-response,323,4052135,0.0-17.0-1.19,24633,List2B,black,woman,,,,null,,,,
null,is shouting at,,html-keyboard-response,324,4054136,0.0-17.0-2.19,24633,List2B,black,woman,,,,null,,,,
53769,,,survey-text,325,4107908,0.0-17.0-3.19,24633,List2B,black,woman,,,,,"{""Q0"":""Fred is shouting at Luke""}","<img src=""stim_listB/shout5.gif""style=""height:400px;""></stim_listB>",is shouting at,
5654,"<img src='img/portrait_matrix_list2.jpg' style='width:900px;height:500px;''></img><p>If you have memorised all the portraits and names and are ready to start, press Continue.</p><p><strong>Please note: Your memory of these faces will be tested 4 times during this experiment.</strong></p>",0,html-button-response,326,4113567,0.0-18.0-0.0,24633,List2B,black,woman,,,,,,,,
13712,"<img src=""portrait/WM1.jpg""style=""height:400px;""></img>",6,html-button-response,327,4128282,0.0-18.0-1.0,24633,List2B,black,woman,,TRUE,6,,,,,
null,CORRECT,,html-keyboard-response,328,4129786,0.0-18.0-2.0-0.0,24633,List2B,black,woman,,,,null,,,,
4070,"<img src=""portrait/BM2.jpg""style=""height:400px;""></img>",5,html-button-response,329,4133858,0.0-18.0-4.0,24633,List2B,black,woman,,TRUE,5,,,,,
null,CORRECT,,html-keyboard-response,330,4135365,0.0-18.0-5.0-0.0,24633,List2B,black,woman,,,,null,,,,
6164,"<img src=""portrait/WM2.jpg""style=""height:400px;""></img>",7,html-button-response,331,4141531,0.0-18.0-7.0,24633,List2B,black,woman,,TRUE,7,,,,,
null,CORRECT,,html-keyboard-response,332,4143037,0.0-18.0-8.0-0.0,24633,List2B,black,woman,,,,null,,,,
8222,"<img src=""portrait/BW1.jpg""style=""height:400px;""></img>",0,html-button-response,333,4151263,0.0-18.0-10.0,24633,List2B,black,woman,,TRUE,0,,,,,
null,CORRECT,,html-keyboard-response,334,4152766,0.0-18.0-11.0-0.0,24633,List2B,black,woman,,,,null,,,,
11741,"<img src=""portrait/BW2.jpg""style=""height:400px;""></img>",2,html-button-response,335,4164510,0.0-18.0-13.0,24633,List2B,black,woman,,TRUE,2,,,,,
null,CORRECT,,html-keyboard-response,336,4166017,0.0-18.0-14.0-0.0,24633,List2B,black,woman,,,,null,,,,
8708,"<img src=""portrait/WW2.jpg""style=""height:400px;""></img>",3,html-button-response,337,4174726,0.0-18.0-16.0,24633,List2B,black,woman,,TRUE,3,,,,,
null,CORRECT,,html-keyboard-response,338,4176230,0.0-18.0-17.0-0.0,24633,List2B,black,woman,,,,null,,,,
13945,"<img src=""portrait/WW1.jpg""style=""height:400px;""></img>",1,html-button-response,339,4190179,0.0-18.0-19.0,24633,List2B,black,woman,,TRUE,1,,,,,
null,CORRECT,,html-keyboard-response,340,4191686,0.0-18.0-20.0-0.0,24633,List2B,black,woman,,,,null,,,,
6033,"<img src=""portrait/BM1.jpg""style=""height:400px;""></img>",4,html-button-response,341,4197721,0.0-18.0-22.0,24633,List2B,black,woman,,TRUE,4,,,,,
null,CORRECT,,html-keyboard-response,342,4199226,0.0-18.0-23.0-0.0,24633,List2B,black,woman,,,,null,,,,
2809,<p>You got 8 out of 8 right first time. Press Continue.</p>,0,html-button-response,343,4202038,0.0-18.0-25.0,24633,List2B,black,woman,,,,,,,,
null,"<div style=""font-size:60px;"">+</div>",,html-keyboard-response,344,4203543,0.0-19.0-0.0,24633,List2B,black,woman,,,,null,,,,
null,"<img src=""stim_listB/dance3.gif""style=""height:400px;""></stim_listB>",,html-keyboard-response,345,4205546,0.0-19.0-1.0,24633,List2B,black,woman,,,,null,,,,
null,is dancing with,,html-keyboard-response,346,4207549,0.0-19.0-2.0,24633,List2B,black,woman,,,,null,,,,
58911,,,survey-text,347,4266462,0.0-19.0-3.0,24633,List2B,black,woman,,,,,"{""Q0"":""Fred is dancing with Kate""}","<img src=""stim_listB/dance3.gif""style=""height:400px;""></stim_listB>",is dancing with,
null,"<div style=""font-size:60px;"">+</div>",,html-keyboard-response,348,4266964,0.0-19.0-0.1,24633,List2B,black,woman,,,,null,,,,
null,"<img src=""stim_listB/kiss3.gif""style=""height:400px;""></stim_listB>",,html-keyboard-response,349,4268966,0.0-19.0-1.1,24633,List2B,black,woman,,,,null,,,,
null,is kissing,,html-keyboard-response,350,4270968,0.0-19.0-2.1,24633,List2B,black,woman,,,,null,,,,
23252,,,survey-text,351,4294220,0.0-19.0-3.1,24633,List2B,black,woman,,,,,"{""Q0"":""Fred is kissing Beth""}","<img src=""stim_listB/kiss3.gif""style=""height:400px;""></stim_listB>",is kissing,
null,"<div style=""font-size:60px;"">+</div>",,html-keyboard-response,352,4294724,0.0-19.0-0.2,24633,List2B,black,woman,,,,null,,,,
null,"<img src=""stim_listB/touch6.gif""style=""height:400px;""></stim_listB>",,html-keyboard-response,353,4296727,0.0-19.0-1.2,24633,List2B,black,woman,,,,null,,,,
null,are touching each other,,html-keyboard-response,354,4298730,0.0-19.0-2.2,24633,List2B,black,woman,,,,null,,,,
28981,,,survey-text,355,4327712,0.0-19.0-3.2,24633,List2B,black,woman,,,,,"{""Q0"":""Luke is touching Fred""}","<img src=""stim_listB/touch6.gif""style=""height:400px;""></stim_listB>",are touching each other,
null,"<div style=""font-size:60px;"">+</div>",,html-keyboard-response,356,4328214,0.0-19.0-0.3,24633,List2B,black,woman,,,,null,,,,
null,"<img src=""stim_listB/fight5.gif""style=""height:400px;""></stim_listB>",,html-keyboard-response,357,4330219,0.0-19.0-1.3,24633,List2B,black,woman,,,,null,,,,
null,is fighting,,html-keyboard-response,358,4332221,0.0-19.0-2.3,24633,List2B,black,woman,,,,null,,,,
34327,,,survey-text,359,4366550,0.0-19.0-3.3,24633,List2B,black,woman,,,,,"{""Q0"":""Mike is fighting Dave""}","<img src=""stim_listB/fight5.gif""style=""height:400px;""></stim_listB>",is fighting,
null,"<div style=""font-size:60px;"">+</div>",,html-keyboard-response,360,4367052,0.0-19.0-0.4,24633,List2B,black,woman,,,,null,,,,
null,"<img src=""stim_listB/touch5.gif""style=""height:400px;""></stim_listB>",,html-keyboard-response,361,4369055,0.0-19.0-1.4,24633,List2B,black,woman,,,,null,,,,
null,is touching,,html-keyboard-response,362,4371056,0.0-19.0-2.4,24633,List2B,black,woman,,,,null,,,,
25781,,,survey-text,363,4396839,0.0-19.0-3.4,24633,List2B,black,woman,,,,,"{""Q0"":""Mike is touching Dave""}","<img src=""stim_listB/touch5.gif""style=""height:400px;""></stim_listB>",is touching,
null,"<div style=""font-size:60px;"">+</div>",,html-keyboard-response,364,4397342,0.0-19.0-0.5,24633,List2B,black,woman,,,,null,,,,
null,"<img src=""stim_listB/shout7.gif""style=""height:400px;""></stim_listB>",,html-keyboard-response,365,4399346,0.0-19.0-1.5,24633,List2B,black,woman,,,,null,,,,
null,is shouting at,,html-keyboard-response,366,4401349,0.0-19.0-2.5,24633,List2B,black,woman,,,,null,,,,
30172,,,survey-text,367,4431522,0.0-19.0-3.5,24633,List2B,black,woman,,,,,"{""Q0"":""Ruth is shouting at Beth""}","<img src=""stim_listB/shout7.gif""style=""height:400px;""></stim_listB>",is shouting at,
null,"<div style=""font-size:60px;"">+</div>",,html-keyboard-response,368,4432024,0.0-19.0-0.6,24633,List2B,black,woman,,,,null,,,,
null,"<img src=""stim_listB/talk3.gif""style=""height:400px;""></stim_listB>",,html-keyboard-response,369,4434029,0.0-19.0-1.6,24633,List2B,black,woman,,,,null,,,,
null,is talking to,,html-keyboard-response,370,4436031,0.0-19.0-2.6,24633,List2B,black,woman,,,,null,,,,
31930,,,survey-text,371,4467963,0.0-19.0-3.6,24633,List2B,black,woman,,,,,"{""Q0"":""Fred is talking to Kate""}","<img src=""stim_listB/talk3.gif""style=""height:400px;""></stim_listB>",is talking to,
null,"<div style=""font-size:60px;"">+</div>",,html-keyboard-response,372,4468464,0.0-19.0-0.7,24633,List2B,black,woman,,,,null,,,,
null,"<img src=""stim_listB/shout1.gif""style=""height:400px;""></stim_listB>",,html-keyboard-response,373,4470470,0.0-19.0-1.7,24633,List2B,black,woman,,,,null,,,,
null,is shouting at,,html-keyboard-response,374,4472472,0.0-19.0-2.7,24633,List2B,black,woman,,,,null,,,,
28405,,,survey-text,375,4500888,0.0-19.0-3.7,24633,List2B,black,woman,,,,,"{""Q0"":""Luke is shouting at Ruth""}","<img src=""stim_listB/shout1.gif""style=""height:400px;""></stim_listB>",is shouting at,
null,"<div style=""font-size:60px;"">+</div>",,html-keyboard-response,376,4501390,0.0-19.0-0.8,24633,List2B,black,woman,,,,null,,,,
null,"<img src=""stim_listB/kiss4.gif""style=""height:400px;""></stim_listB>",,html-keyboard-response,377,4503392,0.0-19.0-1.8,24633,List2B,black,woman,,,,null,,,,
null,are kissing each other,,html-keyboard-response,378,4505396,0.0-19.0-2.8,24633,List2B,black,woman,,,,null,,,,
37045,,,survey-text,379,4542442,0.0-19.0-3.8,24633,List2B,black,woman,,,,,"{""Q0"":""Kate and Mike are kissing each other""}","<img src=""stim_listB/kiss4.gif""style=""height:400px;""></stim_listB>",are kissing each other,
null,"<div style=""font-size:60px;"">+</div>",,html-keyboard-response,380,4542943,0.0-19.0-0.9,24633,List2B,black,woman,,,,null,,,,
null,"<img src=""stim_listB/talk6.gif""style=""height:400px;""></stim_listB>",,html-keyboard-response,381,4544951,0.0-19.0-1.9,24633,List2B,black,woman,,,,null,,,,
null,are talking to each other,,html-keyboard-response,382,4546956,0.0-19.0-2.9,24633,List2B,black,woman,,,,null,,,,
51039,,,survey-text,383,4597997,0.0-19.0-3.9,24633,List2B,black,woman,,,,,"{""Q0"":""Dave and Fred are talking to each other""}","<img src=""stim_listB/talk6.gif""style=""height:400px;""></stim_listB>",are talking to each other,
null,"<div style=""font-size:60px;"">+</div>",,html-keyboard-response,384,4598500,0.0-19.0-0.10,24633,List2B,black,woman,,,,null,,,,
null,"<img src=""stim_listB/talk7.gif""style=""height:400px;""></stim_listB>",,html-keyboard-response,385,4600502,0.0-19.0-1.10,24633,List2B,black,woman,,,,null,,,,
null,is talking to,,html-keyboard-response,386,4602506,0.0-19.0-2.10,24633,List2B,black,woman,,,,null,,,,
30228,,,survey-text,387,4632734,0.0-19.0-3.10,24633,List2B,black,woman,,,,,"{""Q0"":""Ruth is talking to Kate""}","<img src=""stim_listB/talk7.gif""style=""height:400px;""></stim_listB>",is talking to,
null,"<div style=""font-size:60px;"">+</div>",,html-keyboard-response,388,4633236,0.0-19.0-0.11,24633,List2B,black,woman,,,,null,,,,
null,"<img src=""stim_listB/shout6.gif""style=""height:400px;""></stim_listB>",,html-keyboard-response,389,4635243,0.0-19.0-1.11,24633,List2B,black,woman,,,,null,,,,
null,are shouting at each other,,html-keyboard-response,390,4637246,0.0-19.0-2.11,24633,List2B,black,woman,,,,null,,,,
37389,,,survey-text,391,4674637,0.0-19.0-3.11,24633,List2B,black,woman,,,,,"{""Q0"":""Dave and Mike are shouting at each other""}","<img src=""stim_listB/shout6.gif""style=""height:400px;""></stim_listB>",are shouting at each other,
null,"<div style=""font-size:60px;"">+</div>",,html-keyboard-response,392,4675138,0.0-19.0-0.12,24633,List2B,black,woman,,,,null,,,,
null,"<img src=""stim_listB/touch8.gif""style=""height:400px;""></stim_listB>",,html-keyboard-response,393,4677146,0.0-19.0-1.12,24633,List2B,black,woman,,,,null,,,,
null,are touching each other,,html-keyboard-response,394,4679148,0.0-19.0-2.12,24633,List2B,black,woman,,,,null,,,,
32973,,,survey-text,395,4712122,0.0-19.0-3.12,24633,List2B,black,woman,,,,,"{""Q0"":"" Beth and Ruth are touching each other""}","<img src=""stim_listB/touch8.gif""style=""height:400px;""></stim_listB>",are touching each other,
null,"<div style=""font-size:60px;"">+</div>",,html-keyboard-response,396,4712627,0.0-19.0-0.13,24633,List2B,black,woman,,,,null,,,,
null,"<img src=""stim_listB/play2.gif""style=""height:400px;""></stim_listB>",,html-keyboard-response,397,4714633,0.0-19.0-1.13,24633,List2B,black,woman,,,,null,,,,
null,are playing with each other,,html-keyboard-response,398,4716634,0.0-19.0-2.13,24633,List2B,black,woman,,,,null,,,,
26871,,,survey-text,399,4743507,0.0-19.0-3.13,24633,List2B,black,woman,,,,,"{""Q0"":""Luke and Ruth are playing with each other""}","<img src=""stim_listB/play2.gif""style=""height:400px;""></stim_listB>",are playing with each other,
null,"<div style=""font-size:60px;"">+</div>",,html-keyboard-response,400,4744008,0.0-19.0-0.14,24633,List2B,black,woman,,,,null,,,,
null,"<img src=""stim_listB/play5.gif""style=""height:400px;""></stim_listB>",,html-keyboard-response,401,4746013,0.0-19.0-1.14,24633,List2B,black,woman,,,,null,,,,
null,is playing with,,html-keyboard-response,402,4748015,0.0-19.0-2.14,24633,List2B,black,woman,,,,null,,,,
25466,,,survey-text,403,4773483,0.0-19.0-3.14,24633,List2B,black,woman,,,,,"{""Q0"":""Mike is playing with Dave""}","<img src=""stim_listB/play5.gif""style=""height:400px;""></stim_listB>",is playing with,
null,"<div style=""font-size:60px;"">+</div>",,html-keyboard-response,404,4773985,0.0-19.0-0.15,24633,List2B,black,woman,,,,null,,,,
null,"<img src=""stim_listB/flirt7.gif""style=""height:400px;""></stim_listB>",,html-keyboard-response,405,4775987,0.0-19.0-1.15,24633,List2B,black,woman,,,,null,,,,
null,is flirting with,,html-keyboard-response,406,4777989,0.0-19.0-2.15,24633,List2B,black,woman,,,,null,,,,
40165,,,survey-text,407,4818154,0.0-19.0-3.15,24633,List2B,black,woman,,,,,"{""Q0"":""Kate is flirting with ruth ""}","<img src=""stim_listB/flirt7.gif""style=""height:400px;""></stim_listB>",is flirting with,
null,"<div style=""font-size:60px;"">+</div>",,html-keyboard-response,408,4818656,0.0-19.0-0.16,24633,List2B,black,woman,,,,null,,,,
null,"<img src=""stim_listB/touch3.gif""style=""height:400px;""></stim_listB>",,html-keyboard-response,409,4820661,0.0-19.0-1.16,24633,List2B,black,woman,,,,null,,,,
null,is touching,,html-keyboard-response,410,4822666,0.0-19.0-2.16,24633,List2B,black,woman,,,,null,,,,
36622,,,survey-text,411,4859290,0.0-19.0-3.16,24633,List2B,black,woman,,,,,"{""Q0"":""Kate is touching Ruth""}","<img src=""stim_listB/touch3.gif""style=""height:400px;""></stim_listB>",is touching,
null,"<div style=""font-size:60px;"">+</div>",,html-keyboard-response,412,4859792,0.0-19.0-0.17,24633,List2B,black,woman,,,,null,,,,
null,"<img src=""stim_listB/marry3.gif""style=""height:400px;""></stim_listB>",,html-keyboard-response,413,4861796,0.0-19.0-1.17,24633,List2B,black,woman,,,,null,,,,
null,is marrying,,html-keyboard-response,414,4863798,0.0-19.0-2.17,24633,List2B,black,woman,,,,null,,,,
59863,,,survey-text,415,4923667,0.0-19.0-3.17,24633,List2B,black,woman,,,,,"{""Q0"":""Mike is marrying Kate""}","<img src=""stim_listB/marry3.gif""style=""height:400px;""></stim_listB>",is marrying,
null,"<div style=""font-size:60px;"">+</div>",,html-keyboard-response,416,4924170,0.0-19.0-0.18,24633,List2B,black,woman,,,,null,,,,
null,"<img src=""stim_listB/shout2.gif""style=""height:400px;""></stim_listB>",,html-keyboard-response,417,4926173,0.0-19.0-1.18,24633,List2B,black,woman,,,,null,,,,
null,are shouting at each other,,html-keyboard-response,418,4928175,0.0-19.0-2.18,24633,List2B,black,woman,,,,null,,,,
46590,,,survey-text,419,4974766,0.0-19.0-3.18,24633,List2B,black,woman,,,,,"{""Q0"":""Jane and Dave are shouting at each other""}","<img src=""stim_listB/shout2.gif""style=""height:400px;""></stim_listB>",are shouting at each other,
null,"<div style=""font-size:60px;"">+</div>",,html-keyboard-response,420,4975268,0.0-19.0-0.19,24633,List2B,black,woman,,,,null,,,,
null,"<img src=""stim_listB/fight1.gif""style=""height:400px;""></stim_listB>",,html-keyboard-response,421,4977272,0.0-19.0-1.19,24633,List2B,black,woman,,,,null,,,,
null,is fighting,,html-keyboard-response,422,4979273,0.0-19.0-2.19,24633,List2B,black,woman,,,,null,,,,
31042,,,survey-text,423,5010316,0.0-19.0-3.19,24633,List2B,black,woman,,,,,"{""Q0"":""Jane is fighting Dave""}","<img src=""stim_listB/fight1.gif""style=""height:400px;""></stim_listB>",is fighting,
3727,<p>Thank you for completing that task.</p><p>The final part of this session is a short questionnaire.</p><p>Press Continue.</p>,0,html-button-response,424,5014052,0.0-20.0,24633,List2B,black,woman,,,,,,,,
50220,,,survey-text,425,5065289,0.0-21.0,24633,List2B,black,woman,,,,,"{""Q0"":""57"",""Q1"":""English"",""Q2"":""English"",""Q3"":""UK"",""Q4"":""Black "",""Q5"":""Female""}",,,demographics
8908,,,survey-likert,426,5074211,0.0-22.0,24633,List2B,black,woman,,,,,"{""Q0"":4}",,,likert_ESS
36212,,,survey-likert,427,5110461,0.0-23.0,24633,List2B,black,woman,,,,,"{""Q0"":5}",,,likert_NSSAL_Q1
7100,,,survey-likert,428,5117579,0.0-24.0,24633,List2B,black,woman,,,,,"{""Q0"":5}",,,likert_NSSAL_Q2
7321,,,survey-likert,429,5124920,0.0-25.0,24633,List2B,black,woman,,,,,"{""Q0"":4}",,,likert_CGRS_Q1
11801,,,survey-likert,430,5136739,0.0-26.0,24633,List2B,black,woman,,,,,"{""Q0"":3}",,,likert_CGRS_Q2
4774,,,survey-likert,431,5141532,0.0-27.0,24633,List2B,black,woman,,,,,"{""Q0"":3}",,,likert_CGRS_Q3
5437,,,survey-text,432,5146991,0.0-28.0,24633,List2B,black,woman,,,,,"{""Q0"":""ccc""}",,,worker_id
17891,,,external-html,433,5164961,0.0-29.0,24633,List2B,black,woman,debrief.html,,,,,,,
