rt,stimulus,button_pressed,trial_type,trial_index,time_elapsed,internal_node_id,subject,list,ppt_race,ppt_gender,url,first_guess,correct,key_press,responses,image_type,phrase_type,test_part
1932,Welcome to the experiment. Press Continue to begin.,0,html-button-response,0,1938,0.0-0.0,24830,List2A,white,woman,,,,,,,,
21644,,,external-html,1,24640,0.0-1.0,24830,List2A,white,woman,consent.html,,,,,,,
9500,"<p>On the next page, you will see portraits of 8 people and their names.</p><p>Your first task is to take a few minutes to memorise the names of these people.</p><p>You will have to recall their names during the rest of the experiment, so it is</p><p>essential that you try to memorise these people and their names as best as you can.</p><br><p><strong>You will then be tested on your memory of these names and portraits.</strong></p><br><p>The experiment will start after you have completed this memory test.</p><br><p>Ready?</p>",0,html-button-response,2,34143,0.0-2.0,24830,List2A,white,woman,,,,,,,,
61041,"<img src='img/portrait_matrix_list2.jpg' style='width:900px;height:500px;''></img><p>If you have memorised all the portraits and names and are ready to start, press Continue.</p><p><strong>Please note: Your memory of these faces will be tested 4 times during this experiment.</strong></p>",0,html-button-response,3,96191,0.0-3.0-0.0,24830,List2A,white,woman,,,,,,,,
15083,"<img src=""portrait/BW2.jpg""style=""height:400px;""></img>",2,html-button-response,4,112280,0.0-3.0-1.0,24830,List2A,white,woman,,TRUE,2,,,,,
null,CORRECT,,html-keyboard-response,5,113786,0.0-3.0-2.0-0.0,24830,List2A,white,woman,,,,null,,,,
3042,"<img src=""portrait/BM2.jpg""style=""height:400px;""></img>",4,html-button-response,6,116831,0.0-3.0-4.0,24830,List2A,white,woman,,TRUE,5,,,,,
4763,"<img src=""portrait/BM2.jpg""style=""height:400px;""></img>",5,html-button-response,7,122603,0.0-3.0-6.0-0.0,24830,List2A,white,woman,,FALSE,5,,,,,
null,CORRECT,,html-keyboard-response,8,124107,0.0-3.0-6.0-1.0-0.0,24830,List2A,white,woman,,,,null,,,,
11266,"<img src=""portrait/BW1.jpg""style=""height:400px;""></img>",3,html-button-response,9,135377,0.0-3.0-7.0,24830,List2A,white,woman,,TRUE,0,,,,,
2706,"<img src=""portrait/BW1.jpg""style=""height:400px;""></img>",0,html-button-response,10,139087,0.0-3.0-9.0-0.0,24830,List2A,white,woman,,FALSE,0,,,,,
null,CORRECT,,html-keyboard-response,11,140591,0.0-3.0-9.0-1.0-0.0,24830,List2A,white,woman,,,,null,,,,
4525,"<img src=""portrait/WW1.jpg""style=""height:400px;""></img>",1,html-button-response,12,145119,0.0-3.0-10.0,24830,List2A,white,woman,,TRUE,1,,,,,
null,CORRECT,,html-keyboard-response,13,146623,0.0-3.0-11.0-0.0,24830,List2A,white,woman,,,,null,,,,
2197,"<img src=""portrait/BM1.jpg""style=""height:400px;""></img>",4,html-button-response,14,148823,0.0-3.0-13.0,24830,List2A,white,woman,,TRUE,4,,,,,
null,CORRECT,,html-keyboard-response,15,150326,0.0-3.0-14.0-0.0,24830,List2A,white,woman,,,,null,,,,
10373,"<img src=""portrait/WM1.jpg""style=""height:400px;""></img>",7,html-button-response,16,160702,0.0-3.0-16.0,24830,List2A,white,woman,,TRUE,6,,,,,
4427,"<img src=""portrait/WM1.jpg""style=""height:400px;""></img>",6,html-button-response,17,166135,0.0-3.0-18.0-0.0,24830,List2A,white,woman,,FALSE,6,,,,,
null,CORRECT,,html-keyboard-response,18,167638,0.0-3.0-18.0-1.0-0.0,24830,List2A,white,woman,,,,null,,,,
7262,"<img src=""portrait/WM2.jpg""style=""height:400px;""></img>",7,html-button-response,19,174903,0.0-3.0-19.0,24830,List2A,white,woman,,TRUE,7,,,,,
null,CORRECT,,html-keyboard-response,20,176406,0.0-3.0-20.0-0.0,24830,List2A,white,woman,,,,null,,,,
6486,"<img src=""portrait/WW2.jpg""style=""height:400px;""></img>",0,html-button-response,21,182895,0.0-3.0-22.0,24830,List2A,white,woman,,TRUE,3,,,,,
2995,"<img src=""portrait/WW2.jpg""style=""height:400px;""></img>",3,html-button-response,22,186895,0.0-3.0-24.0-0.0,24830,List2A,white,woman,,FALSE,3,,,,,
null,CORRECT,,html-keyboard-response,23,188397,0.0-3.0-24.0-1.0-0.0,24830,List2A,white,woman,,,,null,,,,
2590,<p>You got 4 out of 8 right first time. Press Continue.</p>,0,html-button-response,24,190990,0.0-3.0-25.0,24830,List2A,white,woman,,,,,,,,
2700,"As you did not score 100%, the memory game will repeat. Press Continue.",0,html-button-response,25,194695,0.0-3.0-26.0-0.0,24830,List2A,white,woman,,,,,,,,
36071,"<img src='img/portrait_matrix_list2.jpg' style='width:900px;height:500px;''></img><p>If you have memorised all the portraits and names and are ready to start, press Continue.</p><p><strong>Please note: Your memory of these faces will be tested 4 times during this experiment.</strong></p>",0,html-button-response,26,231772,0.0-3.1-0.1,24830,List2A,white,woman,,,,,,,,
2438,"<img src=""portrait/BW2.jpg""style=""height:400px;""></img>",2,html-button-response,27,235215,0.0-3.1-1.1,24830,List2A,white,woman,,TRUE,2,,,,,
null,CORRECT,,html-keyboard-response,28,236718,0.0-3.1-2.1-0.1,24830,List2A,white,woman,,,,null,,,,
16181,"<img src=""portrait/BM2.jpg""style=""height:400px;""></img>",6,html-button-response,29,252902,0.0-3.1-4.1,24830,List2A,white,woman,,TRUE,5,,,,,
2836,"<img src=""portrait/BM2.jpg""style=""height:400px;""></img>",5,html-button-response,30,256743,0.0-3.1-6.1-0.1,24830,List2A,white,woman,,FALSE,5,,,,,
null,CORRECT,,html-keyboard-response,31,258245,0.0-3.1-6.1-1.1-0.1,24830,List2A,white,woman,,,,null,,,,
3854,"<img src=""portrait/BW1.jpg""style=""height:400px;""></img>",0,html-button-response,32,262100,0.0-3.1-7.1,24830,List2A,white,woman,,TRUE,0,,,,,
null,CORRECT,,html-keyboard-response,33,263603,0.0-3.1-8.1-0.1,24830,List2A,white,woman,,,,null,,,,
3495,"<img src=""portrait/WW1.jpg""style=""height:400px;""></img>",1,html-button-response,34,267102,0.0-3.1-10.1,24830,List2A,white,woman,,TRUE,1,,,,,
null,CORRECT,,html-keyboard-response,35,268604,0.0-3.1-11.1-0.1,24830,List2A,white,woman,,,,null,,,,
3966,"<img src=""portrait/BM1.jpg""style=""height:400px;""></img>",4,html-button-response,36,272574,0.0-3.1-13.1,24830,List2A,white,woman,,TRUE,4,,,,,
null,CORRECT,,html-keyboard-response,37,274077,0.0-3.1-14.1-0.1,24830,List2A,white,woman,,,,null,,,,
8678,"<img src=""portrait/WM1.jpg""style=""height:400px;""></img>",7,html-button-response,38,282758,0.0-3.1-16.1,24830,List2A,white,woman,,TRUE,6,,,,,
3268,"<img src=""portrait/WM1.jpg""style=""height:400px;""></img>",6,html-button-response,39,287031,0.0-3.1-18.1-0.1,24830,List2A,white,woman,,FALSE,6,,,,,
null,CORRECT,,html-keyboard-response,40,288535,0.0-3.1-18.1-1.1-0.1,24830,List2A,white,woman,,,,null,,,,
8548,"<img src=""portrait/WM2.jpg""style=""height:400px;""></img>",7,html-button-response,41,297087,0.0-3.1-19.1,24830,List2A,white,woman,,TRUE,7,,,,,
null,CORRECT,,html-keyboard-response,42,298590,0.0-3.1-20.1-0.1,24830,List2A,white,woman,,,,null,,,,
2300,"<img src=""portrait/WW2.jpg""style=""height:400px;""></img>",3,html-button-response,43,300894,0.0-3.1-22.1,24830,List2A,white,woman,,TRUE,3,,,,,
null,CORRECT,,html-keyboard-response,44,302403,0.0-3.1-23.1-0.1,24830,List2A,white,woman,,,,null,,,,
3584,<p>You got 6 out of 8 right first time. Press Continue.</p>,0,html-button-response,45,305990,0.0-3.1-25.1,24830,List2A,white,woman,,,,,,,,
1995,"As you did not score 100%, the memory game will repeat. Press Continue.",0,html-button-response,46,308990,0.0-3.1-26.1-0.1,24830,List2A,white,woman,,,,,,,,
22675,"<img src='img/portrait_matrix_list2.jpg' style='width:900px;height:500px;''></img><p>If you have memorised all the portraits and names and are ready to start, press Continue.</p><p><strong>Please note: Your memory of these faces will be tested 4 times during this experiment.</strong></p>",0,html-button-response,47,332669,0.0-3.2-0.2,24830,List2A,white,woman,,,,,,,,
8886,"<img src=""portrait/BW2.jpg""style=""height:400px;""></img>",2,html-button-response,48,342558,0.0-3.2-1.2,24830,List2A,white,woman,,TRUE,2,,,,,
null,CORRECT,,html-keyboard-response,49,344063,0.0-3.2-2.2-0.2,24830,List2A,white,woman,,,,null,,,,
2549,"<img src=""portrait/BM2.jpg""style=""height:400px;""></img>",5,html-button-response,50,346615,0.0-3.2-4.2,24830,List2A,white,woman,,TRUE,5,,,,,
null,CORRECT,,html-keyboard-response,51,348118,0.0-3.2-5.2-0.2,24830,List2A,white,woman,,,,null,,,,
1996,"<img src=""portrait/BW1.jpg""style=""height:400px;""></img>",0,html-button-response,52,350126,0.0-3.2-7.2,24830,List2A,white,woman,,TRUE,0,,,,,
null,CORRECT,,html-keyboard-response,53,351629,0.0-3.2-8.2-0.2,24830,List2A,white,woman,,,,null,,,,
2608,"<img src=""portrait/WW1.jpg""style=""height:400px;""></img>",1,html-button-response,54,354239,0.0-3.2-10.2,24830,List2A,white,woman,,TRUE,1,,,,,
null,CORRECT,,html-keyboard-response,55,355741,0.0-3.2-11.2-0.2,24830,List2A,white,woman,,,,null,,,,
2269,"<img src=""portrait/BM1.jpg""style=""height:400px;""></img>",4,html-button-response,56,358013,0.0-3.2-13.2,24830,List2A,white,woman,,TRUE,4,,,,,
null,CORRECT,,html-keyboard-response,57,359515,0.0-3.2-14.2-0.2,24830,List2A,white,woman,,,,null,,,,
8024,"<img src=""portrait/WM1.jpg""style=""height:400px;""></img>",6,html-button-response,58,367542,0.0-3.2-16.2,24830,List2A,white,woman,,TRUE,6,,,,,
null,CORRECT,,html-keyboard-response,59,369045,0.0-3.2-17.2-0.2,24830,List2A,white,woman,,,,null,,,,
7717,"<img src=""portrait/WM2.jpg""style=""height:400px;""></img>",7,html-button-response,60,376765,0.0-3.2-19.2,24830,List2A,white,woman,,TRUE,7,,,,,
null,CORRECT,,html-keyboard-response,61,378268,0.0-3.2-20.2-0.2,24830,List2A,white,woman,,,,null,,,,
1654,"<img src=""portrait/WW2.jpg""style=""height:400px;""></img>",3,html-button-response,62,379926,0.0-3.2-22.2,24830,List2A,white,woman,,TRUE,3,,,,,
null,CORRECT,,html-keyboard-response,63,381428,0.0-3.2-23.2-0.2,24830,List2A,white,woman,,,,null,,,,
1958,<p>You got 8 out of 8 right first time. Press Continue.</p>,0,html-button-response,64,383389,0.0-3.2-25.2,24830,List2A,white,woman,,,,,,,,
24044,"<p>In this experiment, you will view photographs of the people from the memory game interacting.</p><p>By using the <strong>exact</strong> phrase given <i>after</i> the photograph appears and recalling the correct names of the people in the photographs, form a sentence describing the interaction. You do not need to capitalise names.</p><p>Type your answer in the space provided. Please complete every sentence before moving onto the next trial.</p><p>You will only have a few seconds to memorise each given photograph and phrase before you can respond, so try your best to focus.</p><p>An example is given below. Press 'Continue' when you are ready.</p><img src='img/speaking_example.jpg' style='width:800px;height:460px;''></img>",0,html-button-response,65,408438,0.0-4.0,24830,List2A,white,woman,,,,,,,,
2525,"<p>Before the experiment starts, you will watch two example trials. Press 'Continue'.</p>",0,html-button-response,66,411965,0.0-5.0,24830,List2A,white,woman,,,,,,,,
null,<img src='img/meet_eg.gif' style='height:400px;''></img>,,html-keyboard-response,67,414971,0.0-6.0,24830,List2A,white,woman,,,,null,,,,
null,<p>is meeting</p>,,html-keyboard-response,68,416973,0.0-7.0,24830,List2A,white,woman,,,,null,,,,
3989,<p><b>Answer:</b> jane is meeting ruth</p>,0,html-button-response,69,420966,0.0-8.0,24830,List2A,white,woman,,,,,,,,
null,<img src='img/look_eg.gif' style='height:400px;''></img>,,html-keyboard-response,70,423969,0.0-9.0,24830,List2A,white,woman,,,,null,,,,
null,<p>are looking at each other</p>,,html-keyboard-response,71,425971,0.0-10.0,24830,List2A,white,woman,,,,null,,,,
4528,<p><b>Answer:</b> fred and mike are looking at each other</p>,0,html-button-response,72,430500,0.0-11.0,24830,List2A,white,woman,,,,,,,,
6174,"<p>Ready to start the experiment?</p><br><p><strong>Remember to describe the picture using a full sentence,</strong></p><p><strong>that combines the names of the people with the <i>exact</i> phrase given.</strong></p><p><strong>To receive full payment you must do this correctly.</strong></p><p><strong> You do not need to capitalise names or use punctuation.</strong></p><br><p>Press 'Continue' to begin.</p>",0,html-button-response,73,437677,0.0-12.0,24830,List2A,white,woman,,,,,,,,
null,"<div style=""font-size:60px;"">+</div>",,html-keyboard-response,74,439181,0.0-13.0-0.0,24830,List2A,white,woman,,,,null,,,,
null,"<img src=""stim_listA/dance5.gif""style=""height:400px;""></stim_listA>",,html-keyboard-response,75,441184,0.0-13.0-1.0,24830,List2A,white,woman,,,,null,,,,
null,is dancing with,,html-keyboard-response,76,443186,0.0-13.0-2.0,24830,List2A,white,woman,,,,null,,,,
23881,,,survey-text,77,467069,0.0-13.0-3.0,24830,List2A,white,woman,,,,,"{""Q0"":""dave is dancing with mike""}","<img src=""stim_listA/dance5.gif""style=""height:400px;""></stim_listA>",is dancing with,
null,"<div style=""font-size:60px;"">+</div>",,html-keyboard-response,78,467574,0.0-13.0-0.1,24830,List2A,white,woman,,,,null,,,,
null,"<img src=""stim_listA/argue2.gif""style=""height:400px;""></stim_listA>",,html-keyboard-response,79,469576,0.0-13.0-1.1,24830,List2A,white,woman,,,,null,,,,
null,are arguing with each other,,html-keyboard-response,80,471580,0.0-13.0-2.1,24830,List2A,white,woman,,,,null,,,,
20087,,,survey-text,81,491670,0.0-13.0-3.1,24830,List2A,white,woman,,,,,"{""Q0"":""dave is meeting jane""}","<img src=""stim_listA/argue2.gif""style=""height:400px;""></stim_listA>",are arguing with each other,
null,"<div style=""font-size:60px;"">+</div>",,html-keyboard-response,82,492173,0.0-13.0-0.2,24830,List2A,white,woman,,,,null,,,,
null,"<img src=""stim_listA/kiss8.gif""style=""height:400px;""></stim_listA>",,html-keyboard-response,83,494176,0.0-13.0-1.2,24830,List2A,white,woman,,,,null,,,,
null,are kissing each other,,html-keyboard-response,84,496178,0.0-13.0-2.2,24830,List2A,white,woman,,,,null,,,,
21585,,,survey-text,85,517765,0.0-13.0-3.2,24830,List2A,white,woman,,,,,"{""Q0"":""jane and kate are kissing each other""}","<img src=""stim_listA/kiss8.gif""style=""height:400px;""></stim_listA>",are kissing each other,
null,"<div style=""font-size:60px;"">+</div>",,html-keyboard-response,86,518267,0.0-13.0-0.3,24830,List2A,white,woman,,,,null,,,,
null,"<img src=""stim_listA/flirt5.gif""style=""height:400px;""></stim_listA>",,html-keyboard-response,87,520270,0.0-13.0-1.3,24830,List2A,white,woman,,,,null,,,,
null,is flirting with,,html-keyboard-response,88,522271,0.0-13.0-2.3,24830,List2A,white,woman,,,,null,,,,
11068,,,survey-text,89,533341,0.0-13.0-3.3,24830,List2A,white,woman,,,,,"{""Q0"":""mike is flirting with dave""}","<img src=""stim_listA/flirt5.gif""style=""height:400px;""></stim_listA>",is flirting with,
null,"<div style=""font-size:60px;"">+</div>",,html-keyboard-response,90,533844,0.0-13.0-0.4,24830,List2A,white,woman,,,,null,,,,
null,"<img src=""stim_listA/kiss6.gif""style=""height:400px;""></stim_listA>",,html-keyboard-response,91,535848,0.0-13.0-1.4,24830,List2A,white,woman,,,,null,,,,
null,are kissing each other,,html-keyboard-response,92,537849,0.0-13.0-2.4,24830,List2A,white,woman,,,,null,,,,
17768,,,survey-text,93,555619,0.0-13.0-3.4,24830,List2A,white,woman,,,,,"{""Q0"":""mike and luke are kissing each other""}","<img src=""stim_listA/kiss6.gif""style=""height:400px;""></stim_listA>",are kissing each other,
null,"<div style=""font-size:60px;"">+</div>",,html-keyboard-response,94,556121,0.0-13.0-0.5,24830,List2A,white,woman,,,,null,,,,
null,"<img src=""stim_listA/fight6.gif""style=""height:400px;""></stim_listA>",,html-keyboard-response,95,558124,0.0-13.0-1.5,24830,List2A,white,woman,,,,null,,,,
null,are fighting each other,,html-keyboard-response,96,560126,0.0-13.0-2.5,24830,List2A,white,woman,,,,null,,,,
36243,,,survey-text,97,596371,0.0-13.0-3.5,24830,List2A,white,woman,,,,,"{""Q0"":""luke and fred are fighting each other ""}","<img src=""stim_listA/fight6.gif""style=""height:400px;""></stim_listA>",are fighting each other,
null,"<div style=""font-size:60px;"">+</div>",,html-keyboard-response,98,596878,0.0-13.0-0.6,24830,List2A,white,woman,,,,null,,,,
null,"<img src=""stim_listA/argue1.gif""style=""height:400px;""></stim_listA>",,html-keyboard-response,99,598881,0.0-13.0-1.6,24830,List2A,white,woman,,,,null,,,,
null,is arguing with,,html-keyboard-response,100,600882,0.0-13.0-2.6,24830,List2A,white,woman,,,,null,,,,
27136,,,survey-text,101,628021,0.0-13.0-3.6,24830,List2A,white,woman,,,,,"{""Q0"":""ruth is arguing with luke""}","<img src=""stim_listA/argue1.gif""style=""height:400px;""></stim_listA>",is arguing with,
null,"<div style=""font-size:60px;"">+</div>",,html-keyboard-response,102,628524,0.0-13.0-0.7,24830,List2A,white,woman,,,,null,,,,
null,"<img src=""stim_listA/marry5.gif""style=""height:400px;""></stim_listA>",,html-keyboard-response,103,630527,0.0-13.0-1.7,24830,List2A,white,woman,,,,null,,,,
null,is marrying,,html-keyboard-response,104,632530,0.0-13.0-2.7,24830,List2A,white,woman,,,,null,,,,
16088,,,survey-text,105,648621,0.0-13.0-3.7,24830,List2A,white,woman,,,,,"{""Q0"":""fred is marrying luke""}","<img src=""stim_listA/marry5.gif""style=""height:400px;""></stim_listA>",is marrying,
null,"<div style=""font-size:60px;"">+</div>",,html-keyboard-response,106,649124,0.0-13.0-0.8,24830,List2A,white,woman,,,,null,,,,
null,"<img src=""stim_listA/talk8.gif""style=""height:400px;""></stim_listA>",,html-keyboard-response,107,651128,0.0-13.0-1.8,24830,List2A,white,woman,,,,null,,,,
null,are talking to each other,,html-keyboard-response,108,653130,0.0-13.0-2.8,24830,List2A,white,woman,,,,null,,,,
19248,,,survey-text,109,672381,0.0-13.0-3.8,24830,List2A,white,woman,,,,,"{""Q0"":""jane and kate are talking to each other""}","<img src=""stim_listA/talk8.gif""style=""height:400px;""></stim_listA>",are talking to each other,
null,"<div style=""font-size:60px;"">+</div>",,html-keyboard-response,110,672882,0.0-13.0-0.9,24830,List2A,white,woman,,,,null,,,,
null,"<img src=""stim_listA/play3.gif""style=""height:400px;""></stim_listA>",,html-keyboard-response,111,674886,0.0-13.0-1.9,24830,List2A,white,woman,,,,null,,,,
null,is playing with,,html-keyboard-response,112,676888,0.0-13.0-2.9,24830,List2A,white,woman,,,,null,,,,
11290,,,survey-text,113,688181,0.0-13.0-3.9,24830,List2A,white,woman,,,,,"{""Q0"":""mike is playing with kate""}","<img src=""stim_listA/play3.gif""style=""height:400px;""></stim_listA>",is playing with,
null,"<div style=""font-size:60px;"">+</div>",,html-keyboard-response,114,688683,0.0-13.0-0.10,24830,List2A,white,woman,,,,null,,,,
null,"<img src=""stim_listA/touch7.gif""style=""height:400px;""></stim_listA>",,html-keyboard-response,115,690686,0.0-13.0-1.10,24830,List2A,white,woman,,,,null,,,,
null,is touching,,html-keyboard-response,116,692687,0.0-13.0-2.10,24830,List2A,white,woman,,,,null,,,,
11218,,,survey-text,117,703908,0.0-13.0-3.10,24830,List2A,white,woman,,,,,"{""Q0"":""jane is touching kate""}","<img src=""stim_listA/touch7.gif""style=""height:400px;""></stim_listA>",is touching,
null,"<div style=""font-size:60px;"">+</div>",,html-keyboard-response,118,704411,0.0-13.0-0.11,24830,List2A,white,woman,,,,null,,,,
null,"<img src=""stim_listA/flirt8.gif""style=""height:400px;""></stim_listA>",,html-keyboard-response,119,706413,0.0-13.0-1.11,24830,List2A,white,woman,,,,null,,,,
null,are flirting with each other,,html-keyboard-response,120,708414,0.0-13.0-2.11,24830,List2A,white,woman,,,,null,,,,
32828,,,survey-text,121,741244,0.0-13.0-3.11,24830,List2A,white,woman,,,,,"{""Q0"":""jane and beth are flirting with each other""}","<img src=""stim_listA/flirt8.gif""style=""height:400px;""></stim_listA>",are flirting with each other,
null,"<div style=""font-size:60px;"">+</div>",,html-keyboard-response,122,741746,0.0-13.0-0.12,24830,List2A,white,woman,,,,null,,,,
null,"<img src=""stim_listA/talk1.gif""style=""height:400px;""></stim_listA>",,html-keyboard-response,123,743749,0.0-13.0-1.12,24830,List2A,white,woman,,,,null,,,,
null,is talking to,,html-keyboard-response,124,745750,0.0-13.0-2.12,24830,List2A,white,woman,,,,null,,,,
22291,,,survey-text,125,768044,0.0-13.0-3.12,24830,List2A,white,woman,,,,,"{""Q0"":""jane is talking to dave""}","<img src=""stim_listA/talk1.gif""style=""height:400px;""></stim_listA>",is talking to,
null,"<div style=""font-size:60px;"">+</div>",,html-keyboard-response,126,768546,0.0-13.0-0.13,24830,List2A,white,woman,,,,null,,,,
null,"<img src=""stim_listA/marry3.gif""style=""height:400px;""></stim_listA>",,html-keyboard-response,127,770549,0.0-13.0-1.13,24830,List2A,white,woman,,,,null,,,,
null,is marrying,,html-keyboard-response,128,772551,0.0-13.0-2.13,24830,List2A,white,woman,,,,null,,,,
19595,,,survey-text,129,792148,0.0-13.0-3.13,24830,List2A,white,woman,,,,,"{""Q0"":""beth is marrying mike""}","<img src=""stim_listA/marry3.gif""style=""height:400px;""></stim_listA>",is marrying,
null,"<div style=""font-size:60px;"">+</div>",,html-keyboard-response,130,792651,0.0-13.0-0.14,24830,List2A,white,woman,,,,null,,,,
null,"<img src=""stim_listA/touch2.gif""style=""height:400px;""></stim_listA>",,html-keyboard-response,131,794654,0.0-13.0-1.14,24830,List2A,white,woman,,,,null,,,,
null,are touching each other,,html-keyboard-response,132,796656,0.0-13.0-2.14,24830,List2A,white,woman,,,,null,,,,
19465,,,survey-text,133,816123,0.0-13.0-3.14,24830,List2A,white,woman,,,,,"{""Q0"":""ruth and dave are touching each other""}","<img src=""stim_listA/touch2.gif""style=""height:400px;""></stim_listA>",are touching each other,
null,"<div style=""font-size:60px;"">+</div>",,html-keyboard-response,134,816625,0.0-13.0-0.15,24830,List2A,white,woman,,,,null,,,,
null,"<img src=""stim_listA/argue4.gif""style=""height:400px;""></stim_listA>",,html-keyboard-response,135,818627,0.0-13.0-1.15,24830,List2A,white,woman,,,,null,,,,
null,are arguing with each other,,html-keyboard-response,136,820630,0.0-13.0-2.15,24830,List2A,white,woman,,,,null,,,,
18963,,,survey-text,137,839595,0.0-13.0-3.15,24830,List2A,white,woman,,,,,"{""Q0"":""fred and jane are arguing with each other""}","<img src=""stim_listA/argue4.gif""style=""height:400px;""></stim_listA>",are arguing with each other,
null,"<div style=""font-size:60px;"">+</div>",,html-keyboard-response,138,840099,0.0-13.0-0.16,24830,List2A,white,woman,,,,null,,,,
null,"<img src=""stim_listA/play5.gif""style=""height:400px;""></stim_listA>",,html-keyboard-response,139,842105,0.0-13.0-1.16,24830,List2A,white,woman,,,,null,,,,
null,is playing with,,html-keyboard-response,140,844107,0.0-13.0-2.16,24830,List2A,white,woman,,,,null,,,,
20950,,,survey-text,141,865060,0.0-13.0-3.16,24830,List2A,white,woman,,,,,"{""Q0"":""mike is playing with luke""}","<img src=""stim_listA/play5.gif""style=""height:400px;""></stim_listA>",is playing with,
null,"<div style=""font-size:60px;"">+</div>",,html-keyboard-response,142,865563,0.0-13.0-0.17,24830,List2A,white,woman,,,,null,,,,
null,"<img src=""stim_listA/dance1.gif""style=""height:400px;""></stim_listA>",,html-keyboard-response,143,867565,0.0-13.0-1.17,24830,List2A,white,woman,,,,null,,,,
null,is dancing with,,html-keyboard-response,144,869567,0.0-13.0-2.17,24830,List2A,white,woman,,,,null,,,,
18659,,,survey-text,145,888227,0.0-13.0-3.17,24830,List2A,white,woman,,,,,"{""Q0"":""dave is dancing with jane""}","<img src=""stim_listA/dance1.gif""style=""height:400px;""></stim_listA>",is dancing with,
null,"<div style=""font-size:60px;"">+</div>",,html-keyboard-response,146,888730,0.0-13.0-0.18,24830,List2A,white,woman,,,,null,,,,
null,"<img src=""stim_listA/talk2.gif""style=""height:400px;""></stim_listA>",,html-keyboard-response,147,890733,0.0-13.0-1.18,24830,List2A,white,woman,,,,null,,,,
null,are talking to each other,,html-keyboard-response,148,892735,0.0-13.0-2.18,24830,List2A,white,woman,,,,null,,,,
18779,,,survey-text,149,911516,0.0-13.0-3.18,24830,List2A,white,woman,,,,,"{""Q0"":""ruth and luke are talking to each other""}","<img src=""stim_listA/talk2.gif""style=""height:400px;""></stim_listA>",are talking to each other,
null,"<div style=""font-size:60px;"">+</div>",,html-keyboard-response,150,912019,0.0-13.0-0.19,24830,List2A,white,woman,,,,null,,,,
null,"<img src=""stim_listA/talk7.gif""style=""height:400px;""></stim_listA>",,html-keyboard-response,151,914022,0.0-13.0-1.19,24830,List2A,white,woman,,,,null,,,,
null,is talking to,,html-keyboard-response,152,916024,0.0-13.0-2.19,24830,List2A,white,woman,,,,null,,,,
24873,,,survey-text,153,940900,0.0-13.0-3.19,24830,List2A,white,woman,,,,,"{""Q0"":""jane is talking to ruth""}","<img src=""stim_listA/talk7.gif""style=""height:400px;""></stim_listA>",is talking to,
17748,"<img src='img/portrait_matrix_list2.jpg' style='width:900px;height:500px;''></img><p>If you have memorised all the portraits and names and are ready to start, press Continue.</p><p><strong>Please note: Your memory of these faces will be tested 4 times during this experiment.</strong></p>",0,html-button-response,154,958652,0.0-14.0-0.0,24830,List2A,white,woman,,,,,,,,
2268,"<img src=""portrait/BW2.jpg""style=""height:400px;""></img>",2,html-button-response,155,961924,0.0-14.0-1.0,24830,List2A,white,woman,,TRUE,2,,,,,
null,CORRECT,,html-keyboard-response,156,963427,0.0-14.0-2.0-0.0,24830,List2A,white,woman,,,,null,,,,
6702,"<img src=""portrait/WM2.jpg""style=""height:400px;""></img>",7,html-button-response,157,970131,0.0-14.0-4.0,24830,List2A,white,woman,,TRUE,7,,,,,
null,CORRECT,,html-keyboard-response,158,971634,0.0-14.0-5.0-0.0,24830,List2A,white,woman,,,,null,,,,
1806,"<img src=""portrait/BM1.jpg""style=""height:400px;""></img>",4,html-button-response,159,973444,0.0-14.0-7.0,24830,List2A,white,woman,,TRUE,4,,,,,
null,CORRECT,,html-keyboard-response,160,974946,0.0-14.0-8.0-0.0,24830,List2A,white,woman,,,,null,,,,
3367,"<img src=""portrait/WM1.jpg""style=""height:400px;""></img>",6,html-button-response,161,978315,0.0-14.0-10.0,24830,List2A,white,woman,,TRUE,6,,,,,
null,CORRECT,,html-keyboard-response,162,979818,0.0-14.0-11.0-0.0,24830,List2A,white,woman,,,,null,,,,
2215,"<img src=""portrait/BW1.jpg""style=""height:400px;""></img>",0,html-button-response,163,982036,0.0-14.0-13.0,24830,List2A,white,woman,,TRUE,0,,,,,
null,CORRECT,,html-keyboard-response,164,983539,0.0-14.0-14.0-0.0,24830,List2A,white,woman,,,,null,,,,
1877,"<img src=""portrait/WW1.jpg""style=""height:400px;""></img>",1,html-button-response,165,985420,0.0-14.0-16.0,24830,List2A,white,woman,,TRUE,1,,,,,
null,CORRECT,,html-keyboard-response,166,986925,0.0-14.0-17.0-0.0,24830,List2A,white,woman,,,,null,,,,
2243,"<img src=""portrait/BM2.jpg""style=""height:400px;""></img>",5,html-button-response,167,989172,0.0-14.0-19.0,24830,List2A,white,woman,,TRUE,5,,,,,
null,CORRECT,,html-keyboard-response,168,990675,0.0-14.0-20.0-0.0,24830,List2A,white,woman,,,,null,,,,
1854,"<img src=""portrait/WW2.jpg""style=""height:400px;""></img>",3,html-button-response,169,992531,0.0-14.0-22.0,24830,List2A,white,woman,,TRUE,3,,,,,
null,CORRECT,,html-keyboard-response,170,994034,0.0-14.0-23.0-0.0,24830,List2A,white,woman,,,,null,,,,
1710,<p>You got 8 out of 8 right first time. Press Continue.</p>,0,html-button-response,171,995747,0.0-14.0-25.0,24830,List2A,white,woman,,,,,,,,
null,"<div style=""font-size:60px;"">+</div>",,html-keyboard-response,172,997250,0.0-15.0-0.0,24830,List2A,white,woman,,,,null,,,,
null,"<img src=""stim_listA/play8.gif""style=""height:400px;""></stim_listA>",,html-keyboard-response,173,999253,0.0-15.0-1.0,24830,List2A,white,woman,,,,null,,,,
null,are playing with each other,,html-keyboard-response,174,1001256,0.0-15.0-2.0,24830,List2A,white,woman,,,,null,,,,
23049,,,survey-text,175,1024307,0.0-15.0-3.0,24830,List2A,white,woman,,,,,"{""Q0"":""ruth and beth are playing with each other""}","<img src=""stim_listA/play8.gif""style=""height:400px;""></stim_listA>",are playing with each other,
null,"<div style=""font-size:60px;"">+</div>",,html-keyboard-response,176,1024810,0.0-15.0-0.1,24830,List2A,white,woman,,,,null,,,,
null,"<img src=""stim_listA/fight1.gif""style=""height:400px;""></stim_listA>",,html-keyboard-response,177,1026813,0.0-15.0-1.1,24830,List2A,white,woman,,,,null,,,,
null,is fighting,,html-keyboard-response,178,1028815,0.0-15.0-2.1,24830,List2A,white,woman,,,,null,,,,
16370,,,survey-text,179,1045187,0.0-15.0-3.1,24830,List2A,white,woman,,,,,"{""Q0"":""jane is fighting dave""}","<img src=""stim_listA/fight1.gif""style=""height:400px;""></stim_listA>",is fighting,
null,"<div style=""font-size:60px;"">+</div>",,html-keyboard-response,180,1045689,0.0-15.0-0.2,24830,List2A,white,woman,,,,null,,,,
null,"<img src=""stim_listA/dance4.gif""style=""height:400px;""></stim_listA>",,html-keyboard-response,181,1047692,0.0-15.0-1.2,24830,List2A,white,woman,,,,null,,,,
null,are dancing with each other,,html-keyboard-response,182,1049694,0.0-15.0-2.2,24830,List2A,white,woman,,,,null,,,,
20723,,,survey-text,183,1070419,0.0-15.0-3.2,24830,List2A,white,woman,,,,,"{""Q0"":""beth and mike are dancing with each other""}","<img src=""stim_listA/dance4.gif""style=""height:400px;""></stim_listA>",are dancing with each other,
null,"<div style=""font-size:60px;"">+</div>",,html-keyboard-response,184,1070923,0.0-15.0-0.3,24830,List2A,white,woman,,,,null,,,,
null,"<img src=""stim_listA/touch4.gif""style=""height:400px;""></stim_listA>",,html-keyboard-response,185,1072927,0.0-15.0-1.3,24830,List2A,white,woman,,,,null,,,,
null,are touching each other,,html-keyboard-response,186,1074929,0.0-15.0-2.3,24830,List2A,white,woman,,,,null,,,,
20526,,,survey-text,187,1095459,0.0-15.0-3.3,24830,List2A,white,woman,,,,,"{""Q0"":""fred and beth are touching each other""}","<img src=""stim_listA/touch4.gif""style=""height:400px;""></stim_listA>",are touching each other,
null,"<div style=""font-size:60px;"">+</div>",,html-keyboard-response,188,1095961,0.0-15.0-0.4,24830,List2A,white,woman,,,,null,,,,
null,"<img src=""stim_listA/play2.gif""style=""height:400px;""></stim_listA>",,html-keyboard-response,189,1097964,0.0-15.0-1.4,24830,List2A,white,woman,,,,null,,,,
null,are playing with each other,,html-keyboard-response,190,1099966,0.0-15.0-2.4,24830,List2A,white,woman,,,,null,,,,
27450,,,survey-text,191,1127419,0.0-15.0-3.4,24830,List2A,white,woman,,,,,"{""Q0"":""ruth and luke are playing with each other""}","<img src=""stim_listA/play2.gif""style=""height:400px;""></stim_listA>",are playing with each other,
null,"<div style=""font-size:60px;"">+</div>",,html-keyboard-response,192,1127921,0.0-15.0-0.5,24830,List2A,white,woman,,,,null,,,,
null,"<img src=""stim_listA/shout8.gif""style=""height:400px;""></stim_listA>",,html-keyboard-response,193,1129925,0.0-15.0-1.5,24830,List2A,white,woman,,,,null,,,,
null,are shouting at each other,,html-keyboard-response,194,1131926,0.0-15.0-2.5,24830,List2A,white,woman,,,,null,,,,
21338,,,survey-text,195,1153266,0.0-15.0-3.5,24830,List2A,white,woman,,,,,"{""Q0"":""jane and kate are shouting at each other""}","<img src=""stim_listA/shout8.gif""style=""height:400px;""></stim_listA>",are shouting at each other,
null,"<div style=""font-size:60px;"">+</div>",,html-keyboard-response,196,1153770,0.0-15.0-0.6,24830,List2A,white,woman,,,,null,,,,
null,"<img src=""stim_listA/flirt3.gif""style=""height:400px;""></stim_listA>",,html-keyboard-response,197,1155773,0.0-15.0-1.6,24830,List2A,white,woman,,,,null,,,,
null,is flirting with,,html-keyboard-response,198,1157775,0.0-15.0-2.6,24830,List2A,white,woman,,,,null,,,,
24321,,,survey-text,199,1182097,0.0-15.0-3.6,24830,List2A,white,woman,,,,,"{""Q0"":""fred is flirting with kate""}","<img src=""stim_listA/flirt3.gif""style=""height:400px;""></stim_listA>",is flirting with,
null,"<div style=""font-size:60px;"">+</div>",,html-keyboard-response,200,1182598,0.0-15.0-0.7,24830,List2A,white,woman,,,,null,,,,
null,"<img src=""stim_listA/touch8.gif""style=""height:400px;""></stim_listA>",,html-keyboard-response,201,1184600,0.0-15.0-1.7,24830,List2A,white,woman,,,,null,,,,
null,are touching each other,,html-keyboard-response,202,1186602,0.0-15.0-2.7,24830,List2A,white,woman,,,,null,,,,
21654,,,survey-text,203,1208258,0.0-15.0-3.7,24830,List2A,white,woman,,,,,"{""Q0"":""beth and ruth are touching each other""}","<img src=""stim_listA/touch8.gif""style=""height:400px;""></stim_listA>",are touching each other,
null,"<div style=""font-size:60px;"">+</div>",,html-keyboard-response,204,1208762,0.0-15.0-0.8,24830,List2A,white,woman,,,,null,,,,
null,"<img src=""stim_listA/play7.gif""style=""height:400px;""></stim_listA>",,html-keyboard-response,205,1210769,0.0-15.0-1.8,24830,List2A,white,woman,,,,null,,,,
null,is playing with,,html-keyboard-response,206,1212771,0.0-15.0-2.8,24830,List2A,white,woman,,,,null,,,,
18781,,,survey-text,207,1231554,0.0-15.0-3.8,24830,List2A,white,woman,,,,,"{""Q0"":""jane is playing with kate""}","<img src=""stim_listA/play7.gif""style=""height:400px;""></stim_listA>",is playing with,
null,"<div style=""font-size:60px;"">+</div>",,html-keyboard-response,208,1232062,0.0-15.0-0.9,24830,List2A,white,woman,,,,null,,,,
null,"<img src=""stim_listA/talk5.gif""style=""height:400px;""></stim_listA>",,html-keyboard-response,209,1234065,0.0-15.0-1.9,24830,List2A,white,woman,,,,null,,,,
null,is talking to,,html-keyboard-response,210,1236066,0.0-15.0-2.9,24830,List2A,white,woman,,,,null,,,,
18725,,,survey-text,211,1254794,0.0-15.0-3.9,24830,List2A,white,woman,,,,,"{""Q0"":""luke is talking to mike""}","<img src=""stim_listA/talk5.gif""style=""height:400px;""></stim_listA>",is talking to,
null,"<div style=""font-size:60px;"">+</div>",,html-keyboard-response,212,1255296,0.0-15.0-0.10,24830,List2A,white,woman,,,,null,,,,
null,"<img src=""stim_listA/talk3.gif""style=""height:400px;""></stim_listA>",,html-keyboard-response,213,1257298,0.0-15.0-1.10,24830,List2A,white,woman,,,,null,,,,
null,is talking to,,html-keyboard-response,214,1259300,0.0-15.0-2.10,24830,List2A,white,woman,,,,null,,,,
21923,,,survey-text,215,1281225,0.0-15.0-3.10,24830,List2A,white,woman,,,,,"{""Q0"":""jane is talking to fred""}","<img src=""stim_listA/talk3.gif""style=""height:400px;""></stim_listA>",is talking to,
null,"<div style=""font-size:60px;"">+</div>",,html-keyboard-response,216,1281728,0.0-15.0-0.11,24830,List2A,white,woman,,,,null,,,,
null,"<img src=""stim_listA/fight5.gif""style=""height:400px;""></stim_listA>",,html-keyboard-response,217,1283731,0.0-15.0-1.11,24830,List2A,white,woman,,,,null,,,,
null,is fighting,,html-keyboard-response,218,1285734,0.0-15.0-2.11,24830,List2A,white,woman,,,,null,,,,
21017,,,survey-text,219,1306754,0.0-15.0-3.11,24830,List2A,white,woman,,,,,"{""Q0"":""mike is fighting dave""}","<img src=""stim_listA/fight5.gif""style=""height:400px;""></stim_listA>",is fighting,
null,"<div style=""font-size:60px;"">+</div>",,html-keyboard-response,220,1307256,0.0-15.0-0.12,24830,List2A,white,woman,,,,null,,,,
null,"<img src=""stim_listA/argue5.gif""style=""height:400px;""></stim_listA>",,html-keyboard-response,221,1309260,0.0-15.0-1.12,24830,List2A,white,woman,,,,null,,,,
null,is arguing with,,html-keyboard-response,222,1311261,0.0-15.0-2.12,24830,List2A,white,woman,,,,null,,,,
19043,,,survey-text,223,1330307,0.0-15.0-3.12,24830,List2A,white,woman,,,,,"{""Q0"":""fred is arguing with dave""}","<img src=""stim_listA/argue5.gif""style=""height:400px;""></stim_listA>",is arguing with,
null,"<div style=""font-size:60px;"">+</div>",,html-keyboard-response,224,1330809,0.0-15.0-0.13,24830,List2A,white,woman,,,,null,,,,
null,"<img src=""stim_listA/dance7.gif""style=""height:400px;""></stim_listA>",,html-keyboard-response,225,1332813,0.0-15.0-1.13,24830,List2A,white,woman,,,,null,,,,
null,is dancing with,,html-keyboard-response,226,1334815,0.0-15.0-2.13,24830,List2A,white,woman,,,,null,,,,
17823,,,survey-text,227,1352641,0.0-15.0-3.13,24830,List2A,white,woman,,,,,"{""Q0"":""ruth is dancing with jane""}","<img src=""stim_listA/dance7.gif""style=""height:400px;""></stim_listA>",is dancing with,
null,"<div style=""font-size:60px;"">+</div>",,html-keyboard-response,228,1353144,0.0-15.0-0.14,24830,List2A,white,woman,,,,null,,,,
null,"<img src=""stim_listA/kiss1.gif""style=""height:400px;""></stim_listA>",,html-keyboard-response,229,1355147,0.0-15.0-1.14,24830,List2A,white,woman,,,,null,,,,
null,is kissing,,html-keyboard-response,230,1357149,0.0-15.0-2.14,24830,List2A,white,woman,,,,null,,,,
17834,,,survey-text,231,1374985,0.0-15.0-3.14,24830,List2A,white,woman,,,,,"{""Q0"":""ruth is kissing luke""}","<img src=""stim_listA/kiss1.gif""style=""height:400px;""></stim_listA>",is kissing,
null,"<div style=""font-size:60px;"">+</div>",,html-keyboard-response,232,1375489,0.0-15.0-0.15,24830,List2A,white,woman,,,,null,,,,
null,"<img src=""stim_listA/dance6.gif""style=""height:400px;""></stim_listA>",,html-keyboard-response,233,1377494,0.0-15.0-1.15,24830,List2A,white,woman,,,,null,,,,
null,are dancing with each other,,html-keyboard-response,234,1379495,0.0-15.0-2.15,24830,List2A,white,woman,,,,null,,,,
20232,,,survey-text,235,1399729,0.0-15.0-3.15,24830,List2A,white,woman,,,,,"{""Q0"":""fred and dave are dancing with each other""}","<img src=""stim_listA/dance6.gif""style=""height:400px;""></stim_listA>",are dancing with each other,
null,"<div style=""font-size:60px;"">+</div>",,html-keyboard-response,236,1400233,0.0-15.0-0.16,24830,List2A,white,woman,,,,null,,,,
null,"<img src=""stim_listA/touch3.gif""style=""height:400px;""></stim_listA>",,html-keyboard-response,237,1402236,0.0-15.0-1.16,24830,List2A,white,woman,,,,null,,,,
null,is touching,,html-keyboard-response,238,1404237,0.0-15.0-2.16,24830,List2A,white,woman,,,,null,,,,
9354,,,survey-text,239,1413593,0.0-15.0-3.16,24830,List2A,white,woman,,,,,"{""Q0"":""jane is touching mike""}","<img src=""stim_listA/touch3.gif""style=""height:400px;""></stim_listA>",is touching,
null,"<div style=""font-size:60px;"">+</div>",,html-keyboard-response,240,1414095,0.0-15.0-0.17,24830,List2A,white,woman,,,,null,,,,
null,"<img src=""stim_listA/shout5.gif""style=""height:400px;""></stim_listA>",,html-keyboard-response,241,1416098,0.0-15.0-1.17,24830,List2A,white,woman,,,,null,,,,
null,is shouting at,,html-keyboard-response,242,1418100,0.0-15.0-2.17,24830,List2A,white,woman,,,,null,,,,
21259,,,survey-text,243,1439361,0.0-15.0-3.17,24830,List2A,white,woman,,,,,"{""Q0"":""luke is shouting at fred""}","<img src=""stim_listA/shout5.gif""style=""height:400px;""></stim_listA>",is shouting at,
null,"<div style=""font-size:60px;"">+</div>",,html-keyboard-response,244,1439866,0.0-15.0-0.18,24830,List2A,white,woman,,,,null,,,,
null,"<img src=""stim_listA/dance3.gif""style=""height:400px;""></stim_listA>",,html-keyboard-response,245,1441869,0.0-15.0-1.18,24830,List2A,white,woman,,,,null,,,,
null,is dancing with,,html-keyboard-response,246,1443870,0.0-15.0-2.18,24830,List2A,white,woman,,,,null,,,,
18448,,,survey-text,247,1462321,0.0-15.0-3.18,24830,List2A,white,woman,,,,,"{""Q0"":""fred is dancing with jane""}","<img src=""stim_listA/dance3.gif""style=""height:400px;""></stim_listA>",is dancing with,
null,"<div style=""font-size:60px;"">+</div>",,html-keyboard-response,248,1462825,0.0-15.0-0.19,24830,List2A,white,woman,,,,null,,,,
null,"<img src=""stim_listA/fight4.gif""style=""height:400px;""></stim_listA>",,html-keyboard-response,249,1464828,0.0-15.0-1.19,24830,List2A,white,woman,,,,null,,,,
null,are fighting each other,,html-keyboard-response,250,1466829,0.0-15.0-2.19,24830,List2A,white,woman,,,,null,,,,
20545,,,survey-text,251,1487376,0.0-15.0-3.19,24830,List2A,white,woman,,,,,"{""Q0"":""beth and fred are fighting each other""}","<img src=""stim_listA/fight4.gif""style=""height:400px;""></stim_listA>",are fighting each other,
11117,"<img src='img/portrait_matrix_list2.jpg' style='width:900px;height:500px;''></img><p>If you have memorised all the portraits and names and are ready to start, press Continue.</p><p><strong>Please note: Your memory of these faces will be tested 4 times during this experiment.</strong></p>",0,html-button-response,252,1498497,0.0-16.0-0.0,24830,List2A,white,woman,,,,,,,,
3548,"<img src=""portrait/WM1.jpg""style=""height:400px;""></img>",6,html-button-response,253,1503049,0.0-16.0-1.0,24830,List2A,white,woman,,TRUE,6,,,,,
null,CORRECT,,html-keyboard-response,254,1504552,0.0-16.0-2.0-0.0,24830,List2A,white,woman,,,,null,,,,
2558,"<img src=""portrait/BW1.jpg""style=""height:400px;""></img>",0,html-button-response,255,1507113,0.0-16.0-4.0,24830,List2A,white,woman,,TRUE,0,,,,,
null,CORRECT,,html-keyboard-response,256,1508615,0.0-16.0-5.0-0.0,24830,List2A,white,woman,,,,null,,,,
2095,"<img src=""portrait/WM2.jpg""style=""height:400px;""></img>",7,html-button-response,257,1510714,0.0-16.0-7.0,24830,List2A,white,woman,,TRUE,7,,,,,
null,CORRECT,,html-keyboard-response,258,1512217,0.0-16.0-8.0-0.0,24830,List2A,white,woman,,,,null,,,,
1693,"<img src=""portrait/WW1.jpg""style=""height:400px;""></img>",1,html-button-response,259,1513914,0.0-16.0-10.0,24830,List2A,white,woman,,TRUE,1,,,,,
null,CORRECT,,html-keyboard-response,260,1515417,0.0-16.0-11.0-0.0,24830,List2A,white,woman,,,,null,,,,
1646,"<img src=""portrait/WW2.jpg""style=""height:400px;""></img>",3,html-button-response,261,1517065,0.0-16.0-13.0,24830,List2A,white,woman,,TRUE,3,,,,,
null,CORRECT,,html-keyboard-response,262,1518569,0.0-16.0-14.0-0.0,24830,List2A,white,woman,,,,null,,,,
1846,"<img src=""portrait/BM2.jpg""style=""height:400px;""></img>",5,html-button-response,263,1520417,0.0-16.0-16.0,24830,List2A,white,woman,,TRUE,5,,,,,
null,CORRECT,,html-keyboard-response,264,1521920,0.0-16.0-17.0-0.0,24830,List2A,white,woman,,,,null,,,,
1886,"<img src=""portrait/BM1.jpg""style=""height:400px;""></img>",4,html-button-response,265,1523809,0.0-16.0-19.0,24830,List2A,white,woman,,TRUE,4,,,,,
null,CORRECT,,html-keyboard-response,266,1525312,0.0-16.0-20.0-0.0,24830,List2A,white,woman,,,,null,,,,
2829,"<img src=""portrait/BW2.jpg""style=""height:400px;""></img>",3,html-button-response,267,1528145,0.0-16.0-22.0,24830,List2A,white,woman,,TRUE,2,,,,,
3787,"<img src=""portrait/BW2.jpg""style=""height:400px;""></img>",2,html-button-response,268,1532937,0.0-16.0-24.0-0.0,24830,List2A,white,woman,,FALSE,2,,,,,
null,CORRECT,,html-keyboard-response,269,1534441,0.0-16.0-24.0-1.0-0.0,24830,List2A,white,woman,,,,null,,,,
1981,<p>You got 7 out of 8 right first time. Press Continue.</p>,0,html-button-response,270,1536424,0.0-16.0-25.0,24830,List2A,white,woman,,,,,,,,
1294,"As you did not score 100%, the memory game will repeat. Press Continue.",0,html-button-response,271,1538721,0.0-16.0-26.0-0.0,24830,List2A,white,woman,,,,,,,,
2524,"<img src='img/portrait_matrix_list2.jpg' style='width:900px;height:500px;''></img><p>If you have memorised all the portraits and names and are ready to start, press Continue.</p><p><strong>Please note: Your memory of these faces will be tested 4 times during this experiment.</strong></p>",0,html-button-response,272,1542249,0.0-16.1-0.1,24830,List2A,white,woman,,,,,,,,
2900,"<img src=""portrait/WM1.jpg""style=""height:400px;""></img>",6,html-button-response,273,1546153,0.0-16.1-1.1,24830,List2A,white,woman,,TRUE,6,,,,,
null,CORRECT,,html-keyboard-response,274,1547658,0.0-16.1-2.1-0.1,24830,List2A,white,woman,,,,null,,,,
2309,"<img src=""portrait/BW1.jpg""style=""height:400px;""></img>",0,html-button-response,275,1549970,0.0-16.1-4.1,24830,List2A,white,woman,,TRUE,0,,,,,
null,CORRECT,,html-keyboard-response,276,1551473,0.0-16.1-5.1-0.1,24830,List2A,white,woman,,,,null,,,,
1845,"<img src=""portrait/WM2.jpg""style=""height:400px;""></img>",7,html-button-response,277,1553322,0.0-16.1-7.1,24830,List2A,white,woman,,TRUE,7,,,,,
null,CORRECT,,html-keyboard-response,278,1554826,0.0-16.1-8.1-0.1,24830,List2A,white,woman,,,,null,,,,
2019,"<img src=""portrait/WW1.jpg""style=""height:400px;""></img>",1,html-button-response,279,1556849,0.0-16.1-10.1,24830,List2A,white,woman,,TRUE,1,,,,,
null,CORRECT,,html-keyboard-response,280,1558353,0.0-16.1-11.1-0.1,24830,List2A,white,woman,,,,null,,,,
1901,"<img src=""portrait/WW2.jpg""style=""height:400px;""></img>",3,html-button-response,281,1560257,0.0-16.1-13.1,24830,List2A,white,woman,,TRUE,3,,,,,
null,CORRECT,,html-keyboard-response,282,1561760,0.0-16.1-14.1-0.1,24830,List2A,white,woman,,,,null,,,,
1654,"<img src=""portrait/BM2.jpg""style=""height:400px;""></img>",5,html-button-response,283,1563418,0.0-16.1-16.1,24830,List2A,white,woman,,TRUE,5,,,,,
null,CORRECT,,html-keyboard-response,284,1564920,0.0-16.1-17.1-0.1,24830,List2A,white,woman,,,,null,,,,
2749,"<img src=""portrait/BM1.jpg""style=""height:400px;""></img>",4,html-button-response,285,1567673,0.0-16.1-19.1,24830,List2A,white,woman,,TRUE,4,,,,,
null,CORRECT,,html-keyboard-response,286,1569178,0.0-16.1-20.1-0.1,24830,List2A,white,woman,,,,null,,,,
1724,"<img src=""portrait/BW2.jpg""style=""height:400px;""></img>",2,html-button-response,287,1570905,0.0-16.1-22.1,24830,List2A,white,woman,,TRUE,2,,,,,
null,CORRECT,,html-keyboard-response,288,1572408,0.0-16.1-23.1-0.1,24830,List2A,white,woman,,,,null,,,,
1646,<p>You got 8 out of 8 right first time. Press Continue.</p>,0,html-button-response,289,1574057,0.0-16.1-25.1,24830,List2A,white,woman,,,,,,,,
null,"<div style=""font-size:60px;"">+</div>",,html-keyboard-response,290,1575561,0.0-17.0-0.0,24830,List2A,white,woman,,,,null,,,,
null,"<img src=""stim_listA/flirt7.gif""style=""height:400px;""></stim_listA>",,html-keyboard-response,291,1577568,0.0-17.0-1.0,24830,List2A,white,woman,,,,null,,,,
null,is flirting with,,html-keyboard-response,292,1579570,0.0-17.0-2.0,24830,List2A,white,woman,,,,null,,,,
30116,,,survey-text,293,1609690,0.0-17.0-3.0,24830,List2A,white,woman,,,,,"{""Q0"":""ruth is flirting with kate""}","<img src=""stim_listA/flirt7.gif""style=""height:400px;""></stim_listA>",is flirting with,
null,"<div style=""font-size:60px;"">+</div>",,html-keyboard-response,294,1610193,0.0-17.0-0.1,24830,List2A,white,woman,,,,null,,,,
null,"<img src=""stim_listA/play4.gif""style=""height:400px;""></stim_listA>",,html-keyboard-response,295,1612197,0.0-17.0-1.1,24830,List2A,white,woman,,,,null,,,,
null,are playing with each other,,html-keyboard-response,296,1614198,0.0-17.0-2.1,24830,List2A,white,woman,,,,null,,,,
21688,,,survey-text,297,1635888,0.0-17.0-3.1,24830,List2A,white,woman,,,,,"{""Q0"":""beth and fred are playing with each other""}","<img src=""stim_listA/play4.gif""style=""height:400px;""></stim_listA>",are playing with each other,
null,"<div style=""font-size:60px;"">+</div>",,html-keyboard-response,298,1636390,0.0-17.0-0.2,24830,List2A,white,woman,,,,null,,,,
null,"<img src=""stim_listA/shout2.gif""style=""height:400px;""></stim_listA>",,html-keyboard-response,299,1638391,0.0-17.0-1.2,24830,List2A,white,woman,,,,null,,,,
null,are shouting at each other,,html-keyboard-response,300,1640392,0.0-17.0-2.2,24830,List2A,white,woman,,,,null,,,,
19487,,,survey-text,301,1659881,0.0-17.0-3.2,24830,List2A,white,woman,,,,,"{""Q0"":""jane and dave are shouting at each other""}","<img src=""stim_listA/shout2.gif""style=""height:400px;""></stim_listA>",are shouting at each other,
null,"<div style=""font-size:60px;"">+</div>",,html-keyboard-response,302,1660383,0.0-17.0-0.3,24830,List2A,white,woman,,,,null,,,,
null,"<img src=""stim_listA/kiss3.gif""style=""height:400px;""></stim_listA>",,html-keyboard-response,303,1662385,0.0-17.0-1.3,24830,List2A,white,woman,,,,null,,,,
null,is kissing,,html-keyboard-response,304,1664387,0.0-17.0-2.3,24830,List2A,white,woman,,,,null,,,,
16859,,,survey-text,305,1681249,0.0-17.0-3.3,24830,List2A,white,woman,,,,,"{""Q0"":""beth is kissing fred""}","<img src=""stim_listA/kiss3.gif""style=""height:400px;""></stim_listA>",is kissing,
null,"<div style=""font-size:60px;"">+</div>",,html-keyboard-response,306,1681752,0.0-17.0-0.4,24830,List2A,white,woman,,,,null,,,,
null,"<img src=""stim_listA/fight8.gif""style=""height:400px;""></stim_listA>",,html-keyboard-response,307,1683756,0.0-17.0-1.4,24830,List2A,white,woman,,,,null,,,,
null,are fighting each other,,html-keyboard-response,308,1685758,0.0-17.0-2.4,24830,List2A,white,woman,,,,null,,,,
18264,,,survey-text,309,1704024,0.0-17.0-3.4,24830,List2A,white,woman,,,,,"{""Q0"":""ruth and beth are fighting each other""}","<img src=""stim_listA/fight8.gif""style=""height:400px;""></stim_listA>",are fighting each other,
null,"<div style=""font-size:60px;"">+</div>",,html-keyboard-response,310,1704527,0.0-17.0-0.5,24830,List2A,white,woman,,,,null,,,,
null,"<img src=""stim_listA/dance8.gif""style=""height:400px;""></stim_listA>",,html-keyboard-response,311,1706529,0.0-17.0-1.5,24830,List2A,white,woman,,,,null,,,,
null,are dancing with each other,,html-keyboard-response,312,1708531,0.0-17.0-2.5,24830,List2A,white,woman,,,,null,,,,
21531,,,survey-text,313,1730064,0.0-17.0-3.5,24830,List2A,white,woman,,,,,"{""Q0"":""jane and beth are dancing with each other""}","<img src=""stim_listA/dance8.gif""style=""height:400px;""></stim_listA>",are dancing with each other,
null,"<div style=""font-size:60px;"">+</div>",,html-keyboard-response,314,1730568,0.0-17.0-0.6,24830,List2A,white,woman,,,,null,,,,
null,"<img src=""stim_listA/play1.gif""style=""height:400px;""></stim_listA>",,html-keyboard-response,315,1732571,0.0-17.0-1.6,24830,List2A,white,woman,,,,null,,,,
null,is playing with,,html-keyboard-response,316,1734573,0.0-17.0-2.6,24830,List2A,white,woman,,,,null,,,,
10812,,,survey-text,317,1745388,0.0-17.0-3.6,24830,List2A,white,woman,,,,,"{""Q0"":""jane is playing with dave""}","<img src=""stim_listA/play1.gif""style=""height:400px;""></stim_listA>",is playing with,
null,"<div style=""font-size:60px;"">+</div>",,html-keyboard-response,318,1745893,0.0-17.0-0.7,24830,List2A,white,woman,,,,null,,,,
null,"<img src=""stim_listA/shout6.gif""style=""height:400px;""></stim_listA>",,html-keyboard-response,319,1747896,0.0-17.0-1.7,24830,List2A,white,woman,,,,null,,,,
null,are shouting at each other,,html-keyboard-response,320,1749898,0.0-17.0-2.7,24830,List2A,white,woman,,,,null,,,,
17972,,,survey-text,321,1767872,0.0-17.0-3.7,24830,List2A,white,woman,,,,,"{""Q0"":""dave and mike are shouting at each other""}","<img src=""stim_listA/shout6.gif""style=""height:400px;""></stim_listA>",are shouting at each other,
null,"<div style=""font-size:60px;"">+</div>",,html-keyboard-response,322,1768375,0.0-17.0-0.8,24830,List2A,white,woman,,,,null,,,,
null,"<img src=""stim_listA/fight2.gif""style=""height:400px;""></stim_listA>",,html-keyboard-response,323,1770378,0.0-17.0-1.8,24830,List2A,white,woman,,,,null,,,,
null,are fighting each other,,html-keyboard-response,324,1772379,0.0-17.0-2.8,24830,List2A,white,woman,,,,null,,,,
19932,,,survey-text,325,1792312,0.0-17.0-3.8,24830,List2A,white,woman,,,,,"{""Q0"":""ruth and luke are fighting each other""}","<img src=""stim_listA/fight2.gif""style=""height:400px;""></stim_listA>",are fighting each other,
null,"<div style=""font-size:60px;"">+</div>",,html-keyboard-response,326,1792815,0.0-17.0-0.9,24830,List2A,white,woman,,,,null,,,,
null,"<img src=""stim_listA/flirt1.gif""style=""height:400px;""></stim_listA>",,html-keyboard-response,327,1794818,0.0-17.0-1.9,24830,List2A,white,woman,,,,null,,,,
null,is flirting with,,html-keyboard-response,328,1796820,0.0-17.0-2.9,24830,List2A,white,woman,,,,null,,,,
21706,,,survey-text,329,1818528,0.0-17.0-3.9,24830,List2A,white,woman,,,,,"{""Q0"":""jane is flirting with luke""}","<img src=""stim_listA/flirt1.gif""style=""height:400px;""></stim_listA>",is flirting with,
null,"<div style=""font-size:60px;"">+</div>",,html-keyboard-response,330,1819031,0.0-17.0-0.10,24830,List2A,white,woman,,,,null,,,,
null,"<img src=""stim_listA/kiss7.gif""style=""height:400px;""></stim_listA>",,html-keyboard-response,331,1821034,0.0-17.0-1.10,24830,List2A,white,woman,,,,null,,,,
null,is kissing,,html-keyboard-response,332,1823035,0.0-17.0-2.10,24830,List2A,white,woman,,,,null,,,,
9731,,,survey-text,333,1832768,0.0-17.0-3.10,24830,List2A,white,woman,,,,,"{""Q0"":""beth is kissing ruth""}","<img src=""stim_listA/kiss7.gif""style=""height:400px;""></stim_listA>",is kissing,
null,"<div style=""font-size:60px;"">+</div>",,html-keyboard-response,334,1833270,0.0-17.0-0.11,24830,List2A,white,woman,,,,null,,,,
null,"<img src=""stim_listA/fight3.gif""style=""height:400px;""></stim_listA>",,html-keyboard-response,335,1835274,0.0-17.0-1.11,24830,List2A,white,woman,,,,null,,,,
null,is fighting,,html-keyboard-response,336,1837276,0.0-17.0-2.11,24830,List2A,white,woman,,,,null,,,,
16761,,,survey-text,337,1854039,0.0-17.0-3.11,24830,List2A,white,woman,,,,,"{""Q0"":""kate is fighting mike""}","<img src=""stim_listA/fight3.gif""style=""height:400px;""></stim_listA>",is fighting,
null,"<div style=""font-size:60px;"">+</div>",,html-keyboard-response,338,1854543,0.0-17.0-0.12,24830,List2A,white,woman,,,,null,,,,
null,"<img src=""stim_listA/kiss2.gif""style=""height:400px;""></stim_listA>",,html-keyboard-response,339,1856545,0.0-17.0-1.12,24830,List2A,white,woman,,,,null,,,,
null,are kissing each other,,html-keyboard-response,340,1858547,0.0-17.0-2.12,24830,List2A,white,woman,,,,null,,,,
21731,,,survey-text,341,1880280,0.0-17.0-3.12,24830,List2A,white,woman,,,,,"{""Q0"":""jane and dave are kissing each other""}","<img src=""stim_listA/kiss2.gif""style=""height:400px;""></stim_listA>",are kissing each other,
null,"<div style=""font-size:60px;"">+</div>",,html-keyboard-response,342,1880783,0.0-17.0-0.13,24830,List2A,white,woman,,,,null,,,,
null,"<img src=""stim_listA/dance2.gif""style=""height:400px;""></stim_listA>",,html-keyboard-response,343,1882786,0.0-17.0-1.13,24830,List2A,white,woman,,,,null,,,,
null,are dancing with each other,,html-keyboard-response,344,1884787,0.0-17.0-2.13,24830,List2A,white,woman,,,,null,,,,
20104,,,survey-text,345,1904894,0.0-17.0-3.13,24830,List2A,white,woman,,,,,"{""Q0"":""ruth and dave are dancing with each other""}","<img src=""stim_listA/dance2.gif""style=""height:400px;""></stim_listA>",are dancing with each other,
null,"<div style=""font-size:60px;"">+</div>",,html-keyboard-response,346,1905396,0.0-17.0-0.14,24830,List2A,white,woman,,,,null,,,,
null,"<img src=""stim_listA/touch1.gif""style=""height:400px;""></stim_listA>",,html-keyboard-response,347,1907398,0.0-17.0-1.14,24830,List2A,white,woman,,,,null,,,,
null,is touching,,html-keyboard-response,348,1909400,0.0-17.0-2.14,24830,List2A,white,woman,,,,null,,,,
16710,,,survey-text,349,1926112,0.0-17.0-3.14,24830,List2A,white,woman,,,,,"{""Q0"":""jane is touching dave""}","<img src=""stim_listA/touch1.gif""style=""height:400px;""></stim_listA>",is touching,
null,"<div style=""font-size:60px;"">+</div>",,html-keyboard-response,350,1926616,0.0-17.0-0.15,24830,List2A,white,woman,,,,null,,,,
null,"<img src=""stim_listA/flirt2.gif""style=""height:400px;""></stim_listA>",,html-keyboard-response,351,1928619,0.0-17.0-1.15,24830,List2A,white,woman,,,,null,,,,
null,are flirting with each other,,html-keyboard-response,352,1930620,0.0-17.0-2.15,24830,List2A,white,woman,,,,null,,,,
23018,,,survey-text,353,1953641,0.0-17.0-3.15,24830,List2A,white,woman,,,,,"{""Q0"":""ruth and dave are flirthing with each other""}","<img src=""stim_listA/flirt2.gif""style=""height:400px;""></stim_listA>",are flirting with each other,
null,"<div style=""font-size:60px;"">+</div>",,html-keyboard-response,354,1954143,0.0-17.0-0.16,24830,List2A,white,woman,,,,null,,,,
null,"<img src=""stim_listA/shout4.gif""style=""height:400px;""></stim_listA>",,html-keyboard-response,355,1956146,0.0-17.0-1.16,24830,List2A,white,woman,,,,null,,,,
null,are shouting at each other,,html-keyboard-response,356,1958148,0.0-17.0-2.16,24830,List2A,white,woman,,,,null,,,,
20665,,,survey-text,357,1978815,0.0-17.0-3.16,24830,List2A,white,woman,,,,,"{""Q0"":""mike and kate are shouting at each other""}","<img src=""stim_listA/shout4.gif""style=""height:400px;""></stim_listA>",are shouting at each other,
null,"<div style=""font-size:60px;"">+</div>",,html-keyboard-response,358,1979319,0.0-17.0-0.17,24830,List2A,white,woman,,,,null,,,,
null,"<img src=""stim_listA/shout3.gif""style=""height:400px;""></stim_listA>",,html-keyboard-response,359,1981324,0.0-17.0-1.17,24830,List2A,white,woman,,,,null,,,,
null,is shouting at,,html-keyboard-response,360,1983327,0.0-17.0-2.17,24830,List2A,white,woman,,,,null,,,,
19390,,,survey-text,361,2002719,0.0-17.0-3.17,24830,List2A,white,woman,,,,,"{""Q0"":""beth is shouting at fred""}","<img src=""stim_listA/shout3.gif""style=""height:400px;""></stim_listA>",is shouting at,
null,"<div style=""font-size:60px;"">+</div>",,html-keyboard-response,362,2003223,0.0-17.0-0.18,24830,List2A,white,woman,,,,null,,,,
null,"<img src=""stim_listA/marry6.gif""style=""height:400px;""></stim_listA>",,html-keyboard-response,363,2005226,0.0-17.0-1.18,24830,List2A,white,woman,,,,null,,,,
null,are marrying each other,,html-keyboard-response,364,2007228,0.0-17.0-2.18,24830,List2A,white,woman,,,,null,,,,
19121,,,survey-text,365,2026350,0.0-17.0-3.18,24830,List2A,white,woman,,,,,"{""Q0"":""mike and luke are marrying each other""}","<img src=""stim_listA/marry6.gif""style=""height:400px;""></stim_listA>",are marrying each other,
null,"<div style=""font-size:60px;"">+</div>",,html-keyboard-response,366,2026853,0.0-17.0-0.19,24830,List2A,white,woman,,,,null,,,,
null,"<img src=""stim_listA/fight7.gif""style=""height:400px;""></stim_listA>",,html-keyboard-response,367,2028857,0.0-17.0-1.19,24830,List2A,white,woman,,,,null,,,,
null,is fighting,,html-keyboard-response,368,2030860,0.0-17.0-2.19,24830,List2A,white,woman,,,,null,,,,
10296,,,survey-text,369,2041159,0.0-17.0-3.19,24830,List2A,white,woman,,,,,"{""Q0"":""jane is fighting kate""}","<img src=""stim_listA/fight7.gif""style=""height:400px;""></stim_listA>",is fighting,
10293,"<img src='img/portrait_matrix_list2.jpg' style='width:900px;height:500px;''></img><p>If you have memorised all the portraits and names and are ready to start, press Continue.</p><p><strong>Please note: Your memory of these faces will be tested 4 times during this experiment.</strong></p>",0,html-button-response,370,2051456,0.0-18.0-0.0,24830,List2A,white,woman,,,,,,,,
3554,"<img src=""portrait/WM1.jpg""style=""height:400px;""></img>",6,html-button-response,371,2056015,0.0-18.0-1.0,24830,List2A,white,woman,,TRUE,6,,,,,
null,CORRECT,,html-keyboard-response,372,2057518,0.0-18.0-2.0-0.0,24830,List2A,white,woman,,,,null,,,,
2440,"<img src=""portrait/WW1.jpg""style=""height:400px;""></img>",1,html-button-response,373,2059960,0.0-18.0-4.0,24830,List2A,white,woman,,TRUE,1,,,,,
null,CORRECT,,html-keyboard-response,374,2061463,0.0-18.0-5.0-0.0,24830,List2A,white,woman,,,,null,,,,
1860,"<img src=""portrait/BM2.jpg""style=""height:400px;""></img>",5,html-button-response,375,2063327,0.0-18.0-7.0,24830,List2A,white,woman,,TRUE,5,,,,,
null,CORRECT,,html-keyboard-response,376,2064831,0.0-18.0-8.0-0.0,24830,List2A,white,woman,,,,null,,,,
2397,"<img src=""portrait/WM2.jpg""style=""height:400px;""></img>",7,html-button-response,377,2067232,0.0-18.0-10.0,24830,List2A,white,woman,,TRUE,7,,,,,
null,CORRECT,,html-keyboard-response,378,2068735,0.0-18.0-11.0-0.0,24830,List2A,white,woman,,,,null,,,,
1935,"<img src=""portrait/BM1.jpg""style=""height:400px;""></img>",4,html-button-response,379,2070673,0.0-18.0-13.0,24830,List2A,white,woman,,TRUE,4,,,,,
null,CORRECT,,html-keyboard-response,380,2072177,0.0-18.0-14.0-0.0,24830,List2A,white,woman,,,,null,,,,
2440,"<img src=""portrait/BW2.jpg""style=""height:400px;""></img>",2,html-button-response,381,2074623,0.0-18.0-16.0,24830,List2A,white,woman,,TRUE,2,,,,,
null,CORRECT,,html-keyboard-response,382,2076126,0.0-18.0-17.0-0.0,24830,List2A,white,woman,,,,null,,,,
1669,"<img src=""portrait/BW1.jpg""style=""height:400px;""></img>",0,html-button-response,383,2077799,0.0-18.0-19.0,24830,List2A,white,woman,,TRUE,0,,,,,
null,CORRECT,,html-keyboard-response,384,2079303,0.0-18.0-20.0-0.0,24830,List2A,white,woman,,,,null,,,,
1805,"<img src=""portrait/WW2.jpg""style=""height:400px;""></img>",3,html-button-response,385,2081112,0.0-18.0-22.0,24830,List2A,white,woman,,TRUE,3,,,,,
null,CORRECT,,html-keyboard-response,386,2082616,0.0-18.0-23.0-0.0,24830,List2A,white,woman,,,,null,,,,
2164,<p>You got 8 out of 8 right first time. Press Continue.</p>,0,html-button-response,387,2084783,0.0-18.0-25.0,24830,List2A,white,woman,,,,,,,,
null,"<div style=""font-size:60px;"">+</div>",,html-keyboard-response,388,2086287,0.0-19.0-0.0,24830,List2A,white,woman,,,,null,,,,
null,"<img src=""stim_listA/kiss4.gif""style=""height:400px;""></stim_listA>",,html-keyboard-response,389,2088291,0.0-19.0-1.0,24830,List2A,white,woman,,,,null,,,,
null,are kissing each other,,html-keyboard-response,390,2090294,0.0-19.0-2.0,24830,List2A,white,woman,,,,null,,,,
17566,,,survey-text,391,2107862,0.0-19.0-3.0,24830,List2A,white,woman,,,,,"{""Q0"":""mike and kate are kissing each other""}","<img src=""stim_listA/kiss4.gif""style=""height:400px;""></stim_listA>",are kissing each other,
null,"<div style=""font-size:60px;"">+</div>",,html-keyboard-response,392,2108365,0.0-19.0-0.1,24830,List2A,white,woman,,,,null,,,,
null,"<img src=""stim_listA/flirt4.gif""style=""height:400px;""></stim_listA>",,html-keyboard-response,393,2110370,0.0-19.0-1.1,24830,List2A,white,woman,,,,null,,,,
null,are flirting with each other,,html-keyboard-response,394,2112371,0.0-19.0-2.1,24830,List2A,white,woman,,,,null,,,,
21153,,,survey-text,395,2133526,0.0-19.0-3.1,24830,List2A,white,woman,,,,,"{""Q0"":""mike and beth are flirting with each other""}","<img src=""stim_listA/flirt4.gif""style=""height:400px;""></stim_listA>",are flirting with each other,
null,"<div style=""font-size:60px;"">+</div>",,html-keyboard-response,396,2134028,0.0-19.0-0.2,24830,List2A,white,woman,,,,null,,,,
null,"<img src=""stim_listA/touch6.gif""style=""height:400px;""></stim_listA>",,html-keyboard-response,397,2136032,0.0-19.0-1.2,24830,List2A,white,woman,,,,null,,,,
null,are touching each other,,html-keyboard-response,398,2138034,0.0-19.0-2.2,24830,List2A,white,woman,,,,null,,,,
20306,,,survey-text,399,2158343,0.0-19.0-3.2,24830,List2A,white,woman,,,,,"{""Q0"":""luke and fred are touching each other""}","<img src=""stim_listA/touch6.gif""style=""height:400px;""></stim_listA>",are touching each other,
null,"<div style=""font-size:60px;"">+</div>",,html-keyboard-response,400,2158846,0.0-19.0-0.3,24830,List2A,white,woman,,,,null,,,,
null,"<img src=""stim_listA/argue3.gif""style=""height:400px;""></stim_listA>",,html-keyboard-response,401,2160849,0.0-19.0-1.3,24830,List2A,white,woman,,,,null,,,,
null,is arguing with,,html-keyboard-response,402,2162852,0.0-19.0-2.3,24830,List2A,white,woman,,,,null,,,,
21024,,,survey-text,403,2183879,0.0-19.0-3.3,24830,List2A,white,woman,,,,,"{""Q0"":""mike is arguing with beth""}","<img src=""stim_listA/argue3.gif""style=""height:400px;""></stim_listA>",is arguing with,
null,"<div style=""font-size:60px;"">+</div>",,html-keyboard-response,404,2184382,0.0-19.0-0.4,24830,List2A,white,woman,,,,null,,,,
null,"<img src=""stim_listA/kiss5.gif""style=""height:400px;""></stim_listA>",,html-keyboard-response,405,2186387,0.0-19.0-1.4,24830,List2A,white,woman,,,,null,,,,
null,is kissing,,html-keyboard-response,406,2188388,0.0-19.0-2.4,24830,List2A,white,woman,,,,null,,,,
15800,,,survey-text,407,2204191,0.0-19.0-3.4,24830,List2A,white,woman,,,,,"{""Q0"":""luke is kissing fred""}","<img src=""stim_listA/kiss5.gif""style=""height:400px;""></stim_listA>",is kissing,
null,"<div style=""font-size:60px;"">+</div>",,html-keyboard-response,408,2204694,0.0-19.0-0.5,24830,List2A,white,woman,,,,null,,,,
null,"<img src=""stim_listA/talk6.gif""style=""height:400px;""></stim_listA>",,html-keyboard-response,409,2206696,0.0-19.0-1.5,24830,List2A,white,woman,,,,null,,,,
null,are talking to each other,,html-keyboard-response,410,2208699,0.0-19.0-2.5,24830,List2A,white,woman,,,,null,,,,
18321,,,survey-text,411,2227022,0.0-19.0-3.5,24830,List2A,white,woman,,,,,"{""Q0"":""fred and dave are talking to each other""}","<img src=""stim_listA/talk6.gif""style=""height:400px;""></stim_listA>",are talking to each other,
null,"<div style=""font-size:60px;"">+</div>",,html-keyboard-response,412,2227525,0.0-19.0-0.6,24830,List2A,white,woman,,,,null,,,,
null,"<img src=""stim_listA/shout1.gif""style=""height:400px;""></stim_listA>",,html-keyboard-response,413,2229529,0.0-19.0-1.6,24830,List2A,white,woman,,,,null,,,,
null,is shouting at,,html-keyboard-response,414,2231534,0.0-19.0-2.6,24830,List2A,white,woman,,,,null,,,,
19046,,,survey-text,415,2250583,0.0-19.0-3.6,24830,List2A,white,woman,,,,,"{""Q0"":""luke is shouting at ruth""}","<img src=""stim_listA/shout1.gif""style=""height:400px;""></stim_listA>",is shouting at,
null,"<div style=""font-size:60px;"">+</div>",,html-keyboard-response,416,2251085,0.0-19.0-0.7,24830,List2A,white,woman,,,,null,,,,
null,"<img src=""stim_listA/argue6.gif""style=""height:400px;""></stim_listA>",,html-keyboard-response,417,2253088,0.0-19.0-1.7,24830,List2A,white,woman,,,,null,,,,
null,are arguing with each other,,html-keyboard-response,418,2255092,0.0-19.0-2.7,24830,List2A,white,woman,,,,null,,,,
26192,,,survey-text,419,2281286,0.0-19.0-3.7,24830,List2A,white,woman,,,,,"{""Q0"":""mike and luke are arguing with each other""}","<img src=""stim_listA/argue6.gif""style=""height:400px;""></stim_listA>",are arguing with each other,
null,"<div style=""font-size:60px;"">+</div>",,html-keyboard-response,420,2281789,0.0-19.0-0.8,24830,List2A,white,woman,,,,null,,,,
null,"<img src=""stim_listA/flirt6.gif""style=""height:400px;""></stim_listA>",,html-keyboard-response,421,2283792,0.0-19.0-1.8,24830,List2A,white,woman,,,,null,,,,
null,are flirting with each other,,html-keyboard-response,422,2285795,0.0-19.0-2.8,24830,List2A,white,woman,,,,null,,,,
20025,,,survey-text,423,2305823,0.0-19.0-3.8,24830,List2A,white,woman,,,,,"{""Q0"":""fred and dave are flirting with each other""}","<img src=""stim_listA/flirt6.gif""style=""height:400px;""></stim_listA>",are flirting with each other,
null,"<div style=""font-size:60px;"">+</div>",,html-keyboard-response,424,2306326,0.0-19.0-0.9,24830,List2A,white,woman,,,,null,,,,
null,"<img src=""stim_listA/marry7.gif""style=""height:400px;""></stim_listA>",,html-keyboard-response,425,2308328,0.0-19.0-1.9,24830,List2A,white,woman,,,,null,,,,
null,is marrying,,html-keyboard-response,426,2310330,0.0-19.0-2.9,24830,List2A,white,woman,,,,null,,,,
15275,,,survey-text,427,2325606,0.0-19.0-3.9,24830,List2A,white,woman,,,,,"{""Q0"":""beth is marrying jane""}","<img src=""stim_listA/marry7.gif""style=""height:400px;""></stim_listA>",is marrying,
null,"<div style=""font-size:60px;"">+</div>",,html-keyboard-response,428,2326108,0.0-19.0-0.10,24830,List2A,white,woman,,,,null,,,,
null,"<img src=""stim_listA/argue7.gif""style=""height:400px;""></stim_listA>",,html-keyboard-response,429,2328111,0.0-19.0-1.10,24830,List2A,white,woman,,,,null,,,,
null,is arguing with,,html-keyboard-response,430,2330113,0.0-19.0-2.10,24830,List2A,white,woman,,,,null,,,,
17738,,,survey-text,431,2347854,0.0-19.0-3.10,24830,List2A,white,woman,,,,,"{""Q0"":""jane is arguing with beth""}","<img src=""stim_listA/argue7.gif""style=""height:400px;""></stim_listA>",is arguing with,
null,"<div style=""font-size:60px;"">+</div>",,html-keyboard-response,432,2348356,0.0-19.0-0.11,24830,List2A,white,woman,,,,null,,,,
null,"<img src=""stim_listA/marry8.gif""style=""height:400px;""></stim_listA>",,html-keyboard-response,433,2350363,0.0-19.0-1.11,24830,List2A,white,woman,,,,null,,,,
null,are marrying each other,,html-keyboard-response,434,2352365,0.0-19.0-2.11,24830,List2A,white,woman,,,,null,,,,
19396,,,survey-text,435,2371762,0.0-19.0-3.11,24830,List2A,white,woman,,,,,"{""Q0"":""ruth and kate are marrying each other""}","<img src=""stim_listA/marry8.gif""style=""height:400px;""></stim_listA>",are marrying each other,
null,"<div style=""font-size:60px;"">+</div>",,html-keyboard-response,436,2372264,0.0-19.0-0.12,24830,List2A,white,woman,,,,null,,,,
null,"<img src=""stim_listA/play6.gif""style=""height:400px;""></stim_listA>",,html-keyboard-response,437,2374267,0.0-19.0-1.12,24830,List2A,white,woman,,,,null,,,,
null,are playing with each other,,html-keyboard-response,438,2376268,0.0-19.0-2.12,24830,List2A,white,woman,,,,null,,,,
21168,,,survey-text,439,2397439,0.0-19.0-3.12,24830,List2A,white,woman,,,,,"{""Q0"":""luke and fred are playing with each other""}","<img src=""stim_listA/play6.gif""style=""height:400px;""></stim_listA>",are playing with each other,
null,"<div style=""font-size:60px;"">+</div>",,html-keyboard-response,440,2397942,0.0-19.0-0.13,24830,List2A,white,woman,,,,null,,,,
null,"<img src=""stim_listA/marry1.gif""style=""height:400px;""></stim_listA>",,html-keyboard-response,441,2399945,0.0-19.0-1.13,24830,List2A,white,woman,,,,null,,,,
null,is marrying,,html-keyboard-response,442,2401947,0.0-19.0-2.13,24830,List2A,white,woman,,,,null,,,,
16649,,,survey-text,443,2418598,0.0-19.0-3.13,24830,List2A,white,woman,,,,,"{""Q0"":""ruth is marrying dave""}","<img src=""stim_listA/marry1.gif""style=""height:400px;""></stim_listA>",is marrying,
null,"<div style=""font-size:60px;"">+</div>",,html-keyboard-response,444,2419101,0.0-19.0-0.14,24830,List2A,white,woman,,,,null,,,,
null,"<img src=""stim_listA/shout7.gif""style=""height:400px;""></stim_listA>",,html-keyboard-response,445,2421105,0.0-19.0-1.14,24830,List2A,white,woman,,,,null,,,,
null,is shouting at,,html-keyboard-response,446,2423107,0.0-19.0-2.14,24830,List2A,white,woman,,,,null,,,,
16088,,,survey-text,447,2439197,0.0-19.0-3.14,24830,List2A,white,woman,,,,,"{""Q0"":""ruth is shouting at beth""}","<img src=""stim_listA/shout7.gif""style=""height:400px;""></stim_listA>",is shouting at,
null,"<div style=""font-size:60px;"">+</div>",,html-keyboard-response,448,2439699,0.0-19.0-0.15,24830,List2A,white,woman,,,,null,,,,
null,"<img src=""stim_listA/argue8.gif""style=""height:400px;""></stim_listA>",,html-keyboard-response,449,2441703,0.0-19.0-1.15,24830,List2A,white,woman,,,,null,,,,
null,are arguing with each other,,html-keyboard-response,450,2443705,0.0-19.0-2.15,24830,List2A,white,woman,,,,null,,,,
19922,,,survey-text,451,2463629,0.0-19.0-3.15,24830,List2A,white,woman,,,,,"{""Q0"":""ruth and kate are arguing with each other""}","<img src=""stim_listA/argue8.gif""style=""height:400px;""></stim_listA>",are arguing with each other,
null,"<div style=""font-size:60px;"">+</div>",,html-keyboard-response,452,2464132,0.0-19.0-0.16,24830,List2A,white,woman,,,,null,,,,
null,"<img src=""stim_listA/marry4.gif""style=""height:400px;""></stim_listA>",,html-keyboard-response,453,2466136,0.0-19.0-1.16,24830,List2A,white,woman,,,,null,,,,
null,are marrying each other,,html-keyboard-response,454,2468139,0.0-19.0-2.16,24830,List2A,white,woman,,,,null,,,,
16663,,,survey-text,455,2484805,0.0-19.0-3.16,24830,List2A,white,woman,,,,,"{""Q0"":""fred and kate are marrying each other""}","<img src=""stim_listA/marry4.gif""style=""height:400px;""></stim_listA>",are marrying each other,
null,"<div style=""font-size:60px;"">+</div>",,html-keyboard-response,456,2485307,0.0-19.0-0.17,24830,List2A,white,woman,,,,null,,,,
null,"<img src=""stim_listA/touch5.gif""style=""height:400px;""></stim_listA>",,html-keyboard-response,457,2487311,0.0-19.0-1.17,24830,List2A,white,woman,,,,null,,,,
null,is touching,,html-keyboard-response,458,2489313,0.0-19.0-2.17,24830,List2A,white,woman,,,,null,,,,
16233,,,survey-text,459,2505550,0.0-19.0-3.17,24830,List2A,white,woman,,,,,"{""Q0"":""dave is touching mike""}","<img src=""stim_listA/touch5.gif""style=""height:400px;""></stim_listA>",is touching,
null,"<div style=""font-size:60px;"">+</div>",,html-keyboard-response,460,2506052,0.0-19.0-0.18,24830,List2A,white,woman,,,,null,,,,
null,"<img src=""stim_listA/marry2.gif""style=""height:400px;""></stim_listA>",,html-keyboard-response,461,2508055,0.0-19.0-1.18,24830,List2A,white,woman,,,,null,,,,
null,are marrying each other,,html-keyboard-response,462,2510058,0.0-19.0-2.18,24830,List2A,white,woman,,,,null,,,,
19504,,,survey-text,463,2529565,0.0-19.0-3.18,24830,List2A,white,woman,,,,,"{""Q0"":""jane and luke are marrying each other""}","<img src=""stim_listA/marry2.gif""style=""height:400px;""></stim_listA>",are marrying each other,
null,"<div style=""font-size:60px;"">+</div>",,html-keyboard-response,464,2530068,0.0-19.0-0.19,24830,List2A,white,woman,,,,null,,,,
null,"<img src=""stim_listA/talk4.gif""style=""height:400px;""></stim_listA>",,html-keyboard-response,465,2532072,0.0-19.0-1.19,24830,List2A,white,woman,,,,null,,,,
null,are talking to each other,,html-keyboard-response,466,2534074,0.0-19.0-2.19,24830,List2A,white,woman,,,,null,,,,
17201,,,survey-text,467,2551277,0.0-19.0-3.19,24830,List2A,white,woman,,,,,"{""Q0"":""beth and mike are talking to each other""}","<img src=""stim_listA/talk4.gif""style=""height:400px;""></stim_listA>",are talking to each other,
3054,<p>Thank you for completing that task.</p><p>The final part of this session is a short questionnaire.</p><p>Press Continue.</p>,0,html-button-response,468,2554333,0.0-20.0,24830,List2A,white,woman,,,,,,,,
35425,,,survey-text,469,2590763,0.0-21.0,24830,List2A,white,woman,,,,,"{""Q0"":""54"",""Q1"":""English"",""Q2"":""English"",""Q3"":""UK"",""Q4"":""White"",""Q5"":""Female""}",,,demographics
7136,,,survey-likert,470,2597904,0.0-22.0,24830,List2A,white,woman,,,,,"{""Q0"":4}",,,likert_ESS
22569,,,survey-likert,471,2620478,0.0-23.0,24830,List2A,white,woman,,,,,"{""Q0"":3}",,,likert_NSSAL_Q1
3403,,,survey-likert,472,2623887,0.0-24.0,24830,List2A,white,woman,,,,,"{""Q0"":3}",,,likert_NSSAL_Q2
3785,,,survey-likert,473,2627678,0.0-25.0,24830,List2A,white,woman,,,,,"{""Q0"":4}",,,likert_CGRS_Q1
2674,,,survey-likert,474,2630357,0.0-26.0,24830,List2A,white,woman,,,,,"{""Q0"":4}",,,likert_CGRS_Q2
10428,,,survey-likert,475,2640790,0.0-27.0,24830,List2A,white,woman,,,,,"{""Q0"":4}",,,likert_CGRS_Q3
17267,,,survey-text,476,2658060,0.0-28.0,24830,List2A,white,woman,,,,,"{""Q0"":""ccc""}",,,worker_id
40084,,,external-html,477,2698261,0.0-29.0,24830,List2A,white,woman,debrief.html,,,,,,,
