rt,stimulus,button_pressed,trial_type,trial_index,time_elapsed,internal_node_id,subject,list,ppt_race,ppt_gender,url,first_guess,correct,key_press,responses,image_type,phrase_type,test_part
4748,Welcome to the experiment. Press Continue to begin.,0,html-button-response,0,4754,0.0-0.0,24950,List2A,white,man,,,,,,,,
67700,,,external-html,1,74374,0.0-1.0,24950,List2A,white,man,consent.html,,,,,,,
11241,"<p>On the next page, you will see portraits of 8 people and their names.</p><p>Your first task is to take a few minutes to memorise the names of these people.</p><p>You will have to recall their names during the rest of the experiment, so it is</p><p>essential that you try to memorise these people and their names as best as you can.</p><br><p><strong>You will then be tested on your memory of these names and portraits.</strong></p><br><p>The experiment will start after you have completed this memory test.</p><br><p>Ready?</p>",0,html-button-response,2,85617,0.0-2.0,24950,List2A,white,man,,,,,,,,
45879,"<img src='img/portrait_matrix_list2.jpg' style='width:900px;height:500px;''></img><p>If you have memorised all the portraits and names and are ready to start, press Continue.</p><p><strong>Please note: Your memory of these faces will be tested 4 times during this experiment.</strong></p>",0,html-button-response,3,132508,0.0-3.0-0.0,24950,List2A,white,man,,,,,,,,
5728,"<img src=""portrait/BW1.jpg""style=""height:400px;""></img>",0,html-button-response,4,139245,0.0-3.0-1.0,24950,List2A,white,man,,TRUE,0,,,,,
null,CORRECT,,html-keyboard-response,5,140760,0.0-3.0-2.0-0.0,24950,List2A,white,man,,,,null,,,,
3484,"<img src=""portrait/WM2.jpg""style=""height:400px;""></img>",7,html-button-response,6,144247,0.0-3.0-4.0,24950,List2A,white,man,,TRUE,7,,,,,
null,CORRECT,,html-keyboard-response,7,145781,0.0-3.0-5.0-0.0,24950,List2A,white,man,,,,null,,,,
2292,"<img src=""portrait/BM1.jpg""style=""height:400px;""></img>",4,html-button-response,8,148077,0.0-3.0-7.0,24950,List2A,white,man,,TRUE,4,,,,,
null,CORRECT,,html-keyboard-response,9,149588,0.0-3.0-8.0-0.0,24950,List2A,white,man,,,,null,,,,
2818,"<img src=""portrait/BM2.jpg""style=""height:400px;""></img>",5,html-button-response,10,152408,0.0-3.0-10.0,24950,List2A,white,man,,TRUE,5,,,,,
null,CORRECT,,html-keyboard-response,11,153937,0.0-3.0-11.0-0.0,24950,List2A,white,man,,,,null,,,,
1848,"<img src=""portrait/WW2.jpg""style=""height:400px;""></img>",3,html-button-response,12,155787,0.0-3.0-13.0,24950,List2A,white,man,,TRUE,3,,,,,
null,CORRECT,,html-keyboard-response,13,157334,0.0-3.0-14.0-0.0,24950,List2A,white,man,,,,null,,,,
1632,"<img src=""portrait/WM1.jpg""style=""height:400px;""></img>",6,html-button-response,14,158968,0.0-3.0-16.0,24950,List2A,white,man,,TRUE,6,,,,,
null,CORRECT,,html-keyboard-response,15,160504,0.0-3.0-17.0-0.0,24950,List2A,white,man,,,,null,,,,
5847,"<img src=""portrait/BW2.jpg""style=""height:400px;""></img>",2,html-button-response,16,166353,0.0-3.0-19.0,24950,List2A,white,man,,TRUE,2,,,,,
null,CORRECT,,html-keyboard-response,17,167881,0.0-3.0-20.0-0.0,24950,List2A,white,man,,,,null,,,,
1962,"<img src=""portrait/WW1.jpg""style=""height:400px;""></img>",1,html-button-response,18,169846,0.0-3.0-22.0,24950,List2A,white,man,,TRUE,1,,,,,
null,CORRECT,,html-keyboard-response,19,171378,0.0-3.0-23.0-0.0,24950,List2A,white,man,,,,null,,,,
7144,<p>You got 8 out of 8 right first time. Press Continue.</p>,0,html-button-response,20,178523,0.0-3.0-25.0,24950,List2A,white,man,,,,,,,,
32061,"<p>In this experiment, you will view photographs of the people from the memory game interacting.</p><p>By using the <strong>exact</strong> phrase given <i>after</i> the photograph appears and recalling the correct names of the people in the photographs, form a sentence describing the interaction. You do not need to capitalise names.</p><p>Type your answer in the space provided. Please complete every sentence before moving onto the next trial.</p><p>You will only have a few seconds to memorise each given photograph and phrase before you can respond, so try your best to focus.</p><p>An example is given below. Press 'Continue' when you are ready.</p><img src='img/speaking_example.jpg' style='width:800px;height:460px;''></img>",0,html-button-response,21,211601,0.0-4.0,24950,List2A,white,man,,,,,,,,
2198,"<p>Before the experiment starts, you will watch two example trials. Press 'Continue'.</p>",0,html-button-response,22,214813,0.0-5.0,24950,List2A,white,man,,,,,,,,
null,<img src='img/meet_eg.gif' style='height:400px;''></img>,,html-keyboard-response,23,217829,0.0-6.0,24950,List2A,white,man,,,,null,,,,
null,<p>is meeting</p>,,html-keyboard-response,24,219847,0.0-7.0,24950,List2A,white,man,,,,null,,,,
4598,<p><b>Answer:</b> jane is meeting ruth</p>,0,html-button-response,25,224447,0.0-8.0,24950,List2A,white,man,,,,,,,,
null,<img src='img/look_eg.gif' style='height:400px;''></img>,,html-keyboard-response,26,227458,0.0-9.0,24950,List2A,white,man,,,,null,,,,
null,<p>are looking at each other</p>,,html-keyboard-response,27,229460,0.0-10.0,24950,List2A,white,man,,,,null,,,,
1004,<p><b>Answer:</b> fred and mike are looking at each other</p>,0,html-button-response,28,230465,0.0-11.0,24950,List2A,white,man,,,,,,,,
2234,"<p>Ready to start the experiment?</p><br><p><strong>Remember to describe the picture using a full sentence,</strong></p><p><strong>that combines the names of the people with the <i>exact</i> phrase given.</strong></p><p><strong>To receive full payment you must do this correctly.</strong></p><p><strong> You do not need to capitalise names or use punctuation.</strong></p><br><p>Press 'Continue' to begin.</p>",0,html-button-response,29,233711,0.0-12.0,24950,List2A,white,man,,,,,,,,
null,"<div style=""font-size:60px;"">+</div>",,html-keyboard-response,30,235223,0.0-13.0-0.0,24950,List2A,white,man,,,,null,,,,
null,"<img src=""stim_listA/dance2.gif""style=""height:400px;""></stim_listA>",,html-keyboard-response,31,237227,0.0-13.0-1.0,24950,List2A,white,man,,,,null,,,,
null,are dancing with each other,,html-keyboard-response,32,239230,0.0-13.0-2.0,24950,List2A,white,man,,,,null,,,,
24142,,,survey-text,33,263376,0.0-13.0-3.0,24950,List2A,white,man,,,,,"{""Q0"":""dave is dancing with ruth""}","<img src=""stim_listA/dance2.gif""style=""height:400px;""></stim_listA>",are dancing with each other,
null,"<div style=""font-size:60px;"">+</div>",,html-keyboard-response,34,263890,0.0-13.0-0.1,24950,List2A,white,man,,,,null,,,,
null,"<img src=""stim_listA/argue2.gif""style=""height:400px;""></stim_listA>",,html-keyboard-response,35,265894,0.0-13.0-1.1,24950,List2A,white,man,,,,null,,,,
null,are arguing with each other,,html-keyboard-response,36,267904,0.0-13.0-2.1,24950,List2A,white,man,,,,null,,,,
11575,,,survey-text,37,279481,0.0-13.0-3.1,24950,List2A,white,man,,,,,"{""Q0"":""luke are arguing with jane""}","<img src=""stim_listA/argue2.gif""style=""height:400px;""></stim_listA>",are arguing with each other,
null,"<div style=""font-size:60px;"">+</div>",,html-keyboard-response,38,279983,0.0-13.0-0.2,24950,List2A,white,man,,,,null,,,,
null,"<img src=""stim_listA/flirt5.gif""style=""height:400px;""></stim_listA>",,html-keyboard-response,39,281986,0.0-13.0-1.2,24950,List2A,white,man,,,,null,,,,
null,is flirting with,,html-keyboard-response,40,283992,0.0-13.0-2.2,24950,List2A,white,man,,,,null,,,,
15714,,,survey-text,41,299708,0.0-13.0-3.2,24950,List2A,white,man,,,,,"{""Q0"":""mike is flirting with luke""}","<img src=""stim_listA/flirt5.gif""style=""height:400px;""></stim_listA>",is flirting with,
null,"<div style=""font-size:60px;"">+</div>",,html-keyboard-response,42,300222,0.0-13.0-0.3,24950,List2A,white,man,,,,null,,,,
null,"<img src=""stim_listA/fight2.gif""style=""height:400px;""></stim_listA>",,html-keyboard-response,43,302226,0.0-13.0-1.3,24950,List2A,white,man,,,,null,,,,
null,are fighting each other,,html-keyboard-response,44,304228,0.0-13.0-2.3,24950,List2A,white,man,,,,null,,,,
18155,,,survey-text,45,322385,0.0-13.0-3.3,24950,List2A,white,man,,,,,"{""Q0"":""luke is fighting with ruth""}","<img src=""stim_listA/fight2.gif""style=""height:400px;""></stim_listA>",are fighting each other,
null,"<div style=""font-size:60px;"">+</div>",,html-keyboard-response,46,322893,0.0-13.0-0.4,24950,List2A,white,man,,,,null,,,,
null,"<img src=""stim_listA/argue6.gif""style=""height:400px;""></stim_listA>",,html-keyboard-response,47,324897,0.0-13.0-1.4,24950,List2A,white,man,,,,null,,,,
null,are arguing with each other,,html-keyboard-response,48,326903,0.0-13.0-2.4,24950,List2A,white,man,,,,null,,,,
11410,,,survey-text,49,338315,0.0-13.0-3.4,24950,List2A,white,man,,,,,"{""Q0"":""luke and mike are arguing with each other""}","<img src=""stim_listA/argue6.gif""style=""height:400px;""></stim_listA>",are arguing with each other,
null,"<div style=""font-size:60px;"">+</div>",,html-keyboard-response,50,338825,0.0-13.0-0.5,24950,List2A,white,man,,,,null,,,,
null,"<img src=""stim_listA/fight1.gif""style=""height:400px;""></stim_listA>",,html-keyboard-response,51,340838,0.0-13.0-1.5,24950,List2A,white,man,,,,null,,,,
null,is fighting,,html-keyboard-response,52,342852,0.0-13.0-2.5,24950,List2A,white,man,,,,null,,,,
13109,,,survey-text,53,355963,0.0-13.0-3.5,24950,List2A,white,man,,,,,"{""Q0"":""dave and jane are fighting each other""}","<img src=""stim_listA/fight1.gif""style=""height:400px;""></stim_listA>",is fighting,
null,"<div style=""font-size:60px;"">+</div>",,html-keyboard-response,54,356480,0.0-13.0-0.6,24950,List2A,white,man,,,,null,,,,
null,"<img src=""stim_listA/kiss4.gif""style=""height:400px;""></stim_listA>",,html-keyboard-response,55,358483,0.0-13.0-1.6,24950,List2A,white,man,,,,null,,,,
null,are kissing each other,,html-keyboard-response,56,360489,0.0-13.0-2.6,24950,List2A,white,man,,,,null,,,,
9265,,,survey-text,57,369756,0.0-13.0-3.6,24950,List2A,white,man,,,,,"{""Q0"":""mike and kate are kissing each other""}","<img src=""stim_listA/kiss4.gif""style=""height:400px;""></stim_listA>",are kissing each other,
null,"<div style=""font-size:60px;"">+</div>",,html-keyboard-response,58,370272,0.0-13.0-0.7,24950,List2A,white,man,,,,null,,,,
null,"<img src=""stim_listA/touch4.gif""style=""height:400px;""></stim_listA>",,html-keyboard-response,59,372276,0.0-13.0-1.7,24950,List2A,white,man,,,,null,,,,
null,are touching each other,,html-keyboard-response,60,374293,0.0-13.0-2.7,24950,List2A,white,man,,,,null,,,,
10693,,,survey-text,61,384988,0.0-13.0-3.7,24950,List2A,white,man,,,,,"{""Q0"":""fred and beth are touching each other""}","<img src=""stim_listA/touch4.gif""style=""height:400px;""></stim_listA>",are touching each other,
null,"<div style=""font-size:60px;"">+</div>",,html-keyboard-response,62,385496,0.0-13.0-0.8,24950,List2A,white,man,,,,null,,,,
null,"<img src=""stim_listA/dance6.gif""style=""height:400px;""></stim_listA>",,html-keyboard-response,63,387503,0.0-13.0-1.8,24950,List2A,white,man,,,,null,,,,
null,are dancing with each other,,html-keyboard-response,64,389508,0.0-13.0-2.8,24950,List2A,white,man,,,,null,,,,
9369,,,survey-text,65,398879,0.0-13.0-3.8,24950,List2A,white,man,,,,,"{""Q0"":""fred and dave are dancing with each other""}","<img src=""stim_listA/dance6.gif""style=""height:400px;""></stim_listA>",are dancing with each other,
null,"<div style=""font-size:60px;"">+</div>",,html-keyboard-response,66,399393,0.0-13.0-0.9,24950,List2A,white,man,,,,null,,,,
null,"<img src=""stim_listA/dance4.gif""style=""height:400px;""></stim_listA>",,html-keyboard-response,67,401395,0.0-13.0-1.9,24950,List2A,white,man,,,,null,,,,
null,are dancing with each other,,html-keyboard-response,68,403412,0.0-13.0-2.9,24950,List2A,white,man,,,,null,,,,
8804,,,survey-text,69,412217,0.0-13.0-3.9,24950,List2A,white,man,,,,,"{""Q0"":""mike and beth are dancing with each other""}","<img src=""stim_listA/dance4.gif""style=""height:400px;""></stim_listA>",are dancing with each other,
null,"<div style=""font-size:60px;"">+</div>",,html-keyboard-response,70,412731,0.0-13.0-0.10,24950,List2A,white,man,,,,null,,,,
null,"<img src=""stim_listA/dance3.gif""style=""height:400px;""></stim_listA>",,html-keyboard-response,71,414737,0.0-13.0-1.10,24950,List2A,white,man,,,,null,,,,
null,is dancing with,,html-keyboard-response,72,416741,0.0-13.0-2.10,24950,List2A,white,man,,,,null,,,,
8062,,,survey-text,73,424805,0.0-13.0-3.10,24950,List2A,white,man,,,,,"{""Q0"":""fred is dancing with kate""}","<img src=""stim_listA/dance3.gif""style=""height:400px;""></stim_listA>",is dancing with,
null,"<div style=""font-size:60px;"">+</div>",,html-keyboard-response,74,425319,0.0-13.0-0.11,24950,List2A,white,man,,,,null,,,,
null,"<img src=""stim_listA/talk1.gif""style=""height:400px;""></stim_listA>",,html-keyboard-response,75,427323,0.0-13.0-1.11,24950,List2A,white,man,,,,null,,,,
null,is talking to,,html-keyboard-response,76,429328,0.0-13.0-2.11,24950,List2A,white,man,,,,null,,,,
5114,,,survey-text,77,434442,0.0-13.0-3.11,24950,List2A,white,man,,,,,"{""Q0"":""jane is talking to luke""}","<img src=""stim_listA/talk1.gif""style=""height:400px;""></stim_listA>",is talking to,
null,"<div style=""font-size:60px;"">+</div>",,html-keyboard-response,78,434947,0.0-13.0-0.12,24950,List2A,white,man,,,,null,,,,
null,"<img src=""stim_listA/argue7.gif""style=""height:400px;""></stim_listA>",,html-keyboard-response,79,436950,0.0-13.0-1.12,24950,List2A,white,man,,,,null,,,,
null,is arguing with,,html-keyboard-response,80,438954,0.0-13.0-2.12,24950,List2A,white,man,,,,null,,,,
5405,,,survey-text,81,444361,0.0-13.0-3.12,24950,List2A,white,man,,,,,"{""Q0"":""beth is arguing with jane""}","<img src=""stim_listA/argue7.gif""style=""height:400px;""></stim_listA>",is arguing with,
null,"<div style=""font-size:60px;"">+</div>",,html-keyboard-response,82,444862,0.0-13.0-0.13,24950,List2A,white,man,,,,null,,,,
null,"<img src=""stim_listA/talk3.gif""style=""height:400px;""></stim_listA>",,html-keyboard-response,83,446865,0.0-13.0-1.13,24950,List2A,white,man,,,,null,,,,
null,is talking to,,html-keyboard-response,84,448876,0.0-13.0-2.13,24950,List2A,white,man,,,,null,,,,
5658,,,survey-text,85,454535,0.0-13.0-3.13,24950,List2A,white,man,,,,,"{""Q0"":""fred is talking to kate""}","<img src=""stim_listA/talk3.gif""style=""height:400px;""></stim_listA>",is talking to,
null,"<div style=""font-size:60px;"">+</div>",,html-keyboard-response,86,455052,0.0-13.0-0.14,24950,List2A,white,man,,,,null,,,,
null,"<img src=""stim_listA/kiss3.gif""style=""height:400px;""></stim_listA>",,html-keyboard-response,87,457054,0.0-13.0-1.14,24950,List2A,white,man,,,,null,,,,
null,is kissing,,html-keyboard-response,88,459058,0.0-13.0-2.14,24950,List2A,white,man,,,,null,,,,
6188,,,survey-text,89,465247,0.0-13.0-3.14,24950,List2A,white,man,,,,,"{""Q0"":""beth is kissing fred""}","<img src=""stim_listA/kiss3.gif""style=""height:400px;""></stim_listA>",is kissing,
null,"<div style=""font-size:60px;"">+</div>",,html-keyboard-response,90,465763,0.0-13.0-0.15,24950,List2A,white,man,,,,null,,,,
null,"<img src=""stim_listA/argue3.gif""style=""height:400px;""></stim_listA>",,html-keyboard-response,91,467771,0.0-13.0-1.15,24950,List2A,white,man,,,,null,,,,
null,is arguing with,,html-keyboard-response,92,469773,0.0-13.0-2.15,24950,List2A,white,man,,,,null,,,,
10317,,,survey-text,93,480092,0.0-13.0-3.15,24950,List2A,white,man,,,,,"{""Q0"":""mike is arguing with beth""}","<img src=""stim_listA/argue3.gif""style=""height:400px;""></stim_listA>",is arguing with,
null,"<div style=""font-size:60px;"">+</div>",,html-keyboard-response,94,480595,0.0-13.0-0.16,24950,List2A,white,man,,,,null,,,,
null,"<img src=""stim_listA/dance7.gif""style=""height:400px;""></stim_listA>",,html-keyboard-response,95,482599,0.0-13.0-1.16,24950,List2A,white,man,,,,null,,,,
null,is dancing with,,html-keyboard-response,96,484626,0.0-13.0-2.16,24950,List2A,white,man,,,,null,,,,
7364,,,survey-text,97,491992,0.0-13.0-3.16,24950,List2A,white,man,,,,,"{""Q0"":""ruth is dancing with kate""}","<img src=""stim_listA/dance7.gif""style=""height:400px;""></stim_listA>",is dancing with,
null,"<div style=""font-size:60px;"">+</div>",,html-keyboard-response,98,492511,0.0-13.0-0.17,24950,List2A,white,man,,,,null,,,,
null,"<img src=""stim_listA/marry8.gif""style=""height:400px;""></stim_listA>",,html-keyboard-response,99,494518,0.0-13.0-1.17,24950,List2A,white,man,,,,null,,,,
null,are marrying each other,,html-keyboard-response,100,496527,0.0-13.0-2.17,24950,List2A,white,man,,,,null,,,,
11522,,,survey-text,101,508052,0.0-13.0-3.17,24950,List2A,white,man,,,,,"{""Q0"":""ruth and kate are marrying each other""}","<img src=""stim_listA/marry8.gif""style=""height:400px;""></stim_listA>",are marrying each other,
null,"<div style=""font-size:60px;"">+</div>",,html-keyboard-response,102,508566,0.0-13.0-0.18,24950,List2A,white,man,,,,null,,,,
null,"<img src=""stim_listA/talk5.gif""style=""height:400px;""></stim_listA>",,html-keyboard-response,103,510569,0.0-13.0-1.18,24950,List2A,white,man,,,,null,,,,
null,is talking to,,html-keyboard-response,104,512574,0.0-13.0-2.18,24950,List2A,white,man,,,,null,,,,
6011,,,survey-text,105,518586,0.0-13.0-3.18,24950,List2A,white,man,,,,,"{""Q0"":""mike is talking to luke""}","<img src=""stim_listA/talk5.gif""style=""height:400px;""></stim_listA>",is talking to,
null,"<div style=""font-size:60px;"">+</div>",,html-keyboard-response,106,519103,0.0-13.0-0.19,24950,List2A,white,man,,,,null,,,,
null,"<img src=""stim_listA/dance5.gif""style=""height:400px;""></stim_listA>",,html-keyboard-response,107,521107,0.0-13.0-1.19,24950,List2A,white,man,,,,null,,,,
null,is dancing with,,html-keyboard-response,108,523112,0.0-13.0-2.19,24950,List2A,white,man,,,,null,,,,
7969,,,survey-text,109,531083,0.0-13.0-3.19,24950,List2A,white,man,,,,,"{""Q0"":""mike is dancing with luke""}","<img src=""stim_listA/dance5.gif""style=""height:400px;""></stim_listA>",is dancing with,
5205,"<img src='img/portrait_matrix_list2.jpg' style='width:900px;height:500px;''></img><p>If you have memorised all the portraits and names and are ready to start, press Continue.</p><p><strong>Please note: Your memory of these faces will be tested 4 times during this experiment.</strong></p>",0,html-button-response,110,536291,0.0-14.0-0.0,24950,List2A,white,man,,,,,,,,
3687,"<img src=""portrait/WM2.jpg""style=""height:400px;""></img>",7,html-button-response,111,540996,0.0-14.0-1.0,24950,List2A,white,man,,TRUE,7,,,,,
null,CORRECT,,html-keyboard-response,112,542501,0.0-14.0-2.0-0.0,24950,List2A,white,man,,,,null,,,,
2289,"<img src=""portrait/WM1.jpg""style=""height:400px;""></img>",6,html-button-response,113,544792,0.0-14.0-4.0,24950,List2A,white,man,,TRUE,6,,,,,
null,CORRECT,,html-keyboard-response,114,546326,0.0-14.0-5.0-0.0,24950,List2A,white,man,,,,null,,,,
1947,"<img src=""portrait/WW1.jpg""style=""height:400px;""></img>",1,html-button-response,115,548277,0.0-14.0-7.0,24950,List2A,white,man,,TRUE,1,,,,,
null,CORRECT,,html-keyboard-response,116,549795,0.0-14.0-8.0-0.0,24950,List2A,white,man,,,,null,,,,
1464,"<img src=""portrait/BW1.jpg""style=""height:400px;""></img>",0,html-button-response,117,551261,0.0-14.0-10.0,24950,List2A,white,man,,TRUE,0,,,,,
null,CORRECT,,html-keyboard-response,118,552778,0.0-14.0-11.0-0.0,24950,List2A,white,man,,,,null,,,,
1733,"<img src=""portrait/BW2.jpg""style=""height:400px;""></img>",2,html-button-response,119,554513,0.0-14.0-13.0,24950,List2A,white,man,,TRUE,2,,,,,
null,CORRECT,,html-keyboard-response,120,556036,0.0-14.0-14.0-0.0,24950,List2A,white,man,,,,null,,,,
1291,"<img src=""portrait/BM1.jpg""style=""height:400px;""></img>",4,html-button-response,121,557329,0.0-14.0-16.0,24950,List2A,white,man,,TRUE,4,,,,,
null,CORRECT,,html-keyboard-response,122,558840,0.0-14.0-17.0-0.0,24950,List2A,white,man,,,,null,,,,
1598,"<img src=""portrait/WW2.jpg""style=""height:400px;""></img>",3,html-button-response,123,560440,0.0-14.0-19.0,24950,List2A,white,man,,TRUE,3,,,,,
null,CORRECT,,html-keyboard-response,124,561951,0.0-14.0-20.0-0.0,24950,List2A,white,man,,,,null,,,,
1366,"<img src=""portrait/BM2.jpg""style=""height:400px;""></img>",5,html-button-response,125,563319,0.0-14.0-22.0,24950,List2A,white,man,,TRUE,5,,,,,
null,CORRECT,,html-keyboard-response,126,564848,0.0-14.0-23.0-0.0,24950,List2A,white,man,,,,null,,,,
1587,<p>You got 8 out of 8 right first time. Press Continue.</p>,0,html-button-response,127,566438,0.0-14.0-25.0,24950,List2A,white,man,,,,,,,,
null,"<div style=""font-size:60px;"">+</div>",,html-keyboard-response,128,567947,0.0-15.0-0.0,24950,List2A,white,man,,,,null,,,,
null,"<img src=""stim_listA/argue1.gif""style=""height:400px;""></stim_listA>",,html-keyboard-response,129,569951,0.0-15.0-1.0,24950,List2A,white,man,,,,null,,,,
null,is arguing with,,html-keyboard-response,130,571954,0.0-15.0-2.0,24950,List2A,white,man,,,,null,,,,
8169,,,survey-text,131,580125,0.0-15.0-3.0,24950,List2A,white,man,,,,,"{""Q0"":""dave is arguing with ruth""}","<img src=""stim_listA/argue1.gif""style=""height:400px;""></stim_listA>",is arguing with,
null,"<div style=""font-size:60px;"">+</div>",,html-keyboard-response,132,580659,0.0-15.0-0.1,24950,List2A,white,man,,,,null,,,,
null,"<img src=""stim_listA/kiss7.gif""style=""height:400px;""></stim_listA>",,html-keyboard-response,133,582672,0.0-15.0-1.1,24950,List2A,white,man,,,,null,,,,
null,is kissing,,html-keyboard-response,134,584687,0.0-15.0-2.1,24950,List2A,white,man,,,,null,,,,
5842,,,survey-text,135,590531,0.0-15.0-3.1,24950,List2A,white,man,,,,,"{""Q0"":""ruth is kissing beth""}","<img src=""stim_listA/kiss7.gif""style=""height:400px;""></stim_listA>",is kissing,
null,"<div style=""font-size:60px;"">+</div>",,html-keyboard-response,136,591038,0.0-15.0-0.2,24950,List2A,white,man,,,,null,,,,
null,"<img src=""stim_listA/play3.gif""style=""height:400px;""></stim_listA>",,html-keyboard-response,137,593044,0.0-15.0-1.2,24950,List2A,white,man,,,,null,,,,
null,is playing with,,html-keyboard-response,138,595057,0.0-15.0-2.2,24950,List2A,white,man,,,,null,,,,
5690,,,survey-text,139,600750,0.0-15.0-3.2,24950,List2A,white,man,,,,,"{""Q0"":""mike is playing with kate""}","<img src=""stim_listA/play3.gif""style=""height:400px;""></stim_listA>",is playing with,
null,"<div style=""font-size:60px;"">+</div>",,html-keyboard-response,140,601256,0.0-15.0-0.3,24950,List2A,white,man,,,,null,,,,
null,"<img src=""stim_listA/talk7.gif""style=""height:400px;""></stim_listA>",,html-keyboard-response,141,603261,0.0-15.0-1.3,24950,List2A,white,man,,,,null,,,,
null,is talking to,,html-keyboard-response,142,605281,0.0-15.0-2.3,24950,List2A,white,man,,,,null,,,,
6000,,,survey-text,143,611283,0.0-15.0-3.3,24950,List2A,white,man,,,,,"{""Q0"":""ruth is talking to kate""}","<img src=""stim_listA/talk7.gif""style=""height:400px;""></stim_listA>",is talking to,
null,"<div style=""font-size:60px;"">+</div>",,html-keyboard-response,144,611797,0.0-15.0-0.4,24950,List2A,white,man,,,,null,,,,
null,"<img src=""stim_listA/touch1.gif""style=""height:400px;""></stim_listA>",,html-keyboard-response,145,613801,0.0-15.0-1.4,24950,List2A,white,man,,,,null,,,,
null,is touching,,html-keyboard-response,146,615810,0.0-15.0-2.4,24950,List2A,white,man,,,,null,,,,
7768,,,survey-text,147,623580,0.0-15.0-3.4,24950,List2A,white,man,,,,,"{""Q0"":""jane is touching dave""}","<img src=""stim_listA/touch1.gif""style=""height:400px;""></stim_listA>",is touching,
null,"<div style=""font-size:60px;"">+</div>",,html-keyboard-response,148,624084,0.0-15.0-0.5,24950,List2A,white,man,,,,null,,,,
null,"<img src=""stim_listA/play5.gif""style=""height:400px;""></stim_listA>",,html-keyboard-response,149,626089,0.0-15.0-1.5,24950,List2A,white,man,,,,null,,,,
null,is playing with,,html-keyboard-response,150,628093,0.0-15.0-2.5,24950,List2A,white,man,,,,null,,,,
7904,,,survey-text,151,635999,0.0-15.0-3.5,24950,List2A,white,man,,,,,"{""Q0"":""mike is playing with dave""}","<img src=""stim_listA/play5.gif""style=""height:400px;""></stim_listA>",is playing with,
null,"<div style=""font-size:60px;"">+</div>",,html-keyboard-response,152,636513,0.0-15.0-0.6,24950,List2A,white,man,,,,null,,,,
null,"<img src=""stim_listA/kiss2.gif""style=""height:400px;""></stim_listA>",,html-keyboard-response,153,638516,0.0-15.0-1.6,24950,List2A,white,man,,,,null,,,,
null,are kissing each other,,html-keyboard-response,154,640524,0.0-15.0-2.6,24950,List2A,white,man,,,,null,,,,
6995,,,survey-text,155,647521,0.0-15.0-3.6,24950,List2A,white,man,,,,,"{""Q0"":""jane and dave are kissing each other""}","<img src=""stim_listA/kiss2.gif""style=""height:400px;""></stim_listA>",are kissing each other,
null,"<div style=""font-size:60px;"">+</div>",,html-keyboard-response,156,648026,0.0-15.0-0.7,24950,List2A,white,man,,,,null,,,,
null,"<img src=""stim_listA/flirt7.gif""style=""height:400px;""></stim_listA>",,html-keyboard-response,157,650030,0.0-15.0-1.7,24950,List2A,white,man,,,,null,,,,
null,is flirting with,,html-keyboard-response,158,652039,0.0-15.0-2.7,24950,List2A,white,man,,,,null,,,,
8670,,,survey-text,159,660711,0.0-15.0-3.7,24950,List2A,white,man,,,,,"{""Q0"":""ruth is flirting with kate""}","<img src=""stim_listA/flirt7.gif""style=""height:400px;""></stim_listA>",is flirting with,
null,"<div style=""font-size:60px;"">+</div>",,html-keyboard-response,160,661223,0.0-15.0-0.8,24950,List2A,white,man,,,,null,,,,
null,"<img src=""stim_listA/flirt6.gif""style=""height:400px;""></stim_listA>",,html-keyboard-response,161,663228,0.0-15.0-1.8,24950,List2A,white,man,,,,null,,,,
null,are flirting with each other,,html-keyboard-response,162,665229,0.0-15.0-2.8,24950,List2A,white,man,,,,null,,,,
18207,,,survey-text,163,683438,0.0-15.0-3.8,24950,List2A,white,man,,,,,"{""Q0"":""fred and dave are flirting with each other""}","<img src=""stim_listA/flirt6.gif""style=""height:400px;""></stim_listA>",are flirting with each other,
null,"<div style=""font-size:60px;"">+</div>",,html-keyboard-response,164,683949,0.0-15.0-0.9,24950,List2A,white,man,,,,null,,,,
null,"<img src=""stim_listA/marry6.gif""style=""height:400px;""></stim_listA>",,html-keyboard-response,165,685954,0.0-15.0-1.9,24950,List2A,white,man,,,,null,,,,
null,are marrying each other,,html-keyboard-response,166,687957,0.0-15.0-2.9,24950,List2A,white,man,,,,null,,,,
9303,,,survey-text,167,697260,0.0-15.0-3.9,24950,List2A,white,man,,,,,"{""Q0"":""mike and luke are marrying each other ""}","<img src=""stim_listA/marry6.gif""style=""height:400px;""></stim_listA>",are marrying each other,
null,"<div style=""font-size:60px;"">+</div>",,html-keyboard-response,168,697771,0.0-15.0-0.10,24950,List2A,white,man,,,,null,,,,
null,"<img src=""stim_listA/talk2.gif""style=""height:400px;""></stim_listA>",,html-keyboard-response,169,699776,0.0-15.0-1.10,24950,List2A,white,man,,,,null,,,,
null,are talking to each other,,html-keyboard-response,170,701801,0.0-15.0-2.10,24950,List2A,white,man,,,,null,,,,
10112,,,survey-text,171,711915,0.0-15.0-3.10,24950,List2A,white,man,,,,,"{""Q0"":""ruth and dave are talking to each other""}","<img src=""stim_listA/talk2.gif""style=""height:400px;""></stim_listA>",are talking to each other,
null,"<div style=""font-size:60px;"">+</div>",,html-keyboard-response,172,712448,0.0-15.0-0.11,24950,List2A,white,man,,,,null,,,,
null,"<img src=""stim_listA/marry4.gif""style=""height:400px;""></stim_listA>",,html-keyboard-response,173,714454,0.0-15.0-1.11,24950,List2A,white,man,,,,null,,,,
null,are marrying each other,,html-keyboard-response,174,716462,0.0-15.0-2.11,24950,List2A,white,man,,,,null,,,,
8582,,,survey-text,175,725046,0.0-15.0-3.11,24950,List2A,white,man,,,,,"{""Q0"":""fred and kate are marrying each other""}","<img src=""stim_listA/marry4.gif""style=""height:400px;""></stim_listA>",are marrying each other,
null,"<div style=""font-size:60px;"">+</div>",,html-keyboard-response,176,725557,0.0-15.0-0.12,24950,List2A,white,man,,,,null,,,,
null,"<img src=""stim_listA/marry1.gif""style=""height:400px;""></stim_listA>",,html-keyboard-response,177,727561,0.0-15.0-1.12,24950,List2A,white,man,,,,null,,,,
null,is marrying,,html-keyboard-response,178,729574,0.0-15.0-2.12,24950,List2A,white,man,,,,null,,,,
5482,,,survey-text,179,735058,0.0-15.0-3.12,24950,List2A,white,man,,,,,"{""Q0"":""ruth is marrying dave""}","<img src=""stim_listA/marry1.gif""style=""height:400px;""></stim_listA>",is marrying,
null,"<div style=""font-size:60px;"">+</div>",,html-keyboard-response,180,735562,0.0-15.0-0.13,24950,List2A,white,man,,,,null,,,,
null,"<img src=""stim_listA/shout2.gif""style=""height:400px;""></stim_listA>",,html-keyboard-response,181,737581,0.0-15.0-1.13,24950,List2A,white,man,,,,null,,,,
null,are shouting at each other,,html-keyboard-response,182,739583,0.0-15.0-2.13,24950,List2A,white,man,,,,null,,,,
15405,,,survey-text,183,754990,0.0-15.0-3.13,24950,List2A,white,man,,,,,"{""Q0"":""ruth and dave are shouting each other""}","<img src=""stim_listA/shout2.gif""style=""height:400px;""></stim_listA>",are shouting at each other,
null,"<div style=""font-size:60px;"">+</div>",,html-keyboard-response,184,755500,0.0-15.0-0.14,24950,List2A,white,man,,,,null,,,,
null,"<img src=""stim_listA/fight5.gif""style=""height:400px;""></stim_listA>",,html-keyboard-response,185,757505,0.0-15.0-1.14,24950,List2A,white,man,,,,null,,,,
null,is fighting,,html-keyboard-response,186,759509,0.0-15.0-2.14,24950,List2A,white,man,,,,null,,,,
9429,,,survey-text,187,768940,0.0-15.0-3.14,24950,List2A,white,man,,,,,"{""Q0"":""mike is fighting dave""}","<img src=""stim_listA/fight5.gif""style=""height:400px;""></stim_listA>",is fighting,
null,"<div style=""font-size:60px;"">+</div>",,html-keyboard-response,188,769448,0.0-15.0-0.15,24950,List2A,white,man,,,,null,,,,
null,"<img src=""stim_listA/flirt8.gif""style=""height:400px;""></stim_listA>",,html-keyboard-response,189,771454,0.0-15.0-1.15,24950,List2A,white,man,,,,null,,,,
null,are flirting with each other,,html-keyboard-response,190,773482,0.0-15.0-2.15,24950,List2A,white,man,,,,null,,,,
9523,,,survey-text,191,783007,0.0-15.0-3.15,24950,List2A,white,man,,,,,"{""Q0"":""jane and beth are flirting with each other""}","<img src=""stim_listA/flirt8.gif""style=""height:400px;""></stim_listA>",are flirting with each other,
null,"<div style=""font-size:60px;"">+</div>",,html-keyboard-response,192,783514,0.0-15.0-0.16,24950,List2A,white,man,,,,null,,,,
null,"<img src=""stim_listA/play7.gif""style=""height:400px;""></stim_listA>",,html-keyboard-response,193,785519,0.0-15.0-1.16,24950,List2A,white,man,,,,null,,,,
null,is playing with,,html-keyboard-response,194,787524,0.0-15.0-2.16,24950,List2A,white,man,,,,null,,,,
6290,,,survey-text,195,793816,0.0-15.0-3.16,24950,List2A,white,man,,,,,"{""Q0"":""jane is playing with kate""}","<img src=""stim_listA/play7.gif""style=""height:400px;""></stim_listA>",is playing with,
null,"<div style=""font-size:60px;"">+</div>",,html-keyboard-response,196,794319,0.0-15.0-0.17,24950,List2A,white,man,,,,null,,,,
null,"<img src=""stim_listA/touch7.gif""style=""height:400px;""></stim_listA>",,html-keyboard-response,197,796322,0.0-15.0-1.17,24950,List2A,white,man,,,,null,,,,
null,is touching,,html-keyboard-response,198,798324,0.0-15.0-2.17,24950,List2A,white,man,,,,null,,,,
8185,,,survey-text,199,806510,0.0-15.0-3.17,24950,List2A,white,man,,,,,"{""Q0"":""jane is touching kate""}","<img src=""stim_listA/touch7.gif""style=""height:400px;""></stim_listA>",is touching,
null,"<div style=""font-size:60px;"">+</div>",,html-keyboard-response,200,807022,0.0-15.0-0.18,24950,List2A,white,man,,,,null,,,,
null,"<img src=""stim_listA/shout5.gif""style=""height:400px;""></stim_listA>",,html-keyboard-response,201,809026,0.0-15.0-1.18,24950,List2A,white,man,,,,null,,,,
null,is shouting at,,html-keyboard-response,202,811029,0.0-15.0-2.18,24950,List2A,white,man,,,,null,,,,
9386,,,survey-text,203,820416,0.0-15.0-3.18,24950,List2A,white,man,,,,,"{""Q0"":""fred is shouting at luke""}","<img src=""stim_listA/shout5.gif""style=""height:400px;""></stim_listA>",is shouting at,
null,"<div style=""font-size:60px;"">+</div>",,html-keyboard-response,204,820931,0.0-15.0-0.19,24950,List2A,white,man,,,,null,,,,
null,"<img src=""stim_listA/fight6.gif""style=""height:400px;""></stim_listA>",,html-keyboard-response,205,822937,0.0-15.0-1.19,24950,List2A,white,man,,,,null,,,,
null,are fighting each other,,html-keyboard-response,206,824943,0.0-15.0-2.19,24950,List2A,white,man,,,,null,,,,
12053,,,survey-text,207,836998,0.0-15.0-3.19,24950,List2A,white,man,,,,,"{""Q0"":""fred and luke are fighting each other""}","<img src=""stim_listA/fight6.gif""style=""height:400px;""></stim_listA>",are fighting each other,
19541,"<img src='img/portrait_matrix_list2.jpg' style='width:900px;height:500px;''></img><p>If you have memorised all the portraits and names and are ready to start, press Continue.</p><p><strong>Please note: Your memory of these faces will be tested 4 times during this experiment.</strong></p>",0,html-button-response,208,856542,0.0-16.0-0.0,24950,List2A,white,man,,,,,,,,
1693,"<img src=""portrait/WW1.jpg""style=""height:400px;""></img>",1,html-button-response,209,859251,0.0-16.0-1.0,24950,List2A,white,man,,TRUE,1,,,,,
null,CORRECT,,html-keyboard-response,210,860765,0.0-16.0-2.0-0.0,24950,List2A,white,man,,,,null,,,,
1688,"<img src=""portrait/WM1.jpg""style=""height:400px;""></img>",6,html-button-response,211,862455,0.0-16.0-4.0,24950,List2A,white,man,,TRUE,6,,,,,
null,CORRECT,,html-keyboard-response,212,863968,0.0-16.0-5.0-0.0,24950,List2A,white,man,,,,null,,,,
1653,"<img src=""portrait/WM2.jpg""style=""height:400px;""></img>",7,html-button-response,213,865623,0.0-16.0-7.0,24950,List2A,white,man,,TRUE,7,,,,,
null,CORRECT,,html-keyboard-response,214,867140,0.0-16.0-8.0-0.0,24950,List2A,white,man,,,,null,,,,
1664,"<img src=""portrait/BW2.jpg""style=""height:400px;""></img>",2,html-button-response,215,868806,0.0-16.0-10.0,24950,List2A,white,man,,TRUE,2,,,,,
null,CORRECT,,html-keyboard-response,216,870329,0.0-16.0-11.0-0.0,24950,List2A,white,man,,,,null,,,,
1177,"<img src=""portrait/BM1.jpg""style=""height:400px;""></img>",4,html-button-response,217,871508,0.0-16.0-13.0,24950,List2A,white,man,,TRUE,4,,,,,
null,CORRECT,,html-keyboard-response,218,873020,0.0-16.0-14.0-0.0,24950,List2A,white,man,,,,null,,,,
1840,"<img src=""portrait/BW1.jpg""style=""height:400px;""></img>",0,html-button-response,219,874863,0.0-16.0-16.0,24950,List2A,white,man,,TRUE,0,,,,,
null,CORRECT,,html-keyboard-response,220,876370,0.0-16.0-17.0-0.0,24950,List2A,white,man,,,,null,,,,
1852,"<img src=""portrait/WW2.jpg""style=""height:400px;""></img>",3,html-button-response,221,878224,0.0-16.0-19.0,24950,List2A,white,man,,TRUE,3,,,,,
null,CORRECT,,html-keyboard-response,222,879733,0.0-16.0-20.0-0.0,24950,List2A,white,man,,,,null,,,,
1509,"<img src=""portrait/BM2.jpg""style=""height:400px;""></img>",5,html-button-response,223,881245,0.0-16.0-22.0,24950,List2A,white,man,,TRUE,5,,,,,
null,CORRECT,,html-keyboard-response,224,882756,0.0-16.0-23.0-0.0,24950,List2A,white,man,,,,null,,,,
2360,<p>You got 8 out of 8 right first time. Press Continue.</p>,0,html-button-response,225,885117,0.0-16.0-25.0,24950,List2A,white,man,,,,,,,,
null,"<div style=""font-size:60px;"">+</div>",,html-keyboard-response,226,886625,0.0-17.0-0.0,24950,List2A,white,man,,,,null,,,,
null,"<img src=""stim_listA/touch3.gif""style=""height:400px;""></stim_listA>",,html-keyboard-response,227,888630,0.0-17.0-1.0,24950,List2A,white,man,,,,null,,,,
null,is touching,,html-keyboard-response,228,890661,0.0-17.0-2.0,24950,List2A,white,man,,,,null,,,,
8481,,,survey-text,229,899143,0.0-17.0-3.0,24950,List2A,white,man,,,,,"{""Q0"":""mike is touching kate""}","<img src=""stim_listA/touch3.gif""style=""height:400px;""></stim_listA>",is touching,
null,"<div style=""font-size:60px;"">+</div>",,html-keyboard-response,230,899652,0.0-17.0-0.1,24950,List2A,white,man,,,,null,,,,
null,"<img src=""stim_listA/kiss6.gif""style=""height:400px;""></stim_listA>",,html-keyboard-response,231,901658,0.0-17.0-1.1,24950,List2A,white,man,,,,null,,,,
null,are kissing each other,,html-keyboard-response,232,903665,0.0-17.0-2.1,24950,List2A,white,man,,,,null,,,,
8700,,,survey-text,233,912367,0.0-17.0-3.1,24950,List2A,white,man,,,,,"{""Q0"":""mike and dave are kissing each other""}","<img src=""stim_listA/kiss6.gif""style=""height:400px;""></stim_listA>",are kissing each other,
null,"<div style=""font-size:60px;"">+</div>",,html-keyboard-response,234,912870,0.0-17.0-0.2,24950,List2A,white,man,,,,null,,,,
null,"<img src=""stim_listA/touch5.gif""style=""height:400px;""></stim_listA>",,html-keyboard-response,235,914883,0.0-17.0-1.2,24950,List2A,white,man,,,,null,,,,
null,is touching,,html-keyboard-response,236,916889,0.0-17.0-2.2,24950,List2A,white,man,,,,null,,,,
8996,,,survey-text,237,925887,0.0-17.0-3.2,24950,List2A,white,man,,,,,"{""Q0"":""mike is touching dave""}","<img src=""stim_listA/touch5.gif""style=""height:400px;""></stim_listA>",is touching,
null,"<div style=""font-size:60px;"">+</div>",,html-keyboard-response,238,926389,0.0-17.0-0.3,24950,List2A,white,man,,,,null,,,,
null,"<img src=""stim_listA/play1.gif""style=""height:400px;""></stim_listA>",,html-keyboard-response,239,928394,0.0-17.0-1.3,24950,List2A,white,man,,,,null,,,,
null,is playing with,,html-keyboard-response,240,930411,0.0-17.0-2.3,24950,List2A,white,man,,,,null,,,,
6721,,,survey-text,241,937134,0.0-17.0-3.3,24950,List2A,white,man,,,,,"{""Q0"":""jane is playing with dave""}","<img src=""stim_listA/play1.gif""style=""height:400px;""></stim_listA>",is playing with,
null,"<div style=""font-size:60px;"">+</div>",,html-keyboard-response,242,937651,0.0-17.0-0.4,24950,List2A,white,man,,,,null,,,,
null,"<img src=""stim_listA/talk8.gif""style=""height:400px;""></stim_listA>",,html-keyboard-response,243,939654,0.0-17.0-1.4,24950,List2A,white,man,,,,null,,,,
null,are talking to each other,,html-keyboard-response,244,941666,0.0-17.0-2.4,24950,List2A,white,man,,,,null,,,,
10187,,,survey-text,245,951855,0.0-17.0-3.4,24950,List2A,white,man,,,,,"{""Q0"":""jane and beth are talking to each other""}","<img src=""stim_listA/talk8.gif""style=""height:400px;""></stim_listA>",are talking to each other,
null,"<div style=""font-size:60px;"">+</div>",,html-keyboard-response,246,952385,0.0-17.0-0.5,24950,List2A,white,man,,,,null,,,,
null,"<img src=""stim_listA/flirt2.gif""style=""height:400px;""></stim_listA>",,html-keyboard-response,247,954394,0.0-17.0-1.5,24950,List2A,white,man,,,,null,,,,
null,are flirting with each other,,html-keyboard-response,248,956397,0.0-17.0-2.5,24950,List2A,white,man,,,,null,,,,
7363,,,survey-text,249,963761,0.0-17.0-3.5,24950,List2A,white,man,,,,,"{""Q0"":""ruth and dave are flirting with each other""}","<img src=""stim_listA/flirt2.gif""style=""height:400px;""></stim_listA>",are flirting with each other,
null,"<div style=""font-size:60px;"">+</div>",,html-keyboard-response,250,964265,0.0-17.0-0.6,24950,List2A,white,man,,,,null,,,,
null,"<img src=""stim_listA/fight7.gif""style=""height:400px;""></stim_listA>",,html-keyboard-response,251,966268,0.0-17.0-1.6,24950,List2A,white,man,,,,null,,,,
null,is fighting,,html-keyboard-response,252,968298,0.0-17.0-2.6,24950,List2A,white,man,,,,null,,,,
6526,,,survey-text,253,974826,0.0-17.0-3.6,24950,List2A,white,man,,,,,"{""Q0"":""jane is fighting kate""}","<img src=""stim_listA/fight7.gif""style=""height:400px;""></stim_listA>",is fighting,
null,"<div style=""font-size:60px;"">+</div>",,html-keyboard-response,254,975340,0.0-17.0-0.7,24950,List2A,white,man,,,,null,,,,
null,"<img src=""stim_listA/kiss8.gif""style=""height:400px;""></stim_listA>",,html-keyboard-response,255,977346,0.0-17.0-1.7,24950,List2A,white,man,,,,null,,,,
null,are kissing each other,,html-keyboard-response,256,979352,0.0-17.0-2.7,24950,List2A,white,man,,,,null,,,,
9943,,,survey-text,257,989297,0.0-17.0-3.7,24950,List2A,white,man,,,,,"{""Q0"":""jane and kate are kissing each other""}","<img src=""stim_listA/kiss8.gif""style=""height:400px;""></stim_listA>",are kissing each other,
null,"<div style=""font-size:60px;"">+</div>",,html-keyboard-response,258,989808,0.0-17.0-0.8,24950,List2A,white,man,,,,null,,,,
null,"<img src=""stim_listA/marry7.gif""style=""height:400px;""></stim_listA>",,html-keyboard-response,259,991827,0.0-17.0-1.8,24950,List2A,white,man,,,,null,,,,
null,is marrying,,html-keyboard-response,260,993834,0.0-17.0-2.8,24950,List2A,white,man,,,,null,,,,
5898,,,survey-text,261,999733,0.0-17.0-3.8,24950,List2A,white,man,,,,,"{""Q0"":""jane is marrying beth""}","<img src=""stim_listA/marry7.gif""style=""height:400px;""></stim_listA>",is marrying,
null,"<div style=""font-size:60px;"">+</div>",,html-keyboard-response,262,1000236,0.0-17.0-0.9,24950,List2A,white,man,,,,null,,,,
null,"<img src=""stim_listA/play2.gif""style=""height:400px;""></stim_listA>",,html-keyboard-response,263,1002239,0.0-17.0-1.9,24950,List2A,white,man,,,,null,,,,
null,are playing with each other,,html-keyboard-response,264,1004250,0.0-17.0-2.9,24950,List2A,white,man,,,,null,,,,
12882,,,survey-text,265,1017134,0.0-17.0-3.9,24950,List2A,white,man,,,,,"{""Q0"":""ruth and luke are playing with each other""}","<img src=""stim_listA/play2.gif""style=""height:400px;""></stim_listA>",are playing with each other,
null,"<div style=""font-size:60px;"">+</div>",,html-keyboard-response,266,1017646,0.0-17.0-0.10,24950,List2A,white,man,,,,null,,,,
null,"<img src=""stim_listA/shout6.gif""style=""height:400px;""></stim_listA>",,html-keyboard-response,267,1019648,0.0-17.0-1.10,24950,List2A,white,man,,,,null,,,,
null,are shouting at each other,,html-keyboard-response,268,1021658,0.0-17.0-2.10,24950,List2A,white,man,,,,null,,,,
9767,,,survey-text,269,1031427,0.0-17.0-3.10,24950,List2A,white,man,,,,,"{""Q0"":""mike and dave are fighting each other""}","<img src=""stim_listA/shout6.gif""style=""height:400px;""></stim_listA>",are shouting at each other,
null,"<div style=""font-size:60px;"">+</div>",,html-keyboard-response,270,1031932,0.0-17.0-0.11,24950,List2A,white,man,,,,null,,,,
null,"<img src=""stim_listA/touch2.gif""style=""height:400px;""></stim_listA>",,html-keyboard-response,271,1033936,0.0-17.0-1.11,24950,List2A,white,man,,,,null,,,,
null,are touching each other,,html-keyboard-response,272,1035942,0.0-17.0-2.11,24950,List2A,white,man,,,,null,,,,
6815,,,survey-text,273,1042758,0.0-17.0-3.11,24950,List2A,white,man,,,,,"{""Q0"":""ruth and luke are touching each other""}","<img src=""stim_listA/touch2.gif""style=""height:400px;""></stim_listA>",are touching each other,
null,"<div style=""font-size:60px;"">+</div>",,html-keyboard-response,274,1043263,0.0-17.0-0.12,24950,List2A,white,man,,,,null,,,,
null,"<img src=""stim_listA/fight3.gif""style=""height:400px;""></stim_listA>",,html-keyboard-response,275,1045268,0.0-17.0-1.12,24950,List2A,white,man,,,,null,,,,
null,is fighting,,html-keyboard-response,276,1047272,0.0-17.0-2.12,24950,List2A,white,man,,,,null,,,,
6012,,,survey-text,277,1053286,0.0-17.0-3.12,24950,List2A,white,man,,,,,"{""Q0"":""mike is fighting jane""}","<img src=""stim_listA/fight3.gif""style=""height:400px;""></stim_listA>",is fighting,
null,"<div style=""font-size:60px;"">+</div>",,html-keyboard-response,278,1053800,0.0-17.0-0.13,24950,List2A,white,man,,,,null,,,,
null,"<img src=""stim_listA/shout7.gif""style=""height:400px;""></stim_listA>",,html-keyboard-response,279,1055806,0.0-17.0-1.13,24950,List2A,white,man,,,,null,,,,
null,is shouting at,,html-keyboard-response,280,1057807,0.0-17.0-2.13,24950,List2A,white,man,,,,null,,,,
7509,,,survey-text,281,1065317,0.0-17.0-3.13,24950,List2A,white,man,,,,,"{""Q0"":""ruth is shouting at beth""}","<img src=""stim_listA/shout7.gif""style=""height:400px;""></stim_listA>",is shouting at,
null,"<div style=""font-size:60px;"">+</div>",,html-keyboard-response,282,1065819,0.0-17.0-0.14,24950,List2A,white,man,,,,null,,,,
null,"<img src=""stim_listA/talk4.gif""style=""height:400px;""></stim_listA>",,html-keyboard-response,283,1067824,0.0-17.0-1.14,24950,List2A,white,man,,,,null,,,,
null,are talking to each other,,html-keyboard-response,284,1069826,0.0-17.0-2.14,24950,List2A,white,man,,,,null,,,,
6730,,,survey-text,285,1076558,0.0-17.0-3.14,24950,List2A,white,man,,,,,"{""Q0"":""mike and beth are talking to each other""}","<img src=""stim_listA/talk4.gif""style=""height:400px;""></stim_listA>",are talking to each other,
null,"<div style=""font-size:60px;"">+</div>",,html-keyboard-response,286,1077070,0.0-17.0-0.15,24950,List2A,white,man,,,,null,,,,
null,"<img src=""stim_listA/play4.gif""style=""height:400px;""></stim_listA>",,html-keyboard-response,287,1079076,0.0-17.0-1.15,24950,List2A,white,man,,,,null,,,,
null,are playing with each other,,html-keyboard-response,288,1081079,0.0-17.0-2.15,24950,List2A,white,man,,,,null,,,,
11356,,,survey-text,289,1092435,0.0-17.0-3.15,24950,List2A,white,man,,,,,"{""Q0"":""fred and beth are playing with each other""}","<img src=""stim_listA/play4.gif""style=""height:400px;""></stim_listA>",are playing with each other,
null,"<div style=""font-size:60px;"">+</div>",,html-keyboard-response,290,1092941,0.0-17.0-0.16,24950,List2A,white,man,,,,null,,,,
null,"<img src=""stim_listA/play8.gif""style=""height:400px;""></stim_listA>",,html-keyboard-response,291,1094946,0.0-17.0-1.16,24950,List2A,white,man,,,,null,,,,
null,are playing with each other,,html-keyboard-response,292,1096954,0.0-17.0-2.16,24950,List2A,white,man,,,,null,,,,
12374,,,survey-text,293,1109329,0.0-17.0-3.16,24950,List2A,white,man,,,,,"{""Q0"":""ruth and beth are playing with each other""}","<img src=""stim_listA/play8.gif""style=""height:400px;""></stim_listA>",are playing with each other,
null,"<div style=""font-size:60px;"">+</div>",,html-keyboard-response,294,1109848,0.0-17.0-0.17,24950,List2A,white,man,,,,null,,,,
null,"<img src=""stim_listA/argue8.gif""style=""height:400px;""></stim_listA>",,html-keyboard-response,295,1111852,0.0-17.0-1.17,24950,List2A,white,man,,,,null,,,,
null,are arguing with each other,,html-keyboard-response,296,1113855,0.0-17.0-2.17,24950,List2A,white,man,,,,null,,,,
10000,,,survey-text,297,1123858,0.0-17.0-3.17,24950,List2A,white,man,,,,,"{""Q0"":""ruth is talking to kate""}","<img src=""stim_listA/argue8.gif""style=""height:400px;""></stim_listA>",are arguing with each other,
null,"<div style=""font-size:60px;"">+</div>",,html-keyboard-response,298,1124371,0.0-17.0-0.18,24950,List2A,white,man,,,,null,,,,
null,"<img src=""stim_listA/dance8.gif""style=""height:400px;""></stim_listA>",,html-keyboard-response,299,1126376,0.0-17.0-1.18,24950,List2A,white,man,,,,null,,,,
null,are dancing with each other,,html-keyboard-response,300,1128379,0.0-17.0-2.18,24950,List2A,white,man,,,,null,,,,
6838,,,survey-text,301,1135219,0.0-17.0-3.18,24950,List2A,white,man,,,,,"{""Q0"":""jane and beth are dancing with each other""}","<img src=""stim_listA/dance8.gif""style=""height:400px;""></stim_listA>",are dancing with each other,
null,"<div style=""font-size:60px;"">+</div>",,html-keyboard-response,302,1135728,0.0-17.0-0.19,24950,List2A,white,man,,,,null,,,,
null,"<img src=""stim_listA/shout3.gif""style=""height:400px;""></stim_listA>",,html-keyboard-response,303,1137739,0.0-17.0-1.19,24950,List2A,white,man,,,,null,,,,
null,is shouting at,,html-keyboard-response,304,1139745,0.0-17.0-2.19,24950,List2A,white,man,,,,null,,,,
4546,,,survey-text,305,1144293,0.0-17.0-3.19,24950,List2A,white,man,,,,,"{""Q0"":""fred is shouting at beth""}","<img src=""stim_listA/shout3.gif""style=""height:400px;""></stim_listA>",is shouting at,
6207,"<img src='img/portrait_matrix_list2.jpg' style='width:900px;height:500px;''></img><p>If you have memorised all the portraits and names and are ready to start, press Continue.</p><p><strong>Please note: Your memory of these faces will be tested 4 times during this experiment.</strong></p>",0,html-button-response,306,1150503,0.0-18.0-0.0,24950,List2A,white,man,,,,,,,,
2788,"<img src=""portrait/BM1.jpg""style=""height:400px;""></img>",4,html-button-response,307,1154299,0.0-18.0-1.0,24950,List2A,white,man,,TRUE,4,,,,,
null,CORRECT,,html-keyboard-response,308,1155822,0.0-18.0-2.0-0.0,24950,List2A,white,man,,,,null,,,,
1932,"<img src=""portrait/BW1.jpg""style=""height:400px;""></img>",0,html-button-response,309,1157758,0.0-18.0-4.0,24950,List2A,white,man,,TRUE,0,,,,,
null,CORRECT,,html-keyboard-response,310,1159290,0.0-18.0-5.0-0.0,24950,List2A,white,man,,,,null,,,,
2065,"<img src=""portrait/BM2.jpg""style=""height:400px;""></img>",5,html-button-response,311,1161358,0.0-18.0-7.0,24950,List2A,white,man,,TRUE,5,,,,,
null,CORRECT,,html-keyboard-response,312,1162882,0.0-18.0-8.0-0.0,24950,List2A,white,man,,,,null,,,,
1188,"<img src=""portrait/WM1.jpg""style=""height:400px;""></img>",6,html-button-response,313,1164073,0.0-18.0-10.0,24950,List2A,white,man,,TRUE,6,,,,,
null,CORRECT,,html-keyboard-response,314,1165581,0.0-18.0-11.0-0.0,24950,List2A,white,man,,,,null,,,,
1715,"<img src=""portrait/WW2.jpg""style=""height:400px;""></img>",3,html-button-response,315,1167299,0.0-18.0-13.0,24950,List2A,white,man,,TRUE,3,,,,,
null,CORRECT,,html-keyboard-response,316,1168819,0.0-18.0-14.0-0.0,24950,List2A,white,man,,,,null,,,,
2428,"<img src=""portrait/BW2.jpg""style=""height:400px;""></img>",2,html-button-response,317,1171249,0.0-18.0-16.0,24950,List2A,white,man,,TRUE,2,,,,,
null,CORRECT,,html-keyboard-response,318,1172766,0.0-18.0-17.0-0.0,24950,List2A,white,man,,,,null,,,,
1452,"<img src=""portrait/WW1.jpg""style=""height:400px;""></img>",1,html-button-response,319,1174220,0.0-18.0-19.0,24950,List2A,white,man,,TRUE,1,,,,,
null,CORRECT,,html-keyboard-response,320,1175734,0.0-18.0-20.0-0.0,24950,List2A,white,man,,,,null,,,,
2012,"<img src=""portrait/WM2.jpg""style=""height:400px;""></img>",7,html-button-response,321,1177748,0.0-18.0-22.0,24950,List2A,white,man,,TRUE,7,,,,,
null,CORRECT,,html-keyboard-response,322,1179272,0.0-18.0-23.0-0.0,24950,List2A,white,man,,,,null,,,,
1028,<p>You got 8 out of 8 right first time. Press Continue.</p>,0,html-button-response,323,1180303,0.0-18.0-25.0,24950,List2A,white,man,,,,,,,,
null,"<div style=""font-size:60px;"">+</div>",,html-keyboard-response,324,1181808,0.0-19.0-0.0,24950,List2A,white,man,,,,null,,,,
null,"<img src=""stim_listA/touch6.gif""style=""height:400px;""></stim_listA>",,html-keyboard-response,325,1183811,0.0-19.0-1.0,24950,List2A,white,man,,,,null,,,,
null,are touching each other,,html-keyboard-response,326,1185813,0.0-19.0-2.0,24950,List2A,white,man,,,,null,,,,
11141,,,survey-text,327,1196956,0.0-19.0-3.0,24950,List2A,white,man,,,,,"{""Q0"":""fred and luke are touching each other""}","<img src=""stim_listA/touch6.gif""style=""height:400px;""></stim_listA>",are touching each other,
null,"<div style=""font-size:60px;"">+</div>",,html-keyboard-response,328,1197466,0.0-19.0-0.1,24950,List2A,white,man,,,,null,,,,
null,"<img src=""stim_listA/kiss5.gif""style=""height:400px;""></stim_listA>",,html-keyboard-response,329,1199473,0.0-19.0-1.1,24950,List2A,white,man,,,,null,,,,
null,is kissing,,html-keyboard-response,330,1201492,0.0-19.0-2.1,24950,List2A,white,man,,,,null,,,,
5715,,,survey-text,331,1207209,0.0-19.0-3.1,24950,List2A,white,man,,,,,"{""Q0"":""fred is kissing luke""}","<img src=""stim_listA/kiss5.gif""style=""height:400px;""></stim_listA>",is kissing,
null,"<div style=""font-size:60px;"">+</div>",,html-keyboard-response,332,1207734,0.0-19.0-0.2,24950,List2A,white,man,,,,null,,,,
null,"<img src=""stim_listA/fight4.gif""style=""height:400px;""></stim_listA>",,html-keyboard-response,333,1209739,0.0-19.0-1.2,24950,List2A,white,man,,,,null,,,,
null,are fighting each other,,html-keyboard-response,334,1211744,0.0-19.0-2.2,24950,List2A,white,man,,,,null,,,,
13058,,,survey-text,335,1224804,0.0-19.0-3.2,24950,List2A,white,man,,,,,"{""Q0"":""beth and fred are fighting each other""}","<img src=""stim_listA/fight4.gif""style=""height:400px;""></stim_listA>",are fighting each other,
null,"<div style=""font-size:60px;"">+</div>",,html-keyboard-response,336,1225312,0.0-19.0-0.3,24950,List2A,white,man,,,,null,,,,
null,"<img src=""stim_listA/shout1.gif""style=""height:400px;""></stim_listA>",,html-keyboard-response,337,1227315,0.0-19.0-1.3,24950,List2A,white,man,,,,null,,,,
null,is shouting at,,html-keyboard-response,338,1229323,0.0-19.0-2.3,24950,List2A,white,man,,,,null,,,,
4799,,,survey-text,339,1234124,0.0-19.0-3.3,24950,List2A,white,man,,,,,"{""Q0"":""ruth is shouting at luke""}","<img src=""stim_listA/shout1.gif""style=""height:400px;""></stim_listA>",is shouting at,
null,"<div style=""font-size:60px;"">+</div>",,html-keyboard-response,340,1234632,0.0-19.0-0.4,24950,List2A,white,man,,,,null,,,,
null,"<img src=""stim_listA/shout4.gif""style=""height:400px;""></stim_listA>",,html-keyboard-response,341,1236636,0.0-19.0-1.4,24950,List2A,white,man,,,,null,,,,
null,are shouting at each other,,html-keyboard-response,342,1238650,0.0-19.0-2.4,24950,List2A,white,man,,,,null,,,,
9876,,,survey-text,343,1248528,0.0-19.0-3.4,24950,List2A,white,man,,,,,"{""Q0"":""mike and kate are shouting at each other""}","<img src=""stim_listA/shout4.gif""style=""height:400px;""></stim_listA>",are shouting at each other,
null,"<div style=""font-size:60px;"">+</div>",,html-keyboard-response,344,1249032,0.0-19.0-0.5,24950,List2A,white,man,,,,null,,,,
null,"<img src=""stim_listA/touch8.gif""style=""height:400px;""></stim_listA>",,html-keyboard-response,345,1251038,0.0-19.0-1.5,24950,List2A,white,man,,,,null,,,,
null,are touching each other,,html-keyboard-response,346,1253056,0.0-19.0-2.5,24950,List2A,white,man,,,,null,,,,
8072,,,survey-text,347,1261130,0.0-19.0-3.5,24950,List2A,white,man,,,,,"{""Q0"":""ruth and beth are touching each other""}","<img src=""stim_listA/touch8.gif""style=""height:400px;""></stim_listA>",are touching each other,
null,"<div style=""font-size:60px;"">+</div>",,html-keyboard-response,348,1261635,0.0-19.0-0.6,24950,List2A,white,man,,,,null,,,,
null,"<img src=""stim_listA/flirt3.gif""style=""height:400px;""></stim_listA>",,html-keyboard-response,349,1263638,0.0-19.0-1.6,24950,List2A,white,man,,,,null,,,,
null,is flirting with,,html-keyboard-response,350,1265646,0.0-19.0-2.6,24950,List2A,white,man,,,,null,,,,
6751,,,survey-text,351,1272399,0.0-19.0-3.6,24950,List2A,white,man,,,,,"{""Q0"":""fred is flirting with kate""}","<img src=""stim_listA/flirt3.gif""style=""height:400px;""></stim_listA>",is flirting with,
null,"<div style=""font-size:60px;"">+</div>",,html-keyboard-response,352,1272902,0.0-19.0-0.7,24950,List2A,white,man,,,,null,,,,
null,"<img src=""stim_listA/kiss1.gif""style=""height:400px;""></stim_listA>",,html-keyboard-response,353,1274907,0.0-19.0-1.7,24950,List2A,white,man,,,,null,,,,
null,is kissing,,html-keyboard-response,354,1276910,0.0-19.0-2.7,24950,List2A,white,man,,,,null,,,,
4443,,,survey-text,355,1281355,0.0-19.0-3.7,24950,List2A,white,man,,,,,"{""Q0"":""ruth is kissing luke""}","<img src=""stim_listA/kiss1.gif""style=""height:400px;""></stim_listA>",is kissing,
null,"<div style=""font-size:60px;"">+</div>",,html-keyboard-response,356,1281867,0.0-19.0-0.8,24950,List2A,white,man,,,,null,,,,
null,"<img src=""stim_listA/argue5.gif""style=""height:400px;""></stim_listA>",,html-keyboard-response,357,1283870,0.0-19.0-1.8,24950,List2A,white,man,,,,null,,,,
null,is arguing with,,html-keyboard-response,358,1285888,0.0-19.0-2.8,24950,List2A,white,man,,,,null,,,,
5391,,,survey-text,359,1291280,0.0-19.0-3.8,24950,List2A,white,man,,,,,"{""Q0"":""fred is arguing with dave""}","<img src=""stim_listA/argue5.gif""style=""height:400px;""></stim_listA>",is arguing with,
null,"<div style=""font-size:60px;"">+</div>",,html-keyboard-response,360,1291796,0.0-19.0-0.9,24950,List2A,white,man,,,,null,,,,
null,"<img src=""stim_listA/marry5.gif""style=""height:400px;""></stim_listA>",,html-keyboard-response,361,1293803,0.0-19.0-1.9,24950,List2A,white,man,,,,null,,,,
null,is marrying,,html-keyboard-response,362,1295816,0.0-19.0-2.9,24950,List2A,white,man,,,,null,,,,
4870,,,survey-text,363,1300687,0.0-19.0-3.9,24950,List2A,white,man,,,,,"{""Q0"":""fred is marrying dave""}","<img src=""stim_listA/marry5.gif""style=""height:400px;""></stim_listA>",is marrying,
null,"<div style=""font-size:60px;"">+</div>",,html-keyboard-response,364,1301193,0.0-19.0-0.10,24950,List2A,white,man,,,,null,,,,
null,"<img src=""stim_listA/argue4.gif""style=""height:400px;""></stim_listA>",,html-keyboard-response,365,1303198,0.0-19.0-1.10,24950,List2A,white,man,,,,null,,,,
null,are arguing with each other,,html-keyboard-response,366,1305208,0.0-19.0-2.10,24950,List2A,white,man,,,,null,,,,
9133,,,survey-text,367,1314344,0.0-19.0-3.10,24950,List2A,white,man,,,,,"{""Q0"":""fred and kate are arguing with each toher""}","<img src=""stim_listA/argue4.gif""style=""height:400px;""></stim_listA>",are arguing with each other,
null,"<div style=""font-size:60px;"">+</div>",,html-keyboard-response,368,1314849,0.0-19.0-0.11,24950,List2A,white,man,,,,null,,,,
null,"<img src=""stim_listA/dance1.gif""style=""height:400px;""></stim_listA>",,html-keyboard-response,369,1316854,0.0-19.0-1.11,24950,List2A,white,man,,,,null,,,,
null,is dancing with,,html-keyboard-response,370,1318857,0.0-19.0-2.11,24950,List2A,white,man,,,,null,,,,
6596,,,survey-text,371,1325454,0.0-19.0-3.11,24950,List2A,white,man,,,,,"{""Q0"":""jane is dancing with luke""}","<img src=""stim_listA/dance1.gif""style=""height:400px;""></stim_listA>",is dancing with,
null,"<div style=""font-size:60px;"">+</div>",,html-keyboard-response,372,1325958,0.0-19.0-0.12,24950,List2A,white,man,,,,null,,,,
null,"<img src=""stim_listA/talk6.gif""style=""height:400px;""></stim_listA>",,html-keyboard-response,373,1327963,0.0-19.0-1.12,24950,List2A,white,man,,,,null,,,,
null,are talking to each other,,html-keyboard-response,374,1329969,0.0-19.0-2.12,24950,List2A,white,man,,,,null,,,,
8616,,,survey-text,375,1338586,0.0-19.0-3.12,24950,List2A,white,man,,,,,"{""Q0"":""fred and dave are talking to each other""}","<img src=""stim_listA/talk6.gif""style=""height:400px;""></stim_listA>",are talking to each other,
null,"<div style=""font-size:60px;"">+</div>",,html-keyboard-response,376,1339094,0.0-19.0-0.13,24950,List2A,white,man,,,,null,,,,
null,"<img src=""stim_listA/marry2.gif""style=""height:400px;""></stim_listA>",,html-keyboard-response,377,1341103,0.0-19.0-1.13,24950,List2A,white,man,,,,null,,,,
null,are marrying each other,,html-keyboard-response,378,1343113,0.0-19.0-2.13,24950,List2A,white,man,,,,null,,,,
8993,,,survey-text,379,1352108,0.0-19.0-3.13,24950,List2A,white,man,,,,,"{""Q0"":""jane and luke are marrying each other""}","<img src=""stim_listA/marry2.gif""style=""height:400px;""></stim_listA>",are marrying each other,
null,"<div style=""font-size:60px;"">+</div>",,html-keyboard-response,380,1352619,0.0-19.0-0.14,24950,List2A,white,man,,,,null,,,,
null,"<img src=""stim_listA/flirt4.gif""style=""height:400px;""></stim_listA>",,html-keyboard-response,381,1354624,0.0-19.0-1.14,24950,List2A,white,man,,,,null,,,,
null,are flirting with each other,,html-keyboard-response,382,1356633,0.0-19.0-2.14,24950,List2A,white,man,,,,null,,,,
15146,,,survey-text,383,1371781,0.0-19.0-3.14,24950,List2A,white,man,,,,,"{""Q0"":""mike and beth are flirting with each other""}","<img src=""stim_listA/flirt4.gif""style=""height:400px;""></stim_listA>",are flirting with each other,
null,"<div style=""font-size:60px;"">+</div>",,html-keyboard-response,384,1372291,0.0-19.0-0.15,24950,List2A,white,man,,,,null,,,,
null,"<img src=""stim_listA/marry3.gif""style=""height:400px;""></stim_listA>",,html-keyboard-response,385,1374297,0.0-19.0-1.15,24950,List2A,white,man,,,,null,,,,
null,is marrying,,html-keyboard-response,386,1376302,0.0-19.0-2.15,24950,List2A,white,man,,,,null,,,,
4741,,,survey-text,387,1381045,0.0-19.0-3.15,24950,List2A,white,man,,,,,"{""Q0"":""mike is marrying beth""}","<img src=""stim_listA/marry3.gif""style=""height:400px;""></stim_listA>",is marrying,
null,"<div style=""font-size:60px;"">+</div>",,html-keyboard-response,388,1381550,0.0-19.0-0.16,24950,List2A,white,man,,,,null,,,,
null,"<img src=""stim_listA/play6.gif""style=""height:400px;""></stim_listA>",,html-keyboard-response,389,1383554,0.0-19.0-1.16,24950,List2A,white,man,,,,null,,,,
null,are playing with each other,,html-keyboard-response,390,1385563,0.0-19.0-2.16,24950,List2A,white,man,,,,null,,,,
6990,,,survey-text,391,1392555,0.0-19.0-3.16,24950,List2A,white,man,,,,,"{""Q0"":""fred and luke are playing with each other""}","<img src=""stim_listA/play6.gif""style=""height:400px;""></stim_listA>",are playing with each other,
null,"<div style=""font-size:60px;"">+</div>",,html-keyboard-response,392,1393059,0.0-19.0-0.17,24950,List2A,white,man,,,,null,,,,
null,"<img src=""stim_listA/flirt1.gif""style=""height:400px;""></stim_listA>",,html-keyboard-response,393,1395064,0.0-19.0-1.17,24950,List2A,white,man,,,,null,,,,
null,is flirting with,,html-keyboard-response,394,1397069,0.0-19.0-2.17,24950,List2A,white,man,,,,null,,,,
6062,,,survey-text,395,1403133,0.0-19.0-3.17,24950,List2A,white,man,,,,,"{""Q0"":""jane is flirting with luke""}","<img src=""stim_listA/flirt1.gif""style=""height:400px;""></stim_listA>",is flirting with,
null,"<div style=""font-size:60px;"">+</div>",,html-keyboard-response,396,1403646,0.0-19.0-0.18,24950,List2A,white,man,,,,null,,,,
null,"<img src=""stim_listA/shout8.gif""style=""height:400px;""></stim_listA>",,html-keyboard-response,397,1405654,0.0-19.0-1.18,24950,List2A,white,man,,,,null,,,,
null,are shouting at each other,,html-keyboard-response,398,1407677,0.0-19.0-2.18,24950,List2A,white,man,,,,null,,,,
7997,,,survey-text,399,1415675,0.0-19.0-3.18,24950,List2A,white,man,,,,,"{""Q0"":""jane and kate are shouting at each other""}","<img src=""stim_listA/shout8.gif""style=""height:400px;""></stim_listA>",are shouting at each other,
null,"<div style=""font-size:60px;"">+</div>",,html-keyboard-response,400,1416189,0.0-19.0-0.19,24950,List2A,white,man,,,,null,,,,
null,"<img src=""stim_listA/fight8.gif""style=""height:400px;""></stim_listA>",,html-keyboard-response,401,1418193,0.0-19.0-1.19,24950,List2A,white,man,,,,null,,,,
null,are fighting each other,,html-keyboard-response,402,1420224,0.0-19.0-2.19,24950,List2A,white,man,,,,null,,,,
7642,,,survey-text,403,1427869,0.0-19.0-3.19,24950,List2A,white,man,,,,,"{""Q0"":""ruth and beth are fighting each other""}","<img src=""stim_listA/fight8.gif""style=""height:400px;""></stim_listA>",are fighting each other,
3308,<p>Thank you for completing that task.</p><p>The final part of this session is a short questionnaire.</p><p>Press Continue.</p>,0,html-button-response,404,1431179,0.0-20.0,24950,List2A,white,man,,,,,,,,
43478,,,survey-text,405,1475663,0.0-21.0,24950,List2A,white,man,,,,,"{""Q0"":""21"",""Q1"":""English"",""Q2"":""English"",""Q3"":""UK"",""Q4"":""Mixed"",""Q5"":""Male""}",,,demographics
8841,,,survey-likert,406,1484508,0.0-22.0,24950,List2A,white,man,,,,,"{""Q0"":4}",,,likert_ESS
6201,,,survey-likert,407,1490718,0.0-23.0,24950,List2A,white,man,,,,,"{""Q0"":4}",,,likert_NSSAL_Q1
4259,,,survey-likert,408,1494986,0.0-24.0,24950,List2A,white,man,,,,,"{""Q0"":4}",,,likert_NSSAL_Q2
4550,,,survey-likert,409,1499545,0.0-25.0,24950,List2A,white,man,,,,,"{""Q0"":4}",,,likert_CGRS_Q1
2616,,,survey-likert,410,1502170,0.0-26.0,24950,List2A,white,man,,,,,"{""Q0"":4}",,,likert_CGRS_Q2
7329,,,survey-likert,411,1509511,0.0-27.0,24950,List2A,white,man,,,,,"{""Q0"":4}",,,likert_CGRS_Q3
6501,,,survey-text,412,1516022,0.0-28.0,24950,List2A,white,man,,,,,"{""Q0"":""ccc""}",,,worker_id
26462,,,external-html,413,1542649,0.0-29.0,24950,List2A,white,man,debrief.html,,,,,,,
