rt,stimulus,button_pressed,trial_type,trial_index,time_elapsed,internal_node_id,subject,list,ppt_race,ppt_gender,url,first_guess,correct,key_press,responses,image_type,phrase_type,test_part
5456,Welcome to the experiment. Press Continue to begin.,0,html-button-response,0,5463,0.0-0.0,25601,List2B,white,woman,,,,,,,,
65041,,,external-html,1,71584,0.0-1.0,25601,List2B,white,woman,consent.html,,,,,,,
19402,"<p>On the next page, you will see portraits of 8 people and their names.</p><p>Your first task is to take a few minutes to memorise the names of these people.</p><p>You will have to recall their names during the rest of the experiment, so it is</p><p>essential that you try to memorise these people and their names as best as you can.</p><br><p><strong>You will then be tested on your memory of these names and portraits.</strong></p><br><p>The experiment will start after you have completed this memory test.</p><br><p>Ready?</p>",0,html-button-response,2,90991,0.0-2.0,25601,List2B,white,woman,,,,,,,,
60495,"<img src='img/portrait_matrix_list2.jpg' style='width:900px;height:500px;''></img><p>If you have memorised all the portraits and names and are ready to start, press Continue.</p><p><strong>Please note: Your memory of these faces will be tested 4 times during this experiment.</strong></p>",0,html-button-response,3,152499,0.0-3.0-0.0,25601,List2B,white,woman,,,,,,,,
8127,"<img src=""portrait/BW1.jpg""style=""height:400px;""></img>",0,html-button-response,4,161633,0.0-3.0-1.0,25601,List2B,white,woman,,TRUE,0,,,,,
null,CORRECT,,html-keyboard-response,5,163162,0.0-3.0-2.0-0.0,25601,List2B,white,woman,,,,null,,,,
2981,"<img src=""portrait/WM1.jpg""style=""height:400px;""></img>",6,html-button-response,6,166153,0.0-3.0-4.0,25601,List2B,white,woman,,TRUE,6,,,,,
null,CORRECT,,html-keyboard-response,7,167685,0.0-3.0-5.0-0.0,25601,List2B,white,woman,,,,null,,,,
5215,"<img src=""portrait/WW2.jpg""style=""height:400px;""></img>",2,html-button-response,8,172908,0.0-3.0-7.0,25601,List2B,white,woman,,TRUE,3,,,,,
6443,"<img src=""portrait/WW2.jpg""style=""height:400px;""></img>",3,html-button-response,9,180382,0.0-3.0-9.0-0.0,25601,List2B,white,woman,,FALSE,3,,,,,
null,CORRECT,,html-keyboard-response,10,181895,0.0-3.0-9.0-1.0-0.0,25601,List2B,white,woman,,,,null,,,,
12661,"<img src=""portrait/BM1.jpg""style=""height:400px;""></img>",4,html-button-response,11,194569,0.0-3.0-10.0,25601,List2B,white,woman,,TRUE,4,,,,,
null,CORRECT,,html-keyboard-response,12,196078,0.0-3.0-11.0-0.0,25601,List2B,white,woman,,,,null,,,,
2239,"<img src=""portrait/WM2.jpg""style=""height:400px;""></img>",7,html-button-response,13,198328,0.0-3.0-13.0,25601,List2B,white,woman,,TRUE,7,,,,,
null,CORRECT,,html-keyboard-response,14,199839,0.0-3.0-14.0-0.0,25601,List2B,white,woman,,,,null,,,,
6409,"<img src=""portrait/BW2.jpg""style=""height:400px;""></img>",2,html-button-response,15,206255,0.0-3.0-16.0,25601,List2B,white,woman,,TRUE,2,,,,,
null,CORRECT,,html-keyboard-response,16,207789,0.0-3.0-17.0-0.0,25601,List2B,white,woman,,,,null,,,,
4691,"<img src=""portrait/WW1.jpg""style=""height:400px;""></img>",3,html-button-response,17,212489,0.0-3.0-19.0,25601,List2B,white,woman,,TRUE,1,,,,,
4505,"<img src=""portrait/WW1.jpg""style=""height:400px;""></img>",1,html-button-response,18,218016,0.0-3.0-21.0-0.0,25601,List2B,white,woman,,FALSE,1,,,,,
null,CORRECT,,html-keyboard-response,19,219524,0.0-3.0-21.0-1.0-0.0,25601,List2B,white,woman,,,,null,,,,
4232,"<img src=""portrait/BM2.jpg""style=""height:400px;""></img>",5,html-button-response,20,223764,0.0-3.0-22.0,25601,List2B,white,woman,,TRUE,5,,,,,
null,CORRECT,,html-keyboard-response,21,225268,0.0-3.0-23.0-0.0,25601,List2B,white,woman,,,,null,,,,
3098,<p>You got 6 out of 8 right first time. Press Continue.</p>,0,html-button-response,22,228371,0.0-3.0-25.0,25601,List2B,white,woman,,,,,,,,
4112,"As you did not score 100%, the memory game will repeat. Press Continue.",0,html-button-response,23,233502,0.0-3.0-26.0-0.0,25601,List2B,white,woman,,,,,,,,
26748,"<img src='img/portrait_matrix_list2.jpg' style='width:900px;height:500px;''></img><p>If you have memorised all the portraits and names and are ready to start, press Continue.</p><p><strong>Please note: Your memory of these faces will be tested 4 times during this experiment.</strong></p>",0,html-button-response,24,261264,0.0-3.1-0.1,25601,List2B,white,woman,,,,,,,,
7179,"<img src=""portrait/BW1.jpg""style=""height:400px;""></img>",2,html-button-response,25,269455,0.0-3.1-1.1,25601,List2B,white,woman,,TRUE,0,,,,,
3759,"<img src=""portrait/BW1.jpg""style=""height:400px;""></img>",0,html-button-response,26,274231,0.0-3.1-3.1-0.1,25601,List2B,white,woman,,FALSE,0,,,,,
null,CORRECT,,html-keyboard-response,27,275744,0.0-3.1-3.1-1.1-0.1,25601,List2B,white,woman,,,,null,,,,
4657,"<img src=""portrait/WM1.jpg""style=""height:400px;""></img>",6,html-button-response,28,280410,0.0-3.1-4.1,25601,List2B,white,woman,,TRUE,6,,,,,
null,CORRECT,,html-keyboard-response,29,281919,0.0-3.1-5.1-0.1,25601,List2B,white,woman,,,,null,,,,
10910,"<img src=""portrait/WW2.jpg""style=""height:400px;""></img>",3,html-button-response,30,292840,0.0-3.1-7.1,25601,List2B,white,woman,,TRUE,3,,,,,
null,CORRECT,,html-keyboard-response,31,294358,0.0-3.1-8.1-0.1,25601,List2B,white,woman,,,,null,,,,
3401,"<img src=""portrait/BM1.jpg""style=""height:400px;""></img>",4,html-button-response,32,297767,0.0-3.1-10.1,25601,List2B,white,woman,,TRUE,4,,,,,
null,CORRECT,,html-keyboard-response,33,299318,0.0-3.1-11.1-0.1,25601,List2B,white,woman,,,,null,,,,
2712,"<img src=""portrait/WM2.jpg""style=""height:400px;""></img>",7,html-button-response,34,302039,0.0-3.1-13.1,25601,List2B,white,woman,,TRUE,7,,,,,
null,CORRECT,,html-keyboard-response,35,303547,0.0-3.1-14.1-0.1,25601,List2B,white,woman,,,,null,,,,
4705,"<img src=""portrait/BW2.jpg""style=""height:400px;""></img>",2,html-button-response,36,308261,0.0-3.1-16.1,25601,List2B,white,woman,,TRUE,2,,,,,
null,CORRECT,,html-keyboard-response,37,309773,0.0-3.1-17.1-0.1,25601,List2B,white,woman,,,,null,,,,
3564,"<img src=""portrait/WW1.jpg""style=""height:400px;""></img>",1,html-button-response,38,313347,0.0-3.1-19.1,25601,List2B,white,woman,,TRUE,1,,,,,
null,CORRECT,,html-keyboard-response,39,314858,0.0-3.1-20.1-0.1,25601,List2B,white,woman,,,,null,,,,
2822,"<img src=""portrait/BM2.jpg""style=""height:400px;""></img>",5,html-button-response,40,317691,0.0-3.1-22.1,25601,List2B,white,woman,,TRUE,5,,,,,
null,CORRECT,,html-keyboard-response,41,319201,0.0-3.1-23.1-0.1,25601,List2B,white,woman,,,,null,,,,
3040,<p>You got 7 out of 8 right first time. Press Continue.</p>,0,html-button-response,42,322251,0.0-3.1-25.1,25601,List2B,white,woman,,,,,,,,
2917,"As you did not score 100%, the memory game will repeat. Press Continue.",0,html-button-response,43,326180,0.0-3.1-26.1-0.1,25601,List2B,white,woman,,,,,,,,
9436,"<img src='img/portrait_matrix_list2.jpg' style='width:900px;height:500px;''></img><p>If you have memorised all the portraits and names and are ready to start, press Continue.</p><p><strong>Please note: Your memory of these faces will be tested 4 times during this experiment.</strong></p>",0,html-button-response,44,336632,0.0-3.2-0.2,25601,List2B,white,woman,,,,,,,,
4976,"<img src=""portrait/BW1.jpg""style=""height:400px;""></img>",0,html-button-response,45,342618,0.0-3.2-1.2,25601,List2B,white,woman,,TRUE,0,,,,,
null,CORRECT,,html-keyboard-response,46,344131,0.0-3.2-2.2-0.2,25601,List2B,white,woman,,,,null,,,,
2718,"<img src=""portrait/WM1.jpg""style=""height:400px;""></img>",6,html-button-response,47,346858,0.0-3.2-4.2,25601,List2B,white,woman,,TRUE,6,,,,,
null,CORRECT,,html-keyboard-response,48,348378,0.0-3.2-5.2-0.2,25601,List2B,white,woman,,,,null,,,,
5318,"<img src=""portrait/WW2.jpg""style=""height:400px;""></img>",3,html-button-response,49,353716,0.0-3.2-7.2,25601,List2B,white,woman,,TRUE,3,,,,,
null,CORRECT,,html-keyboard-response,50,355228,0.0-3.2-8.2-0.2,25601,List2B,white,woman,,,,null,,,,
2920,"<img src=""portrait/BM1.jpg""style=""height:400px;""></img>",4,html-button-response,51,358159,0.0-3.2-10.2,25601,List2B,white,woman,,TRUE,4,,,,,
null,CORRECT,,html-keyboard-response,52,359680,0.0-3.2-11.2-0.2,25601,List2B,white,woman,,,,null,,,,
2220,"<img src=""portrait/WM2.jpg""style=""height:400px;""></img>",7,html-button-response,53,361908,0.0-3.2-13.2,25601,List2B,white,woman,,TRUE,7,,,,,
null,CORRECT,,html-keyboard-response,54,363446,0.0-3.2-14.2-0.2,25601,List2B,white,woman,,,,null,,,,
7588,"<img src=""portrait/BW2.jpg""style=""height:400px;""></img>",2,html-button-response,55,371044,0.0-3.2-16.2,25601,List2B,white,woman,,TRUE,2,,,,,
null,CORRECT,,html-keyboard-response,56,372555,0.0-3.2-17.2-0.2,25601,List2B,white,woman,,,,null,,,,
2595,"<img src=""portrait/WW1.jpg""style=""height:400px;""></img>",1,html-button-response,57,375159,0.0-3.2-19.2,25601,List2B,white,woman,,TRUE,1,,,,,
null,CORRECT,,html-keyboard-response,58,376675,0.0-3.2-20.2-0.2,25601,List2B,white,woman,,,,null,,,,
2056,"<img src=""portrait/BM2.jpg""style=""height:400px;""></img>",5,html-button-response,59,378741,0.0-3.2-22.2,25601,List2B,white,woman,,TRUE,5,,,,,
null,CORRECT,,html-keyboard-response,60,380253,0.0-3.2-23.2-0.2,25601,List2B,white,woman,,,,null,,,,
2898,<p>You got 8 out of 8 right first time. Press Continue.</p>,0,html-button-response,61,383158,0.0-3.2-25.2,25601,List2B,white,woman,,,,,,,,
50567,"<p>In this experiment, you will view photographs of the people from the memory game interacting.</p><p>By using the <strong>exact</strong> phrase given <i>after</i> the photograph appears and recalling the correct names of the people in the photographs, form a sentence describing the interaction. You do not need to capitalise names.</p><p>Type your answer in the space provided. Please complete every sentence before moving onto the next trial.</p><p>You will only have a few seconds to memorise each given photograph and phrase before you can respond, so try your best to focus.</p><p>An example is given below. Press 'Continue' when you are ready.</p><img src='img/speaking_example.jpg' style='width:800px;height:460px;''></img>",0,html-button-response,62,434735,0.0-4.0,25601,List2B,white,woman,,,,,,,,
3755,"<p>Before the experiment starts, you will watch two example trials. Press 'Continue'.</p>",0,html-button-response,63,439501,0.0-5.0,25601,List2B,white,woman,,,,,,,,
null,<img src='img/meet_eg.gif' style='height:400px;''></img>,,html-keyboard-response,64,442515,0.0-6.0,25601,List2B,white,woman,,,,null,,,,
null,<p>is meeting</p>,,html-keyboard-response,65,444526,0.0-7.0,25601,List2B,white,woman,,,,null,,,,
4304,<p><b>Answer:</b> jane is meeting ruth</p>,0,html-button-response,66,448835,0.0-8.0,25601,List2B,white,woman,,,,,,,,
null,<img src='img/look_eg.gif' style='height:400px;''></img>,,html-keyboard-response,67,451848,0.0-9.0,25601,List2B,white,woman,,,,null,,,,
null,<p>are looking at each other</p>,,html-keyboard-response,68,453854,0.0-10.0,25601,List2B,white,woman,,,,null,,,,
2970,<p><b>Answer:</b> fred and mike are looking at each other</p>,0,html-button-response,69,456829,0.0-11.0,25601,List2B,white,woman,,,,,,,,
13373,"<p>Ready to start the experiment?</p><br><p><strong>Remember to describe the picture using a full sentence,</strong></p><p><strong>that combines the names of the people with the <i>exact</i> phrase given.</strong></p><p><strong>To receive full payment you must do this correctly.</strong></p><p><strong> You do not need to capitalise names or use punctuation.</strong></p><br><p>Press 'Continue' to begin.</p>",0,html-button-response,70,471218,0.0-12.0,25601,List2B,white,woman,,,,,,,,
null,"<div style=""font-size:60px;"">+</div>",,html-keyboard-response,71,472729,0.0-13.0-0.0,25601,List2B,white,woman,,,,null,,,,
null,"<img src=""stim_listB/shout4.gif""style=""height:400px;""></stim_listB>",,html-keyboard-response,72,474746,0.0-13.0-1.0,25601,List2B,white,woman,,,,null,,,,
null,are shouting at each other,,html-keyboard-response,73,476757,0.0-13.0-2.0,25601,List2B,white,woman,,,,null,,,,
23915,,,survey-text,74,500684,0.0-13.0-3.0,25601,List2B,white,woman,,,,,"{""Q0"":""Mike and Kate is shouting at each other""}","<img src=""stim_listB/shout4.gif""style=""height:400px;""></stim_listB>",are shouting at each other,
null,"<div style=""font-size:60px;"">+</div>",,html-keyboard-response,75,501189,0.0-13.0-0.1,25601,List2B,white,woman,,,,null,,,,
null,"<img src=""stim_listB/talk5.gif""style=""height:400px;""></stim_listB>",,html-keyboard-response,76,503193,0.0-13.0-1.1,25601,List2B,white,woman,,,,null,,,,
null,is talking to,,html-keyboard-response,77,505197,0.0-13.0-2.1,25601,List2B,white,woman,,,,null,,,,
13702,,,survey-text,78,518901,0.0-13.0-3.1,25601,List2B,white,woman,,,,,"{""Q0"":""Luke is talking to mike""}","<img src=""stim_listB/talk5.gif""style=""height:400px;""></stim_listB>",is talking to,
null,"<div style=""font-size:60px;"">+</div>",,html-keyboard-response,79,519453,0.0-13.0-0.2,25601,List2B,white,woman,,,,null,,,,
null,"<img src=""stim_listB/kiss4.gif""style=""height:400px;""></stim_listB>",,html-keyboard-response,80,521457,0.0-13.0-1.2,25601,List2B,white,woman,,,,null,,,,
null,are kissing each other,,html-keyboard-response,81,523463,0.0-13.0-2.2,25601,List2B,white,woman,,,,null,,,,
17179,,,survey-text,82,540650,0.0-13.0-3.2,25601,List2B,white,woman,,,,,"{""Q0"":""Mike and Kate is kissing at each other""}","<img src=""stim_listB/kiss4.gif""style=""height:400px;""></stim_listB>",are kissing each other,
null,"<div style=""font-size:60px;"">+</div>",,html-keyboard-response,83,541158,0.0-13.0-0.3,25601,List2B,white,woman,,,,null,,,,
null,"<img src=""stim_listB/dance4.gif""style=""height:400px;""></stim_listB>",,html-keyboard-response,84,543172,0.0-13.0-1.3,25601,List2B,white,woman,,,,null,,,,
null,are dancing with each other,,html-keyboard-response,85,545177,0.0-13.0-2.3,25601,List2B,white,woman,,,,null,,,,
24022,,,survey-text,86,569205,0.0-13.0-3.3,25601,List2B,white,woman,,,,,"{""Q0"":""Mike and Beth is dancing at each other""}","<img src=""stim_listB/dance4.gif""style=""height:400px;""></stim_listB>",are dancing with each other,
null,"<div style=""font-size:60px;"">+</div>",,html-keyboard-response,87,569713,0.0-13.0-0.4,25601,List2B,white,woman,,,,null,,,,
null,"<img src=""stim_listB/argue7.gif""style=""height:400px;""></stim_listB>",,html-keyboard-response,88,571723,0.0-13.0-1.4,25601,List2B,white,woman,,,,null,,,,
null,is arguing with,,html-keyboard-response,89,573734,0.0-13.0-2.4,25601,List2B,white,woman,,,,null,,,,
24719,,,survey-text,90,598460,0.0-13.0-3.4,25601,List2B,white,woman,,,,,"{""Q0"":""Jane is arguing with Beth""}","<img src=""stim_listB/argue7.gif""style=""height:400px;""></stim_listB>",is arguing with,
null,"<div style=""font-size:60px;"">+</div>",,html-keyboard-response,91,598968,0.0-13.0-0.5,25601,List2B,white,woman,,,,null,,,,
null,"<img src=""stim_listB/play7.gif""style=""height:400px;""></stim_listB>",,html-keyboard-response,92,600977,0.0-13.0-1.5,25601,List2B,white,woman,,,,null,,,,
null,is playing with,,html-keyboard-response,93,602982,0.0-13.0-2.5,25601,List2B,white,woman,,,,null,,,,
9904,,,survey-text,94,612890,0.0-13.0-3.5,25601,List2B,white,woman,,,,,"{""Q0"":""Jane is playing with kate""}","<img src=""stim_listB/play7.gif""style=""height:400px;""></stim_listB>",is playing with,
null,"<div style=""font-size:60px;"">+</div>",,html-keyboard-response,95,613393,0.0-13.0-0.6,25601,List2B,white,woman,,,,null,,,,
null,"<img src=""stim_listB/fight8.gif""style=""height:400px;""></stim_listB>",,html-keyboard-response,96,615398,0.0-13.0-1.6,25601,List2B,white,woman,,,,null,,,,
null,are fighting each other,,html-keyboard-response,97,617411,0.0-13.0-2.6,25601,List2B,white,woman,,,,null,,,,
16076,,,survey-text,98,633496,0.0-13.0-3.6,25601,List2B,white,woman,,,,,"{""Q0"":""Ruth is fighting with kate""}","<img src=""stim_listB/fight8.gif""style=""height:400px;""></stim_listB>",are fighting each other,
null,"<div style=""font-size:60px;"">+</div>",,html-keyboard-response,99,634003,0.0-13.0-0.7,25601,List2B,white,woman,,,,null,,,,
null,"<img src=""stim_listB/talk1.gif""style=""height:400px;""></stim_listB>",,html-keyboard-response,100,636010,0.0-13.0-1.7,25601,List2B,white,woman,,,,null,,,,
null,is talking to,,html-keyboard-response,101,638018,0.0-13.0-2.7,25601,List2B,white,woman,,,,null,,,,
11238,,,survey-text,102,649266,0.0-13.0-3.7,25601,List2B,white,woman,,,,,"{""Q0"":""Jane is talking with Luke""}","<img src=""stim_listB/talk1.gif""style=""height:400px;""></stim_listB>",is talking to,
null,"<div style=""font-size:60px;"">+</div>",,html-keyboard-response,103,649797,0.0-13.0-0.8,25601,List2B,white,woman,,,,null,,,,
null,"<img src=""stim_listB/play5.gif""style=""height:400px;""></stim_listB>",,html-keyboard-response,104,651804,0.0-13.0-1.8,25601,List2B,white,woman,,,,null,,,,
null,is playing with,,html-keyboard-response,105,653811,0.0-13.0-2.8,25601,List2B,white,woman,,,,null,,,,
12059,,,survey-text,106,665878,0.0-13.0-3.8,25601,List2B,white,woman,,,,,"{""Q0"":""Mike Dave""}","<img src=""stim_listB/play5.gif""style=""height:400px;""></stim_listB>",is playing with,
null,"<div style=""font-size:60px;"">+</div>",,html-keyboard-response,107,666382,0.0-13.0-0.9,25601,List2B,white,woman,,,,null,,,,
null,"<img src=""stim_listB/dance2.gif""style=""height:400px;""></stim_listB>",,html-keyboard-response,108,668390,0.0-13.0-1.9,25601,List2B,white,woman,,,,null,,,,
null,are dancing with each other,,html-keyboard-response,109,670399,0.0-13.0-2.9,25601,List2B,white,woman,,,,null,,,,
15234,,,survey-text,110,685642,0.0-13.0-3.9,25601,List2B,white,woman,,,,,"{""Q0"":""Mike and Ruth is dancing with each other""}","<img src=""stim_listB/dance2.gif""style=""height:400px;""></stim_listB>",are dancing with each other,
null,"<div style=""font-size:60px;"">+</div>",,html-keyboard-response,111,686151,0.0-13.0-0.10,25601,List2B,white,woman,,,,null,,,,
null,"<img src=""stim_listB/marry3.gif""style=""height:400px;""></stim_listB>",,html-keyboard-response,112,688162,0.0-13.0-1.10,25601,List2B,white,woman,,,,null,,,,
null,is marrying,,html-keyboard-response,113,690172,0.0-13.0-2.10,25601,List2B,white,woman,,,,null,,,,
11047,,,survey-text,114,701226,0.0-13.0-3.10,25601,List2B,white,woman,,,,,"{""Q0"":""Mike is marrying Beth""}","<img src=""stim_listB/marry3.gif""style=""height:400px;""></stim_listB>",is marrying,
null,"<div style=""font-size:60px;"">+</div>",,html-keyboard-response,115,701734,0.0-13.0-0.11,25601,List2B,white,woman,,,,null,,,,
null,"<img src=""stim_listB/kiss1.gif""style=""height:400px;""></stim_listB>",,html-keyboard-response,116,703742,0.0-13.0-1.11,25601,List2B,white,woman,,,,null,,,,
null,is kissing,,html-keyboard-response,117,705746,0.0-13.0-2.11,25601,List2B,white,woman,,,,null,,,,
8391,,,survey-text,118,714143,0.0-13.0-3.11,25601,List2B,white,woman,,,,,"{""Q0"":""Luke is kissing Ruth""}","<img src=""stim_listB/kiss1.gif""style=""height:400px;""></stim_listB>",is kissing,
null,"<div style=""font-size:60px;"">+</div>",,html-keyboard-response,119,714651,0.0-13.0-0.12,25601,List2B,white,woman,,,,null,,,,
null,"<img src=""stim_listB/play1.gif""style=""height:400px;""></stim_listB>",,html-keyboard-response,120,716662,0.0-13.0-1.12,25601,List2B,white,woman,,,,null,,,,
null,is playing with,,html-keyboard-response,121,718670,0.0-13.0-2.12,25601,List2B,white,woman,,,,null,,,,
7328,,,survey-text,122,726007,0.0-13.0-3.12,25601,List2B,white,woman,,,,,"{""Q0"":""Jane is playing with dave""}","<img src=""stim_listB/play1.gif""style=""height:400px;""></stim_listB>",is playing with,
null,"<div style=""font-size:60px;"">+</div>",,html-keyboard-response,123,726514,0.0-13.0-0.13,25601,List2B,white,woman,,,,null,,,,
null,"<img src=""stim_listB/shout8.gif""style=""height:400px;""></stim_listB>",,html-keyboard-response,124,728524,0.0-13.0-1.13,25601,List2B,white,woman,,,,null,,,,
null,are shouting at each other,,html-keyboard-response,125,730531,0.0-13.0-2.13,25601,List2B,white,woman,,,,null,,,,
23277,,,survey-text,126,753815,0.0-13.0-3.13,25601,List2B,white,woman,,,,,"{""Q0"":""Kate and Jane is shouting at each other""}","<img src=""stim_listB/shout8.gif""style=""height:400px;""></stim_listB>",are shouting at each other,
null,"<div style=""font-size:60px;"">+</div>",,html-keyboard-response,127,754327,0.0-13.0-0.14,25601,List2B,white,woman,,,,null,,,,
null,"<img src=""stim_listB/fight7.gif""style=""height:400px;""></stim_listB>",,html-keyboard-response,128,756334,0.0-13.0-1.14,25601,List2B,white,woman,,,,null,,,,
null,is fighting,,html-keyboard-response,129,758342,0.0-13.0-2.14,25601,List2B,white,woman,,,,null,,,,
17617,,,survey-text,130,775969,0.0-13.0-3.14,25601,List2B,white,woman,,,,,"{""Q0"":""Jane is fighting kate""}","<img src=""stim_listB/fight7.gif""style=""height:400px;""></stim_listB>",is fighting,
null,"<div style=""font-size:60px;"">+</div>",,html-keyboard-response,131,776477,0.0-13.0-0.15,25601,List2B,white,woman,,,,null,,,,
null,"<img src=""stim_listB/play3.gif""style=""height:400px;""></stim_listB>",,html-keyboard-response,132,778491,0.0-13.0-1.15,25601,List2B,white,woman,,,,null,,,,
null,is playing with,,html-keyboard-response,133,780500,0.0-13.0-2.15,25601,List2B,white,woman,,,,null,,,,
7882,,,survey-text,134,788393,0.0-13.0-3.15,25601,List2B,white,woman,,,,,"{""Q0"":""Kate is playing with mike""}","<img src=""stim_listB/play3.gif""style=""height:400px;""></stim_listB>",is playing with,
null,"<div style=""font-size:60px;"">+</div>",,html-keyboard-response,135,788902,0.0-13.0-0.16,25601,List2B,white,woman,,,,null,,,,
null,"<img src=""stim_listB/talk7.gif""style=""height:400px;""></stim_listB>",,html-keyboard-response,136,790912,0.0-13.0-1.16,25601,List2B,white,woman,,,,null,,,,
null,is talking to,,html-keyboard-response,137,792922,0.0-13.0-2.16,25601,List2B,white,woman,,,,null,,,,
7158,,,survey-text,138,800089,0.0-13.0-3.16,25601,List2B,white,woman,,,,,"{""Q0"":""Ruth is talking to kate""}","<img src=""stim_listB/talk7.gif""style=""height:400px;""></stim_listB>",is talking to,
null,"<div style=""font-size:60px;"">+</div>",,html-keyboard-response,139,800597,0.0-13.0-0.17,25601,List2B,white,woman,,,,null,,,,
null,"<img src=""stim_listB/kiss7.gif""style=""height:400px;""></stim_listB>",,html-keyboard-response,140,802605,0.0-13.0-1.17,25601,List2B,white,woman,,,,null,,,,
null,is kissing,,html-keyboard-response,141,804612,0.0-13.0-2.17,25601,List2B,white,woman,,,,null,,,,
6285,,,survey-text,142,810906,0.0-13.0-3.17,25601,List2B,white,woman,,,,,"{""Q0"":""Beth is kissing ruth""}","<img src=""stim_listB/kiss7.gif""style=""height:400px;""></stim_listB>",is kissing,
null,"<div style=""font-size:60px;"">+</div>",,html-keyboard-response,143,811415,0.0-13.0-0.18,25601,List2B,white,woman,,,,null,,,,
null,"<img src=""stim_listB/fight2.gif""style=""height:400px;""></stim_listB>",,html-keyboard-response,144,813424,0.0-13.0-1.18,25601,List2B,white,woman,,,,null,,,,
null,are fighting each other,,html-keyboard-response,145,815437,0.0-13.0-2.18,25601,List2B,white,woman,,,,null,,,,
15120,,,survey-text,146,830564,0.0-13.0-3.18,25601,List2B,white,woman,,,,,"{""Q0"":""Ruth and Luke are fighting each other""}","<img src=""stim_listB/fight2.gif""style=""height:400px;""></stim_listB>",are fighting each other,
null,"<div style=""font-size:60px;"">+</div>",,html-keyboard-response,147,831066,0.0-13.0-0.19,25601,List2B,white,woman,,,,null,,,,
null,"<img src=""stim_listB/dance5.gif""style=""height:400px;""></stim_listB>",,html-keyboard-response,148,833071,0.0-13.0-1.19,25601,List2B,white,woman,,,,null,,,,
null,is dancing with,,html-keyboard-response,149,835081,0.0-13.0-2.19,25601,List2B,white,woman,,,,null,,,,
7934,,,survey-text,150,843027,0.0-13.0-3.19,25601,List2B,white,woman,,,,,"{""Q0"":""Luke is dancing with mike""}","<img src=""stim_listB/dance5.gif""style=""height:400px;""></stim_listB>",is dancing with,
14164,"<img src='img/portrait_matrix_list2.jpg' style='width:900px;height:500px;''></img><p>If you have memorised all the portraits and names and are ready to start, press Continue.</p><p><strong>Please note: Your memory of these faces will be tested 4 times during this experiment.</strong></p>",0,html-button-response,151,857200,0.0-14.0-0.0,25601,List2B,white,woman,,,,,,,,
2891,"<img src=""portrait/WW2.jpg""style=""height:400px;""></img>",3,html-button-response,152,861106,0.0-14.0-1.0,25601,List2B,white,woman,,TRUE,3,,,,,
null,CORRECT,,html-keyboard-response,153,862629,0.0-14.0-2.0-0.0,25601,List2B,white,woman,,,,null,,,,
5728,"<img src=""portrait/WM1.jpg""style=""height:400px;""></img>",6,html-button-response,154,868367,0.0-14.0-4.0,25601,List2B,white,woman,,TRUE,6,,,,,
null,CORRECT,,html-keyboard-response,155,869892,0.0-14.0-5.0-0.0,25601,List2B,white,woman,,,,null,,,,
2512,"<img src=""portrait/WM2.jpg""style=""height:400px;""></img>",7,html-button-response,156,872415,0.0-14.0-7.0,25601,List2B,white,woman,,TRUE,7,,,,,
null,CORRECT,,html-keyboard-response,157,873929,0.0-14.0-8.0-0.0,25601,List2B,white,woman,,,,null,,,,
3417,"<img src=""portrait/WW1.jpg""style=""height:400px;""></img>",1,html-button-response,158,877358,0.0-14.0-10.0,25601,List2B,white,woman,,TRUE,1,,,,,
null,CORRECT,,html-keyboard-response,159,878869,0.0-14.0-11.0-0.0,25601,List2B,white,woman,,,,null,,,,
2482,"<img src=""portrait/BM1.jpg""style=""height:400px;""></img>",4,html-button-response,160,881363,0.0-14.0-13.0,25601,List2B,white,woman,,TRUE,4,,,,,
null,CORRECT,,html-keyboard-response,161,882878,0.0-14.0-14.0-0.0,25601,List2B,white,woman,,,,null,,,,
3979,"<img src=""portrait/BW1.jpg""style=""height:400px;""></img>",0,html-button-response,162,886869,0.0-14.0-16.0,25601,List2B,white,woman,,TRUE,0,,,,,
null,CORRECT,,html-keyboard-response,163,888385,0.0-14.0-17.0-0.0,25601,List2B,white,woman,,,,null,,,,
2325,"<img src=""portrait/BW2.jpg""style=""height:400px;""></img>",2,html-button-response,164,890721,0.0-14.0-19.0,25601,List2B,white,woman,,TRUE,2,,,,,
null,CORRECT,,html-keyboard-response,165,892231,0.0-14.0-20.0-0.0,25601,List2B,white,woman,,,,null,,,,
2517,"<img src=""portrait/BM2.jpg""style=""height:400px;""></img>",5,html-button-response,166,894760,0.0-14.0-22.0,25601,List2B,white,woman,,TRUE,5,,,,,
null,CORRECT,,html-keyboard-response,167,896283,0.0-14.0-23.0-0.0,25601,List2B,white,woman,,,,null,,,,
1420,<p>You got 8 out of 8 right first time. Press Continue.</p>,0,html-button-response,168,897734,0.0-14.0-25.0,25601,List2B,white,woman,,,,,,,,
null,"<div style=""font-size:60px;"">+</div>",,html-keyboard-response,169,899246,0.0-15.0-0.0,25601,List2B,white,woman,,,,null,,,,
null,"<img src=""stim_listB/talk6.gif""style=""height:400px;""></stim_listB>",,html-keyboard-response,170,901256,0.0-15.0-1.0,25601,List2B,white,woman,,,,null,,,,
null,are talking to each other,,html-keyboard-response,171,903267,0.0-15.0-2.0,25601,List2B,white,woman,,,,null,,,,
15172,,,survey-text,172,918448,0.0-15.0-3.0,25601,List2B,white,woman,,,,,"{""Q0"":""Fred and Dave are talking to each other""}","<img src=""stim_listB/talk6.gif""style=""height:400px;""></stim_listB>",are talking to each other,
null,"<div style=""font-size:60px;"">+</div>",,html-keyboard-response,173,918957,0.0-15.0-0.1,25601,List2B,white,woman,,,,null,,,,
null,"<img src=""stim_listB/touch4.gif""style=""height:400px;""></stim_listB>",,html-keyboard-response,174,920971,0.0-15.0-1.1,25601,List2B,white,woman,,,,null,,,,
null,are touching each other,,html-keyboard-response,175,922977,0.0-15.0-2.1,25601,List2B,white,woman,,,,null,,,,
9535,,,survey-text,176,932520,0.0-15.0-3.1,25601,List2B,white,woman,,,,,"{""Q0"":""Kate and Fred are touching each other""}","<img src=""stim_listB/touch4.gif""style=""height:400px;""></stim_listB>",are touching each other,
null,"<div style=""font-size:60px;"">+</div>",,html-keyboard-response,177,933030,0.0-15.0-0.2,25601,List2B,white,woman,,,,null,,,,
null,"<img src=""stim_listB/talk8.gif""style=""height:400px;""></stim_listB>",,html-keyboard-response,178,935041,0.0-15.0-1.2,25601,List2B,white,woman,,,,null,,,,
null,are talking to each other,,html-keyboard-response,179,937055,0.0-15.0-2.2,25601,List2B,white,woman,,,,null,,,,
11315,,,survey-text,180,948379,0.0-15.0-3.2,25601,List2B,white,woman,,,,,"{""Q0"":""Kate and Jane are talking to each other""}","<img src=""stim_listB/talk8.gif""style=""height:400px;""></stim_listB>",are talking to each other,
null,"<div style=""font-size:60px;"">+</div>",,html-keyboard-response,181,948888,0.0-15.0-0.3,25601,List2B,white,woman,,,,null,,,,
null,"<img src=""stim_listB/dance8.gif""style=""height:400px;""></stim_listB>",,html-keyboard-response,182,950905,0.0-15.0-1.3,25601,List2B,white,woman,,,,null,,,,
null,are dancing with each other,,html-keyboard-response,183,952915,0.0-15.0-2.3,25601,List2B,white,woman,,,,null,,,,
11008,,,survey-text,184,963934,0.0-15.0-3.3,25601,List2B,white,woman,,,,,"{""Q0"":""Jane and Beth are dancing with each other""}","<img src=""stim_listB/dance8.gif""style=""height:400px;""></stim_listB>",are dancing with each other,
null,"<div style=""font-size:60px;"">+</div>",,html-keyboard-response,185,964446,0.0-15.0-0.4,25601,List2B,white,woman,,,,null,,,,
null,"<img src=""stim_listB/marry5.gif""style=""height:400px;""></stim_listB>",,html-keyboard-response,186,966459,0.0-15.0-1.4,25601,List2B,white,woman,,,,null,,,,
null,is marrying,,html-keyboard-response,187,968472,0.0-15.0-2.4,25601,List2B,white,woman,,,,null,,,,
10287,,,survey-text,188,978770,0.0-15.0-3.4,25601,List2B,white,woman,,,,,"{""Q0"":""Fred is marrying dave""}","<img src=""stim_listB/marry5.gif""style=""height:400px;""></stim_listB>",is marrying,
null,"<div style=""font-size:60px;"">+</div>",,html-keyboard-response,189,979281,0.0-15.0-0.5,25601,List2B,white,woman,,,,null,,,,
null,"<img src=""stim_listB/fight5.gif""style=""height:400px;""></stim_listB>",,html-keyboard-response,190,981293,0.0-15.0-1.5,25601,List2B,white,woman,,,,null,,,,
null,is fighting,,html-keyboard-response,191,983299,0.0-15.0-2.5,25601,List2B,white,woman,,,,null,,,,
6231,,,survey-text,192,989541,0.0-15.0-3.5,25601,List2B,white,woman,,,,,"{""Q0"":""Mike is fighting dave""}","<img src=""stim_listB/fight5.gif""style=""height:400px;""></stim_listB>",is fighting,
null,"<div style=""font-size:60px;"">+</div>",,html-keyboard-response,193,990051,0.0-15.0-0.6,25601,List2B,white,woman,,,,null,,,,
null,"<img src=""stim_listB/argue5.gif""style=""height:400px;""></stim_listB>",,html-keyboard-response,194,992064,0.0-15.0-1.6,25601,List2B,white,woman,,,,null,,,,
null,is arguing with,,html-keyboard-response,195,994075,0.0-15.0-2.6,25601,List2B,white,woman,,,,null,,,,
10541,,,survey-text,196,1004622,0.0-15.0-3.6,25601,List2B,white,woman,,,,,"{""Q0"":""Fred is arguing with dave""}","<img src=""stim_listB/argue5.gif""style=""height:400px;""></stim_listB>",is arguing with,
null,"<div style=""font-size:60px;"">+</div>",,html-keyboard-response,197,1005132,0.0-15.0-0.7,25601,List2B,white,woman,,,,null,,,,
null,"<img src=""stim_listB/talk3.gif""style=""height:400px;""></stim_listB>",,html-keyboard-response,198,1007138,0.0-15.0-1.7,25601,List2B,white,woman,,,,null,,,,
null,is talking to,,html-keyboard-response,199,1009141,0.0-15.0-2.7,25601,List2B,white,woman,,,,null,,,,
8191,,,survey-text,200,1017342,0.0-15.0-3.7,25601,List2B,white,woman,,,,,"{""Q0"":""Fred is talking to beth""}","<img src=""stim_listB/talk3.gif""style=""height:400px;""></stim_listB>",is talking to,
null,"<div style=""font-size:60px;"">+</div>",,html-keyboard-response,201,1017850,0.0-15.0-0.8,25601,List2B,white,woman,,,,null,,,,
null,"<img src=""stim_listB/flirt7.gif""style=""height:400px;""></stim_listB>",,html-keyboard-response,202,1019859,0.0-15.0-1.8,25601,List2B,white,woman,,,,null,,,,
null,is flirting with,,html-keyboard-response,203,1021883,0.0-15.0-2.8,25601,List2B,white,woman,,,,null,,,,
9058,,,survey-text,204,1030954,0.0-15.0-3.8,25601,List2B,white,woman,,,,,"{""Q0"":""Kate is flirting with ruth""}","<img src=""stim_listB/flirt7.gif""style=""height:400px;""></stim_listB>",is flirting with,
null,"<div style=""font-size:60px;"">+</div>",,html-keyboard-response,205,1031461,0.0-15.0-0.9,25601,List2B,white,woman,,,,null,,,,
null,"<img src=""stim_listB/dance3.gif""style=""height:400px;""></stim_listB>",,html-keyboard-response,206,1033470,0.0-15.0-1.9,25601,List2B,white,woman,,,,null,,,,
null,is dancing with,,html-keyboard-response,207,1035487,0.0-15.0-2.9,25601,List2B,white,woman,,,,null,,,,
7505,,,survey-text,208,1043002,0.0-15.0-3.9,25601,List2B,white,woman,,,,,"{""Q0"":""Kate is dancing with fred""}","<img src=""stim_listB/dance3.gif""style=""height:400px;""></stim_listB>",is dancing with,
null,"<div style=""font-size:60px;"">+</div>",,html-keyboard-response,209,1043512,0.0-15.0-0.10,25601,List2B,white,woman,,,,null,,,,
null,"<img src=""stim_listB/marry1.gif""style=""height:400px;""></stim_listB>",,html-keyboard-response,210,1045524,0.0-15.0-1.10,25601,List2B,white,woman,,,,null,,,,
null,is marrying,,html-keyboard-response,211,1047530,0.0-15.0-2.10,25601,List2B,white,woman,,,,null,,,,
13812,,,survey-text,212,1061352,0.0-15.0-3.10,25601,List2B,white,woman,,,,,"{""Q0"":""Dave is marring ruth""}","<img src=""stim_listB/marry1.gif""style=""height:400px;""></stim_listB>",is marrying,
null,"<div style=""font-size:60px;"">+</div>",,html-keyboard-response,213,1061860,0.0-15.0-0.11,25601,List2B,white,woman,,,,null,,,,
null,"<img src=""stim_listB/dance6.gif""style=""height:400px;""></stim_listB>",,html-keyboard-response,214,1063872,0.0-15.0-1.11,25601,List2B,white,woman,,,,null,,,,
null,are dancing with each other,,html-keyboard-response,215,1065878,0.0-15.0-2.11,25601,List2B,white,woman,,,,null,,,,
14527,,,survey-text,216,1080417,0.0-15.0-3.11,25601,List2B,white,woman,,,,,"{""Q0"":""Dave and Fred are dancing with each other""}","<img src=""stim_listB/dance6.gif""style=""height:400px;""></stim_listB>",are dancing with each other,
null,"<div style=""font-size:60px;"">+</div>",,html-keyboard-response,217,1080925,0.0-15.0-0.12,25601,List2B,white,woman,,,,null,,,,
null,"<img src=""stim_listB/touch7.gif""style=""height:400px;""></stim_listB>",,html-keyboard-response,218,1082935,0.0-15.0-1.12,25601,List2B,white,woman,,,,null,,,,
null,is touching,,html-keyboard-response,219,1084947,0.0-15.0-2.12,25601,List2B,white,woman,,,,null,,,,
7542,,,survey-text,220,1092498,0.0-15.0-3.12,25601,List2B,white,woman,,,,,"{""Q0"":""Kate is touching jane""}","<img src=""stim_listB/touch7.gif""style=""height:400px;""></stim_listB>",is touching,
null,"<div style=""font-size:60px;"">+</div>",,html-keyboard-response,221,1093008,0.0-15.0-0.13,25601,List2B,white,woman,,,,null,,,,
null,"<img src=""stim_listB/dance1.gif""style=""height:400px;""></stim_listB>",,html-keyboard-response,222,1095016,0.0-15.0-1.13,25601,List2B,white,woman,,,,null,,,,
null,is dancing with,,html-keyboard-response,223,1097020,0.0-15.0-2.13,25601,List2B,white,woman,,,,null,,,,
13504,,,survey-text,224,1110532,0.0-15.0-3.13,25601,List2B,white,woman,,,,,"{""Q0"":""Jane is dancing with luke""}","<img src=""stim_listB/dance1.gif""style=""height:400px;""></stim_listB>",is dancing with,
null,"<div style=""font-size:60px;"">+</div>",,html-keyboard-response,225,1111044,0.0-15.0-0.14,25601,List2B,white,woman,,,,null,,,,
null,"<img src=""stim_listB/marry7.gif""style=""height:400px;""></stim_listB>",,html-keyboard-response,226,1113055,0.0-15.0-1.14,25601,List2B,white,woman,,,,null,,,,
null,is marrying,,html-keyboard-response,227,1115064,0.0-15.0-2.14,25601,List2B,white,woman,,,,null,,,,
27412,,,survey-text,228,1142492,0.0-15.0-3.14,25601,List2B,white,woman,,,,,"{""Q0"":""Beth is marrying jane""}","<img src=""stim_listB/marry7.gif""style=""height:400px;""></stim_listB>",is marrying,
null,"<div style=""font-size:60px;"">+</div>",,html-keyboard-response,229,1143002,0.0-15.0-0.15,25601,List2B,white,woman,,,,null,,,,
null,"<img src=""stim_listB/argue4.gif""style=""height:400px;""></stim_listB>",,html-keyboard-response,230,1145009,0.0-15.0-1.15,25601,List2B,white,woman,,,,null,,,,
null,are arguing with each other,,html-keyboard-response,231,1147018,0.0-15.0-2.15,25601,List2B,white,woman,,,,null,,,,
11612,,,survey-text,232,1158641,0.0-15.0-3.15,25601,List2B,white,woman,,,,,"{""Q0"":""Fred and Kate are arguing with each other""}","<img src=""stim_listB/argue4.gif""style=""height:400px;""></stim_listB>",are arguing with each other,
null,"<div style=""font-size:60px;"">+</div>",,html-keyboard-response,233,1159148,0.0-15.0-0.16,25601,List2B,white,woman,,,,null,,,,
null,"<img src=""stim_listB/argue2.gif""style=""height:400px;""></stim_listB>",,html-keyboard-response,234,1161162,0.0-15.0-1.16,25601,List2B,white,woman,,,,null,,,,
null,are arguing with each other,,html-keyboard-response,235,1163171,0.0-15.0-2.16,25601,List2B,white,woman,,,,null,,,,
11401,,,survey-text,236,1174581,0.0-15.0-3.16,25601,List2B,white,woman,,,,,"{""Q0"":""Jane and Luke are arguing with each other""}","<img src=""stim_listB/argue2.gif""style=""height:400px;""></stim_listB>",are arguing with each other,
null,"<div style=""font-size:60px;"">+</div>",,html-keyboard-response,237,1175093,0.0-15.0-0.17,25601,List2B,white,woman,,,,null,,,,
null,"<img src=""stim_listB/fight4.gif""style=""height:400px;""></stim_listB>",,html-keyboard-response,238,1177105,0.0-15.0-1.17,25601,List2B,white,woman,,,,null,,,,
null,are fighting each other,,html-keyboard-response,239,1179113,0.0-15.0-2.17,25601,List2B,white,woman,,,,null,,,,
10721,,,survey-text,240,1189844,0.0-15.0-3.17,25601,List2B,white,woman,,,,,"{""Q0"":""Beth and Fred are fighting each other""}","<img src=""stim_listB/fight4.gif""style=""height:400px;""></stim_listB>",are fighting each other,
null,"<div style=""font-size:60px;"">+</div>",,html-keyboard-response,241,1190353,0.0-15.0-0.18,25601,List2B,white,woman,,,,null,,,,
null,"<img src=""stim_listB/talk2.gif""style=""height:400px;""></stim_listB>",,html-keyboard-response,242,1192363,0.0-15.0-1.18,25601,List2B,white,woman,,,,null,,,,
null,are talking to each other,,html-keyboard-response,243,1194370,0.0-15.0-2.18,25601,List2B,white,woman,,,,null,,,,
10861,,,survey-text,244,1205246,0.0-15.0-3.18,25601,List2B,white,woman,,,,,"{""Q0"":""Ruth and Dave are talking with each other""}","<img src=""stim_listB/talk2.gif""style=""height:400px;""></stim_listB>",are talking to each other,
null,"<div style=""font-size:60px;"">+</div>",,html-keyboard-response,245,1205755,0.0-15.0-0.19,25601,List2B,white,woman,,,,null,,,,
null,"<img src=""stim_listB/marry6.gif""style=""height:400px;""></stim_listB>",,html-keyboard-response,246,1207766,0.0-15.0-1.19,25601,List2B,white,woman,,,,null,,,,
null,are marrying each other,,html-keyboard-response,247,1209774,0.0-15.0-2.19,25601,List2B,white,woman,,,,null,,,,
11627,,,survey-text,248,1221411,0.0-15.0-3.19,25601,List2B,white,woman,,,,,"{""Q0"":""Mike and Luke are marrying each other""}","<img src=""stim_listB/marry6.gif""style=""height:400px;""></stim_listB>",are marrying each other,
12784,"<img src='img/portrait_matrix_list2.jpg' style='width:900px;height:500px;''></img><p>If you have memorised all the portraits and names and are ready to start, press Continue.</p><p><strong>Please note: Your memory of these faces will be tested 4 times during this experiment.</strong></p>",0,html-button-response,249,1234205,0.0-16.0-0.0,25601,List2B,white,woman,,,,,,,,
3960,"<img src=""portrait/WW1.jpg""style=""height:400px;""></img>",1,html-button-response,250,1239197,0.0-16.0-1.0,25601,List2B,white,woman,,TRUE,1,,,,,
null,CORRECT,,html-keyboard-response,251,1240707,0.0-16.0-2.0-0.0,25601,List2B,white,woman,,,,null,,,,
3052,"<img src=""portrait/BW1.jpg""style=""height:400px;""></img>",0,html-button-response,252,1243768,0.0-16.0-4.0,25601,List2B,white,woman,,TRUE,0,,,,,
null,CORRECT,,html-keyboard-response,253,1245282,0.0-16.0-5.0-0.0,25601,List2B,white,woman,,,,null,,,,
4034,"<img src=""portrait/BM1.jpg""style=""height:400px;""></img>",4,html-button-response,254,1249324,0.0-16.0-7.0,25601,List2B,white,woman,,TRUE,4,,,,,
null,CORRECT,,html-keyboard-response,255,1250840,0.0-16.0-8.0-0.0,25601,List2B,white,woman,,,,null,,,,
3683,"<img src=""portrait/WM2.jpg""style=""height:400px;""></img>",7,html-button-response,256,1254534,0.0-16.0-10.0,25601,List2B,white,woman,,TRUE,7,,,,,
null,CORRECT,,html-keyboard-response,257,1256044,0.0-16.0-11.0-0.0,25601,List2B,white,woman,,,,null,,,,
2087,"<img src=""portrait/WM1.jpg""style=""height:400px;""></img>",6,html-button-response,258,1258153,0.0-16.0-13.0,25601,List2B,white,woman,,TRUE,6,,,,,
null,CORRECT,,html-keyboard-response,259,1259666,0.0-16.0-14.0-0.0,25601,List2B,white,woman,,,,null,,,,
2345,"<img src=""portrait/WW2.jpg""style=""height:400px;""></img>",3,html-button-response,260,1262020,0.0-16.0-16.0,25601,List2B,white,woman,,TRUE,3,,,,,
null,CORRECT,,html-keyboard-response,261,1263545,0.0-16.0-17.0-0.0,25601,List2B,white,woman,,,,null,,,,
2230,"<img src=""portrait/BM2.jpg""style=""height:400px;""></img>",5,html-button-response,262,1265784,0.0-16.0-19.0,25601,List2B,white,woman,,TRUE,5,,,,,
null,CORRECT,,html-keyboard-response,263,1267296,0.0-16.0-20.0-0.0,25601,List2B,white,woman,,,,null,,,,
4482,"<img src=""portrait/BW2.jpg""style=""height:400px;""></img>",2,html-button-response,264,1271786,0.0-16.0-22.0,25601,List2B,white,woman,,TRUE,2,,,,,
null,CORRECT,,html-keyboard-response,265,1273298,0.0-16.0-23.0-0.0,25601,List2B,white,woman,,,,null,,,,
1244,<p>You got 8 out of 8 right first time. Press Continue.</p>,0,html-button-response,266,1274550,0.0-16.0-25.0,25601,List2B,white,woman,,,,,,,,
null,"<div style=""font-size:60px;"">+</div>",,html-keyboard-response,267,1276061,0.0-17.0-0.0,25601,List2B,white,woman,,,,null,,,,
null,"<img src=""stim_listB/kiss6.gif""style=""height:400px;""></stim_listB>",,html-keyboard-response,268,1278067,0.0-17.0-1.0,25601,List2B,white,woman,,,,null,,,,
null,are kissing each other,,html-keyboard-response,269,1280071,0.0-17.0-2.0,25601,List2B,white,woman,,,,null,,,,
14983,,,survey-text,270,1295058,0.0-17.0-3.0,25601,List2B,white,woman,,,,,"{""Q0"":""Mike and Dave are kissing each other""}","<img src=""stim_listB/kiss6.gif""style=""height:400px;""></stim_listB>",are kissing each other,
null,"<div style=""font-size:60px;"">+</div>",,html-keyboard-response,271,1295561,0.0-17.0-0.1,25601,List2B,white,woman,,,,null,,,,
null,"<img src=""stim_listB/kiss5.gif""style=""height:400px;""></stim_listB>",,html-keyboard-response,272,1297571,0.0-17.0-1.1,25601,List2B,white,woman,,,,null,,,,
null,is kissing,,html-keyboard-response,273,1299577,0.0-17.0-2.1,25601,List2B,white,woman,,,,null,,,,
10660,,,survey-text,274,1310243,0.0-17.0-3.1,25601,List2B,white,woman,,,,,"{""Q0"":""Luke is kissing fred""}","<img src=""stim_listB/kiss5.gif""style=""height:400px;""></stim_listB>",is kissing,
null,"<div style=""font-size:60px;"">+</div>",,html-keyboard-response,275,1310752,0.0-17.0-0.2,25601,List2B,white,woman,,,,null,,,,
null,"<img src=""stim_listB/kiss8.gif""style=""height:400px;""></stim_listB>",,html-keyboard-response,276,1312762,0.0-17.0-1.2,25601,List2B,white,woman,,,,null,,,,
null,are kissing each other,,html-keyboard-response,277,1314770,0.0-17.0-2.2,25601,List2B,white,woman,,,,null,,,,
12805,,,survey-text,278,1327587,0.0-17.0-3.2,25601,List2B,white,woman,,,,,"{""Q0"":""Jane and Kate are kissing each other""}","<img src=""stim_listB/kiss8.gif""style=""height:400px;""></stim_listB>",are kissing each other,
null,"<div style=""font-size:60px;"">+</div>",,html-keyboard-response,279,1328095,0.0-17.0-0.3,25601,List2B,white,woman,,,,null,,,,
null,"<img src=""stim_listB/touch2.gif""style=""height:400px;""></stim_listB>",,html-keyboard-response,280,1330113,0.0-17.0-1.3,25601,List2B,white,woman,,,,null,,,,
null,are touching each other,,html-keyboard-response,281,1332123,0.0-17.0-2.3,25601,List2B,white,woman,,,,null,,,,
12939,,,survey-text,282,1345071,0.0-17.0-3.3,25601,List2B,white,woman,,,,,"{""Q0"":""Ruth and Luke are touching each other""}","<img src=""stim_listB/touch2.gif""style=""height:400px;""></stim_listB>",are touching each other,
null,"<div style=""font-size:60px;"">+</div>",,html-keyboard-response,283,1345577,0.0-17.0-0.4,25601,List2B,white,woman,,,,null,,,,
null,"<img src=""stim_listB/shout7.gif""style=""height:400px;""></stim_listB>",,html-keyboard-response,284,1347586,0.0-17.0-1.4,25601,List2B,white,woman,,,,null,,,,
null,is shouting at,,html-keyboard-response,285,1349596,0.0-17.0-2.4,25601,List2B,white,woman,,,,null,,,,
9194,,,survey-text,286,1358799,0.0-17.0-3.4,25601,List2B,white,woman,,,,,"{""Q0"":""Beth is shouting at Ruth""}","<img src=""stim_listB/shout7.gif""style=""height:400px;""></stim_listB>",is shouting at,
null,"<div style=""font-size:60px;"">+</div>",,html-keyboard-response,287,1359307,0.0-17.0-0.5,25601,List2B,white,woman,,,,null,,,,
null,"<img src=""stim_listB/argue6.gif""style=""height:400px;""></stim_listB>",,html-keyboard-response,288,1361321,0.0-17.0-1.5,25601,List2B,white,woman,,,,null,,,,
null,are arguing with each other,,html-keyboard-response,289,1363337,0.0-17.0-2.5,25601,List2B,white,woman,,,,null,,,,
13344,,,survey-text,290,1376692,0.0-17.0-3.5,25601,List2B,white,woman,,,,,"{""Q0"":""Mike and Luke are arguing with each other""}","<img src=""stim_listB/argue6.gif""style=""height:400px;""></stim_listB>",are arguing with each other,
null,"<div style=""font-size:60px;"">+</div>",,html-keyboard-response,291,1377204,0.0-17.0-0.6,25601,List2B,white,woman,,,,null,,,,
null,"<img src=""stim_listB/argue8.gif""style=""height:400px;""></stim_listB>",,html-keyboard-response,292,1379214,0.0-17.0-1.6,25601,List2B,white,woman,,,,null,,,,
null,are arguing with each other,,html-keyboard-response,293,1381221,0.0-17.0-2.6,25601,List2B,white,woman,,,,null,,,,
11242,,,survey-text,294,1392474,0.0-17.0-3.6,25601,List2B,white,woman,,,,,"{""Q0"":""Ruth and Kate are arguing with each other""}","<img src=""stim_listB/argue8.gif""style=""height:400px;""></stim_listB>",are arguing with each other,
null,"<div style=""font-size:60px;"">+</div>",,html-keyboard-response,295,1392983,0.0-17.0-0.7,25601,List2B,white,woman,,,,null,,,,
null,"<img src=""stim_listB/touch6.gif""style=""height:400px;""></stim_listB>",,html-keyboard-response,296,1394996,0.0-17.0-1.7,25601,List2B,white,woman,,,,null,,,,
null,are touching each other,,html-keyboard-response,297,1397003,0.0-17.0-2.7,25601,List2B,white,woman,,,,null,,,,
11660,,,survey-text,298,1408672,0.0-17.0-3.7,25601,List2B,white,woman,,,,,"{""Q0"":""Fred and Luke are touching each other""}","<img src=""stim_listB/touch6.gif""style=""height:400px;""></stim_listB>",are touching each other,
null,"<div style=""font-size:60px;"">+</div>",,html-keyboard-response,299,1409182,0.0-17.0-0.8,25601,List2B,white,woman,,,,null,,,,
null,"<img src=""stim_listB/fight1.gif""style=""height:400px;""></stim_listB>",,html-keyboard-response,300,1411196,0.0-17.0-1.8,25601,List2B,white,woman,,,,null,,,,
null,is fighting,,html-keyboard-response,301,1413205,0.0-17.0-2.8,25601,List2B,white,woman,,,,null,,,,
8970,,,survey-text,302,1422186,0.0-17.0-3.8,25601,List2B,white,woman,,,,,"{""Q0"":""Dave is fighting jane""}","<img src=""stim_listB/fight1.gif""style=""height:400px;""></stim_listB>",is fighting,
null,"<div style=""font-size:60px;"">+</div>",,html-keyboard-response,303,1422695,0.0-17.0-0.9,25601,List2B,white,woman,,,,null,,,,
null,"<img src=""stim_listB/shout6.gif""style=""height:400px;""></stim_listB>",,html-keyboard-response,304,1424719,0.0-17.0-1.9,25601,List2B,white,woman,,,,null,,,,
null,are shouting at each other,,html-keyboard-response,305,1426727,0.0-17.0-2.9,25601,List2B,white,woman,,,,null,,,,
16085,,,survey-text,306,1442821,0.0-17.0-3.9,25601,List2B,white,woman,,,,,"{""Q0"":""Mike and Dave are shouting at each other""}","<img src=""stim_listB/shout6.gif""style=""height:400px;""></stim_listB>",are shouting at each other,
null,"<div style=""font-size:60px;"">+</div>",,html-keyboard-response,307,1443331,0.0-17.0-0.10,25601,List2B,white,woman,,,,null,,,,
null,"<img src=""stim_listB/flirt3.gif""style=""height:400px;""></stim_listB>",,html-keyboard-response,308,1445340,0.0-17.0-1.10,25601,List2B,white,woman,,,,null,,,,
null,is flirting with,,html-keyboard-response,309,1447352,0.0-17.0-2.10,25601,List2B,white,woman,,,,null,,,,
8256,,,survey-text,310,1455618,0.0-17.0-3.10,25601,List2B,white,woman,,,,,"{""Q0"":""Kate is flirting with fred""}","<img src=""stim_listB/flirt3.gif""style=""height:400px;""></stim_listB>",is flirting with,
null,"<div style=""font-size:60px;"">+</div>",,html-keyboard-response,311,1456127,0.0-17.0-0.11,25601,List2B,white,woman,,,,null,,,,
null,"<img src=""stim_listB/flirt8.gif""style=""height:400px;""></stim_listB>",,html-keyboard-response,312,1458135,0.0-17.0-1.11,25601,List2B,white,woman,,,,null,,,,
null,are flirting with each other,,html-keyboard-response,313,1460143,0.0-17.0-2.11,25601,List2B,white,woman,,,,null,,,,
15914,,,survey-text,314,1476065,0.0-17.0-3.11,25601,List2B,white,woman,,,,,"{""Q0"":""Kate and Jane are flirting with each other""}","<img src=""stim_listB/flirt8.gif""style=""height:400px;""></stim_listB>",are flirting with each other,
null,"<div style=""font-size:60px;"">+</div>",,html-keyboard-response,315,1476573,0.0-17.0-0.12,25601,List2B,white,woman,,,,null,,,,
null,"<img src=""stim_listB/flirt6.gif""style=""height:400px;""></stim_listB>",,html-keyboard-response,316,1478586,0.0-17.0-1.12,25601,List2B,white,woman,,,,null,,,,
null,are flirting with each other,,html-keyboard-response,317,1480592,0.0-17.0-2.12,25601,List2B,white,woman,,,,null,,,,
14758,,,survey-text,318,1495360,0.0-17.0-3.12,25601,List2B,white,woman,,,,,"{""Q0"":""Dave and Fred are flirting with each other""}","<img src=""stim_listB/flirt6.gif""style=""height:400px;""></stim_listB>",are flirting with each other,
null,"<div style=""font-size:60px;"">+</div>",,html-keyboard-response,319,1495872,0.0-17.0-0.13,25601,List2B,white,woman,,,,null,,,,
null,"<img src=""stim_listB/kiss2.gif""style=""height:400px;""></stim_listB>",,html-keyboard-response,320,1497880,0.0-17.0-1.13,25601,List2B,white,woman,,,,null,,,,
null,are kissing each other,,html-keyboard-response,321,1499886,0.0-17.0-2.13,25601,List2B,white,woman,,,,null,,,,
12712,,,survey-text,322,1512611,0.0-17.0-3.13,25601,List2B,white,woman,,,,,"{""Q0"":""Jane and Dave are kissing each other""}","<img src=""stim_listB/kiss2.gif""style=""height:400px;""></stim_listB>",are kissing each other,
null,"<div style=""font-size:60px;"">+</div>",,html-keyboard-response,323,1513121,0.0-17.0-0.14,25601,List2B,white,woman,,,,null,,,,
null,"<img src=""stim_listB/touch1.gif""style=""height:400px;""></stim_listB>",,html-keyboard-response,324,1515130,0.0-17.0-1.14,25601,List2B,white,woman,,,,null,,,,
null,is touching,,html-keyboard-response,325,1517138,0.0-17.0-2.14,25601,List2B,white,woman,,,,null,,,,
8588,,,survey-text,326,1525736,0.0-17.0-3.14,25601,List2B,white,woman,,,,,"{""Q0"":""Jane is touching dave""}","<img src=""stim_listB/touch1.gif""style=""height:400px;""></stim_listB>",is touching,
null,"<div style=""font-size:60px;"">+</div>",,html-keyboard-response,327,1526246,0.0-17.0-0.15,25601,List2B,white,woman,,,,null,,,,
null,"<img src=""stim_listB/shout3.gif""style=""height:400px;""></stim_listB>",,html-keyboard-response,328,1528257,0.0-17.0-1.15,25601,List2B,white,woman,,,,null,,,,
null,is shouting at,,html-keyboard-response,329,1530265,0.0-17.0-2.15,25601,List2B,white,woman,,,,null,,,,
8452,,,survey-text,330,1538730,0.0-17.0-3.15,25601,List2B,white,woman,,,,,"{""Q0"":""Beth is shouting at fred""}","<img src=""stim_listB/shout3.gif""style=""height:400px;""></stim_listB>",is shouting at,
null,"<div style=""font-size:60px;"">+</div>",,html-keyboard-response,331,1539237,0.0-17.0-0.16,25601,List2B,white,woman,,,,null,,,,
null,"<img src=""stim_listB/flirt4.gif""style=""height:400px;""></stim_listB>",,html-keyboard-response,332,1541247,0.0-17.0-1.16,25601,List2B,white,woman,,,,null,,,,
null,are flirting with each other,,html-keyboard-response,333,1543255,0.0-17.0-2.16,25601,List2B,white,woman,,,,null,,,,
10431,,,survey-text,334,1553712,0.0-17.0-3.16,25601,List2B,white,woman,,,,,"{""Q0"":""Mike and Beth are flirting with each other""}","<img src=""stim_listB/flirt4.gif""style=""height:400px;""></stim_listB>",are flirting with each other,
null,"<div style=""font-size:60px;"">+</div>",,html-keyboard-response,335,1554221,0.0-17.0-0.17,25601,List2B,white,woman,,,,null,,,,
null,"<img src=""stim_listB/fight6.gif""style=""height:400px;""></stim_listB>",,html-keyboard-response,336,1556235,0.0-17.0-1.17,25601,List2B,white,woman,,,,null,,,,
null,are fighting each other,,html-keyboard-response,337,1558242,0.0-17.0-2.17,25601,List2B,white,woman,,,,null,,,,
18574,,,survey-text,338,1576831,0.0-17.0-3.17,25601,List2B,white,woman,,,,,"{""Q0"":""Fred and Luke are fighting each other""}","<img src=""stim_listB/fight6.gif""style=""height:400px;""></stim_listB>",are fighting each other,
null,"<div style=""font-size:60px;"">+</div>",,html-keyboard-response,339,1577341,0.0-17.0-0.18,25601,List2B,white,woman,,,,null,,,,
null,"<img src=""stim_listB/flirt1.gif""style=""height:400px;""></stim_listB>",,html-keyboard-response,340,1579354,0.0-17.0-1.18,25601,List2B,white,woman,,,,null,,,,
null,is flirting with,,html-keyboard-response,341,1581364,0.0-17.0-2.18,25601,List2B,white,woman,,,,null,,,,
12104,,,survey-text,342,1593482,0.0-17.0-3.18,25601,List2B,white,woman,,,,,"{""Q0"":""Luke is flirting with jane""}","<img src=""stim_listB/flirt1.gif""style=""height:400px;""></stim_listB>",is flirting with,
null,"<div style=""font-size:60px;"">+</div>",,html-keyboard-response,343,1593991,0.0-17.0-0.19,25601,List2B,white,woman,,,,null,,,,
null,"<img src=""stim_listB/flirt5.gif""style=""height:400px;""></stim_listB>",,html-keyboard-response,344,1596002,0.0-17.0-1.19,25601,List2B,white,woman,,,,null,,,,
null,is flirting with,,html-keyboard-response,345,1598008,0.0-17.0-2.19,25601,List2B,white,woman,,,,null,,,,
9997,,,survey-text,346,1608014,0.0-17.0-3.19,25601,List2B,white,woman,,,,,"{""Q0"":""Luke is flirting with Mike""}","<img src=""stim_listB/flirt5.gif""style=""height:400px;""></stim_listB>",is flirting with,
3000,"<img src='img/portrait_matrix_list2.jpg' style='width:900px;height:500px;''></img><p>If you have memorised all the portraits and names and are ready to start, press Continue.</p><p><strong>Please note: Your memory of these faces will be tested 4 times during this experiment.</strong></p>",0,html-button-response,347,1611025,0.0-18.0-0.0,25601,List2B,white,woman,,,,,,,,
4016,"<img src=""portrait/WM1.jpg""style=""height:400px;""></img>",6,html-button-response,348,1616060,0.0-18.0-1.0,25601,List2B,white,woman,,TRUE,6,,,,,
null,CORRECT,,html-keyboard-response,349,1617576,0.0-18.0-2.0-0.0,25601,List2B,white,woman,,,,null,,,,
1895,"<img src=""portrait/BM2.jpg""style=""height:400px;""></img>",5,html-button-response,350,1619491,0.0-18.0-4.0,25601,List2B,white,woman,,TRUE,5,,,,,
null,CORRECT,,html-keyboard-response,351,1620995,0.0-18.0-5.0-0.0,25601,List2B,white,woman,,,,null,,,,
1902,"<img src=""portrait/BW1.jpg""style=""height:400px;""></img>",0,html-button-response,352,1622901,0.0-18.0-7.0,25601,List2B,white,woman,,TRUE,0,,,,,
null,CORRECT,,html-keyboard-response,353,1624423,0.0-18.0-8.0-0.0,25601,List2B,white,woman,,,,null,,,,
2517,"<img src=""portrait/WW1.jpg""style=""height:400px;""></img>",1,html-button-response,354,1626950,0.0-18.0-10.0,25601,List2B,white,woman,,TRUE,1,,,,,
null,CORRECT,,html-keyboard-response,355,1628459,0.0-18.0-11.0-0.0,25601,List2B,white,woman,,,,null,,,,
2573,"<img src=""portrait/WM2.jpg""style=""height:400px;""></img>",7,html-button-response,356,1631045,0.0-18.0-13.0,25601,List2B,white,woman,,TRUE,7,,,,,
null,CORRECT,,html-keyboard-response,357,1632561,0.0-18.0-14.0-0.0,25601,List2B,white,woman,,,,null,,,,
1752,"<img src=""portrait/BM1.jpg""style=""height:400px;""></img>",4,html-button-response,358,1634325,0.0-18.0-16.0,25601,List2B,white,woman,,TRUE,4,,,,,
null,CORRECT,,html-keyboard-response,359,1635846,0.0-18.0-17.0-0.0,25601,List2B,white,woman,,,,null,,,,
1606,"<img src=""portrait/WW2.jpg""style=""height:400px;""></img>",3,html-button-response,360,1637462,0.0-18.0-19.0,25601,List2B,white,woman,,TRUE,3,,,,,
null,CORRECT,,html-keyboard-response,361,1638976,0.0-18.0-20.0-0.0,25601,List2B,white,woman,,,,null,,,,
2476,"<img src=""portrait/BW2.jpg""style=""height:400px;""></img>",2,html-button-response,362,1641462,0.0-18.0-22.0,25601,List2B,white,woman,,TRUE,2,,,,,
null,CORRECT,,html-keyboard-response,363,1642973,0.0-18.0-23.0-0.0,25601,List2B,white,woman,,,,null,,,,
1212,<p>You got 8 out of 8 right first time. Press Continue.</p>,0,html-button-response,364,1644197,0.0-18.0-25.0,25601,List2B,white,woman,,,,,,,,
null,"<div style=""font-size:60px;"">+</div>",,html-keyboard-response,365,1645721,0.0-19.0-0.0,25601,List2B,white,woman,,,,null,,,,
null,"<img src=""stim_listB/flirt2.gif""style=""height:400px;""></stim_listB>",,html-keyboard-response,366,1647730,0.0-19.0-1.0,25601,List2B,white,woman,,,,null,,,,
null,are flirting with each other,,html-keyboard-response,367,1649739,0.0-19.0-2.0,25601,List2B,white,woman,,,,null,,,,
12998,,,survey-text,368,1662745,0.0-19.0-3.0,25601,List2B,white,woman,,,,,"{""Q0"":""Ruth and Dave are flirting with each other""}","<img src=""stim_listB/flirt2.gif""style=""height:400px;""></stim_listB>",are flirting with each other,
null,"<div style=""font-size:60px;"">+</div>",,html-keyboard-response,369,1663254,0.0-19.0-0.1,25601,List2B,white,woman,,,,null,,,,
null,"<img src=""stim_listB/shout1.gif""style=""height:400px;""></stim_listB>",,html-keyboard-response,370,1665265,0.0-19.0-1.1,25601,List2B,white,woman,,,,null,,,,
null,is shouting at,,html-keyboard-response,371,1667270,0.0-19.0-2.1,25601,List2B,white,woman,,,,null,,,,
14577,,,survey-text,372,1681855,0.0-19.0-3.1,25601,List2B,white,woman,,,,,"{""Q0"":""Ruth is shouting at luke""}","<img src=""stim_listB/shout1.gif""style=""height:400px;""></stim_listB>",is shouting at,
null,"<div style=""font-size:60px;"">+</div>",,html-keyboard-response,373,1682368,0.0-19.0-0.2,25601,List2B,white,woman,,,,null,,,,
null,"<img src=""stim_listB/talk4.gif""style=""height:400px;""></stim_listB>",,html-keyboard-response,374,1684378,0.0-19.0-1.2,25601,List2B,white,woman,,,,null,,,,
null,are talking to each other,,html-keyboard-response,375,1686387,0.0-19.0-2.2,25601,List2B,white,woman,,,,null,,,,
13477,,,survey-text,376,1699874,0.0-19.0-3.2,25601,List2B,white,woman,,,,,"{""Q0"":""Mike and Beth are talking with each other""}","<img src=""stim_listB/talk4.gif""style=""height:400px;""></stim_listB>",are talking to each other,
null,"<div style=""font-size:60px;"">+</div>",,html-keyboard-response,377,1700383,0.0-19.0-0.3,25601,List2B,white,woman,,,,null,,,,
null,"<img src=""stim_listB/marry4.gif""style=""height:400px;""></stim_listB>",,html-keyboard-response,378,1702395,0.0-19.0-1.3,25601,List2B,white,woman,,,,null,,,,
null,are marrying each other,,html-keyboard-response,379,1704403,0.0-19.0-2.3,25601,List2B,white,woman,,,,null,,,,
11533,,,survey-text,380,1715946,0.0-19.0-3.3,25601,List2B,white,woman,,,,,"{""Q0"":""Fred and Kate are marrying each other""}","<img src=""stim_listB/marry4.gif""style=""height:400px;""></stim_listB>",are marrying each other,
null,"<div style=""font-size:60px;"">+</div>",,html-keyboard-response,381,1716455,0.0-19.0-0.4,25601,List2B,white,woman,,,,null,,,,
null,"<img src=""stim_listB/touch3.gif""style=""height:400px;""></stim_listB>",,html-keyboard-response,382,1718471,0.0-19.0-1.4,25601,List2B,white,woman,,,,null,,,,
null,is touching,,html-keyboard-response,383,1720476,0.0-19.0-2.4,25601,List2B,white,woman,,,,null,,,,
5715,,,survey-text,384,1726200,0.0-19.0-3.4,25601,List2B,white,woman,,,,,"{""Q0"":""Kate is touching mike""}","<img src=""stim_listB/touch3.gif""style=""height:400px;""></stim_listB>",is touching,
null,"<div style=""font-size:60px;"">+</div>",,html-keyboard-response,385,1726709,0.0-19.0-0.5,25601,List2B,white,woman,,,,null,,,,
null,"<img src=""stim_listB/marry8.gif""style=""height:400px;""></stim_listB>",,html-keyboard-response,386,1728719,0.0-19.0-1.5,25601,List2B,white,woman,,,,null,,,,
null,are marrying each other,,html-keyboard-response,387,1730728,0.0-19.0-2.5,25601,List2B,white,woman,,,,null,,,,
10216,,,survey-text,388,1740957,0.0-19.0-3.5,25601,List2B,white,woman,,,,,"{""Q0"":""Kate and Ruth are marrying each other""}","<img src=""stim_listB/marry8.gif""style=""height:400px;""></stim_listB>",are marrying each other,
null,"<div style=""font-size:60px;"">+</div>",,html-keyboard-response,389,1741466,0.0-19.0-0.6,25601,List2B,white,woman,,,,null,,,,
null,"<img src=""stim_listB/kiss3.gif""style=""height:400px;""></stim_listB>",,html-keyboard-response,390,1743479,0.0-19.0-1.6,25601,List2B,white,woman,,,,null,,,,
null,is kissing,,html-keyboard-response,391,1745489,0.0-19.0-2.6,25601,List2B,white,woman,,,,null,,,,
5650,,,survey-text,392,1751159,0.0-19.0-3.6,25601,List2B,white,woman,,,,,"{""Q0"":""Beth is kissing fred""}","<img src=""stim_listB/kiss3.gif""style=""height:400px;""></stim_listB>",is kissing,
null,"<div style=""font-size:60px;"">+</div>",,html-keyboard-response,393,1751670,0.0-19.0-0.7,25601,List2B,white,woman,,,,null,,,,
null,"<img src=""stim_listB/shout2.gif""style=""height:400px;""></stim_listB>",,html-keyboard-response,394,1753679,0.0-19.0-1.7,25601,List2B,white,woman,,,,null,,,,
null,are shouting at each other,,html-keyboard-response,395,1755689,0.0-19.0-2.7,25601,List2B,white,woman,,,,null,,,,
10607,,,survey-text,396,1766306,0.0-19.0-3.7,25601,List2B,white,woman,,,,,"{""Q0"":""Jane and Dave are shouting at each other""}","<img src=""stim_listB/shout2.gif""style=""height:400px;""></stim_listB>",are shouting at each other,
null,"<div style=""font-size:60px;"">+</div>",,html-keyboard-response,397,1766815,0.0-19.0-0.8,25601,List2B,white,woman,,,,null,,,,
null,"<img src=""stim_listB/fight3.gif""style=""height:400px;""></stim_listB>",,html-keyboard-response,398,1768827,0.0-19.0-1.8,25601,List2B,white,woman,,,,null,,,,
null,is fighting,,html-keyboard-response,399,1770842,0.0-19.0-2.8,25601,List2B,white,woman,,,,null,,,,
9916,,,survey-text,400,1780767,0.0-19.0-3.8,25601,List2B,white,woman,,,,,"{""Q0"":""Mike is fighting with kate""}","<img src=""stim_listB/fight3.gif""style=""height:400px;""></stim_listB>",is fighting,
null,"<div style=""font-size:60px;"">+</div>",,html-keyboard-response,401,1781274,0.0-19.0-0.9,25601,List2B,white,woman,,,,null,,,,
null,"<img src=""stim_listB/argue1.gif""style=""height:400px;""></stim_listB>",,html-keyboard-response,402,1783286,0.0-19.0-1.9,25601,List2B,white,woman,,,,null,,,,
null,is arguing with,,html-keyboard-response,403,1785297,0.0-19.0-2.9,25601,List2B,white,woman,,,,null,,,,
6440,,,survey-text,404,1791745,0.0-19.0-3.9,25601,List2B,white,woman,,,,,"{""Q0"":""Dave is arguing with ruth""}","<img src=""stim_listB/argue1.gif""style=""height:400px;""></stim_listB>",is arguing with,
null,"<div style=""font-size:60px;"">+</div>",,html-keyboard-response,405,1792252,0.0-19.0-0.10,25601,List2B,white,woman,,,,null,,,,
null,"<img src=""stim_listB/shout5.gif""style=""height:400px;""></stim_listB>",,html-keyboard-response,406,1794263,0.0-19.0-1.10,25601,List2B,white,woman,,,,null,,,,
null,is shouting at,,html-keyboard-response,407,1796272,0.0-19.0-2.10,25601,List2B,white,woman,,,,null,,,,
6637,,,survey-text,408,1802921,0.0-19.0-3.10,25601,List2B,white,woman,,,,,"{""Q0"":""Fred is shouting at luke""}","<img src=""stim_listB/shout5.gif""style=""height:400px;""></stim_listB>",is shouting at,
null,"<div style=""font-size:60px;"">+</div>",,html-keyboard-response,409,1803430,0.0-19.0-0.11,25601,List2B,white,woman,,,,null,,,,
null,"<img src=""stim_listB/marry2.gif""style=""height:400px;""></stim_listB>",,html-keyboard-response,410,1805439,0.0-19.0-1.11,25601,List2B,white,woman,,,,null,,,,
null,are marrying each other,,html-keyboard-response,411,1807446,0.0-19.0-2.11,25601,List2B,white,woman,,,,null,,,,
8820,,,survey-text,412,1816276,0.0-19.0-3.11,25601,List2B,white,woman,,,,,"{""Q0"":""Luke and Jane are marrying each other""}","<img src=""stim_listB/marry2.gif""style=""height:400px;""></stim_listB>",are marrying each other,
null,"<div style=""font-size:60px;"">+</div>",,html-keyboard-response,413,1816787,0.0-19.0-0.12,25601,List2B,white,woman,,,,null,,,,
null,"<img src=""stim_listB/argue3.gif""style=""height:400px;""></stim_listB>",,html-keyboard-response,414,1818795,0.0-19.0-1.12,25601,List2B,white,woman,,,,null,,,,
null,is arguing with,,html-keyboard-response,415,1820810,0.0-19.0-2.12,25601,List2B,white,woman,,,,null,,,,
7103,,,survey-text,416,1827929,0.0-19.0-3.12,25601,List2B,white,woman,,,,,"{""Q0"":""Mike is arguing with Beth""}","<img src=""stim_listB/argue3.gif""style=""height:400px;""></stim_listB>",is arguing with,
null,"<div style=""font-size:60px;"">+</div>",,html-keyboard-response,417,1828438,0.0-19.0-0.13,25601,List2B,white,woman,,,,null,,,,
null,"<img src=""stim_listB/touch5.gif""style=""height:400px;""></stim_listB>",,html-keyboard-response,418,1830448,0.0-19.0-1.13,25601,List2B,white,woman,,,,null,,,,
null,is touching,,html-keyboard-response,419,1832457,0.0-19.0-2.13,25601,List2B,white,woman,,,,null,,,,
7482,,,survey-text,420,1839946,0.0-19.0-3.13,25601,List2B,white,woman,,,,,"{""Q0"":""Dave is touching mike""}","<img src=""stim_listB/touch5.gif""style=""height:400px;""></stim_listB>",is touching,
null,"<div style=""font-size:60px;"">+</div>",,html-keyboard-response,421,1840455,0.0-19.0-0.14,25601,List2B,white,woman,,,,null,,,,
null,"<img src=""stim_listB/play2.gif""style=""height:400px;""></stim_listB>",,html-keyboard-response,422,1842467,0.0-19.0-1.14,25601,List2B,white,woman,,,,null,,,,
null,are playing with each other,,html-keyboard-response,423,1844477,0.0-19.0-2.14,25601,List2B,white,woman,,,,null,,,,
12148,,,survey-text,424,1856631,0.0-19.0-3.14,25601,List2B,white,woman,,,,,"{""Q0"":""Ruth and Luke are playing with each other""}","<img src=""stim_listB/play2.gif""style=""height:400px;""></stim_listB>",are playing with each other,
null,"<div style=""font-size:60px;"">+</div>",,html-keyboard-response,425,1857141,0.0-19.0-0.15,25601,List2B,white,woman,,,,null,,,,
null,"<img src=""stim_listB/play8.gif""style=""height:400px;""></stim_listB>",,html-keyboard-response,426,1859152,0.0-19.0-1.15,25601,List2B,white,woman,,,,null,,,,
null,are playing with each other,,html-keyboard-response,427,1861160,0.0-19.0-2.15,25601,List2B,white,woman,,,,null,,,,
7563,,,survey-text,428,1868731,0.0-19.0-3.15,25601,List2B,white,woman,,,,,"{""Q0"":""Ruth and Beth are playing with each other""}","<img src=""stim_listB/play8.gif""style=""height:400px;""></stim_listB>",are playing with each other,
null,"<div style=""font-size:60px;"">+</div>",,html-keyboard-response,429,1869237,0.0-19.0-0.16,25601,List2B,white,woman,,,,null,,,,
null,"<img src=""stim_listB/touch8.gif""style=""height:400px;""></stim_listB>",,html-keyboard-response,430,1871244,0.0-19.0-1.16,25601,List2B,white,woman,,,,null,,,,
null,are touching each other,,html-keyboard-response,431,1873258,0.0-19.0-2.16,25601,List2B,white,woman,,,,null,,,,
11037,,,survey-text,432,1884302,0.0-19.0-3.16,25601,List2B,white,woman,,,,,"{""Q0"":""Beth and Ruth are touching each other""}","<img src=""stim_listB/touch8.gif""style=""height:400px;""></stim_listB>",are touching each other,
null,"<div style=""font-size:60px;"">+</div>",,html-keyboard-response,433,1884803,0.0-19.0-0.17,25601,List2B,white,woman,,,,null,,,,
null,"<img src=""stim_listB/play6.gif""style=""height:400px;""></stim_listB>",,html-keyboard-response,434,1886811,0.0-19.0-1.17,25601,List2B,white,woman,,,,null,,,,
null,are playing with each other,,html-keyboard-response,435,1888816,0.0-19.0-2.17,25601,List2B,white,woman,,,,null,,,,
7839,,,survey-text,436,1896660,0.0-19.0-3.17,25601,List2B,white,woman,,,,,"{""Q0"":""Fred and Luke are playing with each other""}","<img src=""stim_listB/play6.gif""style=""height:400px;""></stim_listB>",are playing with each other,
null,"<div style=""font-size:60px;"">+</div>",,html-keyboard-response,437,1897163,0.0-19.0-0.18,25601,List2B,white,woman,,,,null,,,,
null,"<img src=""stim_listB/play4.gif""style=""height:400px;""></stim_listB>",,html-keyboard-response,438,1899167,0.0-19.0-1.18,25601,List2B,white,woman,,,,null,,,,
null,are playing with each other,,html-keyboard-response,439,1901170,0.0-19.0-2.18,25601,List2B,white,woman,,,,null,,,,
12962,,,survey-text,440,1914137,0.0-19.0-3.18,25601,List2B,white,woman,,,,,"{""Q0"":""Beth and Fred are playing with each other""}","<img src=""stim_listB/play4.gif""style=""height:400px;""></stim_listB>",are playing with each other,
null,"<div style=""font-size:60px;"">+</div>",,html-keyboard-response,441,1914644,0.0-19.0-0.19,25601,List2B,white,woman,,,,null,,,,
null,"<img src=""stim_listB/dance7.gif""style=""height:400px;""></stim_listB>",,html-keyboard-response,442,1916653,0.0-19.0-1.19,25601,List2B,white,woman,,,,null,,,,
null,is dancing with,,html-keyboard-response,443,1918660,0.0-19.0-2.19,25601,List2B,white,woman,,,,null,,,,
7263,,,survey-text,444,1925935,0.0-19.0-3.19,25601,List2B,white,woman,,,,,"{""Q0"":""Kate is dancing with ruth""}","<img src=""stim_listB/dance7.gif""style=""height:400px;""></stim_listB>",is dancing with,
4416,<p>Thank you for completing that task.</p><p>The final part of this session is a short questionnaire.</p><p>Press Continue.</p>,0,html-button-response,445,1930362,0.0-20.0,25601,List2B,white,woman,,,,,,,,
30697,,,survey-text,446,1962079,0.0-21.0,25601,List2B,white,woman,,,,,"{""Q0"":""30"",""Q1"":""English"",""Q2"":""English"",""Q3"":""Wales"",""Q4"":""Caucasian"",""Q5"":""Female""}",,,demographics
8852,,,survey-likert,447,1971002,0.0-22.0,25601,List2B,white,woman,,,,,"{""Q0"":4}",,,likert_ESS
10690,,,survey-likert,448,1981701,0.0-23.0,25601,List2B,white,woman,,,,,"{""Q0"":4}",,,likert_NSSAL_Q1
4681,,,survey-likert,449,1986388,0.0-24.0,25601,List2B,white,woman,,,,,"{""Q0"":4}",,,likert_NSSAL_Q2
8080,,,survey-likert,450,1994475,0.0-25.0,25601,List2B,white,woman,,,,,"{""Q0"":4}",,,likert_CGRS_Q1
7827,,,survey-likert,451,2002310,0.0-26.0,25601,List2B,white,woman,,,,,"{""Q0"":4}",,,likert_CGRS_Q2
6196,,,survey-likert,452,2008511,0.0-27.0,25601,List2B,white,woman,,,,,"{""Q0"":4}",,,likert_CGRS_Q3
5869,,,survey-text,453,2014394,0.0-28.0,25601,List2B,white,woman,,,,,"{""Q0"":""ccc""}",,,worker_id
18301,,,external-html,454,2032972,0.0-29.0,25601,List2B,white,woman,debrief.html,,,,,,,
