"rt","stimulus","button_pressed","trial_type","trial_index","time_elapsed","internal_node_id","subject","list","ppt_race","ppt_gender","url","first_guess","correct","key_press","responses","image_type","phrase_type","test_part"
"2414","Welcome to the experiment. Press Continue to begin.","0","html-button-response","0","2416","0.0-0.0","25792","List1A","black","woman","","","","","","","",""
"58080","","","external-html","1","61658","0.0-1.0","25792","List1A","black","woman","consent.html","","","","","","",""
"6268","<p>On the next page, you will see portraits of 8 people and their names.</p><p>Your first task is to take a few minutes to memorise the names of these people.</p><p>You will have to recall their names during the rest of the experiment, so it is</p><p>essential that you try to memorise these people and their names as best as you can.</p><br><p><strong>You will then be tested on your memory of these names and portraits.</strong></p><br><p>The experiment will start after you have completed this memory test.</p><br><p>Ready?</p>","0","html-button-response","2","67927","0.0-2.0","25792","List1A","black","woman","","","","","","","",""
"41523","<img src='img/portrait_matrix_list1.jpg' style='width:900px;height:500px;''></img><p>If you have memorised all the portraits and names and are ready to start, press Continue.</p><p><strong>Please note: Your memory of these faces will be tested 4 times during this experiment.</strong></p>","0","html-button-response","3","110453","0.0-3.0-0.0","25792","List1A","black","woman","","","","","","","",""
"2768","<img src=""portrait/BW1.jpg""style=""height:400px;""></img>","0","html-button-response","4","114223","0.0-3.0-1.0","25792","List1A","black","woman","","true","0","","","","",""
"null","CORRECT","","html-keyboard-response","5","115728","0.0-3.0-2.0-0.0","25792","List1A","black","woman","","","","null","","","",""
"10715","<img src=""portrait/WW1.jpg""style=""height:400px;""></img>","1","html-button-response","6","126445","0.0-3.0-4.0","25792","List1A","black","woman","","true","1","","","","",""
"null","CORRECT","","html-keyboard-response","7","127947","0.0-3.0-5.0-0.0","25792","List1A","black","woman","","","","null","","","",""
"6719","<img src=""portrait/BW2.jpg""style=""height:400px;""></img>","2","html-button-response","8","134667","0.0-3.0-7.0","25792","List1A","black","woman","","true","2","","","","",""
"null","CORRECT","","html-keyboard-response","9","136170","0.0-3.0-8.0-0.0","25792","List1A","black","woman","","","","null","","","",""
"1989","<img src=""portrait/WW2.jpg""style=""height:400px;""></img>","3","html-button-response","10","138159","0.0-3.0-10.0","25792","List1A","black","woman","","true","3","","","","",""
"null","CORRECT","","html-keyboard-response","11","139663","0.0-3.0-11.0-0.0","25792","List1A","black","woman","","","","null","","","",""
"2410","<img src=""portrait/BM1.jpg""style=""height:400px;""></img>","4","html-button-response","12","142073","0.0-3.0-13.0","25792","List1A","black","woman","","true","4","","","","",""
"null","CORRECT","","html-keyboard-response","13","143576","0.0-3.0-14.0-0.0","25792","List1A","black","woman","","","","null","","","",""
"11455","<img src=""portrait/WM1.jpg""style=""height:400px;""></img>","7","html-button-response","14","155032","0.0-3.0-16.0","25792","List1A","black","woman","","true","6","","","","",""
"3060","<img src=""portrait/WM1.jpg""style=""height:400px;""></img>","6","html-button-response","15","159096","0.0-3.0-18.0-0.0","25792","List1A","black","woman","","false","6","","","","",""
"null","CORRECT","","html-keyboard-response","16","160599","0.0-3.0-18.0-1.0-0.0","25792","List1A","black","woman","","","","null","","","",""
"3326","<img src=""portrait/WM2.jpg""style=""height:400px;""></img>","7","html-button-response","17","163926","0.0-3.0-19.0","25792","List1A","black","woman","","true","7","","","","",""
"null","CORRECT","","html-keyboard-response","18","165430","0.0-3.0-20.0-0.0","25792","List1A","black","woman","","","","null","","","",""
"5579","<img src=""portrait/BM2.jpg""style=""height:400px;""></img>","5","html-button-response","19","171010","0.0-3.0-22.0","25792","List1A","black","woman","","true","5","","","","",""
"null","CORRECT","","html-keyboard-response","20","172512","0.0-3.0-23.0-0.0","25792","List1A","black","woman","","","","null","","","",""
"1968","<p>You got 7 out of 8 right first time. Press Continue.</p>","0","html-button-response","21","174481","0.0-3.0-25.0","25792","List1A","black","woman","","","","","","","",""
"4780","As you did not score 100%, the memory game will repeat. Press Continue.","0","html-button-response","22","180262","0.0-3.0-26.0-0.0","25792","List1A","black","woman","","","","","","","",""
"7762","<img src='img/portrait_matrix_list1.jpg' style='width:900px;height:500px;''></img><p>If you have memorised all the portraits and names and are ready to start, press Continue.</p><p><strong>Please note: Your memory of these faces will be tested 4 times during this experiment.</strong></p>","0","html-button-response","23","189027","0.0-3.1-0.1","25792","List1A","black","woman","","","","","","","",""
"2589","<img src=""portrait/BW1.jpg""style=""height:400px;""></img>","0","html-button-response","24","192620","0.0-3.1-1.1","25792","List1A","black","woman","","true","0","","","","",""
"null","CORRECT","","html-keyboard-response","25","194122","0.0-3.1-2.1-0.1","25792","List1A","black","woman","","","","null","","","",""
"10065","<img src=""portrait/WW1.jpg""style=""height:400px;""></img>","1","html-button-response","26","204189","0.0-3.1-4.1","25792","List1A","black","woman","","true","1","","","","",""
"null","CORRECT","","html-keyboard-response","27","205693","0.0-3.1-5.1-0.1","25792","List1A","black","woman","","","","null","","","",""
"4762","<img src=""portrait/BW2.jpg""style=""height:400px;""></img>","2","html-button-response","28","210455","0.0-3.1-7.1","25792","List1A","black","woman","","true","2","","","","",""
"null","CORRECT","","html-keyboard-response","29","211958","0.0-3.1-8.1-0.1","25792","List1A","black","woman","","","","null","","","",""
"1574","<img src=""portrait/WW2.jpg""style=""height:400px;""></img>","3","html-button-response","30","213533","0.0-3.1-10.1","25792","List1A","black","woman","","true","3","","","","",""
"null","CORRECT","","html-keyboard-response","31","215035","0.0-3.1-11.1-0.1","25792","List1A","black","woman","","","","null","","","",""
"1896","<img src=""portrait/BM1.jpg""style=""height:400px;""></img>","4","html-button-response","32","216932","0.0-3.1-13.1","25792","List1A","black","woman","","true","4","","","","",""
"null","CORRECT","","html-keyboard-response","33","218436","0.0-3.1-14.1-0.1","25792","List1A","black","woman","","","","null","","","",""
"1844","<img src=""portrait/WM1.jpg""style=""height:400px;""></img>","6","html-button-response","34","220281","0.0-3.1-16.1","25792","List1A","black","woman","","true","6","","","","",""
"null","CORRECT","","html-keyboard-response","35","221783","0.0-3.1-17.1-0.1","25792","List1A","black","woman","","","","null","","","",""
"1495","<img src=""portrait/WM2.jpg""style=""height:400px;""></img>","7","html-button-response","36","223279","0.0-3.1-19.1","25792","List1A","black","woman","","true","7","","","","",""
"null","CORRECT","","html-keyboard-response","37","224782","0.0-3.1-20.1-0.1","25792","List1A","black","woman","","","","null","","","",""
"3692","<img src=""portrait/BM2.jpg""style=""height:400px;""></img>","5","html-button-response","38","228474","0.0-3.1-22.1","25792","List1A","black","woman","","true","5","","","","",""
"null","CORRECT","","html-keyboard-response","39","229978","0.0-3.1-23.1-0.1","25792","List1A","black","woman","","","","null","","","",""
"1602","<p>You got 8 out of 8 right first time. Press Continue.</p>","0","html-button-response","40","231580","0.0-3.1-25.1","25792","List1A","black","woman","","","","","","","",""
"42328","<p>In this experiment, you will view photographs of the people from the memory game interacting.</p><p>By using the <strong>exact</strong> phrase given <i>after</i> the photograph appears and recalling the correct names of the people in the photographs, form a sentence describing the interaction. You do not need to capitalise names.</p><p>Type your answer in the space provided. Please complete every sentence before moving onto the next trial.</p><p>You will only have a few seconds to memorise each given photograph and phrase before you can respond, so try your best to focus.</p><p>An example is given below. Press 'Continue' when you are ready.</p><img src='img/speaking_example.jpg' style='width:800px;height:460px;''></img>","0","html-button-response","41","274911","0.0-4.0","25792","List1A","black","woman","","","","","","","",""
"5230","<p>Before the experiment starts, you will watch two example trials. Press 'Continue'.</p>","0","html-button-response","42","281142","0.0-5.0","25792","List1A","black","woman","","","","","","","",""
"null","<img src='img/meet_eg.gif' style='height:400px;''></img>","","html-keyboard-response","43","284146","0.0-6.0","25792","List1A","black","woman","","","","null","","","",""
"null","<p>is meeting</p>","","html-keyboard-response","44","286147","0.0-7.0","25792","List1A","black","woman","","","","null","","","",""
"5118","<p><b>Answer:</b> kate is meeting beth</p>","0","html-button-response","45","291267","0.0-8.0","25792","List1A","black","woman","","","","","","","",""
"null","<img src='img/look_eg.gif' style='height:400px;''></img>","","html-keyboard-response","46","294270","0.0-9.0","25792","List1A","black","woman","","","","null","","","",""
"null","<p>are looking at each other</p>","","html-keyboard-response","47","296272","0.0-10.0","25792","List1A","black","woman","","","","null","","","",""
"2679","<p><b>Answer:</b> luke and dave are looking at each other</p>","0","html-button-response","48","298952","0.0-11.0","25792","List1A","black","woman","","","","","","","",""
"21276","<p>Ready to start the experiment?</p><br><p><strong>Remember to describe the picture using a full sentence,</strong></p><p><strong>that combines the names of the people with the <i>exact</i> phrase given.</strong></p><p><strong>To receive full payment you must do this correctly.</strong></p><p><strong> You do not need to capitalise names or use punctuation.</strong></p><br><p>Press 'Continue' to begin.</p>","0","html-button-response","49","321230","0.0-12.0","25792","List1A","black","woman","","","","","","","",""
"null","<div style=""font-size:60px;"">+</div>","","html-keyboard-response","50","322734","0.0-13.0-0.0","25792","List1A","black","woman","","","","null","","","",""
"null","<img src=""stim_listA/kiss1.gif""style=""height:400px;""></stim_listA>","","html-keyboard-response","51","324736","0.0-13.0-1.0","25792","List1A","black","woman","","","","null","","","",""
"null","is kissing","","html-keyboard-response","52","326737","0.0-13.0-2.0","25792","List1A","black","woman","","","","null","","","",""
"65991","","","survey-text","53","392730","0.0-13.0-3.0","25792","List1A","black","woman","","","","","{""Q0"":""beth is kissing fred""}","<img src=""stim_listA/kiss1.gif""style=""height:400px;""></stim_listA>","is kissing",""
"null","<div style=""font-size:60px;"">+</div>","","html-keyboard-response","54","393232","0.0-13.0-0.1","25792","List1A","black","woman","","","","null","","","",""
"null","<img src=""stim_listA/dance5.gif""style=""height:400px;""></stim_listA>","","html-keyboard-response","55","395233","0.0-13.0-1.1","25792","List1A","black","woman","","","","null","","","",""
"null","is dancing with","","html-keyboard-response","56","397234","0.0-13.0-2.1","25792","List1A","black","woman","","","","null","","","",""
"11625","","","survey-text","57","408861","0.0-13.0-3.1","25792","List1A","black","woman","","","","","{""Q0"":""dave is dancing with fred""}","<img src=""stim_listA/dance5.gif""style=""height:400px;""></stim_listA>","is dancing with",""
"null","<div style=""font-size:60px;"">+</div>","","html-keyboard-response","58","409362","0.0-13.0-0.2","25792","List1A","black","woman","","","","null","","","",""
"null","<img src=""stim_listA/flirt2.gif""style=""height:400px;""></stim_listA>","","html-keyboard-response","59","411365","0.0-13.0-1.2","25792","List1A","black","woman","","","","null","","","",""
"null","are flirting with each other","","html-keyboard-response","60","413366","0.0-13.0-2.2","25792","List1A","black","woman","","","","null","","","",""
"11645","","","survey-text","61","425012","0.0-13.0-3.2","25792","List1A","black","woman","","","","","{""Q0"":""beth and mike are flirting with each other""}","<img src=""stim_listA/flirt2.gif""style=""height:400px;""></stim_listA>","are flirting with each other",""
"null","<div style=""font-size:60px;"">+</div>","","html-keyboard-response","62","425514","0.0-13.0-0.3","25792","List1A","black","woman","","","","null","","","",""
"null","<img src=""stim_listA/shout2.gif""style=""height:400px;""></stim_listA>","","html-keyboard-response","63","427516","0.0-13.0-1.3","25792","List1A","black","woman","","","","null","","","",""
"null","are shouting at each other","","html-keyboard-response","64","429517","0.0-13.0-2.3","25792","List1A","black","woman","","","","null","","","",""
"9898","","","survey-text","65","439416","0.0-13.0-3.3","25792","List1A","black","woman","","","","","{""Q0"":""kate and mike are shouting at each other""}","<img src=""stim_listA/shout2.gif""style=""height:400px;""></stim_listA>","are shouting at each other",""
"null","<div style=""font-size:60px;"">+</div>","","html-keyboard-response","66","439917","0.0-13.0-0.4","25792","List1A","black","woman","","","","null","","","",""
"null","<img src=""stim_listA/argue2.gif""style=""height:400px;""></stim_listA>","","html-keyboard-response","67","441918","0.0-13.0-1.4","25792","List1A","black","woman","","","","null","","","",""
"null","are arguing with each other","","html-keyboard-response","68","443920","0.0-13.0-2.4","25792","List1A","black","woman","","","","null","","","",""
"16191","","","survey-text","69","460112","0.0-13.0-3.4","25792","List1A","black","woman","","","","","{""Q0"":""kate and fred are arguing with each other""}","<img src=""stim_listA/argue2.gif""style=""height:400px;""></stim_listA>","are arguing with each other",""
"null","<div style=""font-size:60px;"">+</div>","","html-keyboard-response","70","460614","0.0-13.0-0.5","25792","List1A","black","woman","","","","null","","","",""
"null","<img src=""stim_listA/argue1.gif""style=""height:400px;""></stim_listA>","","html-keyboard-response","71","462616","0.0-13.0-1.5","25792","List1A","black","woman","","","","null","","","",""
"null","is arguing with","","html-keyboard-response","72","464618","0.0-13.0-2.5","25792","List1A","black","woman","","","","null","","","",""
"33615","","","survey-text","73","498234","0.0-13.0-3.5","25792","List1A","black","woman","","","","","{""Q0"":""mike and beth are""}","<img src=""stim_listA/argue1.gif""style=""height:400px;""></stim_listA>","is arguing with",""
"null","<div style=""font-size:60px;"">+</div>","","html-keyboard-response","74","498735","0.0-13.0-0.6","25792","List1A","black","woman","","","","null","","","",""
"null","<img src=""stim_listA/talk4.gif""style=""height:400px;""></stim_listA>","","html-keyboard-response","75","500736","0.0-13.0-1.6","25792","List1A","black","woman","","","","null","","","",""
"null","are talking to each other","","html-keyboard-response","76","502737","0.0-13.0-2.6","25792","List1A","black","woman","","","","null","","","",""
"13799","","","survey-text","77","516537","0.0-13.0-3.6","25792","List1A","black","woman","","","","","{""Q0"":""dave and ruth are talking to each other""}","<img src=""stim_listA/talk4.gif""style=""height:400px;""></stim_listA>","are talking to each other",""
"null","<div style=""font-size:60px;"">+</div>","","html-keyboard-response","78","517040","0.0-13.0-0.7","25792","List1A","black","woman","","","","null","","","",""
"null","<img src=""stim_listA/argue8.gif""style=""height:400px;""></stim_listA>","","html-keyboard-response","79","519041","0.0-13.0-1.7","25792","List1A","black","woman","","","","null","","","",""
"null","are arguing with each other","","html-keyboard-response","80","521042","0.0-13.0-2.7","25792","List1A","black","woman","","","","null","","","",""
"15868","","","survey-text","81","536911","0.0-13.0-3.7","25792","List1A","black","woman","","","","","{""Q0"":""jane and beth are arguing with each other""}","<img src=""stim_listA/argue8.gif""style=""height:400px;""></stim_listA>","are arguing with each other",""
"null","<div style=""font-size:60px;"">+</div>","","html-keyboard-response","82","537412","0.0-13.0-0.8","25792","List1A","black","woman","","","","null","","","",""
"null","<img src=""stim_listA/kiss8.gif""style=""height:400px;""></stim_listA>","","html-keyboard-response","83","539414","0.0-13.0-1.8","25792","List1A","black","woman","","","","null","","","",""
"null","are kissing each other","","html-keyboard-response","84","541415","0.0-13.0-2.8","25792","List1A","black","woman","","","","null","","","",""
"15203","","","survey-text","85","556618","0.0-13.0-3.8","25792","List1A","black","woman","","","","","{""Q0"":""jane and kate are kissing each other""}","<img src=""stim_listA/kiss8.gif""style=""height:400px;""></stim_listA>","are kissing each other",""
"null","<div style=""font-size:60px;"">+</div>","","html-keyboard-response","86","557120","0.0-13.0-0.9","25792","List1A","black","woman","","","","null","","","",""
"null","<img src=""stim_listA/play1.gif""style=""height:400px;""></stim_listA>","","html-keyboard-response","87","559121","0.0-13.0-1.9","25792","List1A","black","woman","","","","null","","","",""
"null","is playing with","","html-keyboard-response","88","561123","0.0-13.0-2.9","25792","List1A","black","woman","","","","null","","","",""
"11123","","","survey-text","89","572246","0.0-13.0-3.9","25792","List1A","black","woman","","","","","{""Q0"":""mike is playing with kate""}","<img src=""stim_listA/play1.gif""style=""height:400px;""></stim_listA>","is playing with",""
"null","<div style=""font-size:60px;"">+</div>","","html-keyboard-response","90","572748","0.0-13.0-0.10","25792","List1A","black","woman","","","","null","","","",""
"null","<img src=""stim_listA/fight8.gif""style=""height:400px;""></stim_listA>","","html-keyboard-response","91","574750","0.0-13.0-1.10","25792","List1A","black","woman","","","","null","","","",""
"null","are fighting each other","","html-keyboard-response","92","576751","0.0-13.0-2.10","25792","List1A","black","woman","","","","null","","","",""
"12598","","","survey-text","93","589350","0.0-13.0-3.10","25792","List1A","black","woman","","","","","{""Q0"":""ruth and beth are fighting each other""}","<img src=""stim_listA/fight8.gif""style=""height:400px;""></stim_listA>","are fighting each other",""
"null","<div style=""font-size:60px;"">+</div>","","html-keyboard-response","94","589851","0.0-13.0-0.11","25792","List1A","black","woman","","","","null","","","",""
"null","<img src=""stim_listA/play2.gif""style=""height:400px;""></stim_listA>","","html-keyboard-response","95","591853","0.0-13.0-1.11","25792","List1A","black","woman","","","","null","","","",""
"null","are playing with each other","","html-keyboard-response","96","593854","0.0-13.0-2.11","25792","List1A","black","woman","","","","null","","","",""
"12625","","","survey-text","97","606480","0.0-13.0-3.11","25792","List1A","black","woman","","","","","{""Q0"":""beth and fred are playing with each other""}","<img src=""stim_listA/play2.gif""style=""height:400px;""></stim_listA>","are playing with each other",""
"null","<div style=""font-size:60px;"">+</div>","","html-keyboard-response","98","606981","0.0-13.0-0.12","25792","List1A","black","woman","","","","null","","","",""
"null","<img src=""stim_listA/shout1.gif""style=""height:400px;""></stim_listA>","","html-keyboard-response","99","608982","0.0-13.0-1.12","25792","List1A","black","woman","","","","null","","","",""
"null","is shouting at","","html-keyboard-response","100","610985","0.0-13.0-2.12","25792","List1A","black","woman","","","","null","","","",""
"12490","","","survey-text","101","623476","0.0-13.0-3.12","25792","List1A","black","woman","","","","","{""Q0"":""beth is shouting at fred""}","<img src=""stim_listA/shout1.gif""style=""height:400px;""></stim_listA>","is shouting at",""
"null","<div style=""font-size:60px;"">+</div>","","html-keyboard-response","102","623977","0.0-13.0-0.13","25792","List1A","black","woman","","","","null","","","",""
"null","<img src=""stim_listA/talk5.gif""style=""height:400px;""></stim_listA>","","html-keyboard-response","103","625979","0.0-13.0-1.13","25792","List1A","black","woman","","","","null","","","",""
"null","is talking to","","html-keyboard-response","104","627980","0.0-13.0-2.13","25792","List1A","black","woman","","","","null","","","",""
"7853","","","survey-text","105","635834","0.0-13.0-3.13","25792","List1A","black","woman","","","","","{""Q0"":""fred is talking to dave""}","<img src=""stim_listA/talk5.gif""style=""height:400px;""></stim_listA>","is talking to",""
"null","<div style=""font-size:60px;"">+</div>","","html-keyboard-response","106","636336","0.0-13.0-0.14","25792","List1A","black","woman","","","","null","","","",""
"null","<img src=""stim_listA/argue7.gif""style=""height:400px;""></stim_listA>","","html-keyboard-response","107","638337","0.0-13.0-1.14","25792","List1A","black","woman","","","","null","","","",""
"null","is arguing with","","html-keyboard-response","108","640338","0.0-13.0-2.14","25792","List1A","black","woman","","","","null","","","",""
"6058","","","survey-text","109","646398","0.0-13.0-3.14","25792","List1A","black","woman","","","","","{""Q0"":""kate is arguing with ruth""}","<img src=""stim_listA/argue7.gif""style=""height:400px;""></stim_listA>","is arguing with",""
"null","<div style=""font-size:60px;"">+</div>","","html-keyboard-response","110","646899","0.0-13.0-0.15","25792","List1A","black","woman","","","","null","","","",""
"null","<img src=""stim_listA/marry6.gif""style=""height:400px;""></stim_listA>","","html-keyboard-response","111","648901","0.0-13.0-1.15","25792","List1A","black","woman","","","","null","","","",""
"null","are marrying each other","","html-keyboard-response","112","650903","0.0-13.0-2.15","25792","List1A","black","woman","","","","null","","","",""
"14765","","","survey-text","113","665669","0.0-13.0-3.15","25792","List1A","black","woman","","","","","{""Q0"":""dave and fred are marrying each other""}","<img src=""stim_listA/marry6.gif""style=""height:400px;""></stim_listA>","are marrying each other",""
"null","<div style=""font-size:60px;"">+</div>","","html-keyboard-response","114","666171","0.0-13.0-0.16","25792","List1A","black","woman","","","","null","","","",""
"null","<img src=""stim_listA/play6.gif""style=""height:400px;""></stim_listA>","","html-keyboard-response","115","668173","0.0-13.0-1.16","25792","List1A","black","woman","","","","null","","","",""
"null","are playing with each other","","html-keyboard-response","116","670174","0.0-13.0-2.16","25792","List1A","black","woman","","","","null","","","",""
"10071","","","survey-text","117","680247","0.0-13.0-3.16","25792","List1A","black","woman","","","","","{""Q0"":""fred and luke are playing with each other""}","<img src=""stim_listA/play6.gif""style=""height:400px;""></stim_listA>","are playing with each other",""
"null","<div style=""font-size:60px;"">+</div>","","html-keyboard-response","118","680748","0.0-13.0-0.17","25792","List1A","black","woman","","","","null","","","",""
"null","<img src=""stim_listA/play3.gif""style=""height:400px;""></stim_listA>","","html-keyboard-response","119","682750","0.0-13.0-1.17","25792","List1A","black","woman","","","","null","","","",""
"null","is playing with","","html-keyboard-response","120","684750","0.0-13.0-2.17","25792","List1A","black","woman","","","","null","","","",""
"12947","","","survey-text","121","697698","0.0-13.0-3.17","25792","List1A","black","woman","","","","","{""Q0"":""dave is playing with jane""}","<img src=""stim_listA/play3.gif""style=""height:400px;""></stim_listA>","is playing with",""
"null","<div style=""font-size:60px;"">+</div>","","html-keyboard-response","122","698201","0.0-13.0-0.18","25792","List1A","black","woman","","","","null","","","",""
"null","<img src=""stim_listA/play8.gif""style=""height:400px;""></stim_listA>","","html-keyboard-response","123","700203","0.0-13.0-1.18","25792","List1A","black","woman","","","","null","","","",""
"null","are playing with each other","","html-keyboard-response","124","702204","0.0-13.0-2.18","25792","List1A","black","woman","","","","null","","","",""
"15373","","","survey-text","125","717578","0.0-13.0-3.18","25792","List1A","black","woman","","","","","{""Q0"":""ruth and beth are playing with each other""}","<img src=""stim_listA/play8.gif""style=""height:400px;""></stim_listA>","are playing with each other",""
"null","<div style=""font-size:60px;"">+</div>","","html-keyboard-response","126","718081","0.0-13.0-0.19","25792","List1A","black","woman","","","","null","","","",""
"null","<img src=""stim_listA/marry7.gif""style=""height:400px;""></stim_listA>","","html-keyboard-response","127","720082","0.0-13.0-1.19","25792","List1A","black","woman","","","","null","","","",""
"null","is marrying","","html-keyboard-response","128","722084","0.0-13.0-2.19","25792","List1A","black","woman","","","","null","","","",""
"6659","","","survey-text","129","728743","0.0-13.0-3.19","25792","List1A","black","woman","","","","","{""Q0"":""ruth is marrying kate""}","<img src=""stim_listA/marry7.gif""style=""height:400px;""></stim_listA>","is marrying",""
"7865","<img src='img/portrait_matrix_list1.jpg' style='width:900px;height:500px;''></img><p>If you have memorised all the portraits and names and are ready to start, press Continue.</p><p><strong>Please note: Your memory of these faces will be tested 4 times during this experiment.</strong></p>","0","html-button-response","130","736609","0.0-14.0-0.0","25792","List1A","black","woman","","","","","","","",""
"2060","<img src=""portrait/WW2.jpg""style=""height:400px;""></img>","3","html-button-response","131","739672","0.0-14.0-1.0","25792","List1A","black","woman","","true","3","","","","",""
"null","CORRECT","","html-keyboard-response","132","741173","0.0-14.0-2.0-0.0","25792","List1A","black","woman","","","","null","","","",""
"2269","<img src=""portrait/BM1.jpg""style=""height:400px;""></img>","4","html-button-response","133","743443","0.0-14.0-4.0","25792","List1A","black","woman","","true","4","","","","",""
"null","CORRECT","","html-keyboard-response","134","744946","0.0-14.0-5.0-0.0","25792","List1A","black","woman","","","","null","","","",""
"2603","<img src=""portrait/BW1.jpg""style=""height:400px;""></img>","1","html-button-response","135","747551","0.0-14.0-7.0","25792","List1A","black","woman","","true","0","","","","",""
"1317","<img src=""portrait/BW1.jpg""style=""height:400px;""></img>","0","html-button-response","136","749869","0.0-14.0-9.0-0.0","25792","List1A","black","woman","","false","0","","","","",""
"null","CORRECT","","html-keyboard-response","137","751373","0.0-14.0-9.0-1.0-0.0","25792","List1A","black","woman","","","","null","","","",""
"2245","<img src=""portrait/WM1.jpg""style=""height:400px;""></img>","6","html-button-response","138","753619","0.0-14.0-10.0","25792","List1A","black","woman","","true","6","","","","",""
"null","CORRECT","","html-keyboard-response","139","755122","0.0-14.0-11.0-0.0","25792","List1A","black","woman","","","","null","","","",""
"2109","<img src=""portrait/BM2.jpg""style=""height:400px;""></img>","5","html-button-response","140","757232","0.0-14.0-13.0","25792","List1A","black","woman","","true","5","","","","",""
"null","CORRECT","","html-keyboard-response","141","758735","0.0-14.0-14.0-0.0","25792","List1A","black","woman","","","","null","","","",""
"1580","<img src=""portrait/WM2.jpg""style=""height:400px;""></img>","7","html-button-response","142","760317","0.0-14.0-16.0","25792","List1A","black","woman","","true","7","","","","",""
"null","CORRECT","","html-keyboard-response","143","761820","0.0-14.0-17.0-0.0","25792","List1A","black","woman","","","","null","","","",""
"2310","<img src=""portrait/WW1.jpg""style=""height:400px;""></img>","1","html-button-response","144","764131","0.0-14.0-19.0","25792","List1A","black","woman","","true","1","","","","",""
"null","CORRECT","","html-keyboard-response","145","765634","0.0-14.0-20.0-0.0","25792","List1A","black","woman","","","","null","","","",""
"6066","<img src=""portrait/BW2.jpg""style=""height:400px;""></img>","2","html-button-response","146","771701","0.0-14.0-22.0","25792","List1A","black","woman","","true","2","","","","",""
"null","CORRECT","","html-keyboard-response","147","773205","0.0-14.0-23.0-0.0","25792","List1A","black","woman","","","","null","","","",""
"1400","<p>You got 7 out of 8 right first time. Press Continue.</p>","0","html-button-response","148","774607","0.0-14.0-25.0","25792","List1A","black","woman","","","","","","","",""
"1695","As you did not score 100%, the memory game will repeat. Press Continue.","0","html-button-response","149","777305","0.0-14.0-26.0-0.0","25792","List1A","black","woman","","","","","","","",""
"2151","<img src='img/portrait_matrix_list1.jpg' style='width:900px;height:500px;''></img><p>If you have memorised all the portraits and names and are ready to start, press Continue.</p><p><strong>Please note: Your memory of these faces will be tested 4 times during this experiment.</strong></p>","0","html-button-response","150","780459","0.0-14.1-0.1","25792","List1A","black","woman","","","","","","","",""
"1474","<img src=""portrait/WW2.jpg""style=""height:400px;""></img>","3","html-button-response","151","782936","0.0-14.1-1.1","25792","List1A","black","woman","","true","3","","","","",""
"null","CORRECT","","html-keyboard-response","152","784438","0.0-14.1-2.1-0.1","25792","List1A","black","woman","","","","null","","","",""
"1503","<img src=""portrait/BM1.jpg""style=""height:400px;""></img>","4","html-button-response","153","785942","0.0-14.1-4.1","25792","List1A","black","woman","","true","4","","","","",""
"null","CORRECT","","html-keyboard-response","154","787445","0.0-14.1-5.1-0.1","25792","List1A","black","woman","","","","null","","","",""
"3504","<img src=""portrait/BW1.jpg""style=""height:400px;""></img>","0","html-button-response","155","790951","0.0-14.1-7.1","25792","List1A","black","woman","","true","0","","","","",""
"null","CORRECT","","html-keyboard-response","156","792455","0.0-14.1-8.1-0.1","25792","List1A","black","woman","","","","null","","","",""
"1852","<img src=""portrait/WM1.jpg""style=""height:400px;""></img>","6","html-button-response","157","794309","0.0-14.1-10.1","25792","List1A","black","woman","","true","6","","","","",""
"null","CORRECT","","html-keyboard-response","158","795812","0.0-14.1-11.1-0.1","25792","List1A","black","woman","","","","null","","","",""
"2487","<img src=""portrait/BM2.jpg""style=""height:400px;""></img>","5","html-button-response","159","798300","0.0-14.1-13.1","25792","List1A","black","woman","","true","5","","","","",""
"null","CORRECT","","html-keyboard-response","160","799803","0.0-14.1-14.1-0.1","25792","List1A","black","woman","","","","null","","","",""
"1280","<img src=""portrait/WM2.jpg""style=""height:400px;""></img>","7","html-button-response","161","801084","0.0-14.1-16.1","25792","List1A","black","woman","","true","7","","","","",""
"null","CORRECT","","html-keyboard-response","162","802587","0.0-14.1-17.1-0.1","25792","List1A","black","woman","","","","null","","","",""
"1479","<img src=""portrait/WW1.jpg""style=""height:400px;""></img>","1","html-button-response","163","804067","0.0-14.1-19.1","25792","List1A","black","woman","","true","1","","","","",""
"null","CORRECT","","html-keyboard-response","164","805569","0.0-14.1-20.1-0.1","25792","List1A","black","woman","","","","null","","","",""
"3342","<img src=""portrait/BW2.jpg""style=""height:400px;""></img>","2","html-button-response","165","808913","0.0-14.1-22.1","25792","List1A","black","woman","","true","2","","","","",""
"null","CORRECT","","html-keyboard-response","166","810416","0.0-14.1-23.1-0.1","25792","List1A","black","woman","","","","null","","","",""
"1386","<p>You got 8 out of 8 right first time. Press Continue.</p>","0","html-button-response","167","811804","0.0-14.1-25.1","25792","List1A","black","woman","","","","","","","",""
"null","<div style=""font-size:60px;"">+</div>","","html-keyboard-response","168","813307","0.0-15.0-0.0","25792","List1A","black","woman","","","","null","","","",""
"null","<img src=""stim_listA/marry2.gif""style=""height:400px;""></stim_listA>","","html-keyboard-response","169","815309","0.0-15.0-1.0","25792","List1A","black","woman","","","","null","","","",""
"null","are marrying each other","","html-keyboard-response","170","817311","0.0-15.0-2.0","25792","List1A","black","woman","","","","null","","","",""
"9184","","","survey-text","171","826496","0.0-15.0-3.0","25792","List1A","black","woman","","","","","{""Q0"":""kate and fred are marrying each other""}","<img src=""stim_listA/marry2.gif""style=""height:400px;""></stim_listA>","are marrying each other",""
"null","<div style=""font-size:60px;"">+</div>","","html-keyboard-response","172","826998","0.0-15.0-0.1","25792","List1A","black","woman","","","","null","","","",""
"null","<img src=""stim_listA/kiss5.gif""style=""height:400px;""></stim_listA>","","html-keyboard-response","173","829000","0.0-15.0-1.1","25792","List1A","black","woman","","","","null","","","",""
"null","is kissing","","html-keyboard-response","174","831002","0.0-15.0-2.1","25792","List1A","black","woman","","","","null","","","",""
"5483","","","survey-text","175","836485","0.0-15.0-3.1","25792","List1A","black","woman","","","","","{""Q0"":""fred is kissing luke""}","<img src=""stim_listA/kiss5.gif""style=""height:400px;""></stim_listA>","is kissing",""
"null","<div style=""font-size:60px;"">+</div>","","html-keyboard-response","176","836987","0.0-15.0-0.2","25792","List1A","black","woman","","","","null","","","",""
"null","<img src=""stim_listA/talk2.gif""style=""height:400px;""></stim_listA>","","html-keyboard-response","177","838990","0.0-15.0-1.2","25792","List1A","black","woman","","","","null","","","",""
"null","are talking to each other","","html-keyboard-response","178","840991","0.0-15.0-2.2","25792","List1A","black","woman","","","","null","","","",""
"11912","","","survey-text","179","852903","0.0-15.0-3.2","25792","List1A","black","woman","","","","","{""Q0"":""beth and mike are talking to each other""}","<img src=""stim_listA/talk2.gif""style=""height:400px;""></stim_listA>","are talking to each other",""
"null","<div style=""font-size:60px;"">+</div>","","html-keyboard-response","180","853405","0.0-15.0-0.3","25792","List1A","black","woman","","","","null","","","",""
"null","<img src=""stim_listA/kiss6.gif""style=""height:400px;""></stim_listA>","","html-keyboard-response","181","855406","0.0-15.0-1.3","25792","List1A","black","woman","","","","null","","","",""
"null","are kissing each other","","html-keyboard-response","182","857407","0.0-15.0-2.3","25792","List1A","black","woman","","","","null","","","",""
"7935","","","survey-text","183","865342","0.0-15.0-3.3","25792","List1A","black","woman","","","","","{""Q0"":""dave and mike are kissing each other""}","<img src=""stim_listA/kiss6.gif""style=""height:400px;""></stim_listA>","are kissing each other",""
"null","<div style=""font-size:60px;"">+</div>","","html-keyboard-response","184","865844","0.0-15.0-0.4","25792","List1A","black","woman","","","","null","","","",""
"null","<img src=""stim_listA/touch2.gif""style=""height:400px;""></stim_listA>","","html-keyboard-response","185","867845","0.0-15.0-1.4","25792","List1A","black","woman","","","","null","","","",""
"null","are touching each other","","html-keyboard-response","186","869846","0.0-15.0-2.4","25792","List1A","black","woman","","","","null","","","",""
"8447","","","survey-text","187","878294","0.0-15.0-3.4","25792","List1A","black","woman","","","","","{""Q0"":""beth and fred are touching each other""}","<img src=""stim_listA/touch2.gif""style=""height:400px;""></stim_listA>","are touching each other",""
"null","<div style=""font-size:60px;"">+</div>","","html-keyboard-response","188","878796","0.0-15.0-0.5","25792","List1A","black","woman","","","","null","","","",""
"null","<img src=""stim_listA/touch8.gif""style=""height:400px;""></stim_listA>","","html-keyboard-response","189","880797","0.0-15.0-1.5","25792","List1A","black","woman","","","","null","","","",""
"null","are touching each other","","html-keyboard-response","190","882798","0.0-15.0-2.5","25792","List1A","black","woman","","","","null","","","",""
"12949","","","survey-text","191","895749","0.0-15.0-3.5","25792","List1A","black","woman","","","","","{""Q0"":""ruth and beth are touching each other""}","<img src=""stim_listA/touch8.gif""style=""height:400px;""></stim_listA>","are touching each other",""
"null","<div style=""font-size:60px;"">+</div>","","html-keyboard-response","192","896250","0.0-15.0-0.6","25792","List1A","black","woman","","","","null","","","",""
"null","<img src=""stim_listA/shout4.gif""style=""height:400px;""></stim_listA>","","html-keyboard-response","193","898252","0.0-15.0-1.6","25792","List1A","black","woman","","","","null","","","",""
"null","are shouting at each other","","html-keyboard-response","194","900253","0.0-15.0-2.6","25792","List1A","black","woman","","","","null","","","",""
"18138","","","survey-text","195","918393","0.0-15.0-3.6","25792","List1A","black","woman","","","","","{""Q0"":""jane and dave are shouting at each other""}","<img src=""stim_listA/shout4.gif""style=""height:400px;""></stim_listA>","are shouting at each other",""
"null","<div style=""font-size:60px;"">+</div>","","html-keyboard-response","196","918894","0.0-15.0-0.7","25792","List1A","black","woman","","","","null","","","",""
"null","<img src=""stim_listA/talk8.gif""style=""height:400px;""></stim_listA>","","html-keyboard-response","197","920895","0.0-15.0-1.7","25792","List1A","black","woman","","","","null","","","",""
"null","are talking to each other","","html-keyboard-response","198","922896","0.0-15.0-2.7","25792","List1A","black","woman","","","","null","","","",""
"10686","","","survey-text","199","933583","0.0-15.0-3.7","25792","List1A","black","woman","","","","","{""Q0"":""ruth and kate are talking to each other""}","<img src=""stim_listA/talk8.gif""style=""height:400px;""></stim_listA>","are talking to each other",""
"null","<div style=""font-size:60px;"">+</div>","","html-keyboard-response","200","934085","0.0-15.0-0.8","25792","List1A","black","woman","","","","null","","","",""
"null","<img src=""stim_listA/dance1.gif""style=""height:400px;""></stim_listA>","","html-keyboard-response","201","936087","0.0-15.0-1.8","25792","List1A","black","woman","","","","null","","","",""
"null","is dancing with","","html-keyboard-response","202","938089","0.0-15.0-2.8","25792","List1A","black","woman","","","","null","","","",""
"6035","","","survey-text","203","944124","0.0-15.0-3.8","25792","List1A","black","woman","","","","","{""Q0"":""kate is dancing with fred""}","<img src=""stim_listA/dance1.gif""style=""height:400px;""></stim_listA>","is dancing with",""
"null","<div style=""font-size:60px;"">+</div>","","html-keyboard-response","204","944626","0.0-15.0-0.9","25792","List1A","black","woman","","","","null","","","",""
"null","<img src=""stim_listA/kiss4.gif""style=""height:400px;""></stim_listA>","","html-keyboard-response","205","946627","0.0-15.0-1.9","25792","List1A","black","woman","","","","null","","","",""
"null","are kissing each other","","html-keyboard-response","206","948629","0.0-15.0-2.9","25792","List1A","black","woman","","","","null","","","",""
"8855","","","survey-text","207","957484","0.0-15.0-3.9","25792","List1A","black","woman","","","","","{""Q0"":""jane and dave are kissing each other""}","<img src=""stim_listA/kiss4.gif""style=""height:400px;""></stim_listA>","are kissing each other",""
"null","<div style=""font-size:60px;"">+</div>","","html-keyboard-response","208","957986","0.0-15.0-0.10","25792","List1A","black","woman","","","","null","","","",""
"null","<img src=""stim_listA/touch4.gif""style=""height:400px;""></stim_listA>","","html-keyboard-response","209","959989","0.0-15.0-1.10","25792","List1A","black","woman","","","","null","","","",""
"null","are touching each other","","html-keyboard-response","210","961990","0.0-15.0-2.10","25792","List1A","black","woman","","","","null","","","",""
"7882","","","survey-text","211","969873","0.0-15.0-3.10","25792","List1A","black","woman","","","","","{""Q0"":""ruth and luke are touching each other""}","<img src=""stim_listA/touch4.gif""style=""height:400px;""></stim_listA>","are touching each other",""
"null","<div style=""font-size:60px;"">+</div>","","html-keyboard-response","212","970376","0.0-15.0-0.11","25792","List1A","black","woman","","","","null","","","",""
"null","<img src=""stim_listA/flirt1.gif""style=""height:400px;""></stim_listA>","","html-keyboard-response","213","972377","0.0-15.0-1.11","25792","List1A","black","woman","","","","null","","","",""
"null","is flirting with","","html-keyboard-response","214","974379","0.0-15.0-2.11","25792","List1A","black","woman","","","","null","","","",""
"10220","","","survey-text","215","984600","0.0-15.0-3.11","25792","List1A","black","woman","","","","","{""Q0"":""kate is flirting with fred""}","<img src=""stim_listA/flirt1.gif""style=""height:400px;""></stim_listA>","is flirting with",""
"null","<div style=""font-size:60px;"">+</div>","","html-keyboard-response","216","985101","0.0-15.0-0.12","25792","List1A","black","woman","","","","null","","","",""
"null","<img src=""stim_listA/fight4.gif""style=""height:400px;""></stim_listA>","","html-keyboard-response","217","987103","0.0-15.0-1.12","25792","List1A","black","woman","","","","null","","","",""
"null","are fighting each other","","html-keyboard-response","218","989103","0.0-15.0-2.12","25792","List1A","black","woman","","","","null","","","",""
"7904","","","survey-text","219","997008","0.0-15.0-3.12","25792","List1A","black","woman","","","","","{""Q0"":""ruth and luke are fighting each other""}","<img src=""stim_listA/fight4.gif""style=""height:400px;""></stim_listA>","are fighting each other",""
"null","<div style=""font-size:60px;"">+</div>","","html-keyboard-response","220","997509","0.0-15.0-0.13","25792","List1A","black","woman","","","","null","","","",""
"null","<img src=""stim_listA/marry5.gif""style=""height:400px;""></stim_listA>","","html-keyboard-response","221","999511","0.0-15.0-1.13","25792","List1A","black","woman","","","","null","","","",""
"null","is marrying","","html-keyboard-response","222","1001512","0.0-15.0-2.13","25792","List1A","black","woman","","","","null","","","",""
"5470","","","survey-text","223","1006983","0.0-15.0-3.13","25792","List1A","black","woman","","","","","{""Q0"":""mike is marrying luke""}","<img src=""stim_listA/marry5.gif""style=""height:400px;""></stim_listA>","is marrying",""
"null","<div style=""font-size:60px;"">+</div>","","html-keyboard-response","224","1007484","0.0-15.0-0.14","25792","List1A","black","woman","","","","null","","","",""
"null","<img src=""stim_listA/argue5.gif""style=""height:400px;""></stim_listA>","","html-keyboard-response","225","1009486","0.0-15.0-1.14","25792","List1A","black","woman","","","","null","","","",""
"null","is arguing with","","html-keyboard-response","226","1011487","0.0-15.0-2.14","25792","List1A","black","woman","","","","null","","","",""
"10780","","","survey-text","227","1022269","0.0-15.0-3.14","25792","List1A","black","woman","","","","","{""Q0"":""mike is arguing with luke""}","<img src=""stim_listA/argue5.gif""style=""height:400px;""></stim_listA>","is arguing with",""
"null","<div style=""font-size:60px;"">+</div>","","html-keyboard-response","228","1022770","0.0-15.0-0.15","25792","List1A","black","woman","","","","null","","","",""
"null","<img src=""stim_listA/play5.gif""style=""height:400px;""></stim_listA>","","html-keyboard-response","229","1024772","0.0-15.0-1.15","25792","List1A","black","woman","","","","null","","","",""
"null","is playing with","","html-keyboard-response","230","1026773","0.0-15.0-2.15","25792","List1A","black","woman","","","","null","","","",""
"7924","","","survey-text","231","1034698","0.0-15.0-3.15","25792","List1A","black","woman","","","","","{""Q0"":""dave is playing with mike""}","<img src=""stim_listA/play5.gif""style=""height:400px;""></stim_listA>","is playing with",""
"null","<div style=""font-size:60px;"">+</div>","","html-keyboard-response","232","1035199","0.0-15.0-0.16","25792","List1A","black","woman","","","","null","","","",""
"null","<img src=""stim_listA/shout3.gif""style=""height:400px;""></stim_listA>","","html-keyboard-response","233","1037201","0.0-15.0-1.16","25792","List1A","black","woman","","","","null","","","",""
"null","is shouting at","","html-keyboard-response","234","1039203","0.0-15.0-2.16","25792","List1A","black","woman","","","","null","","","",""
"6830","","","survey-text","235","1046034","0.0-15.0-3.16","25792","List1A","black","woman","","","","","{""Q0"":""ruth is shouting at luke""}","<img src=""stim_listA/shout3.gif""style=""height:400px;""></stim_listA>","is shouting at",""
"null","<div style=""font-size:60px;"">+</div>","","html-keyboard-response","236","1046535","0.0-15.0-0.17","25792","List1A","black","woman","","","","null","","","",""
"null","<img src=""stim_listA/dance4.gif""style=""height:400px;""></stim_listA>","","html-keyboard-response","237","1048536","0.0-15.0-1.17","25792","List1A","black","woman","","","","null","","","",""
"null","are dancing with each other","","html-keyboard-response","238","1050537","0.0-15.0-2.17","25792","List1A","black","woman","","","","null","","","",""
"8820","","","survey-text","239","1059359","0.0-15.0-3.17","25792","List1A","black","woman","","","","","{""Q0"":""dave and ruth are dancing with each other""}","<img src=""stim_listA/dance4.gif""style=""height:400px;""></stim_listA>","are dancing with each other",""
"null","<div style=""font-size:60px;"">+</div>","","html-keyboard-response","240","1059860","0.0-15.0-0.18","25792","List1A","black","woman","","","","null","","","",""
"null","<img src=""stim_listA/flirt6.gif""style=""height:400px;""></stim_listA>","","html-keyboard-response","241","1061862","0.0-15.0-1.18","25792","List1A","black","woman","","","","null","","","",""
"null","are flirting with each other","","html-keyboard-response","242","1063864","0.0-15.0-2.18","25792","List1A","black","woman","","","","null","","","",""
"11052","","","survey-text","243","1074917","0.0-15.0-3.18","25792","List1A","black","woman","","","","","{""Q0"":""luke and mike are flirting with each other""}","<img src=""stim_listA/flirt6.gif""style=""height:400px;""></stim_listA>","are flirting with each other",""
"null","<div style=""font-size:60px;"">+</div>","","html-keyboard-response","244","1075418","0.0-15.0-0.19","25792","List1A","black","woman","","","","null","","","",""
"null","<img src=""stim_listA/marry8.gif""style=""height:400px;""></stim_listA>","","html-keyboard-response","245","1077419","0.0-15.0-1.19","25792","List1A","black","woman","","","","null","","","",""
"null","are marrying each other","","html-keyboard-response","246","1079421","0.0-15.0-2.19","25792","List1A","black","woman","","","","null","","","",""
"8205","","","survey-text","247","1087626","0.0-15.0-3.19","25792","List1A","black","woman","","","","","{""Q0"":""beth and jane are marrying each other""}","<img src=""stim_listA/marry8.gif""style=""height:400px;""></stim_listA>","are marrying each other",""
"8828","<img src='img/portrait_matrix_list1.jpg' style='width:900px;height:500px;''></img><p>If you have memorised all the portraits and names and are ready to start, press Continue.</p><p><strong>Please note: Your memory of these faces will be tested 4 times during this experiment.</strong></p>","0","html-button-response","248","1096455","0.0-16.0-0.0","25792","List1A","black","woman","","","","","","","",""
"1811","<img src=""portrait/BM2.jpg""style=""height:400px;""></img>","5","html-button-response","249","1099267","0.0-16.0-1.0","25792","List1A","black","woman","","true","5","","","","",""
"null","CORRECT","","html-keyboard-response","250","1100769","0.0-16.0-2.0-0.0","25792","List1A","black","woman","","","","null","","","",""
"2276","<img src=""portrait/WW1.jpg""style=""height:400px;""></img>","1","html-button-response","251","1103047","0.0-16.0-4.0","25792","List1A","black","woman","","true","1","","","","",""
"null","CORRECT","","html-keyboard-response","252","1104550","0.0-16.0-5.0-0.0","25792","List1A","black","woman","","","","null","","","",""
"2310","<img src=""portrait/BW1.jpg""style=""height:400px;""></img>","0","html-button-response","253","1106861","0.0-16.0-7.0","25792","List1A","black","woman","","true","0","","","","",""
"null","CORRECT","","html-keyboard-response","254","1108364","0.0-16.0-8.0-0.0","25792","List1A","black","woman","","","","null","","","",""
"2016","<img src=""portrait/WM2.jpg""style=""height:400px;""></img>","7","html-button-response","255","1110381","0.0-16.0-10.0","25792","List1A","black","woman","","true","7","","","","",""
"null","CORRECT","","html-keyboard-response","256","1111882","0.0-16.0-11.0-0.0","25792","List1A","black","woman","","","","null","","","",""
"1596","<img src=""portrait/BM1.jpg""style=""height:400px;""></img>","4","html-button-response","257","1113480","0.0-16.0-13.0","25792","List1A","black","woman","","true","4","","","","",""
"null","CORRECT","","html-keyboard-response","258","1114983","0.0-16.0-14.0-0.0","25792","List1A","black","woman","","","","null","","","",""
"1610","<img src=""portrait/WW2.jpg""style=""height:400px;""></img>","3","html-button-response","259","1116593","0.0-16.0-16.0","25792","List1A","black","woman","","true","3","","","","",""
"null","CORRECT","","html-keyboard-response","260","1118096","0.0-16.0-17.0-0.0","25792","List1A","black","woman","","","","null","","","",""
"1959","<img src=""portrait/BW2.jpg""style=""height:400px;""></img>","2","html-button-response","261","1120057","0.0-16.0-19.0","25792","List1A","black","woman","","true","2","","","","",""
"null","CORRECT","","html-keyboard-response","262","1121559","0.0-16.0-20.0-0.0","25792","List1A","black","woman","","","","null","","","",""
"1910","<img src=""portrait/WM1.jpg""style=""height:400px;""></img>","6","html-button-response","263","1123469","0.0-16.0-22.0","25792","List1A","black","woman","","true","6","","","","",""
"null","CORRECT","","html-keyboard-response","264","1124972","0.0-16.0-23.0-0.0","25792","List1A","black","woman","","","","null","","","",""
"4352","<p>You got 8 out of 8 right first time. Press Continue.</p>","0","html-button-response","265","1129324","0.0-16.0-25.0","25792","List1A","black","woman","","","","","","","",""
"null","<div style=""font-size:60px;"">+</div>","","html-keyboard-response","266","1130828","0.0-17.0-0.0","25792","List1A","black","woman","","","","null","","","",""
"null","<img src=""stim_listA/fight6.gif""style=""height:400px;""></stim_listA>","","html-keyboard-response","267","1132831","0.0-17.0-1.0","25792","List1A","black","woman","","","","null","","","",""
"null","are fighting each other","","html-keyboard-response","268","1134832","0.0-17.0-2.0","25792","List1A","black","woman","","","","null","","","",""
"8174","","","survey-text","269","1143008","0.0-17.0-3.0","25792","List1A","black","woman","","","","","{""Q0"":""luke and fred are fighting each other""}","<img src=""stim_listA/fight6.gif""style=""height:400px;""></stim_listA>","are fighting each other",""
"null","<div style=""font-size:60px;"">+</div>","","html-keyboard-response","270","1143509","0.0-17.0-0.1","25792","List1A","black","woman","","","","null","","","",""
"null","<img src=""stim_listA/marry1.gif""style=""height:400px;""></stim_listA>","","html-keyboard-response","271","1145511","0.0-17.0-1.1","25792","List1A","black","woman","","","","null","","","",""
"null","is marrying","","html-keyboard-response","272","1147512","0.0-17.0-2.1","25792","List1A","black","woman","","","","null","","","",""
"8124","","","survey-text","273","1155638","0.0-17.0-3.1","25792","List1A","black","woman","","","","","{""Q0"":""mike is marrying beth""}","<img src=""stim_listA/marry1.gif""style=""height:400px;""></stim_listA>","is marrying",""
"null","<div style=""font-size:60px;"">+</div>","","html-keyboard-response","274","1156139","0.0-17.0-0.2","25792","List1A","black","woman","","","","null","","","",""
"null","<img src=""stim_listA/kiss7.gif""style=""height:400px;""></stim_listA>","","html-keyboard-response","275","1158140","0.0-17.0-1.2","25792","List1A","black","woman","","","","null","","","",""
"null","is kissing","","html-keyboard-response","276","1160141","0.0-17.0-2.2","25792","List1A","black","woman","","","","null","","","",""
"4934","","","survey-text","277","1165077","0.0-17.0-3.2","25792","List1A","black","woman","","","","","{""Q0"":""beth is kissing ruth""}","<img src=""stim_listA/kiss7.gif""style=""height:400px;""></stim_listA>","is kissing",""
"null","<div style=""font-size:60px;"">+</div>","","html-keyboard-response","278","1165578","0.0-17.0-0.3","25792","List1A","black","woman","","","","null","","","",""
"null","<img src=""stim_listA/flirt8.gif""style=""height:400px;""></stim_listA>","","html-keyboard-response","279","1167579","0.0-17.0-1.3","25792","List1A","black","woman","","","","null","","","",""
"null","are flirting with each other","","html-keyboard-response","280","1169581","0.0-17.0-2.3","25792","List1A","black","woman","","","","null","","","",""
"10309","","","survey-text","281","1179890","0.0-17.0-3.3","25792","List1A","black","woman","","","","","{""Q0"":""ruth and kate are flirting with each other""}","<img src=""stim_listA/flirt8.gif""style=""height:400px;""></stim_listA>","are flirting with each other",""
"null","<div style=""font-size:60px;"">+</div>","","html-keyboard-response","282","1180392","0.0-17.0-0.4","25792","List1A","black","woman","","","","null","","","",""
"null","<img src=""stim_listA/talk3.gif""style=""height:400px;""></stim_listA>","","html-keyboard-response","283","1182393","0.0-17.0-1.4","25792","List1A","black","woman","","","","null","","","",""
"null","is talking to","","html-keyboard-response","284","1184394","0.0-17.0-2.4","25792","List1A","black","woman","","","","null","","","",""
"7782","","","survey-text","285","1192178","0.0-17.0-3.4","25792","List1A","black","woman","","","","","{""Q0"":""luke is talking to jane""}","<img src=""stim_listA/talk3.gif""style=""height:400px;""></stim_listA>","is talking to",""
"null","<div style=""font-size:60px;"">+</div>","","html-keyboard-response","286","1192679","0.0-17.0-0.5","25792","List1A","black","woman","","","","null","","","",""
"null","<img src=""stim_listA/fight5.gif""style=""height:400px;""></stim_listA>","","html-keyboard-response","287","1194680","0.0-17.0-1.5","25792","List1A","black","woman","","","","null","","","",""
"null","is fighting","","html-keyboard-response","288","1196681","0.0-17.0-2.5","25792","List1A","black","woman","","","","null","","","",""
"5421","","","survey-text","289","1202103","0.0-17.0-3.5","25792","List1A","black","woman","","","","","{""Q0"":""mike is fighting dave""}","<img src=""stim_listA/fight5.gif""style=""height:400px;""></stim_listA>","is fighting",""
"null","<div style=""font-size:60px;"">+</div>","","html-keyboard-response","290","1202605","0.0-17.0-0.6","25792","List1A","black","woman","","","","null","","","",""
"null","<img src=""stim_listA/talk1.gif""style=""height:400px;""></stim_listA>","","html-keyboard-response","291","1204607","0.0-17.0-1.6","25792","List1A","black","woman","","","","null","","","",""
"null","is talking to","","html-keyboard-response","292","1206609","0.0-17.0-2.6","25792","List1A","black","woman","","","","null","","","",""
"5770","","","survey-text","293","1212379","0.0-17.0-3.6","25792","List1A","black","woman","","","","","{""Q0"":""fred is talking to kate""}","<img src=""stim_listA/talk1.gif""style=""height:400px;""></stim_listA>","is talking to",""
"null","<div style=""font-size:60px;"">+</div>","","html-keyboard-response","294","1212881","0.0-17.0-0.7","25792","List1A","black","woman","","","","null","","","",""
"null","<img src=""stim_listA/talk6.gif""style=""height:400px;""></stim_listA>","","html-keyboard-response","295","1214882","0.0-17.0-1.7","25792","List1A","black","woman","","","","null","","","",""
"null","are talking to each other","","html-keyboard-response","296","1216883","0.0-17.0-2.7","25792","List1A","black","woman","","","","null","","","",""
"8392","","","survey-text","297","1225275","0.0-17.0-3.7","25792","List1A","black","woman","","","","","{""Q0"":""luke and mike are talking to each other""}","<img src=""stim_listA/talk6.gif""style=""height:400px;""></stim_listA>","are talking to each other",""
"null","<div style=""font-size:60px;"">+</div>","","html-keyboard-response","298","1225777","0.0-17.0-0.8","25792","List1A","black","woman","","","","null","","","",""
"null","<img src=""stim_listA/shout5.gif""style=""height:400px;""></stim_listA>","","html-keyboard-response","299","1227779","0.0-17.0-1.8","25792","List1A","black","woman","","","","null","","","",""
"null","is shouting at","","html-keyboard-response","300","1229780","0.0-17.0-2.8","25792","List1A","black","woman","","","","null","","","",""
"9570","","","survey-text","301","1239352","0.0-17.0-3.8","25792","List1A","black","woman","","","","","{""Q0"":""fred is shouting at luke""}","<img src=""stim_listA/shout5.gif""style=""height:400px;""></stim_listA>","is shouting at",""
"null","<div style=""font-size:60px;"">+</div>","","html-keyboard-response","302","1239853","0.0-17.0-0.9","25792","List1A","black","woman","","","","null","","","",""
"null","<img src=""stim_listA/argue6.gif""style=""height:400px;""></stim_listA>","","html-keyboard-response","303","1241856","0.0-17.0-1.9","25792","List1A","black","woman","","","","null","","","",""
"null","are arguing with each other","","html-keyboard-response","304","1243858","0.0-17.0-2.9","25792","List1A","black","woman","","","","null","","","",""
"13161","","","survey-text","305","1257020","0.0-17.0-3.9","25792","List1A","black","woman","","","","","{""Q0"":""dave and fred are arguing with each other""}","<img src=""stim_listA/argue6.gif""style=""height:400px;""></stim_listA>","are arguing with each other",""
"null","<div style=""font-size:60px;"">+</div>","","html-keyboard-response","306","1257522","0.0-17.0-0.10","25792","List1A","black","woman","","","","null","","","",""
"null","<img src=""stim_listA/kiss3.gif""style=""height:400px;""></stim_listA>","","html-keyboard-response","307","1259524","0.0-17.0-1.10","25792","List1A","black","woman","","","","null","","","",""
"null","is kissing","","html-keyboard-response","308","1261526","0.0-17.0-2.10","25792","List1A","black","woman","","","","null","","","",""
"7568","","","survey-text","309","1269094","0.0-17.0-3.10","25792","List1A","black","woman","","","","","{""Q0"":""luke is kissing ruth""}","<img src=""stim_listA/kiss3.gif""style=""height:400px;""></stim_listA>","is kissing",""
"null","<div style=""font-size:60px;"">+</div>","","html-keyboard-response","310","1269596","0.0-17.0-0.11","25792","List1A","black","woman","","","","null","","","",""
"null","<img src=""stim_listA/flirt5.gif""style=""height:400px;""></stim_listA>","","html-keyboard-response","311","1271598","0.0-17.0-1.11","25792","List1A","black","woman","","","","null","","","",""
"null","is flirting with","","html-keyboard-response","312","1273598","0.0-17.0-2.11","25792","List1A","black","woman","","","","null","","","",""
"9765","","","survey-text","313","1283364","0.0-17.0-3.11","25792","List1A","black","woman","","","","","{""Q0"":""dave is flirting with fred""}","<img src=""stim_listA/flirt5.gif""style=""height:400px;""></stim_listA>","is flirting with",""
"null","<div style=""font-size:60px;"">+</div>","","html-keyboard-response","314","1283866","0.0-17.0-0.12","25792","List1A","black","woman","","","","null","","","",""
"null","<img src=""stim_listA/fight7.gif""style=""height:400px;""></stim_listA>","","html-keyboard-response","315","1285868","0.0-17.0-1.12","25792","List1A","black","woman","","","","null","","","",""
"null","is fighting","","html-keyboard-response","316","1287869","0.0-17.0-2.12","25792","List1A","black","woman","","","","null","","","",""
"7381","","","survey-text","317","1295251","0.0-17.0-3.12","25792","List1A","black","woman","","","","","{""Q0"":""kate is fighting jane""}","<img src=""stim_listA/fight7.gif""style=""height:400px;""></stim_listA>","is fighting",""
"null","<div style=""font-size:60px;"">+</div>","","html-keyboard-response","318","1295752","0.0-17.0-0.13","25792","List1A","black","woman","","","","null","","","",""
"null","<img src=""stim_listA/flirt3.gif""style=""height:400px;""></stim_listA>","","html-keyboard-response","319","1297754","0.0-17.0-1.13","25792","List1A","black","woman","","","","null","","","",""
"null","is flirting with","","html-keyboard-response","320","1299756","0.0-17.0-2.13","25792","List1A","black","woman","","","","null","","","",""
"7031","","","survey-text","321","1306787","0.0-17.0-3.13","25792","List1A","black","woman","","","","","{""Q0"":""luke is flirting with jane""}","<img src=""stim_listA/flirt3.gif""style=""height:400px;""></stim_listA>","is flirting with",""
"null","<div style=""font-size:60px;"">+</div>","","html-keyboard-response","322","1307289","0.0-17.0-0.14","25792","List1A","black","woman","","","","null","","","",""
"null","<img src=""stim_listA/shout7.gif""style=""height:400px;""></stim_listA>","","html-keyboard-response","323","1309290","0.0-17.0-1.14","25792","List1A","black","woman","","","","null","","","",""
"null","is shouting at","","html-keyboard-response","324","1311292","0.0-17.0-2.14","25792","List1A","black","woman","","","","null","","","",""
"6715","","","survey-text","325","1318008","0.0-17.0-3.14","25792","List1A","black","woman","","","","","{""Q0"":""beth is shouting at ruth""}","<img src=""stim_listA/shout7.gif""style=""height:400px;""></stim_listA>","is shouting at",""
"null","<div style=""font-size:60px;"">+</div>","","html-keyboard-response","326","1318508","0.0-17.0-0.15","25792","List1A","black","woman","","","","null","","","",""
"null","<img src=""stim_listA/kiss2.gif""style=""height:400px;""></stim_listA>","","html-keyboard-response","327","1320510","0.0-17.0-1.15","25792","List1A","black","woman","","","","null","","","",""
"null","are kissing each other","","html-keyboard-response","328","1322510","0.0-17.0-2.15","25792","List1A","black","woman","","","","null","","","",""
"7720","","","survey-text","329","1330231","0.0-17.0-3.15","25792","List1A","black","woman","","","","","{""Q0"":""kate and mike are kissing each other""}","<img src=""stim_listA/kiss2.gif""style=""height:400px;""></stim_listA>","are kissing each other",""
"null","<div style=""font-size:60px;"">+</div>","","html-keyboard-response","330","1330733","0.0-17.0-0.16","25792","List1A","black","woman","","","","null","","","",""
"null","<img src=""stim_listA/flirt4.gif""style=""height:400px;""></stim_listA>","","html-keyboard-response","331","1332735","0.0-17.0-1.16","25792","List1A","black","woman","","","","null","","","",""
"null","are flirting with each other","","html-keyboard-response","332","1334736","0.0-17.0-2.16","25792","List1A","black","woman","","","","null","","","",""
"13372","","","survey-text","333","1348109","0.0-17.0-3.16","25792","List1A","black","woman","","","","","{""Q0"":""ruth and dave are flirting with each other""}","<img src=""stim_listA/flirt4.gif""style=""height:400px;""></stim_listA>","are flirting with each other",""
"null","<div style=""font-size:60px;"">+</div>","","html-keyboard-response","334","1348610","0.0-17.0-0.17","25792","List1A","black","woman","","","","null","","","",""
"null","<img src=""stim_listA/talk7.gif""style=""height:400px;""></stim_listA>","","html-keyboard-response","335","1350612","0.0-17.0-1.17","25792","List1A","black","woman","","","","null","","","",""
"null","is talking to","","html-keyboard-response","336","1352614","0.0-17.0-2.17","25792","List1A","black","woman","","","","null","","","",""
"11962","","","survey-text","337","1364576","0.0-17.0-3.17","25792","List1A","black","woman","","","","","{""Q0"":""beth is talking to jane""}","<img src=""stim_listA/talk7.gif""style=""height:400px;""></stim_listA>","is talking to",""
"null","<div style=""font-size:60px;"">+</div>","","html-keyboard-response","338","1365077","0.0-17.0-0.18","25792","List1A","black","woman","","","","null","","","",""
"null","<img src=""stim_listA/fight3.gif""style=""height:400px;""></stim_listA>","","html-keyboard-response","339","1367078","0.0-17.0-1.18","25792","List1A","black","woman","","","","null","","","",""
"null","is fighting","","html-keyboard-response","340","1369079","0.0-17.0-2.18","25792","List1A","black","woman","","","","null","","","",""
"6711","","","survey-text","341","1375791","0.0-17.0-3.18","25792","List1A","black","woman","","","","","{""Q0"":""dave is fighting jane""}","<img src=""stim_listA/fight3.gif""style=""height:400px;""></stim_listA>","is fighting",""
"null","<div style=""font-size:60px;"">+</div>","","html-keyboard-response","342","1376292","0.0-17.0-0.19","25792","List1A","black","woman","","","","null","","","",""
"null","<img src=""stim_listA/argue3.gif""style=""height:400px;""></stim_listA>","","html-keyboard-response","343","1378293","0.0-17.0-1.19","25792","List1A","black","woman","","","","null","","","",""
"null","is arguing with","","html-keyboard-response","344","1380294","0.0-17.0-2.19","25792","List1A","black","woman","","","","null","","","",""
"13264","","","survey-text","345","1393560","0.0-17.0-3.19","25792","List1A","black","woman","","","","","{""Q0"":""dave is arguing with ruth""}","<img src=""stim_listA/argue3.gif""style=""height:400px;""></stim_listA>","is arguing with",""
"2282","<img src='img/portrait_matrix_list1.jpg' style='width:900px;height:500px;''></img><p>If you have memorised all the portraits and names and are ready to start, press Continue.</p><p><strong>Please note: Your memory of these faces will be tested 4 times during this experiment.</strong></p>","0","html-button-response","346","1395843","0.0-18.0-0.0","25792","List1A","black","woman","","","","","","","",""
"1605","<img src=""portrait/BW2.jpg""style=""height:400px;""></img>","2","html-button-response","347","1398450","0.0-18.0-1.0","25792","List1A","black","woman","","true","2","","","","",""
"null","CORRECT","","html-keyboard-response","348","1399953","0.0-18.0-2.0-0.0","25792","List1A","black","woman","","","","null","","","",""
"1849","<img src=""portrait/BM2.jpg""style=""height:400px;""></img>","5","html-button-response","349","1401803","0.0-18.0-4.0","25792","List1A","black","woman","","true","5","","","","",""
"null","CORRECT","","html-keyboard-response","350","1403307","0.0-18.0-5.0-0.0","25792","List1A","black","woman","","","","null","","","",""
"1271","<img src=""portrait/WW2.jpg""style=""height:400px;""></img>","3","html-button-response","351","1404580","0.0-18.0-7.0","25792","List1A","black","woman","","true","3","","","","",""
"null","CORRECT","","html-keyboard-response","352","1406082","0.0-18.0-8.0-0.0","25792","List1A","black","woman","","","","null","","","",""
"1718","<img src=""portrait/WM1.jpg""style=""height:400px;""></img>","6","html-button-response","353","1407800","0.0-18.0-10.0","25792","List1A","black","woman","","true","6","","","","",""
"null","CORRECT","","html-keyboard-response","354","1409302","0.0-18.0-11.0-0.0","25792","List1A","black","woman","","","","null","","","",""
"1487","<img src=""portrait/WM2.jpg""style=""height:400px;""></img>","7","html-button-response","355","1410790","0.0-18.0-13.0","25792","List1A","black","woman","","true","7","","","","",""
"null","CORRECT","","html-keyboard-response","356","1412293","0.0-18.0-14.0-0.0","25792","List1A","black","woman","","","","null","","","",""
"1610","<img src=""portrait/BM1.jpg""style=""height:400px;""></img>","4","html-button-response","357","1413905","0.0-18.0-16.0","25792","List1A","black","woman","","true","4","","","","",""
"null","CORRECT","","html-keyboard-response","358","1415407","0.0-18.0-17.0-0.0","25792","List1A","black","woman","","","","null","","","",""
"1674","<img src=""portrait/WW1.jpg""style=""height:400px;""></img>","1","html-button-response","359","1417081","0.0-18.0-19.0","25792","List1A","black","woman","","true","1","","","","",""
"null","CORRECT","","html-keyboard-response","360","1418583","0.0-18.0-20.0-0.0","25792","List1A","black","woman","","","","null","","","",""
"1674","<img src=""portrait/BW1.jpg""style=""height:400px;""></img>","0","html-button-response","361","1420258","0.0-18.0-22.0","25792","List1A","black","woman","","true","0","","","","",""
"null","CORRECT","","html-keyboard-response","362","1421762","0.0-18.0-23.0-0.0","25792","List1A","black","woman","","","","null","","","",""
"1931","<p>You got 8 out of 8 right first time. Press Continue.</p>","0","html-button-response","363","1423694","0.0-18.0-25.0","25792","List1A","black","woman","","","","","","","",""
"null","<div style=""font-size:60px;"">+</div>","","html-keyboard-response","364","1425197","0.0-19.0-0.0","25792","List1A","black","woman","","","","null","","","",""
"null","<img src=""stim_listA/dance7.gif""style=""height:400px;""></stim_listA>","","html-keyboard-response","365","1427199","0.0-19.0-1.0","25792","List1A","black","woman","","","","null","","","",""
"null","is dancing with","","html-keyboard-response","366","1429200","0.0-19.0-2.0","25792","List1A","black","woman","","","","null","","","",""
"8506","","","survey-text","367","1437706","0.0-19.0-3.0","25792","List1A","black","woman","","","","","{""Q0"":""jane is dancing with beth""}","<img src=""stim_listA/dance7.gif""style=""height:400px;""></stim_listA>","is dancing with",""
"null","<div style=""font-size:60px;"">+</div>","","html-keyboard-response","368","1438208","0.0-19.0-0.1","25792","List1A","black","woman","","","","null","","","",""
"null","<img src=""stim_listA/dance6.gif""style=""height:400px;""></stim_listA>","","html-keyboard-response","369","1440210","0.0-19.0-1.1","25792","List1A","black","woman","","","","null","","","",""
"null","are dancing with each other","","html-keyboard-response","370","1442212","0.0-19.0-2.1","25792","List1A","black","woman","","","","null","","","",""
"8153","","","survey-text","371","1450365","0.0-19.0-3.1","25792","List1A","black","woman","","","","","{""Q0"":""luke and mike are dancing with each other""}","<img src=""stim_listA/dance6.gif""style=""height:400px;""></stim_listA>","are dancing with each other",""
"null","<div style=""font-size:60px;"">+</div>","","html-keyboard-response","372","1450867","0.0-19.0-0.2","25792","List1A","black","woman","","","","null","","","",""
"null","<img src=""stim_listA/flirt7.gif""style=""height:400px;""></stim_listA>","","html-keyboard-response","373","1452868","0.0-19.0-1.2","25792","List1A","black","woman","","","","null","","","",""
"null","is flirting with","","html-keyboard-response","374","1454870","0.0-19.0-2.2","25792","List1A","black","woman","","","","null","","","",""
"6129","","","survey-text","375","1460999","0.0-19.0-3.2","25792","List1A","black","woman","","","","","{""Q0"":""jane is flirting with beth""}","<img src=""stim_listA/flirt7.gif""style=""height:400px;""></stim_listA>","is flirting with",""
"null","<div style=""font-size:60px;"">+</div>","","html-keyboard-response","376","1461501","0.0-19.0-0.3","25792","List1A","black","woman","","","","null","","","",""
"null","<img src=""stim_listA/shout8.gif""style=""height:400px;""></stim_listA>","","html-keyboard-response","377","1463503","0.0-19.0-1.3","25792","List1A","black","woman","","","","null","","","",""
"null","are shouting at each other","","html-keyboard-response","378","1465503","0.0-19.0-2.3","25792","List1A","black","woman","","","","null","","","",""
"9057","","","survey-text","379","1474561","0.0-19.0-3.3","25792","List1A","black","woman","","","","","{""Q0"":""jane and kate are shouting at each other""}","<img src=""stim_listA/shout8.gif""style=""height:400px;""></stim_listA>","are shouting at each other",""
"null","<div style=""font-size:60px;"">+</div>","","html-keyboard-response","380","1475063","0.0-19.0-0.4","25792","List1A","black","woman","","","","null","","","",""
"null","<img src=""stim_listA/dance8.gif""style=""height:400px;""></stim_listA>","","html-keyboard-response","381","1477064","0.0-19.0-1.4","25792","List1A","black","woman","","","","null","","","",""
"null","are dancing with each other","","html-keyboard-response","382","1479066","0.0-19.0-2.4","25792","List1A","black","woman","","","","null","","","",""
"10244","","","survey-text","383","1489310","0.0-19.0-3.4","25792","List1A","black","woman","","","","","{""Q0"":""ruth and kate are dancing with each other""}","<img src=""stim_listA/dance8.gif""style=""height:400px;""></stim_listA>","are dancing with each other",""
"null","<div style=""font-size:60px;"">+</div>","","html-keyboard-response","384","1489812","0.0-19.0-0.5","25792","List1A","black","woman","","","","null","","","",""
"null","<img src=""stim_listA/fight1.gif""style=""height:400px;""></stim_listA>","","html-keyboard-response","385","1491814","0.0-19.0-1.5","25792","List1A","black","woman","","","","null","","","",""
"null","is fighting","","html-keyboard-response","386","1493817","0.0-19.0-2.5","25792","List1A","black","woman","","","","null","","","",""
"7207","","","survey-text","387","1501025","0.0-19.0-3.5","25792","List1A","black","woman","","","","","{""Q0"":""mike is fighting kate""}","<img src=""stim_listA/fight1.gif""style=""height:400px;""></stim_listA>","is fighting",""
"null","<div style=""font-size:60px;"">+</div>","","html-keyboard-response","388","1501526","0.0-19.0-0.6","25792","List1A","black","woman","","","","null","","","",""
"null","<img src=""stim_listA/fight2.gif""style=""height:400px;""></stim_listA>","","html-keyboard-response","389","1503528","0.0-19.0-1.6","25792","List1A","black","woman","","","","null","","","",""
"null","are fighting each other","","html-keyboard-response","390","1505529","0.0-19.0-2.6","25792","List1A","black","woman","","","","null","","","",""
"11690","","","survey-text","391","1517220","0.0-19.0-3.6","25792","List1A","black","woman","","","","","{""Q0"":""beth and fred are fighting each other""}","<img src=""stim_listA/fight2.gif""style=""height:400px;""></stim_listA>","are fighting each other",""
"null","<div style=""font-size:60px;"">+</div>","","html-keyboard-response","392","1517721","0.0-19.0-0.7","25792","List1A","black","woman","","","","null","","","",""
"null","<img src=""stim_listA/dance3.gif""style=""height:400px;""></stim_listA>","","html-keyboard-response","393","1519723","0.0-19.0-1.7","25792","List1A","black","woman","","","","null","","","",""
"null","is dancing with","","html-keyboard-response","394","1521725","0.0-19.0-2.7","25792","List1A","black","woman","","","","null","","","",""
"6245","","","survey-text","395","1527970","0.0-19.0-3.7","25792","List1A","black","woman","","","","","{""Q0"":""jane is dancing with luke""}","<img src=""stim_listA/dance3.gif""style=""height:400px;""></stim_listA>","is dancing with",""
"null","<div style=""font-size:60px;"">+</div>","","html-keyboard-response","396","1528472","0.0-19.0-0.8","25792","List1A","black","woman","","","","null","","","",""
"null","<img src=""stim_listA/touch6.gif""style=""height:400px;""></stim_listA>","","html-keyboard-response","397","1530473","0.0-19.0-1.8","25792","List1A","black","woman","","","","null","","","",""
"null","are touching each other","","html-keyboard-response","398","1532475","0.0-19.0-2.8","25792","List1A","black","woman","","","","null","","","",""
"13156","","","survey-text","399","1545632","0.0-19.0-3.8","25792","List1A","black","woman","","","","","{""Q0"":""fred and luke are touching each other""}","<img src=""stim_listA/touch6.gif""style=""height:400px;""></stim_listA>","are touching each other",""
"null","<div style=""font-size:60px;"">+</div>","","html-keyboard-response","400","1546134","0.0-19.0-0.9","25792","List1A","black","woman","","","","null","","","",""
"null","<img src=""stim_listA/touch1.gif""style=""height:400px;""></stim_listA>","","html-keyboard-response","401","1548137","0.0-19.0-1.9","25792","List1A","black","woman","","","","null","","","",""
"null","is touching","","html-keyboard-response","402","1550138","0.0-19.0-2.9","25792","List1A","black","woman","","","","null","","","",""
"6121","","","survey-text","403","1556259","0.0-19.0-3.9","25792","List1A","black","woman","","","","","{""Q0"":""kate is touching mike""}","<img src=""stim_listA/touch1.gif""style=""height:400px;""></stim_listA>","is touching",""
"null","<div style=""font-size:60px;"">+</div>","","html-keyboard-response","404","1556760","0.0-19.0-0.10","25792","List1A","black","woman","","","","null","","","",""
"null","<img src=""stim_listA/touch3.gif""style=""height:400px;""></stim_listA>","","html-keyboard-response","405","1558762","0.0-19.0-1.10","25792","List1A","black","woman","","","","null","","","",""
"null","is touching","","html-keyboard-response","406","1560764","0.0-19.0-2.10","25792","List1A","black","woman","","","","null","","","",""
"6774","","","survey-text","407","1567538","0.0-19.0-3.10","25792","List1A","black","woman","","","","","{""Q0"":""jane is touching dave""}","<img src=""stim_listA/touch3.gif""style=""height:400px;""></stim_listA>","is touching",""
"null","<div style=""font-size:60px;"">+</div>","","html-keyboard-response","408","1568040","0.0-19.0-0.11","25792","List1A","black","woman","","","","null","","","",""
"null","<img src=""stim_listA/marry3.gif""style=""height:400px;""></stim_listA>","","html-keyboard-response","409","1570043","0.0-19.0-1.11","25792","List1A","black","woman","","","","null","","","",""
"null","is marrying","","html-keyboard-response","410","1572044","0.0-19.0-2.11","25792","List1A","black","woman","","","","null","","","",""
"5321","","","survey-text","411","1577365","0.0-19.0-3.11","25792","List1A","black","woman","","","","","{""Q0"":""dave is marrying ruth""}","<img src=""stim_listA/marry3.gif""style=""height:400px;""></stim_listA>","is marrying",""
"null","<div style=""font-size:60px;"">+</div>","","html-keyboard-response","412","1577867","0.0-19.0-0.12","25792","List1A","black","woman","","","","null","","","",""
"null","<img src=""stim_listA/shout6.gif""style=""height:400px;""></stim_listA>","","html-keyboard-response","413","1579869","0.0-19.0-1.12","25792","List1A","black","woman","","","","null","","","",""
"null","are shouting at each other","","html-keyboard-response","414","1581870","0.0-19.0-2.12","25792","List1A","black","woman","","","","null","","","",""
"10674","","","survey-text","415","1592545","0.0-19.0-3.12","25792","List1A","black","woman","","","","","{""Q0"":""dave and mike are shouting at each other""}","<img src=""stim_listA/shout6.gif""style=""height:400px;""></stim_listA>","are shouting at each other",""
"null","<div style=""font-size:60px;"">+</div>","","html-keyboard-response","416","1593047","0.0-19.0-0.13","25792","List1A","black","woman","","","","null","","","",""
"null","<img src=""stim_listA/dance2.gif""style=""height:400px;""></stim_listA>","","html-keyboard-response","417","1595048","0.0-19.0-1.13","25792","List1A","black","woman","","","","null","","","",""
"null","are dancing with each other","","html-keyboard-response","418","1597050","0.0-19.0-2.13","25792","List1A","black","woman","","","","null","","","",""
"8463","","","survey-text","419","1605513","0.0-19.0-3.13","25792","List1A","black","woman","","","","","{""Q0"":""beth and mike are dancing with each other""}","<img src=""stim_listA/dance2.gif""style=""height:400px;""></stim_listA>","are dancing with each other",""
"null","<div style=""font-size:60px;"">+</div>","","html-keyboard-response","420","1606016","0.0-19.0-0.14","25792","List1A","black","woman","","","","null","","","",""
"null","<img src=""stim_listA/marry4.gif""style=""height:400px;""></stim_listA>","","html-keyboard-response","421","1608017","0.0-19.0-1.14","25792","List1A","black","woman","","","","null","","","",""
"null","are marrying each other","","html-keyboard-response","422","1610019","0.0-19.0-2.14","25792","List1A","black","woman","","","","null","","","",""
"7639","","","survey-text","423","1617659","0.0-19.0-3.14","25792","List1A","black","woman","","","","","{""Q0"":""jane and luke are marrying each other""}","<img src=""stim_listA/marry4.gif""style=""height:400px;""></stim_listA>","are marrying each other",""
"null","<div style=""font-size:60px;"">+</div>","","html-keyboard-response","424","1618160","0.0-19.0-0.15","25792","List1A","black","woman","","","","null","","","",""
"null","<img src=""stim_listA/play7.gif""style=""height:400px;""></stim_listA>","","html-keyboard-response","425","1620162","0.0-19.0-1.15","25792","List1A","black","woman","","","","null","","","",""
"null","is playing with","","html-keyboard-response","426","1622163","0.0-19.0-2.15","25792","List1A","black","woman","","","","null","","","",""
"10561","","","survey-text","427","1632725","0.0-19.0-3.15","25792","List1A","black","woman","","","","","{""Q0"":""kate is playing with jane""}","<img src=""stim_listA/play7.gif""style=""height:400px;""></stim_listA>","is playing with",""
"null","<div style=""font-size:60px;"">+</div>","","html-keyboard-response","428","1633227","0.0-19.0-0.16","25792","List1A","black","woman","","","","null","","","",""
"null","<img src=""stim_listA/argue4.gif""style=""height:400px;""></stim_listA>","","html-keyboard-response","429","1635228","0.0-19.0-1.16","25792","List1A","black","woman","","","","null","","","",""
"null","are arguing with each other","","html-keyboard-response","430","1637229","0.0-19.0-2.16","25792","List1A","black","woman","","","","null","","","",""
"8723","","","survey-text","431","1645953","0.0-19.0-3.16","25792","List1A","black","woman","","","","","{""Q0"":""luke and jane are arguing with each other""}","<img src=""stim_listA/argue4.gif""style=""height:400px;""></stim_listA>","are arguing with each other",""
"null","<div style=""font-size:60px;"">+</div>","","html-keyboard-response","432","1646455","0.0-19.0-0.17","25792","List1A","black","woman","","","","null","","","",""
"null","<img src=""stim_listA/play4.gif""style=""height:400px;""></stim_listA>","","html-keyboard-response","433","1648456","0.0-19.0-1.17","25792","List1A","black","woman","","","","null","","","",""
"null","are playing with each other","","html-keyboard-response","434","1650458","0.0-19.0-2.17","25792","List1A","black","woman","","","","null","","","",""
"10909","","","survey-text","435","1661368","0.0-19.0-3.17","25792","List1A","black","woman","","","","","{""Q0"":""luke and ruth are playing with each other ""}","<img src=""stim_listA/play4.gif""style=""height:400px;""></stim_listA>","are playing with each other",""
"null","<div style=""font-size:60px;"">+</div>","","html-keyboard-response","436","1661870","0.0-19.0-0.18","25792","List1A","black","woman","","","","null","","","",""
"null","<img src=""stim_listA/touch5.gif""style=""height:400px;""></stim_listA>","","html-keyboard-response","437","1663871","0.0-19.0-1.18","25792","List1A","black","woman","","","","null","","","",""
"null","is touching","","html-keyboard-response","438","1665872","0.0-19.0-2.18","25792","List1A","black","woman","","","","null","","","",""
"6431","","","survey-text","439","1672304","0.0-19.0-3.18","25792","List1A","black","woman","","","","","{""Q0"":""mike is touching dave""}","<img src=""stim_listA/touch5.gif""style=""height:400px;""></stim_listA>","is touching",""
"null","<div style=""font-size:60px;"">+</div>","","html-keyboard-response","440","1672805","0.0-19.0-0.19","25792","List1A","black","woman","","","","null","","","",""
"null","<img src=""stim_listA/touch7.gif""style=""height:400px;""></stim_listA>","","html-keyboard-response","441","1674807","0.0-19.0-1.19","25792","List1A","black","woman","","","","null","","","",""
"null","is touching","","html-keyboard-response","442","1676807","0.0-19.0-2.19","25792","List1A","black","woman","","","","null","","","",""
"7038","","","survey-text","443","1683847","0.0-19.0-3.19","25792","List1A","black","woman","","","","","{""Q0"":""kate is touching jane""}","<img src=""stim_listA/touch7.gif""style=""height:400px;""></stim_listA>","is touching",""
"2183","<p>Thank you for completing that task.</p><p>The final part of this session is a short questionnaire.</p><p>Press Continue.</p>","0","html-button-response","444","1686031","0.0-20.0","25792","List1A","black","woman","","","","","","","",""
"19109","","","survey-text","445","1706142","0.0-21.0","25792","List1A","black","woman","","","","","{""Q0"":""21"",""Q1"":""English"",""Q2"":""English"",""Q3"":""USA"",""Q4"":""Black"",""Q5"":""Female""}","","","demographics"
"6066","","","survey-likert","446","1712210","0.0-22.0","25792","List1A","black","woman","","","","","{""Q0"":4}","","","likert_ESS"
"5236","","","survey-likert","447","1717462","0.0-23.0","25792","List1A","black","woman","","","","","{""Q0"":4}","","","likert_NSSAL_Q1"
"3155","","","survey-likert","448","1720640","0.0-24.0","25792","List1A","black","woman","","","","","{""Q0"":4}","","","likert_NSSAL_Q2"
"4880","","","survey-likert","449","1725536","0.0-25.0","25792","List1A","black","woman","","","","","{""Q0"":4}","","","likert_CGRS_Q1"
"3705","","","survey-likert","450","1729257","0.0-26.0","25792","List1A","black","woman","","","","","{""Q0"":4}","","","likert_CGRS_Q2"
"4149","","","survey-likert","451","1733423","0.0-27.0","25792","List1A","black","woman","","","","","{""Q0"":4}","","","likert_CGRS_Q3"
"11092","","","survey-text","452","1744530","0.0-28.0","25792","List1A","black","woman","","","","","{""Q0"":""5e101b8067f17072adf88a17""}","","","worker_id"
"18750","","","external-html","453","1763884","0.0-29.0","25792","List1A","black","woman","debrief.html","","","","","","",""
