rt,stimulus,button_pressed,trial_type,trial_index,time_elapsed,internal_node_id,subject,list,ppt_race,ppt_gender,url,first_guess,correct,key_press,responses,image_type,phrase_type,test_part
2446,Welcome to the experiment. Press Continue to begin.,0,html-button-response,0,2456,0.0-0.0,27217,List1B,black,woman,,,,,,,,
50762,,,external-html,1,54377,0.0-1.0,27217,List1B,black,woman,consent.html,,,,,,,
14480,"<p>On the next page, you will see portraits of 8 people and their names.</p><p>Your first task is to take a few minutes to memorise the names of these people.</p><p>You will have to recall their names during the rest of the experiment, so it is</p><p>essential that you try to memorise these people and their names as best as you can.</p><br><p><strong>You will then be tested on your memory of these names and portraits.</strong></p><br><p>The experiment will start after you have completed this memory test.</p><br><p>Ready?</p>",0,html-button-response,2,68868,0.0-2.0,27217,List1B,black,woman,,,,,,,,
60794,"<img src='img/portrait_matrix_list1.jpg' style='width:900px;height:500px;''></img><p>If you have memorised all the portraits and names and are ready to start, press Continue.</p><p><strong>Please note: Your memory of these faces will be tested 4 times during this experiment.</strong></p>",0,html-button-response,3,130732,0.0-3.0-0.0,27217,List1B,black,woman,,,,,,,,
7079,"<img src=""portrait/WW2.jpg""style=""height:400px;""></img>",3,html-button-response,4,138837,0.0-3.0-1.0,27217,List1B,black,woman,,TRUE,3,,,,,
null,CORRECT,,html-keyboard-response,5,140355,0.0-3.0-2.0-0.0,27217,List1B,black,woman,,,,null,,,,
3889,"<img src=""portrait/WM2.jpg""style=""height:400px;""></img>",7,html-button-response,6,144261,0.0-3.0-4.0,27217,List1B,black,woman,,TRUE,7,,,,,
null,CORRECT,,html-keyboard-response,7,145786,0.0-3.0-5.0-0.0,27217,List1B,black,woman,,,,null,,,,
6171,"<img src=""portrait/BM2.jpg""style=""height:400px;""></img>",5,html-button-response,8,151963,0.0-3.0-7.0,27217,List1B,black,woman,,TRUE,5,,,,,
null,CORRECT,,html-keyboard-response,9,153481,0.0-3.0-8.0-0.0,27217,List1B,black,woman,,,,null,,,,
4960,"<img src=""portrait/WW1.jpg""style=""height:400px;""></img>",1,html-button-response,10,158449,0.0-3.0-10.0,27217,List1B,black,woman,,TRUE,1,,,,,
null,CORRECT,,html-keyboard-response,11,159970,0.0-3.0-11.0-0.0,27217,List1B,black,woman,,,,null,,,,
3510,"<img src=""portrait/BW2.jpg""style=""height:400px;""></img>",2,html-button-response,12,163489,0.0-3.0-13.0,27217,List1B,black,woman,,TRUE,2,,,,,
null,CORRECT,,html-keyboard-response,13,165006,0.0-3.0-14.0-0.0,27217,List1B,black,woman,,,,null,,,,
6215,"<img src=""portrait/BW1.jpg""style=""height:400px;""></img>",0,html-button-response,14,171225,0.0-3.0-16.0,27217,List1B,black,woman,,TRUE,0,,,,,
null,CORRECT,,html-keyboard-response,15,172768,0.0-3.0-17.0-0.0,27217,List1B,black,woman,,,,null,,,,
2607,"<img src=""portrait/BM1.jpg""style=""height:400px;""></img>",4,html-button-response,16,175380,0.0-3.0-19.0,27217,List1B,black,woman,,TRUE,4,,,,,
null,CORRECT,,html-keyboard-response,17,176899,0.0-3.0-20.0-0.0,27217,List1B,black,woman,,,,null,,,,
3885,"<img src=""portrait/WM1.jpg""style=""height:400px;""></img>",6,html-button-response,18,180788,0.0-3.0-22.0,27217,List1B,black,woman,,TRUE,6,,,,,
null,CORRECT,,html-keyboard-response,19,182307,0.0-3.0-23.0-0.0,27217,List1B,black,woman,,,,null,,,,
2843,<p>You got 8 out of 8 right first time. Press Continue.</p>,0,html-button-response,20,185160,0.0-3.0-25.0,27217,List1B,black,woman,,,,,,,,
37191,"<p>In this experiment, you will view photographs of the people from the memory game interacting.</p><p>By using the <strong>exact</strong> phrase given <i>after</i> the photograph appears and recalling the correct names of the people in the photographs, form a sentence describing the interaction. You do not need to capitalise names.</p><p>Type your answer in the space provided. Please complete every sentence before moving onto the next trial.</p><p>You will only have a few seconds to memorise each given photograph and phrase before you can respond, so try your best to focus.</p><p>An example is given below. Press 'Continue' when you are ready.</p><img src='img/speaking_example.jpg' style='width:800px;height:460px;''></img>",0,html-button-response,21,223375,0.0-4.0,27217,List1B,black,woman,,,,,,,,
3952,"<p>Before the experiment starts, you will watch two example trials. Press 'Continue'.</p>",0,html-button-response,22,228359,0.0-5.0,27217,List1B,black,woman,,,,,,,,
null,<img src='img/meet_eg.gif' style='height:400px;''></img>,,html-keyboard-response,23,231370,0.0-6.0,27217,List1B,black,woman,,,,null,,,,
null,<p>is meeting</p>,,html-keyboard-response,24,233375,0.0-7.0,27217,List1B,black,woman,,,,null,,,,
3358,<p><b>Answer:</b> kate is meeting beth</p>,0,html-button-response,25,236737,0.0-8.0,27217,List1B,black,woman,,,,,,,,
null,<img src='img/look_eg.gif' style='height:400px;''></img>,,html-keyboard-response,26,239757,0.0-9.0,27217,List1B,black,woman,,,,null,,,,
null,<p>are looking at each other</p>,,html-keyboard-response,27,241760,0.0-10.0,27217,List1B,black,woman,,,,null,,,,
3976,<p><b>Answer:</b> luke and dave are looking at each other</p>,0,html-button-response,28,245742,0.0-11.0,27217,List1B,black,woman,,,,,,,,
9421,"<p>Ready to start the experiment?</p><br><p><strong>Remember to describe the picture using a full sentence,</strong></p><p><strong>that combines the names of the people with the <i>exact</i> phrase given.</strong></p><p><strong>To receive full payment you must do this correctly.</strong></p><p><strong> You do not need to capitalise names or use punctuation.</strong></p><br><p>Press 'Continue' to begin.</p>",0,html-button-response,29,256196,0.0-12.0,27217,List1B,black,woman,,,,,,,,
null,"<div style=""font-size:60px;"">+</div>",,html-keyboard-response,30,257728,0.0-13.0-0.0,27217,List1B,black,woman,,,,null,,,,
null,"<img src=""stim_listB/touch4.gif""style=""height:400px;""></stim_listB>",,html-keyboard-response,31,259753,0.0-13.0-1.0,27217,List1B,black,woman,,,,null,,,,
null,are touching each other,,html-keyboard-response,32,261760,0.0-13.0-2.0,27217,List1B,black,woman,,,,null,,,,
12180,,,survey-text,33,273943,0.0-13.0-3.0,27217,List1B,black,woman,,,,,"{""Q0"":""ruth and luke are touching each other""}","<img src=""stim_listB/touch4.gif""style=""height:400px;""></stim_listB>",are touching each other,
null,"<div style=""font-size:60px;"">+</div>",,html-keyboard-response,34,274492,0.0-13.0-0.1,27217,List1B,black,woman,,,,null,,,,
null,"<img src=""stim_listB/shout1.gif""style=""height:400px;""></stim_listB>",,html-keyboard-response,35,276508,0.0-13.0-1.1,27217,List1B,black,woman,,,,null,,,,
null,is shouting at,,html-keyboard-response,36,278514,0.0-13.0-2.1,27217,List1B,black,woman,,,,null,,,,
10398,,,survey-text,37,288916,0.0-13.0-3.1,27217,List1B,black,woman,,,,,"{""Q0"":""beth is shouting at fred""}","<img src=""stim_listB/shout1.gif""style=""height:400px;""></stim_listB>",is shouting at,
null,"<div style=""font-size:60px;"">+</div>",,html-keyboard-response,38,289428,0.0-13.0-0.2,27217,List1B,black,woman,,,,null,,,,
null,"<img src=""stim_listB/fight7.gif""style=""height:400px;""></stim_listB>",,html-keyboard-response,39,291439,0.0-13.0-1.2,27217,List1B,black,woman,,,,null,,,,
null,is fighting,,html-keyboard-response,40,293564,0.0-13.0-2.2,27217,List1B,black,woman,,,,null,,,,
8708,,,survey-text,41,302276,0.0-13.0-3.2,27217,List1B,black,woman,,,,,"{""Q0"":""kate is fighting jane""}","<img src=""stim_listB/fight7.gif""style=""height:400px;""></stim_listB>",is fighting,
null,"<div style=""font-size:60px;"">+</div>",,html-keyboard-response,42,302794,0.0-13.0-0.3,27217,List1B,black,woman,,,,null,,,,
null,"<img src=""stim_listB/play1.gif""style=""height:400px;""></stim_listB>",,html-keyboard-response,43,304805,0.0-13.0-1.3,27217,List1B,black,woman,,,,null,,,,
null,is playing with,,html-keyboard-response,44,306807,0.0-13.0-2.3,27217,List1B,black,woman,,,,null,,,,
7759,,,survey-text,45,314570,0.0-13.0-3.3,27217,List1B,black,woman,,,,,"{""Q0"":""kate is playing with dave""}","<img src=""stim_listB/play1.gif""style=""height:400px;""></stim_listB>",is playing with,
null,"<div style=""font-size:60px;"">+</div>",,html-keyboard-response,46,315085,0.0-13.0-0.4,27217,List1B,black,woman,,,,null,,,,
null,"<img src=""stim_listB/argue3.gif""style=""height:400px;""></stim_listB>",,html-keyboard-response,47,317089,0.0-13.0-1.4,27217,List1B,black,woman,,,,null,,,,
null,is arguing with,,html-keyboard-response,48,319094,0.0-13.0-2.4,27217,List1B,black,woman,,,,null,,,,
19981,,,survey-text,49,339078,0.0-13.0-3.4,27217,List1B,black,woman,,,,,"{""Q0"":""ruth is arguing with dave""}","<img src=""stim_listB/argue3.gif""style=""height:400px;""></stim_listB>",is arguing with,
null,"<div style=""font-size:60px;"">+</div>",,html-keyboard-response,50,339592,0.0-13.0-0.5,27217,List1B,black,woman,,,,null,,,,
null,"<img src=""stim_listB/dance7.gif""style=""height:400px;""></stim_listB>",,html-keyboard-response,51,341594,0.0-13.0-1.5,27217,List1B,black,woman,,,,null,,,,
null,is dancing with,,html-keyboard-response,52,343597,0.0-13.0-2.5,27217,List1B,black,woman,,,,null,,,,
10833,,,survey-text,53,354434,0.0-13.0-3.5,27217,List1B,black,woman,,,,,"{""Q0"":""beth is dancing with jane""}","<img src=""stim_listB/dance7.gif""style=""height:400px;""></stim_listB>",is dancing with,
null,"<div style=""font-size:60px;"">+</div>",,html-keyboard-response,54,354942,0.0-13.0-0.6,27217,List1B,black,woman,,,,null,,,,
null,"<img src=""stim_listB/fight4.gif""style=""height:400px;""></stim_listB>",,html-keyboard-response,55,356944,0.0-13.0-1.6,27217,List1B,black,woman,,,,null,,,,
null,are fighting each other,,html-keyboard-response,56,358955,0.0-13.0-2.6,27217,List1B,black,woman,,,,null,,,,
18890,,,survey-text,57,377849,0.0-13.0-3.6,27217,List1B,black,woman,,,,,"{""Q0"":""ruth is fighting with luke""}","<img src=""stim_listB/fight4.gif""style=""height:400px;""></stim_listB>",are fighting each other,
null,"<div style=""font-size:60px;"">+</div>",,html-keyboard-response,58,378364,0.0-13.0-0.7,27217,List1B,black,woman,,,,null,,,,
null,"<img src=""stim_listB/dance5.gif""style=""height:400px;""></stim_listB>",,html-keyboard-response,59,380370,0.0-13.0-1.7,27217,List1B,black,woman,,,,null,,,,
null,is dancing with,,html-keyboard-response,60,382373,0.0-13.0-2.7,27217,List1B,black,woman,,,,null,,,,
7002,,,survey-text,61,389378,0.0-13.0-3.7,27217,List1B,black,woman,,,,,"{""Q0"":""fred is dancing with dave""}","<img src=""stim_listB/dance5.gif""style=""height:400px;""></stim_listB>",is dancing with,
null,"<div style=""font-size:60px;"">+</div>",,html-keyboard-response,62,389897,0.0-13.0-0.8,27217,List1B,black,woman,,,,null,,,,
null,"<img src=""stim_listB/touch3.gif""style=""height:400px;""></stim_listB>",,html-keyboard-response,63,391902,0.0-13.0-1.8,27217,List1B,black,woman,,,,null,,,,
null,is touching,,html-keyboard-response,64,393907,0.0-13.0-2.8,27217,List1B,black,woman,,,,null,,,,
6241,,,survey-text,65,400150,0.0-13.0-3.8,27217,List1B,black,woman,,,,,"{""Q0"":""jane is touching dave""}","<img src=""stim_listB/touch3.gif""style=""height:400px;""></stim_listB>",is touching,
null,"<div style=""font-size:60px;"">+</div>",,html-keyboard-response,66,400661,0.0-13.0-0.9,27217,List1B,black,woman,,,,null,,,,
null,"<img src=""stim_listB/talk3.gif""style=""height:400px;""></stim_listB>",,html-keyboard-response,67,402666,0.0-13.0-1.9,27217,List1B,black,woman,,,,null,,,,
null,is talking to,,html-keyboard-response,68,404671,0.0-13.0-2.9,27217,List1B,black,woman,,,,null,,,,
7341,,,survey-text,69,412017,0.0-13.0-3.9,27217,List1B,black,woman,,,,,"{""Q0"":""jane is talking to luke""}","<img src=""stim_listB/talk3.gif""style=""height:400px;""></stim_listB>",is talking to,
null,"<div style=""font-size:60px;"">+</div>",,html-keyboard-response,70,412526,0.0-13.0-0.10,27217,List1B,black,woman,,,,null,,,,
null,"<img src=""stim_listB/kiss7.gif""style=""height:400px;""></stim_listB>",,html-keyboard-response,71,414544,0.0-13.0-1.10,27217,List1B,black,woman,,,,null,,,,
null,is kissing,,html-keyboard-response,72,416547,0.0-13.0-2.10,27217,List1B,black,woman,,,,null,,,,
5605,,,survey-text,73,422155,0.0-13.0-3.10,27217,List1B,black,woman,,,,,"{""Q0"":""beth is kissing ruth""}","<img src=""stim_listB/kiss7.gif""style=""height:400px;""></stim_listB>",is kissing,
null,"<div style=""font-size:60px;"">+</div>",,html-keyboard-response,74,422663,0.0-13.0-0.11,27217,List1B,black,woman,,,,null,,,,
null,"<img src=""stim_listB/shout5.gif""style=""height:400px;""></stim_listB>",,html-keyboard-response,75,424692,0.0-13.0-1.11,27217,List1B,black,woman,,,,null,,,,
null,is shouting at,,html-keyboard-response,76,426694,0.0-13.0-2.11,27217,List1B,black,woman,,,,null,,,,
6164,,,survey-text,77,432865,0.0-13.0-3.11,27217,List1B,black,woman,,,,,"{""Q0"":""fred is shouting at luke""}","<img src=""stim_listB/shout5.gif""style=""height:400px;""></stim_listB>",is shouting at,
null,"<div style=""font-size:60px;"">+</div>",,html-keyboard-response,78,433377,0.0-13.0-0.12,27217,List1B,black,woman,,,,null,,,,
null,"<img src=""stim_listB/shout3.gif""style=""height:400px;""></stim_listB>",,html-keyboard-response,79,435384,0.0-13.0-1.12,27217,List1B,black,woman,,,,null,,,,
null,is shouting at,,html-keyboard-response,80,437387,0.0-13.0-2.12,27217,List1B,black,woman,,,,null,,,,
6332,,,survey-text,81,443722,0.0-13.0-3.12,27217,List1B,black,woman,,,,,"{""Q0"":""jane is shouting at luke""}","<img src=""stim_listB/shout3.gif""style=""height:400px;""></stim_listB>",is shouting at,
null,"<div style=""font-size:60px;"">+</div>",,html-keyboard-response,82,444237,0.0-13.0-0.13,27217,List1B,black,woman,,,,null,,,,
null,"<img src=""stim_listB/fight5.gif""style=""height:400px;""></stim_listB>",,html-keyboard-response,83,446251,0.0-13.0-1.13,27217,List1B,black,woman,,,,null,,,,
null,is fighting,,html-keyboard-response,84,448264,0.0-13.0-2.13,27217,List1B,black,woman,,,,null,,,,
5260,,,survey-text,85,453528,0.0-13.0-3.13,27217,List1B,black,woman,,,,,"{""Q0"":""dave is fighting mike""}","<img src=""stim_listB/fight5.gif""style=""height:400px;""></stim_listB>",is fighting,
null,"<div style=""font-size:60px;"">+</div>",,html-keyboard-response,86,454041,0.0-13.0-0.14,27217,List1B,black,woman,,,,null,,,,
null,"<img src=""stim_listB/play8.gif""style=""height:400px;""></stim_listB>",,html-keyboard-response,87,456065,0.0-13.0-1.14,27217,List1B,black,woman,,,,null,,,,
null,are playing with each other,,html-keyboard-response,88,458071,0.0-13.0-2.14,27217,List1B,black,woman,,,,null,,,,
9231,,,survey-text,89,467308,0.0-13.0-3.14,27217,List1B,black,woman,,,,,"{""Q0"":""beth and ruth are playing with each other""}","<img src=""stim_listB/play8.gif""style=""height:400px;""></stim_listB>",are playing with each other,
null,"<div style=""font-size:60px;"">+</div>",,html-keyboard-response,90,467819,0.0-13.0-0.15,27217,List1B,black,woman,,,,null,,,,
null,"<img src=""stim_listB/kiss3.gif""style=""height:400px;""></stim_listB>",,html-keyboard-response,91,469831,0.0-13.0-1.15,27217,List1B,black,woman,,,,null,,,,
null,is kissing,,html-keyboard-response,92,471834,0.0-13.0-2.15,27217,List1B,black,woman,,,,null,,,,
4497,,,survey-text,93,476335,0.0-13.0-3.15,27217,List1B,black,woman,,,,,"{""Q0"":""ruth is kissing luke""}","<img src=""stim_listB/kiss3.gif""style=""height:400px;""></stim_listB>",is kissing,
null,"<div style=""font-size:60px;"">+</div>",,html-keyboard-response,94,476840,0.0-13.0-0.16,27217,List1B,black,woman,,,,null,,,,
null,"<img src=""stim_listB/argue1.gif""style=""height:400px;""></stim_listB>",,html-keyboard-response,95,478843,0.0-13.0-1.16,27217,List1B,black,woman,,,,null,,,,
null,is arguing with,,html-keyboard-response,96,480847,0.0-13.0-2.16,27217,List1B,black,woman,,,,null,,,,
7087,,,survey-text,97,487937,0.0-13.0-3.16,27217,List1B,black,woman,,,,,"{""Q0"":""beth is arguing with mike""}","<img src=""stim_listB/argue1.gif""style=""height:400px;""></stim_listB>",is arguing with,
null,"<div style=""font-size:60px;"">+</div>",,html-keyboard-response,98,488443,0.0-13.0-0.17,27217,List1B,black,woman,,,,null,,,,
null,"<img src=""stim_listB/dance6.gif""style=""height:400px;""></stim_listB>",,html-keyboard-response,99,490449,0.0-13.0-1.17,27217,List1B,black,woman,,,,null,,,,
null,are dancing with each other,,html-keyboard-response,100,492461,0.0-13.0-2.17,27217,List1B,black,woman,,,,null,,,,
12160,,,survey-text,101,504624,0.0-13.0-3.17,27217,List1B,black,woman,,,,,"{""Q0"":""dave and luke are dancing with each other""}","<img src=""stim_listB/dance6.gif""style=""height:400px;""></stim_listB>",are dancing with each other,
null,"<div style=""font-size:60px;"">+</div>",,html-keyboard-response,102,505136,0.0-13.0-0.18,27217,List1B,black,woman,,,,null,,,,
null,"<img src=""stim_listB/argue8.gif""style=""height:400px;""></stim_listB>",,html-keyboard-response,103,507155,0.0-13.0-1.18,27217,List1B,black,woman,,,,null,,,,
null,are arguing with each other,,html-keyboard-response,104,509160,0.0-13.0-2.18,27217,List1B,black,woman,,,,null,,,,
9249,,,survey-text,105,518413,0.0-13.0-3.18,27217,List1B,black,woman,,,,,"{""Q0"":""beth and jane are arguing with each other""}","<img src=""stim_listB/argue8.gif""style=""height:400px;""></stim_listB>",are arguing with each other,
null,"<div style=""font-size:60px;"">+</div>",,html-keyboard-response,106,518933,0.0-13.0-0.19,27217,List1B,black,woman,,,,null,,,,
null,"<img src=""stim_listB/dance1.gif""style=""height:400px;""></stim_listB>",,html-keyboard-response,107,520938,0.0-13.0-1.19,27217,List1B,black,woman,,,,null,,,,
null,is dancing with,,html-keyboard-response,108,522944,0.0-13.0-2.19,27217,List1B,black,woman,,,,null,,,,
25246,,,survey-text,109,548193,0.0-13.0-3.19,27217,List1B,black,woman,,,,,"{""Q0"":""fred and kate are dancing with each other""}","<img src=""stim_listB/dance1.gif""style=""height:400px;""></stim_listB>",is dancing with,
31718,"<img src='img/portrait_matrix_list1.jpg' style='width:900px;height:500px;''></img><p>If you have memorised all the portraits and names and are ready to start, press Continue.</p><p><strong>Please note: Your memory of these faces will be tested 4 times during this experiment.</strong></p>",0,html-button-response,110,579922,0.0-14.0-0.0,27217,List1B,black,woman,,,,,,,,
3931,"<img src=""portrait/WM1.jpg""style=""height:400px;""></img>",6,html-button-response,111,584867,0.0-14.0-1.0,27217,List1B,black,woman,,TRUE,6,,,,,
null,CORRECT,,html-keyboard-response,112,586381,0.0-14.0-2.0-0.0,27217,List1B,black,woman,,,,null,,,,
2434,"<img src=""portrait/WW1.jpg""style=""height:400px;""></img>",1,html-button-response,113,588818,0.0-14.0-4.0,27217,List1B,black,woman,,TRUE,1,,,,,
null,CORRECT,,html-keyboard-response,114,590347,0.0-14.0-5.0-0.0,27217,List1B,black,woman,,,,null,,,,
2812,"<img src=""portrait/WM2.jpg""style=""height:400px;""></img>",7,html-button-response,115,593163,0.0-14.0-7.0,27217,List1B,black,woman,,TRUE,7,,,,,
null,CORRECT,,html-keyboard-response,116,594693,0.0-14.0-8.0-0.0,27217,List1B,black,woman,,,,null,,,,
3184,"<img src=""portrait/BW2.jpg""style=""height:400px;""></img>",2,html-button-response,117,597882,0.0-14.0-10.0,27217,List1B,black,woman,,TRUE,2,,,,,
null,CORRECT,,html-keyboard-response,118,599427,0.0-14.0-11.0-0.0,27217,List1B,black,woman,,,,null,,,,
2262,"<img src=""portrait/BM1.jpg""style=""height:400px;""></img>",4,html-button-response,119,601691,0.0-14.0-13.0,27217,List1B,black,woman,,TRUE,4,,,,,
null,CORRECT,,html-keyboard-response,120,603207,0.0-14.0-14.0-0.0,27217,List1B,black,woman,,,,null,,,,
2042,"<img src=""portrait/WW2.jpg""style=""height:400px;""></img>",3,html-button-response,121,605255,0.0-14.0-16.0,27217,List1B,black,woman,,TRUE,3,,,,,
null,CORRECT,,html-keyboard-response,122,606766,0.0-14.0-17.0-0.0,27217,List1B,black,woman,,,,null,,,,
4614,"<img src=""portrait/BW1.jpg""style=""height:400px;""></img>",0,html-button-response,123,611384,0.0-14.0-19.0,27217,List1B,black,woman,,TRUE,0,,,,,
null,CORRECT,,html-keyboard-response,124,612896,0.0-14.0-20.0-0.0,27217,List1B,black,woman,,,,null,,,,
3186,"<img src=""portrait/BM2.jpg""style=""height:400px;""></img>",5,html-button-response,125,616086,0.0-14.0-22.0,27217,List1B,black,woman,,TRUE,5,,,,,
null,CORRECT,,html-keyboard-response,126,617612,0.0-14.0-23.0-0.0,27217,List1B,black,woman,,,,null,,,,
2101,<p>You got 8 out of 8 right first time. Press Continue.</p>,0,html-button-response,127,619719,0.0-14.0-25.0,27217,List1B,black,woman,,,,,,,,
null,"<div style=""font-size:60px;"">+</div>",,html-keyboard-response,128,621237,0.0-15.0-0.0,27217,List1B,black,woman,,,,null,,,,
null,"<img src=""stim_listB/kiss5.gif""style=""height:400px;""></stim_listB>",,html-keyboard-response,129,623243,0.0-15.0-1.0,27217,List1B,black,woman,,,,null,,,,
null,is kissing,,html-keyboard-response,130,625256,0.0-15.0-2.0,27217,List1B,black,woman,,,,null,,,,
5688,,,survey-text,131,630950,0.0-15.0-3.0,27217,List1B,black,woman,,,,,"{""Q0"":""fred is kissing luke""}","<img src=""stim_listB/kiss5.gif""style=""height:400px;""></stim_listB>",is kissing,
null,"<div style=""font-size:60px;"">+</div>",,html-keyboard-response,132,631460,0.0-15.0-0.1,27217,List1B,black,woman,,,,null,,,,
null,"<img src=""stim_listB/touch5.gif""style=""height:400px;""></stim_listB>",,html-keyboard-response,133,633465,0.0-15.0-1.1,27217,List1B,black,woman,,,,null,,,,
null,is touching,,html-keyboard-response,134,635480,0.0-15.0-2.1,27217,List1B,black,woman,,,,null,,,,
5303,,,survey-text,135,640786,0.0-15.0-3.1,27217,List1B,black,woman,,,,,"{""Q0"":""dave is touching mike""}","<img src=""stim_listB/touch5.gif""style=""height:400px;""></stim_listB>",is touching,
null,"<div style=""font-size:60px;"">+</div>",,html-keyboard-response,136,641298,0.0-15.0-0.2,27217,List1B,black,woman,,,,null,,,,
null,"<img src=""stim_listB/marry1.gif""style=""height:400px;""></stim_listB>",,html-keyboard-response,137,643303,0.0-15.0-1.2,27217,List1B,black,woman,,,,null,,,,
null,is marrying,,html-keyboard-response,138,645305,0.0-15.0-2.2,27217,List1B,black,woman,,,,null,,,,
5686,,,survey-text,139,650995,0.0-15.0-3.2,27217,List1B,black,woman,,,,,"{""Q0"":""beth is marrying mike""}","<img src=""stim_listB/marry1.gif""style=""height:400px;""></stim_listB>",is marrying,
null,"<div style=""font-size:60px;"">+</div>",,html-keyboard-response,140,651501,0.0-15.0-0.3,27217,List1B,black,woman,,,,null,,,,
null,"<img src=""stim_listB/play4.gif""style=""height:400px;""></stim_listB>",,html-keyboard-response,141,653510,0.0-15.0-1.3,27217,List1B,black,woman,,,,null,,,,
null,are playing with each other,,html-keyboard-response,142,655513,0.0-15.0-2.3,27217,List1B,black,woman,,,,null,,,,
8006,,,survey-text,143,663522,0.0-15.0-3.3,27217,List1B,black,woman,,,,,"{""Q0"":""luke and ruth are playing with each other""}","<img src=""stim_listB/play4.gif""style=""height:400px;""></stim_listB>",are playing with each other,
null,"<div style=""font-size:60px;"">+</div>",,html-keyboard-response,144,664040,0.0-15.0-0.4,27217,List1B,black,woman,,,,null,,,,
null,"<img src=""stim_listB/marry8.gif""style=""height:400px;""></stim_listB>",,html-keyboard-response,145,666043,0.0-15.0-1.4,27217,List1B,black,woman,,,,null,,,,
null,are marrying each other,,html-keyboard-response,146,668047,0.0-15.0-2.4,27217,List1B,black,woman,,,,null,,,,
8553,,,survey-text,147,676602,0.0-15.0-3.4,27217,List1B,black,woman,,,,,"{""Q0"":""jane and beth are marrying each other""}","<img src=""stim_listB/marry8.gif""style=""height:400px;""></stim_listB>",are marrying each other,
null,"<div style=""font-size:60px;"">+</div>",,html-keyboard-response,148,677110,0.0-15.0-0.5,27217,List1B,black,woman,,,,null,,,,
null,"<img src=""stim_listB/argue6.gif""style=""height:400px;""></stim_listB>",,html-keyboard-response,149,679136,0.0-15.0-1.5,27217,List1B,black,woman,,,,null,,,,
null,are arguing with each other,,html-keyboard-response,150,681143,0.0-15.0-2.5,27217,List1B,black,woman,,,,null,,,,
8564,,,survey-text,151,689710,0.0-15.0-3.5,27217,List1B,black,woman,,,,,"{""Q0"":""dave and fred are arguing with each other""}","<img src=""stim_listB/argue6.gif""style=""height:400px;""></stim_listB>",are arguing with each other,
null,"<div style=""font-size:60px;"">+</div>",,html-keyboard-response,152,690216,0.0-15.0-0.6,27217,List1B,black,woman,,,,null,,,,
null,"<img src=""stim_listB/shout7.gif""style=""height:400px;""></stim_listB>",,html-keyboard-response,153,692222,0.0-15.0-1.6,27217,List1B,black,woman,,,,null,,,,
null,is shouting at,,html-keyboard-response,154,694229,0.0-15.0-2.6,27217,List1B,black,woman,,,,null,,,,
6451,,,survey-text,155,700682,0.0-15.0-3.6,27217,List1B,black,woman,,,,,"{""Q0"":""ruth is shouting at beth""}","<img src=""stim_listB/shout7.gif""style=""height:400px;""></stim_listB>",is shouting at,
null,"<div style=""font-size:60px;"">+</div>",,html-keyboard-response,156,701207,0.0-15.0-0.7,27217,List1B,black,woman,,,,null,,,,
null,"<img src=""stim_listB/fight8.gif""style=""height:400px;""></stim_listB>",,html-keyboard-response,157,703218,0.0-15.0-1.7,27217,List1B,black,woman,,,,null,,,,
null,are fighting each other,,html-keyboard-response,158,705222,0.0-15.0-2.7,27217,List1B,black,woman,,,,null,,,,
8184,,,survey-text,159,713412,0.0-15.0-3.7,27217,List1B,black,woman,,,,,"{""Q0"":""ruth and beth are fighting each other""}","<img src=""stim_listB/fight8.gif""style=""height:400px;""></stim_listB>",are fighting each other,
null,"<div style=""font-size:60px;"">+</div>",,html-keyboard-response,160,713924,0.0-15.0-0.8,27217,List1B,black,woman,,,,null,,,,
null,"<img src=""stim_listB/dance8.gif""style=""height:400px;""></stim_listB>",,html-keyboard-response,161,715937,0.0-15.0-1.8,27217,List1B,black,woman,,,,null,,,,
null,are dancing with each other,,html-keyboard-response,162,717945,0.0-15.0-2.8,27217,List1B,black,woman,,,,null,,,,
9979,,,survey-text,163,727928,0.0-15.0-3.8,27217,List1B,black,woman,,,,,"{""Q0"":""ruth and kate are dancing with each other""}","<img src=""stim_listB/dance8.gif""style=""height:400px;""></stim_listB>",are dancing with each other,
null,"<div style=""font-size:60px;"">+</div>",,html-keyboard-response,164,728438,0.0-15.0-0.9,27217,List1B,black,woman,,,,null,,,,
null,"<img src=""stim_listB/talk2.gif""style=""height:400px;""></stim_listB>",,html-keyboard-response,165,730442,0.0-15.0-1.9,27217,List1B,black,woman,,,,null,,,,
null,are talking to each other,,html-keyboard-response,166,732445,0.0-15.0-2.9,27217,List1B,black,woman,,,,null,,,,
7634,,,survey-text,167,740083,0.0-15.0-3.9,27217,List1B,black,woman,,,,,"{""Q0"":""mike and beth are talking to each other""}","<img src=""stim_listB/talk2.gif""style=""height:400px;""></stim_listB>",are talking to each other,
null,"<div style=""font-size:60px;"">+</div>",,html-keyboard-response,168,740591,0.0-15.0-0.10,27217,List1B,black,woman,,,,null,,,,
null,"<img src=""stim_listB/marry5.gif""style=""height:400px;""></stim_listB>",,html-keyboard-response,169,742600,0.0-15.0-1.10,27217,List1B,black,woman,,,,null,,,,
null,is marrying,,html-keyboard-response,170,744605,0.0-15.0-2.10,27217,List1B,black,woman,,,,null,,,,
6098,,,survey-text,171,750705,0.0-15.0-3.10,27217,List1B,black,woman,,,,,"{""Q0"":""luke is marrying mike""}","<img src=""stim_listB/marry5.gif""style=""height:400px;""></stim_listB>",is marrying,
null,"<div style=""font-size:60px;"">+</div>",,html-keyboard-response,172,751218,0.0-15.0-0.11,27217,List1B,black,woman,,,,null,,,,
null,"<img src=""stim_listB/touch6.gif""style=""height:400px;""></stim_listB>",,html-keyboard-response,173,753226,0.0-15.0-1.11,27217,List1B,black,woman,,,,null,,,,
null,are touching each other,,html-keyboard-response,174,755230,0.0-15.0-2.11,27217,List1B,black,woman,,,,null,,,,
7878,,,survey-text,175,763111,0.0-15.0-3.11,27217,List1B,black,woman,,,,,"{""Q0"":""fred and luke are touching each other""}","<img src=""stim_listB/touch6.gif""style=""height:400px;""></stim_listB>",are touching each other,
null,"<div style=""font-size:60px;"">+</div>",,html-keyboard-response,176,763622,0.0-15.0-0.12,27217,List1B,black,woman,,,,null,,,,
null,"<img src=""stim_listB/flirt2.gif""style=""height:400px;""></stim_listB>",,html-keyboard-response,177,765625,0.0-15.0-1.12,27217,List1B,black,woman,,,,null,,,,
null,are flirting with each other,,html-keyboard-response,178,767638,0.0-15.0-2.12,27217,List1B,black,woman,,,,null,,,,
7543,,,survey-text,179,775187,0.0-15.0-3.12,27217,List1B,black,woman,,,,,"{""Q0"":""beth and mike are flirting with each other""}","<img src=""stim_listB/flirt2.gif""style=""height:400px;""></stim_listB>",are flirting with each other,
null,"<div style=""font-size:60px;"">+</div>",,html-keyboard-response,180,775700,0.0-15.0-0.13,27217,List1B,black,woman,,,,null,,,,
null,"<img src=""stim_listB/talk8.gif""style=""height:400px;""></stim_listB>",,html-keyboard-response,181,777707,0.0-15.0-1.13,27217,List1B,black,woman,,,,null,,,,
null,are talking to each other,,html-keyboard-response,182,779713,0.0-15.0-2.13,27217,List1B,black,woman,,,,null,,,,
7870,,,survey-text,183,787587,0.0-15.0-3.13,27217,List1B,black,woman,,,,,"{""Q0"":""kate and ruth are talking to each other""}","<img src=""stim_listB/talk8.gif""style=""height:400px;""></stim_listB>",are talking to each other,
null,"<div style=""font-size:60px;"">+</div>",,html-keyboard-response,184,788097,0.0-15.0-0.14,27217,List1B,black,woman,,,,null,,,,
null,"<img src=""stim_listB/talk5.gif""style=""height:400px;""></stim_listB>",,html-keyboard-response,185,790103,0.0-15.0-1.14,27217,List1B,black,woman,,,,null,,,,
null,is talking to,,html-keyboard-response,186,792109,0.0-15.0-2.14,27217,List1B,black,woman,,,,null,,,,
6487,,,survey-text,187,798599,0.0-15.0-3.14,27217,List1B,black,woman,,,,,"{""Q0"":""dave is talking to fred""}","<img src=""stim_listB/talk5.gif""style=""height:400px;""></stim_listB>",is talking to,
null,"<div style=""font-size:60px;"">+</div>",,html-keyboard-response,188,799111,0.0-15.0-0.15,27217,List1B,black,woman,,,,null,,,,
null,"<img src=""stim_listB/shout4.gif""style=""height:400px;""></stim_listB>",,html-keyboard-response,189,801116,0.0-15.0-1.15,27217,List1B,black,woman,,,,null,,,,
null,are shouting at each other,,html-keyboard-response,190,803121,0.0-15.0-2.15,27217,List1B,black,woman,,,,null,,,,
8331,,,survey-text,191,811455,0.0-15.0-3.15,27217,List1B,black,woman,,,,,"{""Q0"":""dave and jane are shouting at each other""}","<img src=""stim_listB/shout4.gif""style=""height:400px;""></stim_listB>",are shouting at each other,
null,"<div style=""font-size:60px;"">+</div>",,html-keyboard-response,192,811964,0.0-15.0-0.16,27217,List1B,black,woman,,,,null,,,,
null,"<img src=""stim_listB/talk4.gif""style=""height:400px;""></stim_listB>",,html-keyboard-response,193,813969,0.0-15.0-1.16,27217,List1B,black,woman,,,,null,,,,
null,are talking to each other,,html-keyboard-response,194,815973,0.0-15.0-2.16,27217,List1B,black,woman,,,,null,,,,
8074,,,survey-text,195,824049,0.0-15.0-3.16,27217,List1B,black,woman,,,,,"{""Q0"":""dave and ruth are talking to each other""}","<img src=""stim_listB/talk4.gif""style=""height:400px;""></stim_listB>",are talking to each other,
null,"<div style=""font-size:60px;"">+</div>",,html-keyboard-response,196,824553,0.0-15.0-0.17,27217,List1B,black,woman,,,,null,,,,
null,"<img src=""stim_listB/kiss1.gif""style=""height:400px;""></stim_listB>",,html-keyboard-response,197,826558,0.0-15.0-1.17,27217,List1B,black,woman,,,,null,,,,
null,is kissing,,html-keyboard-response,198,828561,0.0-15.0-2.17,27217,List1B,black,woman,,,,null,,,,
4368,,,survey-text,199,832931,0.0-15.0-3.17,27217,List1B,black,woman,,,,,"{""Q0"":""fred is kissing beth""}","<img src=""stim_listB/kiss1.gif""style=""height:400px;""></stim_listB>",is kissing,
null,"<div style=""font-size:60px;"">+</div>",,html-keyboard-response,200,833438,0.0-15.0-0.18,27217,List1B,black,woman,,,,null,,,,
null,"<img src=""stim_listB/flirt7.gif""style=""height:400px;""></stim_listB>",,html-keyboard-response,201,835448,0.0-15.0-1.18,27217,List1B,black,woman,,,,null,,,,
null,is flirting with,,html-keyboard-response,202,837452,0.0-15.0-2.18,27217,List1B,black,woman,,,,null,,,,
5064,,,survey-text,203,842518,0.0-15.0-3.18,27217,List1B,black,woman,,,,,"{""Q0"":""jane is flirting with beth""}","<img src=""stim_listB/flirt7.gif""style=""height:400px;""></stim_listB>",is flirting with,
null,"<div style=""font-size:60px;"">+</div>",,html-keyboard-response,204,843025,0.0-15.0-0.19,27217,List1B,black,woman,,,,null,,,,
null,"<img src=""stim_listB/shout8.gif""style=""height:400px;""></stim_listB>",,html-keyboard-response,205,845031,0.0-15.0-1.19,27217,List1B,black,woman,,,,null,,,,
null,are shouting at each other,,html-keyboard-response,206,847075,0.0-15.0-2.19,27217,List1B,black,woman,,,,null,,,,
7263,,,survey-text,207,854343,0.0-15.0-3.19,27217,List1B,black,woman,,,,,"{""Q0"":""jane and kate are shouting at each other""}","<img src=""stim_listB/shout8.gif""style=""height:400px;""></stim_listB>",are shouting at each other,
11425,"<img src='img/portrait_matrix_list1.jpg' style='width:900px;height:500px;''></img><p>If you have memorised all the portraits and names and are ready to start, press Continue.</p><p><strong>Please note: Your memory of these faces will be tested 4 times during this experiment.</strong></p>",0,html-button-response,208,865774,0.0-16.0-0.0,27217,List1B,black,woman,,,,,,,,
2335,"<img src=""portrait/BM2.jpg""style=""height:400px;""></img>",5,html-button-response,209,869136,0.0-16.0-1.0,27217,List1B,black,woman,,TRUE,5,,,,,
null,CORRECT,,html-keyboard-response,210,870659,0.0-16.0-2.0-0.0,27217,List1B,black,woman,,,,null,,,,
2041,"<img src=""portrait/WW2.jpg""style=""height:400px;""></img>",3,html-button-response,211,872704,0.0-16.0-4.0,27217,List1B,black,woman,,TRUE,3,,,,,
null,CORRECT,,html-keyboard-response,212,874223,0.0-16.0-5.0-0.0,27217,List1B,black,woman,,,,null,,,,
1773,"<img src=""portrait/BM1.jpg""style=""height:400px;""></img>",4,html-button-response,213,876000,0.0-16.0-7.0,27217,List1B,black,woman,,TRUE,4,,,,,
null,CORRECT,,html-keyboard-response,214,877518,0.0-16.0-8.0-0.0,27217,List1B,black,woman,,,,null,,,,
2288,"<img src=""portrait/WW1.jpg""style=""height:400px;""></img>",1,html-button-response,215,879810,0.0-16.0-10.0,27217,List1B,black,woman,,TRUE,1,,,,,
null,CORRECT,,html-keyboard-response,216,881324,0.0-16.0-11.0-0.0,27217,List1B,black,woman,,,,null,,,,
1988,"<img src=""portrait/WM2.jpg""style=""height:400px;""></img>",7,html-button-response,217,883317,0.0-16.0-13.0,27217,List1B,black,woman,,TRUE,7,,,,,
null,CORRECT,,html-keyboard-response,218,884843,0.0-16.0-14.0-0.0,27217,List1B,black,woman,,,,null,,,,
3377,"<img src=""portrait/BW1.jpg""style=""height:400px;""></img>",0,html-button-response,219,888223,0.0-16.0-16.0,27217,List1B,black,woman,,TRUE,0,,,,,
null,CORRECT,,html-keyboard-response,220,889737,0.0-16.0-17.0-0.0,27217,List1B,black,woman,,,,null,,,,
2041,"<img src=""portrait/WM1.jpg""style=""height:400px;""></img>",6,html-button-response,221,891782,0.0-16.0-19.0,27217,List1B,black,woman,,TRUE,6,,,,,
null,CORRECT,,html-keyboard-response,222,893312,0.0-16.0-20.0-0.0,27217,List1B,black,woman,,,,null,,,,
2334,"<img src=""portrait/BW2.jpg""style=""height:400px;""></img>",2,html-button-response,223,895651,0.0-16.0-22.0,27217,List1B,black,woman,,TRUE,2,,,,,
null,CORRECT,,html-keyboard-response,224,897169,0.0-16.0-23.0-0.0,27217,List1B,black,woman,,,,null,,,,
1672,<p>You got 8 out of 8 right first time. Press Continue.</p>,0,html-button-response,225,898843,0.0-16.0-25.0,27217,List1B,black,woman,,,,,,,,
null,"<div style=""font-size:60px;"">+</div>",,html-keyboard-response,226,900368,0.0-17.0-0.0,27217,List1B,black,woman,,,,null,,,,
null,"<img src=""stim_listB/touch1.gif""style=""height:400px;""></stim_listB>",,html-keyboard-response,227,902375,0.0-17.0-1.0,27217,List1B,black,woman,,,,null,,,,
null,is touching,,html-keyboard-response,228,904378,0.0-17.0-2.0,27217,List1B,black,woman,,,,null,,,,
5177,,,survey-text,229,909558,0.0-17.0-3.0,27217,List1B,black,woman,,,,,"{""Q0"":""kate is touching mike""}","<img src=""stim_listB/touch1.gif""style=""height:400px;""></stim_listB>",is touching,
null,"<div style=""font-size:60px;"">+</div>",,html-keyboard-response,230,910066,0.0-17.0-0.1,27217,List1B,black,woman,,,,null,,,,
null,"<img src=""stim_listB/argue7.gif""style=""height:400px;""></stim_listB>",,html-keyboard-response,231,912071,0.0-17.0-1.1,27217,List1B,black,woman,,,,null,,,,
null,is arguing with,,html-keyboard-response,232,914074,0.0-17.0-2.1,27217,List1B,black,woman,,,,null,,,,
13713,,,survey-text,233,927790,0.0-17.0-3.1,27217,List1B,black,woman,,,,,"{""Q0"":""jane is arguing with kate""}","<img src=""stim_listB/argue7.gif""style=""height:400px;""></stim_listB>",is arguing with,
null,"<div style=""font-size:60px;"">+</div>",,html-keyboard-response,234,928306,0.0-17.0-0.2,27217,List1B,black,woman,,,,null,,,,
null,"<img src=""stim_listB/dance3.gif""style=""height:400px;""></stim_listB>",,html-keyboard-response,235,930320,0.0-17.0-1.2,27217,List1B,black,woman,,,,null,,,,
null,is dancing with,,html-keyboard-response,236,932325,0.0-17.0-2.2,27217,List1B,black,woman,,,,null,,,,
6291,,,survey-text,237,938618,0.0-17.0-3.2,27217,List1B,black,woman,,,,,"{""Q0"":""luke is dancing with jane""}","<img src=""stim_listB/dance3.gif""style=""height:400px;""></stim_listB>",is dancing with,
null,"<div style=""font-size:60px;"">+</div>",,html-keyboard-response,238,939125,0.0-17.0-0.3,27217,List1B,black,woman,,,,null,,,,
null,"<img src=""stim_listB/argue4.gif""style=""height:400px;""></stim_listB>",,html-keyboard-response,239,941135,0.0-17.0-1.3,27217,List1B,black,woman,,,,null,,,,
null,are arguing with each other,,html-keyboard-response,240,943139,0.0-17.0-2.3,27217,List1B,black,woman,,,,null,,,,
6650,,,survey-text,241,949792,0.0-17.0-3.3,27217,List1B,black,woman,,,,,"{""Q0"":""luke and jane are aruging with each other""}","<img src=""stim_listB/argue4.gif""style=""height:400px;""></stim_listB>",are arguing with each other,
null,"<div style=""font-size:60px;"">+</div>",,html-keyboard-response,242,950304,0.0-17.0-0.4,27217,List1B,black,woman,,,,null,,,,
null,"<img src=""stim_listB/kiss2.gif""style=""height:400px;""></stim_listB>",,html-keyboard-response,243,952310,0.0-17.0-1.4,27217,List1B,black,woman,,,,null,,,,
null,are kissing each other,,html-keyboard-response,244,954319,0.0-17.0-2.4,27217,List1B,black,woman,,,,null,,,,
6815,,,survey-text,245,961136,0.0-17.0-3.4,27217,List1B,black,woman,,,,,"{""Q0"":""mike and kate are kissing each other""}","<img src=""stim_listB/kiss2.gif""style=""height:400px;""></stim_listB>",are kissing each other,
null,"<div style=""font-size:60px;"">+</div>",,html-keyboard-response,246,961648,0.0-17.0-0.5,27217,List1B,black,woman,,,,null,,,,
null,"<img src=""stim_listB/play3.gif""style=""height:400px;""></stim_listB>",,html-keyboard-response,247,963656,0.0-17.0-1.5,27217,List1B,black,woman,,,,null,,,,
null,is playing with,,html-keyboard-response,248,965658,0.0-17.0-2.5,27217,List1B,black,woman,,,,null,,,,
5145,,,survey-text,249,970805,0.0-17.0-3.5,27217,List1B,black,woman,,,,,"{""Q0"":""jane is playing with dave""}","<img src=""stim_listB/play3.gif""style=""height:400px;""></stim_listB>",is playing with,
null,"<div style=""font-size:60px;"">+</div>",,html-keyboard-response,250,971312,0.0-17.0-0.6,27217,List1B,black,woman,,,,null,,,,
null,"<img src=""stim_listB/touch7.gif""style=""height:400px;""></stim_listB>",,html-keyboard-response,251,973319,0.0-17.0-1.6,27217,List1B,black,woman,,,,null,,,,
null,is touching,,html-keyboard-response,252,975322,0.0-17.0-2.6,27217,List1B,black,woman,,,,null,,,,
3973,,,survey-text,253,979298,0.0-17.0-3.6,27217,List1B,black,woman,,,,,"{""Q0"":""jane is touching kate""}","<img src=""stim_listB/touch7.gif""style=""height:400px;""></stim_listB>",is touching,
null,"<div style=""font-size:60px;"">+</div>",,html-keyboard-response,254,979807,0.0-17.0-0.7,27217,List1B,black,woman,,,,null,,,,
null,"<img src=""stim_listB/marry4.gif""style=""height:400px;""></stim_listB>",,html-keyboard-response,255,981813,0.0-17.0-1.7,27217,List1B,black,woman,,,,null,,,,
null,are marrying each other,,html-keyboard-response,256,983817,0.0-17.0-2.7,27217,List1B,black,woman,,,,null,,,,
6281,,,survey-text,257,990102,0.0-17.0-3.7,27217,List1B,black,woman,,,,,"{""Q0"":""luke and jane are marrying each other""}","<img src=""stim_listB/marry4.gif""style=""height:400px;""></stim_listB>",are marrying each other,
null,"<div style=""font-size:60px;"">+</div>",,html-keyboard-response,258,990614,0.0-17.0-0.8,27217,List1B,black,woman,,,,null,,,,
null,"<img src=""stim_listB/marry3.gif""style=""height:400px;""></stim_listB>",,html-keyboard-response,259,992643,0.0-17.0-1.8,27217,List1B,black,woman,,,,null,,,,
null,is marrying,,html-keyboard-response,260,994648,0.0-17.0-2.8,27217,List1B,black,woman,,,,null,,,,
5015,,,survey-text,261,999668,0.0-17.0-3.8,27217,List1B,black,woman,,,,,"{""Q0"":""ruth is marrying dave""}","<img src=""stim_listB/marry3.gif""style=""height:400px;""></stim_listB>",is marrying,
null,"<div style=""font-size:60px;"">+</div>",,html-keyboard-response,262,1000180,0.0-17.0-0.9,27217,List1B,black,woman,,,,null,,,,
null,"<img src=""stim_listB/flirt4.gif""style=""height:400px;""></stim_listB>",,html-keyboard-response,263,1002188,0.0-17.0-1.9,27217,List1B,black,woman,,,,null,,,,
null,are flirting with each other,,html-keyboard-response,264,1004191,0.0-17.0-2.9,27217,List1B,black,woman,,,,null,,,,
7692,,,survey-text,265,1011887,0.0-17.0-3.9,27217,List1B,black,woman,,,,,"{""Q0"":""dave and ruth are flirting with each other""}","<img src=""stim_listB/flirt4.gif""style=""height:400px;""></stim_listB>",are flirting with each other,
null,"<div style=""font-size:60px;"">+</div>",,html-keyboard-response,266,1012399,0.0-17.0-0.10,27217,List1B,black,woman,,,,null,,,,
null,"<img src=""stim_listB/kiss6.gif""style=""height:400px;""></stim_listB>",,html-keyboard-response,267,1014404,0.0-17.0-1.10,27217,List1B,black,woman,,,,null,,,,
null,are kissing each other,,html-keyboard-response,268,1016409,0.0-17.0-2.10,27217,List1B,black,woman,,,,null,,,,
10851,,,survey-text,269,1027264,0.0-17.0-3.10,27217,List1B,black,woman,,,,,"{""Q0"":""mike and dave are kissing each other""}","<img src=""stim_listB/kiss6.gif""style=""height:400px;""></stim_listB>",are kissing each other,
null,"<div style=""font-size:60px;"">+</div>",,html-keyboard-response,270,1027769,0.0-17.0-0.11,27217,List1B,black,woman,,,,null,,,,
null,"<img src=""stim_listB/fight3.gif""style=""height:400px;""></stim_listB>",,html-keyboard-response,271,1029783,0.0-17.0-1.11,27217,List1B,black,woman,,,,null,,,,
null,is fighting,,html-keyboard-response,272,1031785,0.0-17.0-2.11,27217,List1B,black,woman,,,,null,,,,
4585,,,survey-text,273,1036372,0.0-17.0-3.11,27217,List1B,black,woman,,,,,"{""Q0"":""dave is fighting jane""}","<img src=""stim_listB/fight3.gif""style=""height:400px;""></stim_listB>",is fighting,
null,"<div style=""font-size:60px;"">+</div>",,html-keyboard-response,274,1036879,0.0-17.0-0.12,27217,List1B,black,woman,,,,null,,,,
null,"<img src=""stim_listB/play7.gif""style=""height:400px;""></stim_listB>",,html-keyboard-response,275,1038884,0.0-17.0-1.12,27217,List1B,black,woman,,,,null,,,,
null,is playing with,,html-keyboard-response,276,1040891,0.0-17.0-2.12,27217,List1B,black,woman,,,,null,,,,
5016,,,survey-text,277,1045910,0.0-17.0-3.12,27217,List1B,black,woman,,,,,"{""Q0"":""jane is playing with kate""}","<img src=""stim_listB/play7.gif""style=""height:400px;""></stim_listB>",is playing with,
null,"<div style=""font-size:60px;"">+</div>",,html-keyboard-response,278,1046417,0.0-17.0-0.13,27217,List1B,black,woman,,,,null,,,,
null,"<img src=""stim_listB/kiss8.gif""style=""height:400px;""></stim_listB>",,html-keyboard-response,279,1048427,0.0-17.0-1.13,27217,List1B,black,woman,,,,null,,,,
null,are kissing each other,,html-keyboard-response,280,1050429,0.0-17.0-2.13,27217,List1B,black,woman,,,,null,,,,
8310,,,survey-text,281,1058741,0.0-17.0-3.13,27217,List1B,black,woman,,,,,"{""Q0"":""kate and jane are kissing each other""}","<img src=""stim_listB/kiss8.gif""style=""height:400px;""></stim_listB>",are kissing each other,
null,"<div style=""font-size:60px;"">+</div>",,html-keyboard-response,282,1059252,0.0-17.0-0.14,27217,List1B,black,woman,,,,null,,,,
null,"<img src=""stim_listB/flirt5.gif""style=""height:400px;""></stim_listB>",,html-keyboard-response,283,1061257,0.0-17.0-1.14,27217,List1B,black,woman,,,,null,,,,
null,is flirting with,,html-keyboard-response,284,1063262,0.0-17.0-2.14,27217,List1B,black,woman,,,,null,,,,
8192,,,survey-text,285,1071457,0.0-17.0-3.14,27217,List1B,black,woman,,,,,"{""Q0"":""fred is flirting with dave""}","<img src=""stim_listB/flirt5.gif""style=""height:400px;""></stim_listB>",is flirting with,
null,"<div style=""font-size:60px;"">+</div>",,html-keyboard-response,286,1071965,0.0-17.0-0.15,27217,List1B,black,woman,,,,null,,,,
null,"<img src=""stim_listB/marry7.gif""style=""height:400px;""></stim_listB>",,html-keyboard-response,287,1073972,0.0-17.0-1.15,27217,List1B,black,woman,,,,null,,,,
null,is marrying,,html-keyboard-response,288,1075975,0.0-17.0-2.15,27217,List1B,black,woman,,,,null,,,,
4422,,,survey-text,289,1080400,0.0-17.0-3.15,27217,List1B,black,woman,,,,,"{""Q0"":""ruth is marrying kate""}","<img src=""stim_listB/marry7.gif""style=""height:400px;""></stim_listB>",is marrying,
null,"<div style=""font-size:60px;"">+</div>",,html-keyboard-response,290,1080909,0.0-17.0-0.16,27217,List1B,black,woman,,,,null,,,,
null,"<img src=""stim_listB/kiss4.gif""style=""height:400px;""></stim_listB>",,html-keyboard-response,291,1082916,0.0-17.0-1.16,27217,List1B,black,woman,,,,null,,,,
null,are kissing each other,,html-keyboard-response,292,1084930,0.0-17.0-2.16,27217,List1B,black,woman,,,,null,,,,
6495,,,survey-text,293,1091426,0.0-17.0-3.16,27217,List1B,black,woman,,,,,"{""Q0"":""dave and jane are kissing each other""}","<img src=""stim_listB/kiss4.gif""style=""height:400px;""></stim_listB>",are kissing each other,
null,"<div style=""font-size:60px;"">+</div>",,html-keyboard-response,294,1091933,0.0-17.0-0.17,27217,List1B,black,woman,,,,null,,,,
null,"<img src=""stim_listB/argue2.gif""style=""height:400px;""></stim_listB>",,html-keyboard-response,295,1093938,0.0-17.0-1.17,27217,List1B,black,woman,,,,null,,,,
null,are arguing with each other,,html-keyboard-response,296,1095942,0.0-17.0-2.17,27217,List1B,black,woman,,,,null,,,,
28321,,,survey-text,297,1124266,0.0-17.0-3.17,27217,List1B,black,woman,,,,,"{""Q0"":""fred and kate are arguing with each other""}","<img src=""stim_listB/argue2.gif""style=""height:400px;""></stim_listB>",are arguing with each other,
null,"<div style=""font-size:60px;"">+</div>",,html-keyboard-response,298,1124793,0.0-17.0-0.18,27217,List1B,black,woman,,,,null,,,,
null,"<img src=""stim_listB/play2.gif""style=""height:400px;""></stim_listB>",,html-keyboard-response,299,1126796,0.0-17.0-1.18,27217,List1B,black,woman,,,,null,,,,
null,are playing with each other,,html-keyboard-response,300,1128802,0.0-17.0-2.18,27217,List1B,black,woman,,,,null,,,,
7393,,,survey-text,301,1136197,0.0-17.0-3.18,27217,List1B,black,woman,,,,,"{""Q0"":""fred and beth are playing with each other""}","<img src=""stim_listB/play2.gif""style=""height:400px;""></stim_listB>",are playing with each other,
null,"<div style=""font-size:60px;"">+</div>",,html-keyboard-response,302,1136703,0.0-17.0-0.19,27217,List1B,black,woman,,,,null,,,,
null,"<img src=""stim_listB/shout6.gif""style=""height:400px;""></stim_listB>",,html-keyboard-response,303,1138708,0.0-17.0-1.19,27217,List1B,black,woman,,,,null,,,,
null,are shouting at each other,,html-keyboard-response,304,1140714,0.0-17.0-2.19,27217,List1B,black,woman,,,,null,,,,
8292,,,survey-text,305,1149008,0.0-17.0-3.19,27217,List1B,black,woman,,,,,"{""Q0"":""dave and mike are shouting at each other""}","<img src=""stim_listB/shout6.gif""style=""height:400px;""></stim_listB>",are shouting at each other,
15061,"<img src='img/portrait_matrix_list1.jpg' style='width:900px;height:500px;''></img><p>If you have memorised all the portraits and names and are ready to start, press Continue.</p><p><strong>Please note: Your memory of these faces will be tested 4 times during this experiment.</strong></p>",0,html-button-response,306,1164078,0.0-18.0-0.0,27217,List1B,black,woman,,,,,,,,
2094,"<img src=""portrait/BM1.jpg""style=""height:400px;""></img>",4,html-button-response,307,1167207,0.0-18.0-1.0,27217,List1B,black,woman,,TRUE,4,,,,,
null,CORRECT,,html-keyboard-response,308,1168722,0.0-18.0-2.0-0.0,27217,List1B,black,woman,,,,null,,,,
1973,"<img src=""portrait/WW2.jpg""style=""height:400px;""></img>",3,html-button-response,309,1170700,0.0-18.0-4.0,27217,List1B,black,woman,,TRUE,3,,,,,
null,CORRECT,,html-keyboard-response,310,1172236,0.0-18.0-5.0-0.0,27217,List1B,black,woman,,,,null,,,,
2104,"<img src=""portrait/BW2.jpg""style=""height:400px;""></img>",2,html-button-response,311,1174344,0.0-18.0-7.0,27217,List1B,black,woman,,TRUE,2,,,,,
null,CORRECT,,html-keyboard-response,312,1175849,0.0-18.0-8.0-0.0,27217,List1B,black,woman,,,,null,,,,
2033,"<img src=""portrait/WW1.jpg""style=""height:400px;""></img>",1,html-button-response,313,1177884,0.0-18.0-10.0,27217,List1B,black,woman,,TRUE,1,,,,,
null,CORRECT,,html-keyboard-response,314,1179397,0.0-18.0-11.0-0.0,27217,List1B,black,woman,,,,null,,,,
3530,"<img src=""portrait/BW1.jpg""style=""height:400px;""></img>",0,html-button-response,315,1182929,0.0-18.0-13.0,27217,List1B,black,woman,,TRUE,0,,,,,
null,CORRECT,,html-keyboard-response,316,1184452,0.0-18.0-14.0-0.0,27217,List1B,black,woman,,,,null,,,,
1738,"<img src=""portrait/WM2.jpg""style=""height:400px;""></img>",7,html-button-response,317,1186192,0.0-18.0-16.0,27217,List1B,black,woman,,TRUE,7,,,,,
null,CORRECT,,html-keyboard-response,318,1187716,0.0-18.0-17.0-0.0,27217,List1B,black,woman,,,,null,,,,
3001,"<img src=""portrait/BM2.jpg""style=""height:400px;""></img>",5,html-button-response,319,1190720,0.0-18.0-19.0,27217,List1B,black,woman,,TRUE,5,,,,,
null,CORRECT,,html-keyboard-response,320,1192229,0.0-18.0-20.0-0.0,27217,List1B,black,woman,,,,null,,,,
2486,"<img src=""portrait/WM1.jpg""style=""height:400px;""></img>",6,html-button-response,321,1194718,0.0-18.0-22.0,27217,List1B,black,woman,,TRUE,6,,,,,
null,CORRECT,,html-keyboard-response,322,1196227,0.0-18.0-23.0-0.0,27217,List1B,black,woman,,,,null,,,,
2628,<p>You got 8 out of 8 right first time. Press Continue.</p>,0,html-button-response,323,1198858,0.0-18.0-25.0,27217,List1B,black,woman,,,,,,,,
null,"<div style=""font-size:60px;"">+</div>",,html-keyboard-response,324,1200472,0.0-19.0-0.0,27217,List1B,black,woman,,,,null,,,,
null,"<img src=""stim_listB/marry2.gif""style=""height:400px;""></stim_listB>",,html-keyboard-response,325,1202492,0.0-19.0-1.0,27217,List1B,black,woman,,,,null,,,,
null,are marrying each other,,html-keyboard-response,326,1204511,0.0-19.0-2.0,27217,List1B,black,woman,,,,null,,,,
6806,,,survey-text,327,1211320,0.0-19.0-3.0,27217,List1B,black,woman,,,,,"{""Q0"":""fred and kate are marrying each other""}","<img src=""stim_listB/marry2.gif""style=""height:400px;""></stim_listB>",are marrying each other,
null,"<div style=""font-size:60px;"">+</div>",,html-keyboard-response,328,1211833,0.0-19.0-0.1,27217,List1B,black,woman,,,,null,,,,
null,"<img src=""stim_listB/fight1.gif""style=""height:400px;""></stim_listB>",,html-keyboard-response,329,1213835,0.0-19.0-1.1,27217,List1B,black,woman,,,,null,,,,
null,is fighting,,html-keyboard-response,330,1215844,0.0-19.0-2.1,27217,List1B,black,woman,,,,null,,,,
4187,,,survey-text,331,1220034,0.0-19.0-3.1,27217,List1B,black,woman,,,,,"{""Q0"":""kate is fighting mike""}","<img src=""stim_listB/fight1.gif""style=""height:400px;""></stim_listB>",is fighting,
null,"<div style=""font-size:60px;"">+</div>",,html-keyboard-response,332,1220537,0.0-19.0-0.2,27217,List1B,black,woman,,,,null,,,,
null,"<img src=""stim_listB/talk6.gif""style=""height:400px;""></stim_listB>",,html-keyboard-response,333,1222543,0.0-19.0-1.2,27217,List1B,black,woman,,,,null,,,,
null,are talking to each other,,html-keyboard-response,334,1224546,0.0-19.0-2.2,27217,List1B,black,woman,,,,null,,,,
7761,,,survey-text,335,1232310,0.0-19.0-3.2,27217,List1B,black,woman,,,,,"{""Q0"":""mike and luke are talking to each other""}","<img src=""stim_listB/talk6.gif""style=""height:400px;""></stim_listB>",are talking to each other,
null,"<div style=""font-size:60px;"">+</div>",,html-keyboard-response,336,1232819,0.0-19.0-0.3,27217,List1B,black,woman,,,,null,,,,
null,"<img src=""stim_listB/touch8.gif""style=""height:400px;""></stim_listB>",,html-keyboard-response,337,1234824,0.0-19.0-1.3,27217,List1B,black,woman,,,,null,,,,
null,are touching each other,,html-keyboard-response,338,1236831,0.0-19.0-2.3,27217,List1B,black,woman,,,,null,,,,
8729,,,survey-text,339,1245564,0.0-19.0-3.3,27217,List1B,black,woman,,,,,"{""Q0"":""beth and ruth are touching each other""}","<img src=""stim_listB/touch8.gif""style=""height:400px;""></stim_listB>",are touching each other,
null,"<div style=""font-size:60px;"">+</div>",,html-keyboard-response,340,1246071,0.0-19.0-0.4,27217,List1B,black,woman,,,,null,,,,
null,"<img src=""stim_listB/play6.gif""style=""height:400px;""></stim_listB>",,html-keyboard-response,341,1248075,0.0-19.0-1.4,27217,List1B,black,woman,,,,null,,,,
null,are playing with each other,,html-keyboard-response,342,1250079,0.0-19.0-2.4,27217,List1B,black,woman,,,,null,,,,
8357,,,survey-text,343,1258438,0.0-19.0-3.4,27217,List1B,black,woman,,,,,"{""Q0"":""fred and luke are playing with each other""}","<img src=""stim_listB/play6.gif""style=""height:400px;""></stim_listB>",are playing with each other,
null,"<div style=""font-size:60px;"">+</div>",,html-keyboard-response,344,1258949,0.0-19.0-0.5,27217,List1B,black,woman,,,,null,,,,
null,"<img src=""stim_listB/talk1.gif""style=""height:400px;""></stim_listB>",,html-keyboard-response,345,1260972,0.0-19.0-1.5,27217,List1B,black,woman,,,,null,,,,
null,is talking to,,html-keyboard-response,346,1262981,0.0-19.0-2.5,27217,List1B,black,woman,,,,null,,,,
5339,,,survey-text,347,1268323,0.0-19.0-3.5,27217,List1B,black,woman,,,,,"{""Q0"":""kate is talking to fred""}","<img src=""stim_listB/talk1.gif""style=""height:400px;""></stim_listB>",is talking to,
null,"<div style=""font-size:60px;"">+</div>",,html-keyboard-response,348,1268833,0.0-19.0-0.6,27217,List1B,black,woman,,,,null,,,,
null,"<img src=""stim_listB/flirt8.gif""style=""height:400px;""></stim_listB>",,html-keyboard-response,349,1270839,0.0-19.0-1.6,27217,List1B,black,woman,,,,null,,,,
null,are flirting with each other,,html-keyboard-response,350,1272846,0.0-19.0-2.6,27217,List1B,black,woman,,,,null,,,,
7410,,,survey-text,351,1280258,0.0-19.0-3.6,27217,List1B,black,woman,,,,,"{""Q0"":""ruth and kate are flirting with each other""}","<img src=""stim_listB/flirt8.gif""style=""height:400px;""></stim_listB>",are flirting with each other,
null,"<div style=""font-size:60px;"">+</div>",,html-keyboard-response,352,1280769,0.0-19.0-0.7,27217,List1B,black,woman,,,,null,,,,
null,"<img src=""stim_listB/dance2.gif""style=""height:400px;""></stim_listB>",,html-keyboard-response,353,1282773,0.0-19.0-1.7,27217,List1B,black,woman,,,,null,,,,
null,are dancing with each other,,html-keyboard-response,354,1284777,0.0-19.0-2.7,27217,List1B,black,woman,,,,null,,,,
7527,,,survey-text,355,1292308,0.0-19.0-3.7,27217,List1B,black,woman,,,,,"{""Q0"":""beth and mike are dancing with each other""}","<img src=""stim_listB/dance2.gif""style=""height:400px;""></stim_listB>",are dancing with each other,
null,"<div style=""font-size:60px;"">+</div>",,html-keyboard-response,356,1292814,0.0-19.0-0.8,27217,List1B,black,woman,,,,null,,,,
null,"<img src=""stim_listB/touch2.gif""style=""height:400px;""></stim_listB>",,html-keyboard-response,357,1294818,0.0-19.0-1.8,27217,List1B,black,woman,,,,null,,,,
null,are touching each other,,html-keyboard-response,358,1296825,0.0-19.0-2.8,27217,List1B,black,woman,,,,null,,,,
7930,,,survey-text,359,1304757,0.0-19.0-3.8,27217,List1B,black,woman,,,,,"{""Q0"":""fred and beth are touching each other""}","<img src=""stim_listB/touch2.gif""style=""height:400px;""></stim_listB>",are touching each other,
null,"<div style=""font-size:60px;"">+</div>",,html-keyboard-response,360,1305271,0.0-19.0-0.9,27217,List1B,black,woman,,,,null,,,,
null,"<img src=""stim_listB/argue5.gif""style=""height:400px;""></stim_listB>",,html-keyboard-response,361,1307274,0.0-19.0-1.9,27217,List1B,black,woman,,,,null,,,,
null,is arguing with,,html-keyboard-response,362,1309278,0.0-19.0-2.9,27217,List1B,black,woman,,,,null,,,,
5390,,,survey-text,363,1314670,0.0-19.0-3.9,27217,List1B,black,woman,,,,,"{""Q0"":""luke is arguing with mike""}","<img src=""stim_listB/argue5.gif""style=""height:400px;""></stim_listB>",is arguing with,
null,"<div style=""font-size:60px;"">+</div>",,html-keyboard-response,364,1315181,0.0-19.0-0.10,27217,List1B,black,woman,,,,null,,,,
null,"<img src=""stim_listB/talk7.gif""style=""height:400px;""></stim_listB>",,html-keyboard-response,365,1317187,0.0-19.0-1.10,27217,List1B,black,woman,,,,null,,,,
null,is talking to,,html-keyboard-response,366,1319193,0.0-19.0-2.10,27217,List1B,black,woman,,,,null,,,,
4866,,,survey-text,367,1324062,0.0-19.0-3.10,27217,List1B,black,woman,,,,,"{""Q0"":""jane is talking to beth""}","<img src=""stim_listB/talk7.gif""style=""height:400px;""></stim_listB>",is talking to,
null,"<div style=""font-size:60px;"">+</div>",,html-keyboard-response,368,1324570,0.0-19.0-0.11,27217,List1B,black,woman,,,,null,,,,
null,"<img src=""stim_listB/fight6.gif""style=""height:400px;""></stim_listB>",,html-keyboard-response,369,1326576,0.0-19.0-1.11,27217,List1B,black,woman,,,,null,,,,
null,are fighting each other,,html-keyboard-response,370,1328579,0.0-19.0-2.11,27217,List1B,black,woman,,,,null,,,,
7198,,,survey-text,371,1335779,0.0-19.0-3.11,27217,List1B,black,woman,,,,,"{""Q0"":""fred and luke are fighting each other""}","<img src=""stim_listB/fight6.gif""style=""height:400px;""></stim_listB>",are fighting each other,
null,"<div style=""font-size:60px;"">+</div>",,html-keyboard-response,372,1336288,0.0-19.0-0.12,27217,List1B,black,woman,,,,null,,,,
null,"<img src=""stim_listB/marry6.gif""style=""height:400px;""></stim_listB>",,html-keyboard-response,373,1338296,0.0-19.0-1.12,27217,List1B,black,woman,,,,null,,,,
null,are marrying each other,,html-keyboard-response,374,1340304,0.0-19.0-2.12,27217,List1B,black,woman,,,,null,,,,
7341,,,survey-text,375,1347649,0.0-19.0-3.12,27217,List1B,black,woman,,,,,"{""Q0"":""dave and fred are marrying each other""}","<img src=""stim_listB/marry6.gif""style=""height:400px;""></stim_listB>",are marrying each other,
null,"<div style=""font-size:60px;"">+</div>",,html-keyboard-response,376,1348156,0.0-19.0-0.13,27217,List1B,black,woman,,,,null,,,,
null,"<img src=""stim_listB/flirt1.gif""style=""height:400px;""></stim_listB>",,html-keyboard-response,377,1350160,0.0-19.0-1.13,27217,List1B,black,woman,,,,null,,,,
null,is flirting with,,html-keyboard-response,378,1352162,0.0-19.0-2.13,27217,List1B,black,woman,,,,null,,,,
5582,,,survey-text,379,1357747,0.0-19.0-3.13,27217,List1B,black,woman,,,,,"{""Q0"":""kate is flirting with fred""}","<img src=""stim_listB/flirt1.gif""style=""height:400px;""></stim_listB>",is flirting with,
null,"<div style=""font-size:60px;"">+</div>",,html-keyboard-response,380,1358261,0.0-19.0-0.14,27217,List1B,black,woman,,,,null,,,,
null,"<img src=""stim_listB/play5.gif""style=""height:400px;""></stim_listB>",,html-keyboard-response,381,1360265,0.0-19.0-1.14,27217,List1B,black,woman,,,,null,,,,
null,is playing with,,html-keyboard-response,382,1362267,0.0-19.0-2.14,27217,List1B,black,woman,,,,null,,,,
4844,,,survey-text,383,1367114,0.0-19.0-3.14,27217,List1B,black,woman,,,,,"{""Q0"":""dave is playing with mike""}","<img src=""stim_listB/play5.gif""style=""height:400px;""></stim_listB>",is playing with,
null,"<div style=""font-size:60px;"">+</div>",,html-keyboard-response,384,1367622,0.0-19.0-0.15,27217,List1B,black,woman,,,,null,,,,
null,"<img src=""stim_listB/dance4.gif""style=""height:400px;""></stim_listB>",,html-keyboard-response,385,1369645,0.0-19.0-1.15,27217,List1B,black,woman,,,,null,,,,
null,are dancing with each other,,html-keyboard-response,386,1371652,0.0-19.0-2.15,27217,List1B,black,woman,,,,null,,,,
8205,,,survey-text,387,1379860,0.0-19.0-3.15,27217,List1B,black,woman,,,,,"{""Q0"":""ruth and dave are dancing with each other""}","<img src=""stim_listB/dance4.gif""style=""height:400px;""></stim_listB>",are dancing with each other,
null,"<div style=""font-size:60px;"">+</div>",,html-keyboard-response,388,1380367,0.0-19.0-0.16,27217,List1B,black,woman,,,,null,,,,
null,"<img src=""stim_listB/shout2.gif""style=""height:400px;""></stim_listB>",,html-keyboard-response,389,1382371,0.0-19.0-1.16,27217,List1B,black,woman,,,,null,,,,
null,are shouting at each other,,html-keyboard-response,390,1384379,0.0-19.0-2.16,27217,List1B,black,woman,,,,null,,,,
11528,,,survey-text,391,1395910,0.0-19.0-3.16,27217,List1B,black,woman,,,,,"{""Q0"":""mike and kate are shouting at each other""}","<img src=""stim_listB/shout2.gif""style=""height:400px;""></stim_listB>",are shouting at each other,
null,"<div style=""font-size:60px;"">+</div>",,html-keyboard-response,392,1396419,0.0-19.0-0.17,27217,List1B,black,woman,,,,null,,,,
null,"<img src=""stim_listB/fight2.gif""style=""height:400px;""></stim_listB>",,html-keyboard-response,393,1398427,0.0-19.0-1.17,27217,List1B,black,woman,,,,null,,,,
null,are fighting each other,,html-keyboard-response,394,1400447,0.0-19.0-2.17,27217,List1B,black,woman,,,,null,,,,
8104,,,survey-text,395,1408554,0.0-19.0-3.17,27217,List1B,black,woman,,,,,"{""Q0"":""beth and fred are fighting each other""}","<img src=""stim_listB/fight2.gif""style=""height:400px;""></stim_listB>",are fighting each other,
null,"<div style=""font-size:60px;"">+</div>",,html-keyboard-response,396,1409064,0.0-19.0-0.18,27217,List1B,black,woman,,,,null,,,,
null,"<img src=""stim_listB/flirt6.gif""style=""height:400px;""></stim_listB>",,html-keyboard-response,397,1411073,0.0-19.0-1.18,27217,List1B,black,woman,,,,null,,,,
null,are flirting with each other,,html-keyboard-response,398,1413080,0.0-19.0-2.18,27217,List1B,black,woman,,,,null,,,,
8267,,,survey-text,399,1421349,0.0-19.0-3.18,27217,List1B,black,woman,,,,,"{""Q0"":""luke and mike are flirting with each other""}","<img src=""stim_listB/flirt6.gif""style=""height:400px;""></stim_listB>",are flirting with each other,
null,"<div style=""font-size:60px;"">+</div>",,html-keyboard-response,400,1421858,0.0-19.0-0.19,27217,List1B,black,woman,,,,null,,,,
null,"<img src=""stim_listB/flirt3.gif""style=""height:400px;""></stim_listB>",,html-keyboard-response,401,1423862,0.0-19.0-1.19,27217,List1B,black,woman,,,,null,,,,
null,is flirting with,,html-keyboard-response,402,1425868,0.0-19.0-2.19,27217,List1B,black,woman,,,,null,,,,
8544,,,survey-text,403,1434415,0.0-19.0-3.19,27217,List1B,black,woman,,,,,"{""Q0"":""jane is flirting with luke""}","<img src=""stim_listB/flirt3.gif""style=""height:400px;""></stim_listB>",is flirting with,
5088,<p>Thank you for completing that task.</p><p>The final part of this session is a short questionnaire.</p><p>Press Continue.</p>,0,html-button-response,404,1439508,0.0-20.0,27217,List1B,black,woman,,,,,,,,
15926,,,survey-text,405,1456452,0.0-21.0,27217,List1B,black,woman,,,,,"{""Q0"":""48"",""Q1"":""English"",""Q2"":""English"",""Q3"":""USA"",""Q4"":""AFrican American"",""Q5"":""Woman""}",,,demographics
8319,,,survey-likert,406,1464782,0.0-22.0,27217,List1B,black,woman,,,,,"{""Q0"":4}",,,likert_ESS
8169,,,survey-likert,407,1472960,0.0-23.0,27217,List1B,black,woman,,,,,"{""Q0"":4}",,,likert_NSSAL_Q1
4788,,,survey-likert,408,1477759,0.0-24.0,27217,List1B,black,woman,,,,,"{""Q0"":4}",,,likert_NSSAL_Q2
6846,,,survey-likert,409,1484616,0.0-25.0,27217,List1B,black,woman,,,,,"{""Q0"":3}",,,likert_CGRS_Q1
6551,,,survey-likert,410,1491178,0.0-26.0,27217,List1B,black,woman,,,,,"{""Q0"":3}",,,likert_CGRS_Q2
4130,,,survey-likert,411,1495325,0.0-27.0,27217,List1B,black,woman,,,,,"{""Q0"":3}",,,likert_CGRS_Q3
15189,,,survey-text,412,1510522,0.0-28.0,27217,List1B,black,woman,,,,,"{""Q0"":""ccc""}",,,worker_id
37965,,,external-html,413,1549013,0.0-29.0,27217,List1B,black,woman,debrief.html,,,,,,,
