rt,stimulus,button_pressed,trial_type,trial_index,time_elapsed,internal_node_id,subject,list,ppt_race,ppt_gender,url,first_guess,correct,key_press,responses,image_type,phrase_type,test_part
2090,Welcome to the experiment. Press Continue to begin.,0,html-button-response,0,2097,0.0-0.0,28069,List2B,white,woman,,,,,,,,
20568,,,external-html,1,23726,0.0-1.0,28069,List2B,white,woman,consent.html,,,,,,,
6545,"<p>On the next page, you will see portraits of 8 people and their names.</p><p>Your first task is to take a few minutes to memorise the names of these people.</p><p>You will have to recall their names during the rest of the experiment, so it is</p><p>essential that you try to memorise these people and their names as best as you can.</p><br><p><strong>You will then be tested on your memory of these names and portraits.</strong></p><br><p>The experiment will start after you have completed this memory test.</p><br><p>Ready?</p>",0,html-button-response,2,30274,0.0-2.0,28069,List2B,white,woman,,,,,,,,
39136,"<img src='img/portrait_matrix_list2.jpg' style='width:900px;height:500px;''></img><p>If you have memorised all the portraits and names and are ready to start, press Continue.</p><p><strong>Please note: Your memory of these faces will be tested 4 times during this experiment.</strong></p>",0,html-button-response,3,70432,0.0-3.0-0.0,28069,List2B,white,woman,,,,,,,,
4488,"<img src=""portrait/BM1.jpg""style=""height:400px;""></img>",4,html-button-response,4,75934,0.0-3.0-1.0,28069,List2B,white,woman,,TRUE,4,,,,,
null,CORRECT,,html-keyboard-response,5,77451,0.0-3.0-2.0-0.0,28069,List2B,white,woman,,,,null,,,,
2395,"<img src=""portrait/WW1.jpg""style=""height:400px;""></img>",3,html-button-response,6,79850,0.0-3.0-4.0,28069,List2B,white,woman,,TRUE,1,,,,,
2217,"<img src=""portrait/WW1.jpg""style=""height:400px;""></img>",1,html-button-response,7,83079,0.0-3.0-6.0-0.0,28069,List2B,white,woman,,FALSE,1,,,,,
null,CORRECT,,html-keyboard-response,8,84593,0.0-3.0-6.0-1.0-0.0,28069,List2B,white,woman,,,,null,,,,
2964,"<img src=""portrait/BW2.jpg""style=""height:400px;""></img>",2,html-button-response,9,87564,0.0-3.0-7.0,28069,List2B,white,woman,,TRUE,2,,,,,
null,CORRECT,,html-keyboard-response,10,89080,0.0-3.0-8.0-0.0,28069,List2B,white,woman,,,,null,,,,
3420,"<img src=""portrait/WW2.jpg""style=""height:400px;""></img>",3,html-button-response,11,92504,0.0-3.0-10.0,28069,List2B,white,woman,,TRUE,3,,,,,
null,CORRECT,,html-keyboard-response,12,94031,0.0-3.0-11.0-0.0,28069,List2B,white,woman,,,,null,,,,
3593,"<img src=""portrait/WM2.jpg""style=""height:400px;""></img>",7,html-button-response,13,97627,0.0-3.0-13.0,28069,List2B,white,woman,,TRUE,7,,,,,
null,CORRECT,,html-keyboard-response,14,99157,0.0-3.0-14.0-0.0,28069,List2B,white,woman,,,,null,,,,
2510,"<img src=""portrait/BW1.jpg""style=""height:400px;""></img>",0,html-button-response,15,101671,0.0-3.0-16.0,28069,List2B,white,woman,,TRUE,0,,,,,
null,CORRECT,,html-keyboard-response,16,103203,0.0-3.0-17.0-0.0,28069,List2B,white,woman,,,,null,,,,
2334,"<img src=""portrait/BM2.jpg""style=""height:400px;""></img>",5,html-button-response,17,105539,0.0-3.0-19.0,28069,List2B,white,woman,,TRUE,5,,,,,
null,CORRECT,,html-keyboard-response,18,107062,0.0-3.0-20.0-0.0,28069,List2B,white,woman,,,,null,,,,
4047,"<img src=""portrait/WM1.jpg""style=""height:400px;""></img>",6,html-button-response,19,111112,0.0-3.0-22.0,28069,List2B,white,woman,,TRUE,6,,,,,
null,CORRECT,,html-keyboard-response,20,112642,0.0-3.0-23.0-0.0,28069,List2B,white,woman,,,,null,,,,
3457,<p>You got 7 out of 8 right first time. Press Continue.</p>,0,html-button-response,21,116101,0.0-3.0-25.0,28069,List2B,white,woman,,,,,,,,
1460,"As you did not score 100%, the memory game will repeat. Press Continue.",0,html-button-response,22,118575,0.0-3.0-26.0-0.0,28069,List2B,white,woman,,,,,,,,
11559,"<img src='img/portrait_matrix_list2.jpg' style='width:900px;height:500px;''></img><p>If you have memorised all the portraits and names and are ready to start, press Continue.</p><p><strong>Please note: Your memory of these faces will be tested 4 times during this experiment.</strong></p>",0,html-button-response,23,131144,0.0-3.1-0.1,28069,List2B,white,woman,,,,,,,,
2341,"<img src=""portrait/BM1.jpg""style=""height:400px;""></img>",4,html-button-response,24,134503,0.0-3.1-1.1,28069,List2B,white,woman,,TRUE,4,,,,,
null,CORRECT,,html-keyboard-response,25,136011,0.0-3.1-2.1-0.1,28069,List2B,white,woman,,,,null,,,,
2021,"<img src=""portrait/WW1.jpg""style=""height:400px;""></img>",1,html-button-response,26,138034,0.0-3.1-4.1,28069,List2B,white,woman,,TRUE,1,,,,,
null,CORRECT,,html-keyboard-response,27,139561,0.0-3.1-5.1-0.1,28069,List2B,white,woman,,,,null,,,,
1869,"<img src=""portrait/BW2.jpg""style=""height:400px;""></img>",2,html-button-response,28,141432,0.0-3.1-7.1,28069,List2B,white,woman,,TRUE,2,,,,,
null,CORRECT,,html-keyboard-response,29,142972,0.0-3.1-8.1-0.1,28069,List2B,white,woman,,,,null,,,,
2961,"<img src=""portrait/WW2.jpg""style=""height:400px;""></img>",3,html-button-response,30,145935,0.0-3.1-10.1,28069,List2B,white,woman,,TRUE,3,,,,,
null,CORRECT,,html-keyboard-response,31,147462,0.0-3.1-11.1-0.1,28069,List2B,white,woman,,,,null,,,,
3190,"<img src=""portrait/WM2.jpg""style=""height:400px;""></img>",6,html-button-response,32,150653,0.0-3.1-13.1,28069,List2B,white,woman,,TRUE,7,,,,,
1457,"<img src=""portrait/WM2.jpg""style=""height:400px;""></img>",7,html-button-response,33,153130,0.0-3.1-15.1-0.1,28069,List2B,white,woman,,FALSE,7,,,,,
null,CORRECT,,html-keyboard-response,34,154652,0.0-3.1-15.1-1.1-0.1,28069,List2B,white,woman,,,,null,,,,
2279,"<img src=""portrait/BW1.jpg""style=""height:400px;""></img>",0,html-button-response,35,156933,0.0-3.1-16.1,28069,List2B,white,woman,,TRUE,0,,,,,
null,CORRECT,,html-keyboard-response,36,158447,0.0-3.1-17.1-0.1,28069,List2B,white,woman,,,,null,,,,
1858,"<img src=""portrait/BM2.jpg""style=""height:400px;""></img>",5,html-button-response,37,160309,0.0-3.1-19.1,28069,List2B,white,woman,,TRUE,5,,,,,
null,CORRECT,,html-keyboard-response,38,161842,0.0-3.1-20.1-0.1,28069,List2B,white,woman,,,,null,,,,
5151,"<img src=""portrait/WM1.jpg""style=""height:400px;""></img>",6,html-button-response,39,166995,0.0-3.1-22.1,28069,List2B,white,woman,,TRUE,6,,,,,
null,CORRECT,,html-keyboard-response,40,168525,0.0-3.1-23.1-0.1,28069,List2B,white,woman,,,,null,,,,
914,<p>You got 7 out of 8 right first time. Press Continue.</p>,0,html-button-response,41,169440,0.0-3.1-25.1,28069,List2B,white,woman,,,,,,,,
1384,"As you did not score 100%, the memory game will repeat. Press Continue.",0,html-button-response,42,171827,0.0-3.1-26.1-0.1,28069,List2B,white,woman,,,,,,,,
4331,"<img src='img/portrait_matrix_list2.jpg' style='width:900px;height:500px;''></img><p>If you have memorised all the portraits and names and are ready to start, press Continue.</p><p><strong>Please note: Your memory of these faces will be tested 4 times during this experiment.</strong></p>",0,html-button-response,43,177175,0.0-3.2-0.2,28069,List2B,white,woman,,,,,,,,
1808,"<img src=""portrait/BM1.jpg""style=""height:400px;""></img>",4,html-button-response,44,179989,0.0-3.2-1.2,28069,List2B,white,woman,,TRUE,4,,,,,
null,CORRECT,,html-keyboard-response,45,181512,0.0-3.2-2.2-0.2,28069,List2B,white,woman,,,,null,,,,
2065,"<img src=""portrait/WW1.jpg""style=""height:400px;""></img>",1,html-button-response,46,183578,0.0-3.2-4.2,28069,List2B,white,woman,,TRUE,1,,,,,
null,CORRECT,,html-keyboard-response,47,185091,0.0-3.2-5.2-0.2,28069,List2B,white,woman,,,,null,,,,
1635,"<img src=""portrait/BW2.jpg""style=""height:400px;""></img>",2,html-button-response,48,186729,0.0-3.2-7.2,28069,List2B,white,woman,,TRUE,2,,,,,
null,CORRECT,,html-keyboard-response,49,188243,0.0-3.2-8.2-0.2,28069,List2B,white,woman,,,,null,,,,
1642,"<img src=""portrait/WW2.jpg""style=""height:400px;""></img>",3,html-button-response,50,189886,0.0-3.2-10.2,28069,List2B,white,woman,,TRUE,3,,,,,
null,CORRECT,,html-keyboard-response,51,191421,0.0-3.2-11.2-0.2,28069,List2B,white,woman,,,,null,,,,
1154,"<img src=""portrait/WM2.jpg""style=""height:400px;""></img>",7,html-button-response,52,192578,0.0-3.2-13.2,28069,List2B,white,woman,,TRUE,7,,,,,
null,CORRECT,,html-keyboard-response,53,194098,0.0-3.2-14.2-0.2,28069,List2B,white,woman,,,,null,,,,
1579,"<img src=""portrait/BW1.jpg""style=""height:400px;""></img>",0,html-button-response,54,195680,0.0-3.2-16.2,28069,List2B,white,woman,,TRUE,0,,,,,
null,CORRECT,,html-keyboard-response,55,197202,0.0-3.2-17.2-0.2,28069,List2B,white,woman,,,,null,,,,
1682,"<img src=""portrait/BM2.jpg""style=""height:400px;""></img>",5,html-button-response,56,198886,0.0-3.2-19.2,28069,List2B,white,woman,,TRUE,5,,,,,
null,CORRECT,,html-keyboard-response,57,200411,0.0-3.2-20.2-0.2,28069,List2B,white,woman,,,,null,,,,
1483,"<img src=""portrait/WM1.jpg""style=""height:400px;""></img>",6,html-button-response,58,201897,0.0-3.2-22.2,28069,List2B,white,woman,,TRUE,6,,,,,
null,CORRECT,,html-keyboard-response,59,203411,0.0-3.2-23.2-0.2,28069,List2B,white,woman,,,,null,,,,
1472,<p>You got 8 out of 8 right first time. Press Continue.</p>,0,html-button-response,60,204885,0.0-3.2-25.2,28069,List2B,white,woman,,,,,,,,
21598,"<p>In this experiment, you will view photographs of the people from the memory game interacting.</p><p>By using the <strong>exact</strong> phrase given <i>after</i> the photograph appears and recalling the correct names of the people in the photographs, form a sentence describing the interaction. You do not need to capitalise names.</p><p>Type your answer in the space provided. Please complete every sentence before moving onto the next trial.</p><p>You will only have a few seconds to memorise each given photograph and phrase before you can respond, so try your best to focus.</p><p>An example is given below. Press 'Continue' when you are ready.</p><img src='img/speaking_example.jpg' style='width:800px;height:460px;''></img>",0,html-button-response,61,227505,0.0-4.0,28069,List2B,white,woman,,,,,,,,
1357,"<p>Before the experiment starts, you will watch two example trials. Press 'Continue'.</p>",0,html-button-response,62,229878,0.0-5.0,28069,List2B,white,woman,,,,,,,,
null,<img src='img/meet_eg.gif' style='height:400px;''></img>,,html-keyboard-response,63,232904,0.0-6.0,28069,List2B,white,woman,,,,null,,,,
null,<p>is meeting</p>,,html-keyboard-response,64,234911,0.0-7.0,28069,List2B,white,woman,,,,null,,,,
1965,<p><b>Answer:</b> jane is meeting ruth</p>,0,html-button-response,65,236877,0.0-8.0,28069,List2B,white,woman,,,,,,,,
null,<img src='img/look_eg.gif' style='height:400px;''></img>,,html-keyboard-response,66,239892,0.0-9.0,28069,List2B,white,woman,,,,null,,,,
null,<p>are looking at each other</p>,,html-keyboard-response,67,241911,0.0-10.0,28069,List2B,white,woman,,,,null,,,,
2547,<p><b>Answer:</b> fred and mike are looking at each other</p>,0,html-button-response,68,244460,0.0-11.0,28069,List2B,white,woman,,,,,,,,
8743,"<p>Ready to start the experiment?</p><br><p><strong>Remember to describe the picture using a full sentence,</strong></p><p><strong>that combines the names of the people with the <i>exact</i> phrase given.</strong></p><p><strong>To receive full payment you must do this correctly.</strong></p><p><strong> You do not need to capitalise names or use punctuation.</strong></p><br><p>Press 'Continue' to begin.</p>",0,html-button-response,69,254217,0.0-12.0,28069,List2B,white,woman,,,,,,,,
null,"<div style=""font-size:60px;"">+</div>",,html-keyboard-response,70,255751,0.0-13.0-0.0,28069,List2B,white,woman,,,,null,,,,
null,"<img src=""stim_listB/fight4.gif""style=""height:400px;""></stim_listB>",,html-keyboard-response,71,257766,0.0-13.0-1.0,28069,List2B,white,woman,,,,null,,,,
null,are fighting each other,,html-keyboard-response,72,259770,0.0-13.0-2.0,28069,List2B,white,woman,,,,null,,,,
11706,,,survey-text,73,271479,0.0-13.0-3.0,28069,List2B,white,woman,,,,,"{""Q0"":""fred and beth are fighting each other""}","<img src=""stim_listB/fight4.gif""style=""height:400px;""></stim_listB>",are fighting each other,
null,"<div style=""font-size:60px;"">+</div>",,html-keyboard-response,74,271982,0.0-13.0-0.1,28069,List2B,white,woman,,,,null,,,,
null,"<img src=""stim_listB/dance5.gif""style=""height:400px;""></stim_listB>",,html-keyboard-response,75,273990,0.0-13.0-1.1,28069,List2B,white,woman,,,,null,,,,
null,is dancing with,,html-keyboard-response,76,275990,0.0-13.0-2.1,28069,List2B,white,woman,,,,null,,,,
7504,,,survey-text,77,283495,0.0-13.0-3.1,28069,List2B,white,woman,,,,,"{""Q0"":""mike is dancing with luke""}","<img src=""stim_listB/dance5.gif""style=""height:400px;""></stim_listB>",is dancing with,
null,"<div style=""font-size:60px;"">+</div>",,html-keyboard-response,78,284012,0.0-13.0-0.2,28069,List2B,white,woman,,,,null,,,,
null,"<img src=""stim_listB/shout1.gif""style=""height:400px;""></stim_listB>",,html-keyboard-response,79,286021,0.0-13.0-1.2,28069,List2B,white,woman,,,,null,,,,
null,is shouting at,,html-keyboard-response,80,288031,0.0-13.0-2.2,28069,List2B,white,woman,,,,null,,,,
7922,,,survey-text,81,295954,0.0-13.0-3.2,28069,List2B,white,woman,,,,,"{""Q0"":""ruth is shouting at luke""}","<img src=""stim_listB/shout1.gif""style=""height:400px;""></stim_listB>",is shouting at,
null,"<div style=""font-size:60px;"">+</div>",,html-keyboard-response,82,296462,0.0-13.0-0.3,28069,List2B,white,woman,,,,null,,,,
null,"<img src=""stim_listB/play7.gif""style=""height:400px;""></stim_listB>",,html-keyboard-response,83,298468,0.0-13.0-1.3,28069,List2B,white,woman,,,,null,,,,
null,is playing with,,html-keyboard-response,84,300471,0.0-13.0-2.3,28069,List2B,white,woman,,,,null,,,,
8292,,,survey-text,85,308765,0.0-13.0-3.3,28069,List2B,white,woman,,,,,"{""Q0"":""kate is playing with jane""}","<img src=""stim_listB/play7.gif""style=""height:400px;""></stim_listB>",is playing with,
null,"<div style=""font-size:60px;"">+</div>",,html-keyboard-response,86,309282,0.0-13.0-0.4,28069,List2B,white,woman,,,,null,,,,
null,"<img src=""stim_listB/touch5.gif""style=""height:400px;""></stim_listB>",,html-keyboard-response,87,311297,0.0-13.0-1.4,28069,List2B,white,woman,,,,null,,,,
null,is touching,,html-keyboard-response,88,313301,0.0-13.0-2.4,28069,List2B,white,woman,,,,null,,,,
7144,,,survey-text,89,320448,0.0-13.0-3.4,28069,List2B,white,woman,,,,,"{""Q0"":""mike is touching dave""}","<img src=""stim_listB/touch5.gif""style=""height:400px;""></stim_listB>",is touching,
null,"<div style=""font-size:60px;"">+</div>",,html-keyboard-response,90,320961,0.0-13.0-0.5,28069,List2B,white,woman,,,,null,,,,
null,"<img src=""stim_listB/talk4.gif""style=""height:400px;""></stim_listB>",,html-keyboard-response,91,322978,0.0-13.0-1.5,28069,List2B,white,woman,,,,null,,,,
null,are talking to each other,,html-keyboard-response,92,324991,0.0-13.0-2.5,28069,List2B,white,woman,,,,null,,,,
10146,,,survey-text,93,335140,0.0-13.0-3.5,28069,List2B,white,woman,,,,,"{""Q0"":""mike and beth are talking to each other""}","<img src=""stim_listB/talk4.gif""style=""height:400px;""></stim_listB>",are talking to each other,
null,"<div style=""font-size:60px;"">+</div>",,html-keyboard-response,94,335652,0.0-13.0-0.6,28069,List2B,white,woman,,,,null,,,,
null,"<img src=""stim_listB/play5.gif""style=""height:400px;""></stim_listB>",,html-keyboard-response,95,337654,0.0-13.0-1.6,28069,List2B,white,woman,,,,null,,,,
null,is playing with,,html-keyboard-response,96,339662,0.0-13.0-2.6,28069,List2B,white,woman,,,,null,,,,
6751,,,survey-text,97,346413,0.0-13.0-3.6,28069,List2B,white,woman,,,,,"{""Q0"":""mike is playing with dave""}","<img src=""stim_listB/play5.gif""style=""height:400px;""></stim_listB>",is playing with,
null,"<div style=""font-size:60px;"">+</div>",,html-keyboard-response,98,346931,0.0-13.0-0.7,28069,List2B,white,woman,,,,null,,,,
null,"<img src=""stim_listB/dance6.gif""style=""height:400px;""></stim_listB>",,html-keyboard-response,99,348937,0.0-13.0-1.7,28069,List2B,white,woman,,,,null,,,,
null,are dancing with each other,,html-keyboard-response,100,350951,0.0-13.0-2.7,28069,List2B,white,woman,,,,null,,,,
9468,,,survey-text,101,360421,0.0-13.0-3.7,28069,List2B,white,woman,,,,,"{""Q0"":""fred and dave are dancing with each other""}","<img src=""stim_listB/dance6.gif""style=""height:400px;""></stim_listB>",are dancing with each other,
null,"<div style=""font-size:60px;"">+</div>",,html-keyboard-response,102,360931,0.0-13.0-0.8,28069,List2B,white,woman,,,,null,,,,
null,"<img src=""stim_listB/flirt4.gif""style=""height:400px;""></stim_listB>",,html-keyboard-response,103,362948,0.0-13.0-1.8,28069,List2B,white,woman,,,,null,,,,
null,are flirting with each other,,html-keyboard-response,104,364952,0.0-13.0-2.8,28069,List2B,white,woman,,,,null,,,,
9284,,,survey-text,105,374236,0.0-13.0-3.8,28069,List2B,white,woman,,,,,"{""Q0"":""mike and beth are flirting with each other""}","<img src=""stim_listB/flirt4.gif""style=""height:400px;""></stim_listB>",are flirting with each other,
null,"<div style=""font-size:60px;"">+</div>",,html-keyboard-response,106,374738,0.0-13.0-0.9,28069,List2B,white,woman,,,,null,,,,
null,"<img src=""stim_listB/flirt8.gif""style=""height:400px;""></stim_listB>",,html-keyboard-response,107,376754,0.0-13.0-1.9,28069,List2B,white,woman,,,,null,,,,
null,are flirting with each other,,html-keyboard-response,108,378759,0.0-13.0-2.9,28069,List2B,white,woman,,,,null,,,,
14790,,,survey-text,109,393551,0.0-13.0-3.9,28069,List2B,white,woman,,,,,"{""Q0"":""jane and beth are flirting with each other""}","<img src=""stim_listB/flirt8.gif""style=""height:400px;""></stim_listB>",are flirting with each other,
null,"<div style=""font-size:60px;"">+</div>",,html-keyboard-response,110,394062,0.0-13.0-0.10,28069,List2B,white,woman,,,,null,,,,
null,"<img src=""stim_listB/marry2.gif""style=""height:400px;""></stim_listB>",,html-keyboard-response,111,396077,0.0-13.0-1.10,28069,List2B,white,woman,,,,null,,,,
null,are marrying each other,,html-keyboard-response,112,398091,0.0-13.0-2.10,28069,List2B,white,woman,,,,null,,,,
8505,,,survey-text,113,406597,0.0-13.0-3.10,28069,List2B,white,woman,,,,,"{""Q0"":""jane and luke are marrying each other""}","<img src=""stim_listB/marry2.gif""style=""height:400px;""></stim_listB>",are marrying each other,
null,"<div style=""font-size:60px;"">+</div>",,html-keyboard-response,114,407102,0.0-13.0-0.11,28069,List2B,white,woman,,,,null,,,,
null,"<img src=""stim_listB/shout3.gif""style=""height:400px;""></stim_listB>",,html-keyboard-response,115,409122,0.0-13.0-1.11,28069,List2B,white,woman,,,,null,,,,
null,is shouting at,,html-keyboard-response,116,411131,0.0-13.0-2.11,28069,List2B,white,woman,,,,null,,,,
9064,,,survey-text,117,420198,0.0-13.0-3.11,28069,List2B,white,woman,,,,,"{""Q0"":""fred is shouting at beth""}","<img src=""stim_listB/shout3.gif""style=""height:400px;""></stim_listB>",is shouting at,
null,"<div style=""font-size:60px;"">+</div>",,html-keyboard-response,118,420701,0.0-13.0-0.12,28069,List2B,white,woman,,,,null,,,,
null,"<img src=""stim_listB/argue1.gif""style=""height:400px;""></stim_listB>",,html-keyboard-response,119,422718,0.0-13.0-1.12,28069,List2B,white,woman,,,,null,,,,
null,is arguing with,,html-keyboard-response,120,424730,0.0-13.0-2.12,28069,List2B,white,woman,,,,null,,,,
7109,,,survey-text,121,431842,0.0-13.0-3.12,28069,List2B,white,woman,,,,,"{""Q0"":""ruth is arguing with dave""}","<img src=""stim_listB/argue1.gif""style=""height:400px;""></stim_listB>",is arguing with,
null,"<div style=""font-size:60px;"">+</div>",,html-keyboard-response,122,432351,0.0-13.0-0.13,28069,List2B,white,woman,,,,null,,,,
null,"<img src=""stim_listB/fight7.gif""style=""height:400px;""></stim_listB>",,html-keyboard-response,123,434368,0.0-13.0-1.13,28069,List2B,white,woman,,,,null,,,,
null,is fighting,,html-keyboard-response,124,436379,0.0-13.0-2.13,28069,List2B,white,woman,,,,null,,,,
5929,,,survey-text,125,442308,0.0-13.0-3.13,28069,List2B,white,woman,,,,,"{""Q0"":""kate is fighting jane""}","<img src=""stim_listB/fight7.gif""style=""height:400px;""></stim_listB>",is fighting,
null,"<div style=""font-size:60px;"">+</div>",,html-keyboard-response,126,442811,0.0-13.0-0.14,28069,List2B,white,woman,,,,null,,,,
null,"<img src=""stim_listB/fight8.gif""style=""height:400px;""></stim_listB>",,html-keyboard-response,127,444816,0.0-13.0-1.14,28069,List2B,white,woman,,,,null,,,,
null,are fighting each other,,html-keyboard-response,128,446821,0.0-13.0-2.14,28069,List2B,white,woman,,,,null,,,,
9269,,,survey-text,129,456092,0.0-13.0-3.14,28069,List2B,white,woman,,,,,"{""Q0"":""ruth and beth are fighting each other""}","<img src=""stim_listB/fight8.gif""style=""height:400px;""></stim_listB>",are fighting each other,
null,"<div style=""font-size:60px;"">+</div>",,html-keyboard-response,130,456598,0.0-13.0-0.15,28069,List2B,white,woman,,,,null,,,,
null,"<img src=""stim_listB/marry6.gif""style=""height:400px;""></stim_listB>",,html-keyboard-response,131,458608,0.0-13.0-1.15,28069,List2B,white,woman,,,,null,,,,
null,are marrying each other,,html-keyboard-response,132,460620,0.0-13.0-2.15,28069,List2B,white,woman,,,,null,,,,
10233,,,survey-text,133,470855,0.0-13.0-3.15,28069,List2B,white,woman,,,,,"{""Q0"":""mike and luke are marrying each other""}","<img src=""stim_listB/marry6.gif""style=""height:400px;""></stim_listB>",are marrying each other,
null,"<div style=""font-size:60px;"">+</div>",,html-keyboard-response,134,471372,0.0-13.0-0.16,28069,List2B,white,woman,,,,null,,,,
null,"<img src=""stim_listB/touch6.gif""style=""height:400px;""></stim_listB>",,html-keyboard-response,135,473383,0.0-13.0-1.16,28069,List2B,white,woman,,,,null,,,,
null,are touching each other,,html-keyboard-response,136,475402,0.0-13.0-2.16,28069,List2B,white,woman,,,,null,,,,
8475,,,survey-text,137,483879,0.0-13.0-3.16,28069,List2B,white,woman,,,,,"{""Q0"":""fred and luke are touching each other""}","<img src=""stim_listB/touch6.gif""style=""height:400px;""></stim_listB>",are touching each other,
null,"<div style=""font-size:60px;"">+</div>",,html-keyboard-response,138,484391,0.0-13.0-0.17,28069,List2B,white,woman,,,,null,,,,
null,"<img src=""stim_listB/fight5.gif""style=""height:400px;""></stim_listB>",,html-keyboard-response,139,486399,0.0-13.0-1.17,28069,List2B,white,woman,,,,null,,,,
null,is fighting,,html-keyboard-response,140,488409,0.0-13.0-2.17,28069,List2B,white,woman,,,,null,,,,
6480,,,survey-text,141,494890,0.0-13.0-3.17,28069,List2B,white,woman,,,,,"{""Q0"":""mike is fighting dave""}","<img src=""stim_listB/fight5.gif""style=""height:400px;""></stim_listB>",is fighting,
null,"<div style=""font-size:60px;"">+</div>",,html-keyboard-response,142,495401,0.0-13.0-0.18,28069,List2B,white,woman,,,,null,,,,
null,"<img src=""stim_listB/touch1.gif""style=""height:400px;""></stim_listB>",,html-keyboard-response,143,497414,0.0-13.0-1.18,28069,List2B,white,woman,,,,null,,,,
null,is touching,,html-keyboard-response,144,499422,0.0-13.0-2.18,28069,List2B,white,woman,,,,null,,,,
5366,,,survey-text,145,504788,0.0-13.0-3.18,28069,List2B,white,woman,,,,,"{""Q0"":""jane is touching dave""}","<img src=""stim_listB/touch1.gif""style=""height:400px;""></stim_listB>",is touching,
null,"<div style=""font-size:60px;"">+</div>",,html-keyboard-response,146,505292,0.0-13.0-0.19,28069,List2B,white,woman,,,,null,,,,
null,"<img src=""stim_listB/flirt3.gif""style=""height:400px;""></stim_listB>",,html-keyboard-response,147,507299,0.0-13.0-1.19,28069,List2B,white,woman,,,,null,,,,
null,is flirting with,,html-keyboard-response,148,509303,0.0-13.0-2.19,28069,List2B,white,woman,,,,null,,,,
7814,,,survey-text,149,517119,0.0-13.0-3.19,28069,List2B,white,woman,,,,,"{""Q0"":""kate is flirting with fred""}","<img src=""stim_listB/flirt3.gif""style=""height:400px;""></stim_listB>",is flirting with,
9502,"<img src='img/portrait_matrix_list2.jpg' style='width:900px;height:500px;''></img><p>If you have memorised all the portraits and names and are ready to start, press Continue.</p><p><strong>Please note: Your memory of these faces will be tested 4 times during this experiment.</strong></p>",0,html-button-response,150,526626,0.0-14.0-0.0,28069,List2B,white,woman,,,,,,,,
1692,"<img src=""portrait/WW2.jpg""style=""height:400px;""></img>",3,html-button-response,151,529329,0.0-14.0-1.0,28069,List2B,white,woman,,TRUE,3,,,,,
null,CORRECT,,html-keyboard-response,152,530862,0.0-14.0-2.0-0.0,28069,List2B,white,woman,,,,null,,,,
1510,"<img src=""portrait/WW1.jpg""style=""height:400px;""></img>",1,html-button-response,153,532377,0.0-14.0-4.0,28069,List2B,white,woman,,TRUE,1,,,,,
null,CORRECT,,html-keyboard-response,154,533911,0.0-14.0-5.0-0.0,28069,List2B,white,woman,,,,null,,,,
2385,"<img src=""portrait/WM1.jpg""style=""height:400px;""></img>",6,html-button-response,155,536301,0.0-14.0-7.0,28069,List2B,white,woman,,TRUE,6,,,,,
null,CORRECT,,html-keyboard-response,156,537828,0.0-14.0-8.0-0.0,28069,List2B,white,woman,,,,null,,,,
1801,"<img src=""portrait/BW2.jpg""style=""height:400px;""></img>",2,html-button-response,157,539632,0.0-14.0-10.0,28069,List2B,white,woman,,TRUE,2,,,,,
null,CORRECT,,html-keyboard-response,158,541152,0.0-14.0-11.0-0.0,28069,List2B,white,woman,,,,null,,,,
1187,"<img src=""portrait/BW1.jpg""style=""height:400px;""></img>",0,html-button-response,159,542343,0.0-14.0-13.0,28069,List2B,white,woman,,TRUE,0,,,,,
null,CORRECT,,html-keyboard-response,160,543872,0.0-14.0-14.0-0.0,28069,List2B,white,woman,,,,null,,,,
1683,"<img src=""portrait/BM2.jpg""style=""height:400px;""></img>",5,html-button-response,161,545560,0.0-14.0-16.0,28069,List2B,white,woman,,TRUE,5,,,,,
null,CORRECT,,html-keyboard-response,162,547082,0.0-14.0-17.0-0.0,28069,List2B,white,woman,,,,null,,,,
1063,"<img src=""portrait/BM1.jpg""style=""height:400px;""></img>",4,html-button-response,163,548148,0.0-14.0-19.0,28069,List2B,white,woman,,TRUE,4,,,,,
null,CORRECT,,html-keyboard-response,164,549654,0.0-14.0-20.0-0.0,28069,List2B,white,woman,,,,null,,,,
1129,"<img src=""portrait/WM2.jpg""style=""height:400px;""></img>",7,html-button-response,165,550787,0.0-14.0-22.0,28069,List2B,white,woman,,TRUE,7,,,,,
null,CORRECT,,html-keyboard-response,166,552312,0.0-14.0-23.0-0.0,28069,List2B,white,woman,,,,null,,,,
1615,<p>You got 8 out of 8 right first time. Press Continue.</p>,0,html-button-response,167,553929,0.0-14.0-25.0,28069,List2B,white,woman,,,,,,,,
null,"<div style=""font-size:60px;"">+</div>",,html-keyboard-response,168,555442,0.0-15.0-0.0,28069,List2B,white,woman,,,,null,,,,
null,"<img src=""stim_listB/kiss8.gif""style=""height:400px;""></stim_listB>",,html-keyboard-response,169,557452,0.0-15.0-1.0,28069,List2B,white,woman,,,,null,,,,
null,are kissing each other,,html-keyboard-response,170,559471,0.0-15.0-2.0,28069,List2B,white,woman,,,,null,,,,
10018,,,survey-text,171,569490,0.0-15.0-3.0,28069,List2B,white,woman,,,,,"{""Q0"":""jane and kate are kissing each other""}","<img src=""stim_listB/kiss8.gif""style=""height:400px;""></stim_listB>",are kissing each other,
null,"<div style=""font-size:60px;"">+</div>",,html-keyboard-response,172,569992,0.0-15.0-0.1,28069,List2B,white,woman,,,,null,,,,
null,"<img src=""stim_listB/fight1.gif""style=""height:400px;""></stim_listB>",,html-keyboard-response,173,571996,0.0-15.0-1.1,28069,List2B,white,woman,,,,null,,,,
null,is fighting,,html-keyboard-response,174,574002,0.0-15.0-2.1,28069,List2B,white,woman,,,,null,,,,
9039,,,survey-text,175,583043,0.0-15.0-3.1,28069,List2B,white,woman,,,,,"{""Q0"":""jane is fighting dave""}","<img src=""stim_listB/fight1.gif""style=""height:400px;""></stim_listB>",is fighting,
null,"<div style=""font-size:60px;"">+</div>",,html-keyboard-response,176,583552,0.0-15.0-0.2,28069,List2B,white,woman,,,,null,,,,
null,"<img src=""stim_listB/kiss2.gif""style=""height:400px;""></stim_listB>",,html-keyboard-response,177,585558,0.0-15.0-1.2,28069,List2B,white,woman,,,,null,,,,
null,are kissing each other,,html-keyboard-response,178,587561,0.0-15.0-2.2,28069,List2B,white,woman,,,,null,,,,
8883,,,survey-text,179,596445,0.0-15.0-3.2,28069,List2B,white,woman,,,,,"{""Q0"":""jane and dave are kissing each other""}","<img src=""stim_listB/kiss2.gif""style=""height:400px;""></stim_listB>",are kissing each other,
null,"<div style=""font-size:60px;"">+</div>",,html-keyboard-response,180,596952,0.0-15.0-0.3,28069,List2B,white,woman,,,,null,,,,
null,"<img src=""stim_listB/touch8.gif""style=""height:400px;""></stim_listB>",,html-keyboard-response,181,598969,0.0-15.0-1.3,28069,List2B,white,woman,,,,null,,,,
null,are touching each other,,html-keyboard-response,182,600972,0.0-15.0-2.3,28069,List2B,white,woman,,,,null,,,,
10300,,,survey-text,183,611273,0.0-15.0-3.3,28069,List2B,white,woman,,,,,"{""Q0"":""ruth and beth are touching each other""}","<img src=""stim_listB/touch8.gif""style=""height:400px;""></stim_listB>",are touching each other,
null,"<div style=""font-size:60px;"">+</div>",,html-keyboard-response,184,611782,0.0-15.0-0.4,28069,List2B,white,woman,,,,null,,,,
null,"<img src=""stim_listB/kiss5.gif""style=""height:400px;""></stim_listB>",,html-keyboard-response,185,613796,0.0-15.0-1.4,28069,List2B,white,woman,,,,null,,,,
null,is kissing,,html-keyboard-response,186,615811,0.0-15.0-2.4,28069,List2B,white,woman,,,,null,,,,
7179,,,survey-text,187,622991,0.0-15.0-3.4,28069,List2B,white,woman,,,,,"{""Q0"":""luke is kissing fred""}","<img src=""stim_listB/kiss5.gif""style=""height:400px;""></stim_listB>",is kissing,
null,"<div style=""font-size:60px;"">+</div>",,html-keyboard-response,188,623501,0.0-15.0-0.5,28069,List2B,white,woman,,,,null,,,,
null,"<img src=""stim_listB/argue5.gif""style=""height:400px;""></stim_listB>",,html-keyboard-response,189,625510,0.0-15.0-1.5,28069,List2B,white,woman,,,,null,,,,
null,is arguing with,,html-keyboard-response,190,627531,0.0-15.0-2.5,28069,List2B,white,woman,,,,null,,,,
7227,,,survey-text,191,634760,0.0-15.0-3.5,28069,List2B,white,woman,,,,,"{""Q0"":""dave is arguing with fred""}","<img src=""stim_listB/argue5.gif""style=""height:400px;""></stim_listB>",is arguing with,
null,"<div style=""font-size:60px;"">+</div>",,html-keyboard-response,192,635272,0.0-15.0-0.6,28069,List2B,white,woman,,,,null,,,,
null,"<img src=""stim_listB/shout2.gif""style=""height:400px;""></stim_listB>",,html-keyboard-response,193,637274,0.0-15.0-1.6,28069,List2B,white,woman,,,,null,,,,
null,are shouting at each other,,html-keyboard-response,194,639281,0.0-15.0-2.6,28069,List2B,white,woman,,,,null,,,,
9650,,,survey-text,195,648932,0.0-15.0-3.6,28069,List2B,white,woman,,,,,"{""Q0"":""dave and jane are shouting at each other""}","<img src=""stim_listB/shout2.gif""style=""height:400px;""></stim_listB>",are shouting at each other,
null,"<div style=""font-size:60px;"">+</div>",,html-keyboard-response,196,649451,0.0-15.0-0.7,28069,List2B,white,woman,,,,null,,,,
null,"<img src=""stim_listB/dance3.gif""style=""height:400px;""></stim_listB>",,html-keyboard-response,197,651469,0.0-15.0-1.7,28069,List2B,white,woman,,,,null,,,,
null,is dancing with,,html-keyboard-response,198,653482,0.0-15.0-2.7,28069,List2B,white,woman,,,,null,,,,
6881,,,survey-text,199,660364,0.0-15.0-3.7,28069,List2B,white,woman,,,,,"{""Q0"":""kate is dancing with fred""}","<img src=""stim_listB/dance3.gif""style=""height:400px;""></stim_listB>",is dancing with,
null,"<div style=""font-size:60px;"">+</div>",,html-keyboard-response,200,660873,0.0-15.0-0.8,28069,List2B,white,woman,,,,null,,,,
null,"<img src=""stim_listB/shout7.gif""style=""height:400px;""></stim_listB>",,html-keyboard-response,201,662876,0.0-15.0-1.8,28069,List2B,white,woman,,,,null,,,,
null,is shouting at,,html-keyboard-response,202,664888,0.0-15.0-2.8,28069,List2B,white,woman,,,,null,,,,
6283,,,survey-text,203,671173,0.0-15.0-3.8,28069,List2B,white,woman,,,,,"{""Q0"":""ruth is shouting at beth""}","<img src=""stim_listB/shout7.gif""style=""height:400px;""></stim_listB>",is shouting at,
null,"<div style=""font-size:60px;"">+</div>",,html-keyboard-response,204,671691,0.0-15.0-0.9,28069,List2B,white,woman,,,,null,,,,
null,"<img src=""stim_listB/argue4.gif""style=""height:400px;""></stim_listB>",,html-keyboard-response,205,673700,0.0-15.0-1.9,28069,List2B,white,woman,,,,null,,,,
null,are arguing with each other,,html-keyboard-response,206,675711,0.0-15.0-2.9,28069,List2B,white,woman,,,,null,,,,
8856,,,survey-text,207,684570,0.0-15.0-3.9,28069,List2B,white,woman,,,,,"{""Q0"":""fred and kate are arguing with each other""}","<img src=""stim_listB/argue4.gif""style=""height:400px;""></stim_listB>",are arguing with each other,
null,"<div style=""font-size:60px;"">+</div>",,html-keyboard-response,208,685076,0.0-15.0-0.10,28069,List2B,white,woman,,,,null,,,,
null,"<img src=""stim_listB/marry4.gif""style=""height:400px;""></stim_listB>",,html-keyboard-response,209,687080,0.0-15.0-1.10,28069,List2B,white,woman,,,,null,,,,
null,are marrying each other,,html-keyboard-response,210,689091,0.0-15.0-2.10,28069,List2B,white,woman,,,,null,,,,
8251,,,survey-text,211,697343,0.0-15.0-3.10,28069,List2B,white,woman,,,,,"{""Q0"":""fred and kate are marrying each other""}","<img src=""stim_listB/marry4.gif""style=""height:400px;""></stim_listB>",are marrying each other,
null,"<div style=""font-size:60px;"">+</div>",,html-keyboard-response,212,697861,0.0-15.0-0.11,28069,List2B,white,woman,,,,null,,,,
null,"<img src=""stim_listB/flirt5.gif""style=""height:400px;""></stim_listB>",,html-keyboard-response,213,699874,0.0-15.0-1.11,28069,List2B,white,woman,,,,null,,,,
null,is flirting with,,html-keyboard-response,214,701887,0.0-15.0-2.11,28069,List2B,white,woman,,,,null,,,,
8153,,,survey-text,215,710042,0.0-15.0-3.11,28069,List2B,white,woman,,,,,"{""Q0"":""luke is flirting with mike""}","<img src=""stim_listB/flirt5.gif""style=""height:400px;""></stim_listB>",is flirting with,
null,"<div style=""font-size:60px;"">+</div>",,html-keyboard-response,216,710561,0.0-15.0-0.12,28069,List2B,white,woman,,,,null,,,,
null,"<img src=""stim_listB/dance4.gif""style=""height:400px;""></stim_listB>",,html-keyboard-response,217,712571,0.0-15.0-1.12,28069,List2B,white,woman,,,,null,,,,
null,are dancing with each other,,html-keyboard-response,218,714581,0.0-15.0-2.12,28069,List2B,white,woman,,,,null,,,,
10153,,,survey-text,219,724736,0.0-15.0-3.12,28069,List2B,white,woman,,,,,"{""Q0"":""mike and beth are dancing with each other""}","<img src=""stim_listB/dance4.gif""style=""height:400px;""></stim_listB>",are dancing with each other,
null,"<div style=""font-size:60px;"">+</div>",,html-keyboard-response,220,725241,0.0-15.0-0.13,28069,List2B,white,woman,,,,null,,,,
null,"<img src=""stim_listB/kiss6.gif""style=""height:400px;""></stim_listB>",,html-keyboard-response,221,727247,0.0-15.0-1.13,28069,List2B,white,woman,,,,null,,,,
null,are kissing each other,,html-keyboard-response,222,729261,0.0-15.0-2.13,28069,List2B,white,woman,,,,null,,,,
10266,,,survey-text,223,739528,0.0-15.0-3.13,28069,List2B,white,woman,,,,,"{""Q0"":""mike and dave are kissing each other""}","<img src=""stim_listB/kiss6.gif""style=""height:400px;""></stim_listB>",are kissing each other,
null,"<div style=""font-size:60px;"">+</div>",,html-keyboard-response,224,740031,0.0-15.0-0.14,28069,List2B,white,woman,,,,null,,,,
null,"<img src=""stim_listB/fight3.gif""style=""height:400px;""></stim_listB>",,html-keyboard-response,225,742041,0.0-15.0-1.14,28069,List2B,white,woman,,,,null,,,,
null,is fighting,,html-keyboard-response,226,744051,0.0-15.0-2.14,28069,List2B,white,woman,,,,null,,,,
12451,,,survey-text,227,756503,0.0-15.0-3.14,28069,List2B,white,woman,,,,,"{""Q0"":""kate is fighting with Mike""}","<img src=""stim_listB/fight3.gif""style=""height:400px;""></stim_listB>",is fighting,
null,"<div style=""font-size:60px;"">+</div>",,html-keyboard-response,228,757011,0.0-15.0-0.15,28069,List2B,white,woman,,,,null,,,,
null,"<img src=""stim_listB/shout4.gif""style=""height:400px;""></stim_listB>",,html-keyboard-response,229,759030,0.0-15.0-1.15,28069,List2B,white,woman,,,,null,,,,
null,are shouting at each other,,html-keyboard-response,230,761032,0.0-15.0-2.15,28069,List2B,white,woman,,,,null,,,,
8368,,,survey-text,231,769400,0.0-15.0-3.15,28069,List2B,white,woman,,,,,"{""Q0"":""kate and mike are shouting at each other""}","<img src=""stim_listB/shout4.gif""style=""height:400px;""></stim_listB>",are shouting at each other,
null,"<div style=""font-size:60px;"">+</div>",,html-keyboard-response,232,769911,0.0-15.0-0.16,28069,List2B,white,woman,,,,null,,,,
null,"<img src=""stim_listB/argue2.gif""style=""height:400px;""></stim_listB>",,html-keyboard-response,233,771927,0.0-15.0-1.16,28069,List2B,white,woman,,,,null,,,,
null,are arguing with each other,,html-keyboard-response,234,773937,0.0-15.0-2.16,28069,List2B,white,woman,,,,null,,,,
9557,,,survey-text,235,783496,0.0-15.0-3.16,28069,List2B,white,woman,,,,,"{""Q0"":""jane and luke are arguing with each other""}","<img src=""stim_listB/argue2.gif""style=""height:400px;""></stim_listB>",are arguing with each other,
null,"<div style=""font-size:60px;"">+</div>",,html-keyboard-response,236,784012,0.0-15.0-0.17,28069,List2B,white,woman,,,,null,,,,
null,"<img src=""stim_listB/argue8.gif""style=""height:400px;""></stim_listB>",,html-keyboard-response,237,786019,0.0-15.0-1.17,28069,List2B,white,woman,,,,null,,,,
null,are arguing with each other,,html-keyboard-response,238,788032,0.0-15.0-2.17,28069,List2B,white,woman,,,,null,,,,
8639,,,survey-text,239,796672,0.0-15.0-3.17,28069,List2B,white,woman,,,,,"{""Q0"":""ruth and kate are arguing with each other""}","<img src=""stim_listB/argue8.gif""style=""height:400px;""></stim_listB>",are arguing with each other,
null,"<div style=""font-size:60px;"">+</div>",,html-keyboard-response,240,797176,0.0-15.0-0.18,28069,List2B,white,woman,,,,null,,,,
null,"<img src=""stim_listB/marry3.gif""style=""height:400px;""></stim_listB>",,html-keyboard-response,241,799181,0.0-15.0-1.18,28069,List2B,white,woman,,,,null,,,,
null,is marrying,,html-keyboard-response,242,801191,0.0-15.0-2.18,28069,List2B,white,woman,,,,null,,,,
5712,,,survey-text,243,806904,0.0-15.0-3.18,28069,List2B,white,woman,,,,,"{""Q0"":""beth is marrying mike""}","<img src=""stim_listB/marry3.gif""style=""height:400px;""></stim_listB>",is marrying,
null,"<div style=""font-size:60px;"">+</div>",,html-keyboard-response,244,807411,0.0-15.0-0.19,28069,List2B,white,woman,,,,null,,,,
null,"<img src=""stim_listB/shout5.gif""style=""height:400px;""></stim_listB>",,html-keyboard-response,245,809418,0.0-15.0-1.19,28069,List2B,white,woman,,,,null,,,,
null,is shouting at,,html-keyboard-response,246,811432,0.0-15.0-2.19,28069,List2B,white,woman,,,,null,,,,
6710,,,survey-text,247,818143,0.0-15.0-3.19,28069,List2B,white,woman,,,,,"{""Q0"":""luke is shouting at fred""}","<img src=""stim_listB/shout5.gif""style=""height:400px;""></stim_listB>",is shouting at,
7159,"<img src='img/portrait_matrix_list2.jpg' style='width:900px;height:500px;''></img><p>If you have memorised all the portraits and names and are ready to start, press Continue.</p><p><strong>Please note: Your memory of these faces will be tested 4 times during this experiment.</strong></p>",0,html-button-response,248,825304,0.0-16.0-0.0,28069,List2B,white,woman,,,,,,,,
1799,"<img src=""portrait/WW1.jpg""style=""height:400px;""></img>",1,html-button-response,249,828124,0.0-16.0-1.0,28069,List2B,white,woman,,TRUE,1,,,,,
null,CORRECT,,html-keyboard-response,250,829651,0.0-16.0-2.0-0.0,28069,List2B,white,woman,,,,null,,,,
1363,"<img src=""portrait/BW1.jpg""style=""height:400px;""></img>",0,html-button-response,251,831018,0.0-16.0-4.0,28069,List2B,white,woman,,TRUE,0,,,,,
null,CORRECT,,html-keyboard-response,252,832541,0.0-16.0-5.0-0.0,28069,List2B,white,woman,,,,null,,,,
1860,"<img src=""portrait/WW2.jpg""style=""height:400px;""></img>",3,html-button-response,253,834403,0.0-16.0-7.0,28069,List2B,white,woman,,TRUE,3,,,,,
null,CORRECT,,html-keyboard-response,254,835931,0.0-16.0-8.0-0.0,28069,List2B,white,woman,,,,null,,,,
1533,"<img src=""portrait/BM2.jpg""style=""height:400px;""></img>",5,html-button-response,255,837466,0.0-16.0-10.0,28069,List2B,white,woman,,TRUE,5,,,,,
null,CORRECT,,html-keyboard-response,256,838982,0.0-16.0-11.0-0.0,28069,List2B,white,woman,,,,null,,,,
1757,"<img src=""portrait/WM1.jpg""style=""height:400px;""></img>",6,html-button-response,257,840744,0.0-16.0-13.0,28069,List2B,white,woman,,TRUE,6,,,,,
null,CORRECT,,html-keyboard-response,258,842261,0.0-16.0-14.0-0.0,28069,List2B,white,woman,,,,null,,,,
1515,"<img src=""portrait/BM1.jpg""style=""height:400px;""></img>",4,html-button-response,259,843778,0.0-16.0-16.0,28069,List2B,white,woman,,TRUE,4,,,,,
null,CORRECT,,html-keyboard-response,260,845302,0.0-16.0-17.0-0.0,28069,List2B,white,woman,,,,null,,,,
2057,"<img src=""portrait/WM2.jpg""style=""height:400px;""></img>",7,html-button-response,261,847360,0.0-16.0-19.0,28069,List2B,white,woman,,TRUE,7,,,,,
null,CORRECT,,html-keyboard-response,262,848873,0.0-16.0-20.0-0.0,28069,List2B,white,woman,,,,null,,,,
1339,"<img src=""portrait/BW2.jpg""style=""height:400px;""></img>",2,html-button-response,263,850216,0.0-16.0-22.0,28069,List2B,white,woman,,TRUE,2,,,,,
null,CORRECT,,html-keyboard-response,264,851731,0.0-16.0-23.0-0.0,28069,List2B,white,woman,,,,null,,,,
1355,<p>You got 8 out of 8 right first time. Press Continue.</p>,0,html-button-response,265,853088,0.0-16.0-25.0,28069,List2B,white,woman,,,,,,,,
null,"<div style=""font-size:60px;"">+</div>",,html-keyboard-response,266,854611,0.0-17.0-0.0,28069,List2B,white,woman,,,,null,,,,
null,"<img src=""stim_listB/flirt2.gif""style=""height:400px;""></stim_listB>",,html-keyboard-response,267,856623,0.0-17.0-1.0,28069,List2B,white,woman,,,,null,,,,
null,are flirting with each other,,html-keyboard-response,268,858641,0.0-17.0-2.0,28069,List2B,white,woman,,,,null,,,,
10006,,,survey-text,269,868649,0.0-17.0-3.0,28069,List2B,white,woman,,,,,"{""Q0"":""ruth and dave are flirting with each other""}","<img src=""stim_listB/flirt2.gif""style=""height:400px;""></stim_listB>",are flirting with each other,
null,"<div style=""font-size:60px;"">+</div>",,html-keyboard-response,270,869152,0.0-17.0-0.1,28069,List2B,white,woman,,,,null,,,,
null,"<img src=""stim_listB/marry7.gif""style=""height:400px;""></stim_listB>",,html-keyboard-response,271,871166,0.0-17.0-1.1,28069,List2B,white,woman,,,,null,,,,
null,is marrying,,html-keyboard-response,272,873171,0.0-17.0-2.1,28069,List2B,white,woman,,,,null,,,,
6552,,,survey-text,273,879725,0.0-17.0-3.1,28069,List2B,white,woman,,,,,"{""Q0"":""beth is marrying jane""}","<img src=""stim_listB/marry7.gif""style=""height:400px;""></stim_listB>",is marrying,
null,"<div style=""font-size:60px;"">+</div>",,html-keyboard-response,274,880229,0.0-17.0-0.2,28069,List2B,white,woman,,,,null,,,,
null,"<img src=""stim_listB/play1.gif""style=""height:400px;""></stim_listB>",,html-keyboard-response,275,882242,0.0-17.0-1.2,28069,List2B,white,woman,,,,null,,,,
null,is playing with,,html-keyboard-response,276,884244,0.0-17.0-2.2,28069,List2B,white,woman,,,,null,,,,
10670,,,survey-text,277,894917,0.0-17.0-3.2,28069,List2B,white,woman,,,,,"{""Q0"":""jane is playing with dave""}","<img src=""stim_listB/play1.gif""style=""height:400px;""></stim_listB>",is playing with,
null,"<div style=""font-size:60px;"">+</div>",,html-keyboard-response,278,895421,0.0-17.0-0.3,28069,List2B,white,woman,,,,null,,,,
null,"<img src=""stim_listB/talk3.gif""style=""height:400px;""></stim_listB>",,html-keyboard-response,279,897426,0.0-17.0-1.3,28069,List2B,white,woman,,,,null,,,,
null,is talking to,,html-keyboard-response,280,899441,0.0-17.0-2.3,28069,List2B,white,woman,,,,null,,,,
6060,,,survey-text,281,905503,0.0-17.0-3.3,28069,List2B,white,woman,,,,,"{""Q0"":""fred is talking to kate""}","<img src=""stim_listB/talk3.gif""style=""height:400px;""></stim_listB>",is talking to,
null,"<div style=""font-size:60px;"">+</div>",,html-keyboard-response,282,906011,0.0-17.0-0.4,28069,List2B,white,woman,,,,null,,,,
null,"<img src=""stim_listB/dance1.gif""style=""height:400px;""></stim_listB>",,html-keyboard-response,283,908025,0.0-17.0-1.4,28069,List2B,white,woman,,,,null,,,,
null,is dancing with,,html-keyboard-response,284,910040,0.0-17.0-2.4,28069,List2B,white,woman,,,,null,,,,
6278,,,survey-text,285,916319,0.0-17.0-3.4,28069,List2B,white,woman,,,,,"{""Q0"":""luke is dancing with jane""}","<img src=""stim_listB/dance1.gif""style=""height:400px;""></stim_listB>",is dancing with,
null,"<div style=""font-size:60px;"">+</div>",,html-keyboard-response,286,916831,0.0-17.0-0.5,28069,List2B,white,woman,,,,null,,,,
null,"<img src=""stim_listB/marry5.gif""style=""height:400px;""></stim_listB>",,html-keyboard-response,287,918840,0.0-17.0-1.5,28069,List2B,white,woman,,,,null,,,,
null,is marrying,,html-keyboard-response,288,920851,0.0-17.0-2.5,28069,List2B,white,woman,,,,null,,,,
7472,,,survey-text,289,928325,0.0-17.0-3.5,28069,List2B,white,woman,,,,,"{""Q0"":""fred is marrying dave""}","<img src=""stim_listB/marry5.gif""style=""height:400px;""></stim_listB>",is marrying,
null,"<div style=""font-size:60px;"">+</div>",,html-keyboard-response,290,928842,0.0-17.0-0.6,28069,List2B,white,woman,,,,null,,,,
null,"<img src=""stim_listB/talk7.gif""style=""height:400px;""></stim_listB>",,html-keyboard-response,291,930853,0.0-17.0-1.6,28069,List2B,white,woman,,,,null,,,,
null,is talking to,,html-keyboard-response,292,932862,0.0-17.0-2.6,28069,List2B,white,woman,,,,null,,,,
8212,,,survey-text,293,941074,0.0-17.0-3.6,28069,List2B,white,woman,,,,,"{""Q0"":""ruth is talking to kate""}","<img src=""stim_listB/talk7.gif""style=""height:400px;""></stim_listB>",is talking to,
null,"<div style=""font-size:60px;"">+</div>",,html-keyboard-response,294,941592,0.0-17.0-0.7,28069,List2B,white,woman,,,,null,,,,
null,"<img src=""stim_listB/talk5.gif""style=""height:400px;""></stim_listB>",,html-keyboard-response,295,943600,0.0-17.0-1.7,28069,List2B,white,woman,,,,null,,,,
null,is talking to,,html-keyboard-response,296,945621,0.0-17.0-2.7,28069,List2B,white,woman,,,,null,,,,
5407,,,survey-text,297,951029,0.0-17.0-3.7,28069,List2B,white,woman,,,,,"{""Q0"":""mike is talking to luke""}","<img src=""stim_listB/talk5.gif""style=""height:400px;""></stim_listB>",is talking to,
null,"<div style=""font-size:60px;"">+</div>",,html-keyboard-response,298,951531,0.0-17.0-0.8,28069,List2B,white,woman,,,,null,,,,
null,"<img src=""stim_listB/dance8.gif""style=""height:400px;""></stim_listB>",,html-keyboard-response,299,953535,0.0-17.0-1.8,28069,List2B,white,woman,,,,null,,,,
null,are dancing with each other,,html-keyboard-response,300,955551,0.0-17.0-2.8,28069,List2B,white,woman,,,,null,,,,
7898,,,survey-text,301,963451,0.0-17.0-3.8,28069,List2B,white,woman,,,,,"{""Q0"":""jane and beth are dancing with each other""}","<img src=""stim_listB/dance8.gif""style=""height:400px;""></stim_listB>",are dancing with each other,
null,"<div style=""font-size:60px;"">+</div>",,html-keyboard-response,302,963971,0.0-17.0-0.9,28069,List2B,white,woman,,,,null,,,,
null,"<img src=""stim_listB/kiss4.gif""style=""height:400px;""></stim_listB>",,html-keyboard-response,303,965981,0.0-17.0-1.9,28069,List2B,white,woman,,,,null,,,,
null,are kissing each other,,html-keyboard-response,304,967992,0.0-17.0-2.9,28069,List2B,white,woman,,,,null,,,,
9139,,,survey-text,305,977131,0.0-17.0-3.9,28069,List2B,white,woman,,,,,"{""Q0"":""mike and kate are kissing each other""}","<img src=""stim_listB/kiss4.gif""style=""height:400px;""></stim_listB>",are kissing each other,
null,"<div style=""font-size:60px;"">+</div>",,html-keyboard-response,306,977641,0.0-17.0-0.10,28069,List2B,white,woman,,,,null,,,,
null,"<img src=""stim_listB/argue3.gif""style=""height:400px;""></stim_listB>",,html-keyboard-response,307,979643,0.0-17.0-1.10,28069,List2B,white,woman,,,,null,,,,
null,is arguing with,,html-keyboard-response,308,981661,0.0-17.0-2.10,28069,List2B,white,woman,,,,null,,,,
8057,,,survey-text,309,989719,0.0-17.0-3.10,28069,List2B,white,woman,,,,,"{""Q0"":""mike is arguing with beth""}","<img src=""stim_listB/argue3.gif""style=""height:400px;""></stim_listB>",is arguing with,
null,"<div style=""font-size:60px;"">+</div>",,html-keyboard-response,310,990222,0.0-17.0-0.11,28069,List2B,white,woman,,,,null,,,,
null,"<img src=""stim_listB/play3.gif""style=""height:400px;""></stim_listB>",,html-keyboard-response,311,992239,0.0-17.0-1.11,28069,List2B,white,woman,,,,null,,,,
null,is playing with,,html-keyboard-response,312,994242,0.0-17.0-2.11,28069,List2B,white,woman,,,,null,,,,
5647,,,survey-text,313,999890,0.0-17.0-3.11,28069,List2B,white,woman,,,,,"{""Q0"":""mike is playing with kate""}","<img src=""stim_listB/play3.gif""style=""height:400px;""></stim_listB>",is playing with,
null,"<div style=""font-size:60px;"">+</div>",,html-keyboard-response,314,1000402,0.0-17.0-0.12,28069,List2B,white,woman,,,,null,,,,
null,"<img src=""stim_listB/play2.gif""style=""height:400px;""></stim_listB>",,html-keyboard-response,315,1002407,0.0-17.0-1.12,28069,List2B,white,woman,,,,null,,,,
null,are playing with each other,,html-keyboard-response,316,1004411,0.0-17.0-2.12,28069,List2B,white,woman,,,,null,,,,
9270,,,survey-text,317,1013684,0.0-17.0-3.12,28069,List2B,white,woman,,,,,"{""Q0"":""ruth and luke are playing with each other""}","<img src=""stim_listB/play2.gif""style=""height:400px;""></stim_listB>",are playing with each other,
null,"<div style=""font-size:60px;"">+</div>",,html-keyboard-response,318,1014201,0.0-17.0-0.13,28069,List2B,white,woman,,,,null,,,,
null,"<img src=""stim_listB/talk1.gif""style=""height:400px;""></stim_listB>",,html-keyboard-response,319,1016218,0.0-17.0-1.13,28069,List2B,white,woman,,,,null,,,,
null,is talking to,,html-keyboard-response,320,1018221,0.0-17.0-2.13,28069,List2B,white,woman,,,,null,,,,
8412,,,survey-text,321,1026634,0.0-17.0-3.13,28069,List2B,white,woman,,,,,"{""Q0"":""jane is talking to luke""}","<img src=""stim_listB/talk1.gif""style=""height:400px;""></stim_listB>",is talking to,
null,"<div style=""font-size:60px;"">+</div>",,html-keyboard-response,322,1027141,0.0-17.0-0.14,28069,List2B,white,woman,,,,null,,,,
null,"<img src=""stim_listB/fight2.gif""style=""height:400px;""></stim_listB>",,html-keyboard-response,323,1029147,0.0-17.0-1.14,28069,List2B,white,woman,,,,null,,,,
null,are fighting each other,,html-keyboard-response,324,1031156,0.0-17.0-2.14,28069,List2B,white,woman,,,,null,,,,
8505,,,survey-text,325,1039663,0.0-17.0-3.14,28069,List2B,white,woman,,,,,"{""Q0"":""ruth and luke are fighting each other""}","<img src=""stim_listB/fight2.gif""style=""height:400px;""></stim_listB>",are fighting each other,
null,"<div style=""font-size:60px;"">+</div>",,html-keyboard-response,326,1040171,0.0-17.0-0.15,28069,List2B,white,woman,,,,null,,,,
null,"<img src=""stim_listB/argue7.gif""style=""height:400px;""></stim_listB>",,html-keyboard-response,327,1042176,0.0-17.0-1.15,28069,List2B,white,woman,,,,null,,,,
null,is arguing with,,html-keyboard-response,328,1044192,0.0-17.0-2.15,28069,List2B,white,woman,,,,null,,,,
8879,,,survey-text,329,1053072,0.0-17.0-3.15,28069,List2B,white,woman,,,,,"{""Q0"":""beth is arguing with jane""}","<img src=""stim_listB/argue7.gif""style=""height:400px;""></stim_listB>",is arguing with,
null,"<div style=""font-size:60px;"">+</div>",,html-keyboard-response,330,1053581,0.0-17.0-0.16,28069,List2B,white,woman,,,,null,,,,
null,"<img src=""stim_listB/kiss1.gif""style=""height:400px;""></stim_listB>",,html-keyboard-response,331,1055588,0.0-17.0-1.16,28069,List2B,white,woman,,,,null,,,,
null,is kissing,,html-keyboard-response,332,1057602,0.0-17.0-2.16,28069,List2B,white,woman,,,,null,,,,
5120,,,survey-text,333,1062722,0.0-17.0-3.16,28069,List2B,white,woman,,,,,"{""Q0"":""ruth is kissing luke""}","<img src=""stim_listB/kiss1.gif""style=""height:400px;""></stim_listB>",is kissing,
null,"<div style=""font-size:60px;"">+</div>",,html-keyboard-response,334,1063233,0.0-17.0-0.17,28069,List2B,white,woman,,,,null,,,,
null,"<img src=""stim_listB/kiss7.gif""style=""height:400px;""></stim_listB>",,html-keyboard-response,335,1065237,0.0-17.0-1.17,28069,List2B,white,woman,,,,null,,,,
null,is kissing,,html-keyboard-response,336,1067244,0.0-17.0-2.17,28069,List2B,white,woman,,,,null,,,,
6262,,,survey-text,337,1073509,0.0-17.0-3.17,28069,List2B,white,woman,,,,,"{""Q0"":""ruth is kissing beth""}","<img src=""stim_listB/kiss7.gif""style=""height:400px;""></stim_listB>",is kissing,
null,"<div style=""font-size:60px;"">+</div>",,html-keyboard-response,338,1074011,0.0-17.0-0.18,28069,List2B,white,woman,,,,null,,,,
null,"<img src=""stim_listB/shout8.gif""style=""height:400px;""></stim_listB>",,html-keyboard-response,339,1076022,0.0-17.0-1.18,28069,List2B,white,woman,,,,null,,,,
null,are shouting at each other,,html-keyboard-response,340,1078031,0.0-17.0-2.18,28069,List2B,white,woman,,,,null,,,,
9692,,,survey-text,341,1087723,0.0-17.0-3.18,28069,List2B,white,woman,,,,,"{""Q0"":""kate and jane are shouting at each other""}","<img src=""stim_listB/shout8.gif""style=""height:400px;""></stim_listB>",are shouting at each other,
null,"<div style=""font-size:60px;"">+</div>",,html-keyboard-response,342,1088231,0.0-17.0-0.19,28069,List2B,white,woman,,,,null,,,,
null,"<img src=""stim_listB/play8.gif""style=""height:400px;""></stim_listB>",,html-keyboard-response,343,1090249,0.0-17.0-1.19,28069,List2B,white,woman,,,,null,,,,
null,are playing with each other,,html-keyboard-response,344,1092261,0.0-17.0-2.19,28069,List2B,white,woman,,,,null,,,,
11883,,,survey-text,345,1104144,0.0-17.0-3.19,28069,List2B,white,woman,,,,,"{""Q0"":""ruth and beth are playing with each other""}","<img src=""stim_listB/play8.gif""style=""height:400px;""></stim_listB>",are playing with each other,
5277,"<img src='img/portrait_matrix_list2.jpg' style='width:900px;height:500px;''></img><p>If you have memorised all the portraits and names and are ready to start, press Continue.</p><p><strong>Please note: Your memory of these faces will be tested 4 times during this experiment.</strong></p>",0,html-button-response,346,1109425,0.0-18.0-0.0,28069,List2B,white,woman,,,,,,,,
1533,"<img src=""portrait/WW2.jpg""style=""height:400px;""></img>",3,html-button-response,347,1111967,0.0-18.0-1.0,28069,List2B,white,woman,,TRUE,3,,,,,
null,CORRECT,,html-keyboard-response,348,1113481,0.0-18.0-2.0-0.0,28069,List2B,white,woman,,,,null,,,,
1509,"<img src=""portrait/WM1.jpg""style=""height:400px;""></img>",6,html-button-response,349,1114993,0.0-18.0-4.0,28069,List2B,white,woman,,TRUE,6,,,,,
null,CORRECT,,html-keyboard-response,350,1116511,0.0-18.0-5.0-0.0,28069,List2B,white,woman,,,,null,,,,
1957,"<img src=""portrait/BW1.jpg""style=""height:400px;""></img>",0,html-button-response,351,1118470,0.0-18.0-7.0,28069,List2B,white,woman,,TRUE,0,,,,,
null,CORRECT,,html-keyboard-response,352,1120001,0.0-18.0-8.0-0.0,28069,List2B,white,woman,,,,null,,,,
1252,"<img src=""portrait/BM2.jpg""style=""height:400px;""></img>",5,html-button-response,353,1121255,0.0-18.0-10.0,28069,List2B,white,woman,,TRUE,5,,,,,
null,CORRECT,,html-keyboard-response,354,1122781,0.0-18.0-11.0-0.0,28069,List2B,white,woman,,,,null,,,,
1542,"<img src=""portrait/WW1.jpg""style=""height:400px;""></img>",1,html-button-response,355,1124326,0.0-18.0-13.0,28069,List2B,white,woman,,TRUE,1,,,,,
null,CORRECT,,html-keyboard-response,356,1125861,0.0-18.0-14.0-0.0,28069,List2B,white,woman,,,,null,,,,
1780,"<img src=""portrait/BM1.jpg""style=""height:400px;""></img>",4,html-button-response,357,1127643,0.0-18.0-16.0,28069,List2B,white,woman,,TRUE,4,,,,,
null,CORRECT,,html-keyboard-response,358,1129172,0.0-18.0-17.0-0.0,28069,List2B,white,woman,,,,null,,,,
1456,"<img src=""portrait/BW2.jpg""style=""height:400px;""></img>",2,html-button-response,359,1130629,0.0-18.0-19.0,28069,List2B,white,woman,,TRUE,2,,,,,
null,CORRECT,,html-keyboard-response,360,1132154,0.0-18.0-20.0-0.0,28069,List2B,white,woman,,,,null,,,,
1660,"<img src=""portrait/WM2.jpg""style=""height:400px;""></img>",7,html-button-response,361,1133816,0.0-18.0-22.0,28069,List2B,white,woman,,TRUE,7,,,,,
null,CORRECT,,html-keyboard-response,362,1135341,0.0-18.0-23.0-0.0,28069,List2B,white,woman,,,,null,,,,
1090,<p>You got 8 out of 8 right first time. Press Continue.</p>,0,html-button-response,363,1136434,0.0-18.0-25.0,28069,List2B,white,woman,,,,,,,,
null,"<div style=""font-size:60px;"">+</div>",,html-keyboard-response,364,1137971,0.0-19.0-0.0,28069,List2B,white,woman,,,,null,,,,
null,"<img src=""stim_listB/marry1.gif""style=""height:400px;""></stim_listB>",,html-keyboard-response,365,1139986,0.0-19.0-1.0,28069,List2B,white,woman,,,,null,,,,
null,is marrying,,html-keyboard-response,366,1142000,0.0-19.0-2.0,28069,List2B,white,woman,,,,null,,,,
6178,,,survey-text,367,1148178,0.0-19.0-3.0,28069,List2B,white,woman,,,,,"{""Q0"":""ruth is marrying dave""}","<img src=""stim_listB/marry1.gif""style=""height:400px;""></stim_listB>",is marrying,
null,"<div style=""font-size:60px;"">+</div>",,html-keyboard-response,368,1148691,0.0-19.0-0.1,28069,List2B,white,woman,,,,null,,,,
null,"<img src=""stim_listB/flirt6.gif""style=""height:400px;""></stim_listB>",,html-keyboard-response,369,1150701,0.0-19.0-1.1,28069,List2B,white,woman,,,,null,,,,
null,are flirting with each other,,html-keyboard-response,370,1152720,0.0-19.0-2.1,28069,List2B,white,woman,,,,null,,,,
9543,,,survey-text,371,1162265,0.0-19.0-3.1,28069,List2B,white,woman,,,,,"{""Q0"":""fred and dave are flirting with each other""}","<img src=""stim_listB/flirt6.gif""style=""height:400px;""></stim_listB>",are flirting with each other,
null,"<div style=""font-size:60px;"">+</div>",,html-keyboard-response,372,1162771,0.0-19.0-0.2,28069,List2B,white,woman,,,,null,,,,
null,"<img src=""stim_listB/flirt7.gif""style=""height:400px;""></stim_listB>",,html-keyboard-response,373,1164780,0.0-19.0-1.2,28069,List2B,white,woman,,,,null,,,,
null,is flirting with,,html-keyboard-response,374,1166793,0.0-19.0-2.2,28069,List2B,white,woman,,,,null,,,,
8215,,,survey-text,375,1175009,0.0-19.0-3.2,28069,List2B,white,woman,,,,,"{""Q0"":""kate is flirting with ruth""}","<img src=""stim_listB/flirt7.gif""style=""height:400px;""></stim_listB>",is flirting with,
null,"<div style=""font-size:60px;"">+</div>",,html-keyboard-response,376,1175511,0.0-19.0-0.3,28069,List2B,white,woman,,,,null,,,,
null,"<img src=""stim_listB/marry8.gif""style=""height:400px;""></stim_listB>",,html-keyboard-response,377,1177526,0.0-19.0-1.3,28069,List2B,white,woman,,,,null,,,,
null,are marrying each other,,html-keyboard-response,378,1179542,0.0-19.0-2.3,28069,List2B,white,woman,,,,null,,,,
8661,,,survey-text,379,1188205,0.0-19.0-3.3,28069,List2B,white,woman,,,,,"{""Q0"":""kate and ruth are marrying each other""}","<img src=""stim_listB/marry8.gif""style=""height:400px;""></stim_listB>",are marrying each other,
null,"<div style=""font-size:60px;"">+</div>",,html-keyboard-response,380,1188721,0.0-19.0-0.4,28069,List2B,white,woman,,,,null,,,,
null,"<img src=""stim_listB/kiss3.gif""style=""height:400px;""></stim_listB>",,html-keyboard-response,381,1190739,0.0-19.0-1.4,28069,List2B,white,woman,,,,null,,,,
null,is kissing,,html-keyboard-response,382,1192752,0.0-19.0-2.4,28069,List2B,white,woman,,,,null,,,,
5541,,,survey-text,383,1198293,0.0-19.0-3.4,28069,List2B,white,woman,,,,,"{""Q0"":""beth is kissing fred""}","<img src=""stim_listB/kiss3.gif""style=""height:400px;""></stim_listB>",is kissing,
null,"<div style=""font-size:60px;"">+</div>",,html-keyboard-response,384,1198811,0.0-19.0-0.5,28069,List2B,white,woman,,,,null,,,,
null,"<img src=""stim_listB/play6.gif""style=""height:400px;""></stim_listB>",,html-keyboard-response,385,1200821,0.0-19.0-1.5,28069,List2B,white,woman,,,,null,,,,
null,are playing with each other,,html-keyboard-response,386,1202831,0.0-19.0-2.5,28069,List2B,white,woman,,,,null,,,,
8427,,,survey-text,387,1211259,0.0-19.0-3.5,28069,List2B,white,woman,,,,,"{""Q0"":""fred and luke are playing with each other""}","<img src=""stim_listB/play6.gif""style=""height:400px;""></stim_listB>",are playing with each other,
null,"<div style=""font-size:60px;"">+</div>",,html-keyboard-response,388,1211761,0.0-19.0-0.6,28069,List2B,white,woman,,,,null,,,,
null,"<img src=""stim_listB/flirt1.gif""style=""height:400px;""></stim_listB>",,html-keyboard-response,389,1213768,0.0-19.0-1.6,28069,List2B,white,woman,,,,null,,,,
null,is flirting with,,html-keyboard-response,390,1215780,0.0-19.0-2.6,28069,List2B,white,woman,,,,null,,,,
7561,,,survey-text,391,1223344,0.0-19.0-3.6,28069,List2B,white,woman,,,,,"{""Q0"":""jane is flirting with luke""}","<img src=""stim_listB/flirt1.gif""style=""height:400px;""></stim_listB>",is flirting with,
null,"<div style=""font-size:60px;"">+</div>",,html-keyboard-response,392,1223862,0.0-19.0-0.7,28069,List2B,white,woman,,,,null,,,,
null,"<img src=""stim_listB/shout6.gif""style=""height:400px;""></stim_listB>",,html-keyboard-response,393,1225866,0.0-19.0-1.7,28069,List2B,white,woman,,,,null,,,,
null,are shouting at each other,,html-keyboard-response,394,1227881,0.0-19.0-2.7,28069,List2B,white,woman,,,,null,,,,
11681,,,survey-text,395,1239563,0.0-19.0-3.7,28069,List2B,white,woman,,,,,"{""Q0"":""mike and dave are shouting at each other""}","<img src=""stim_listB/shout6.gif""style=""height:400px;""></stim_listB>",are shouting at each other,
null,"<div style=""font-size:60px;"">+</div>",,html-keyboard-response,396,1240072,0.0-19.0-0.8,28069,List2B,white,woman,,,,null,,,,
null,"<img src=""stim_listB/talk6.gif""style=""height:400px;""></stim_listB>",,html-keyboard-response,397,1242081,0.0-19.0-1.8,28069,List2B,white,woman,,,,null,,,,
null,are talking to each other,,html-keyboard-response,398,1244086,0.0-19.0-2.8,28069,List2B,white,woman,,,,null,,,,
8368,,,survey-text,399,1252455,0.0-19.0-3.8,28069,List2B,white,woman,,,,,"{""Q0"":""dave and fred are talking to each other""}","<img src=""stim_listB/talk6.gif""style=""height:400px;""></stim_listB>",are talking to each other,
null,"<div style=""font-size:60px;"">+</div>",,html-keyboard-response,400,1252972,0.0-19.0-0.9,28069,List2B,white,woman,,,,null,,,,
null,"<img src=""stim_listB/talk8.gif""style=""height:400px;""></stim_listB>",,html-keyboard-response,401,1254985,0.0-19.0-1.9,28069,List2B,white,woman,,,,null,,,,
null,are talking to each other,,html-keyboard-response,402,1256991,0.0-19.0-2.9,28069,List2B,white,woman,,,,null,,,,
7816,,,survey-text,403,1264808,0.0-19.0-3.9,28069,List2B,white,woman,,,,,"{""Q0"":""beth and jane are talking to each other""}","<img src=""stim_listB/talk8.gif""style=""height:400px;""></stim_listB>",are talking to each other,
null,"<div style=""font-size:60px;"">+</div>",,html-keyboard-response,404,1265322,0.0-19.0-0.10,28069,List2B,white,woman,,,,null,,,,
null,"<img src=""stim_listB/fight6.gif""style=""height:400px;""></stim_listB>",,html-keyboard-response,405,1267331,0.0-19.0-1.10,28069,List2B,white,woman,,,,null,,,,
null,are fighting each other,,html-keyboard-response,406,1269341,0.0-19.0-2.10,28069,List2B,white,woman,,,,null,,,,
8955,,,survey-text,407,1278298,0.0-19.0-3.10,28069,List2B,white,woman,,,,,"{""Q0"":""luke and fred are fighting each other""}","<img src=""stim_listB/fight6.gif""style=""height:400px;""></stim_listB>",are fighting each other,
null,"<div style=""font-size:60px;"">+</div>",,html-keyboard-response,408,1278811,0.0-19.0-0.11,28069,List2B,white,woman,,,,null,,,,
null,"<img src=""stim_listB/touch3.gif""style=""height:400px;""></stim_listB>",,html-keyboard-response,409,1280827,0.0-19.0-1.11,28069,List2B,white,woman,,,,null,,,,
null,is touching,,html-keyboard-response,410,1282828,0.0-19.0-2.11,28069,List2B,white,woman,,,,null,,,,
8795,,,survey-text,411,1291624,0.0-19.0-3.11,28069,List2B,white,woman,,,,,"{""Q0"":""mike is touching kate""}","<img src=""stim_listB/touch3.gif""style=""height:400px;""></stim_listB>",is touching,
null,"<div style=""font-size:60px;"">+</div>",,html-keyboard-response,412,1292141,0.0-19.0-0.12,28069,List2B,white,woman,,,,null,,,,
null,"<img src=""stim_listB/touch2.gif""style=""height:400px;""></stim_listB>",,html-keyboard-response,413,1294156,0.0-19.0-1.12,28069,List2B,white,woman,,,,null,,,,
null,are touching each other,,html-keyboard-response,414,1296172,0.0-19.0-2.12,28069,List2B,white,woman,,,,null,,,,
8130,,,survey-text,415,1304303,0.0-19.0-3.12,28069,List2B,white,woman,,,,,"{""Q0"":""ruth and luke are touching each other""}","<img src=""stim_listB/touch2.gif""style=""height:400px;""></stim_listB>",are touching each other,
null,"<div style=""font-size:60px;"">+</div>",,html-keyboard-response,416,1304820,0.0-19.0-0.13,28069,List2B,white,woman,,,,null,,,,
null,"<img src=""stim_listB/touch7.gif""style=""height:400px;""></stim_listB>",,html-keyboard-response,417,1306836,0.0-19.0-1.13,28069,List2B,white,woman,,,,null,,,,
null,is touching,,html-keyboard-response,418,1308852,0.0-19.0-2.13,28069,List2B,white,woman,,,,null,,,,
5292,,,survey-text,419,1314146,0.0-19.0-3.13,28069,List2B,white,woman,,,,,"{""Q0"":""kate is touching jane""}","<img src=""stim_listB/touch7.gif""style=""height:400px;""></stim_listB>",is touching,
null,"<div style=""font-size:60px;"">+</div>",,html-keyboard-response,420,1314661,0.0-19.0-0.14,28069,List2B,white,woman,,,,null,,,,
null,"<img src=""stim_listB/argue6.gif""style=""height:400px;""></stim_listB>",,html-keyboard-response,421,1316670,0.0-19.0-1.14,28069,List2B,white,woman,,,,null,,,,
null,are arguing with each other,,html-keyboard-response,422,1318672,0.0-19.0-2.14,28069,List2B,white,woman,,,,null,,,,
9462,,,survey-text,423,1328135,0.0-19.0-3.14,28069,List2B,white,woman,,,,,"{""Q0"":""luke and mike are arguing with each other""}","<img src=""stim_listB/argue6.gif""style=""height:400px;""></stim_listB>",are arguing with each other,
null,"<div style=""font-size:60px;"">+</div>",,html-keyboard-response,424,1328651,0.0-19.0-0.15,28069,List2B,white,woman,,,,null,,,,
null,"<img src=""stim_listB/touch4.gif""style=""height:400px;""></stim_listB>",,html-keyboard-response,425,1330664,0.0-19.0-1.15,28069,List2B,white,woman,,,,null,,,,
null,are touching each other,,html-keyboard-response,426,1332670,0.0-19.0-2.15,28069,List2B,white,woman,,,,null,,,,
8546,,,survey-text,427,1341218,0.0-19.0-3.15,28069,List2B,white,woman,,,,,"{""Q0"":""beth and fred are touching each other""}","<img src=""stim_listB/touch4.gif""style=""height:400px;""></stim_listB>",are touching each other,
null,"<div style=""font-size:60px;"">+</div>",,html-keyboard-response,428,1341731,0.0-19.0-0.16,28069,List2B,white,woman,,,,null,,,,
null,"<img src=""stim_listB/dance7.gif""style=""height:400px;""></stim_listB>",,html-keyboard-response,429,1343742,0.0-19.0-1.16,28069,List2B,white,woman,,,,null,,,,
null,is dancing with,,html-keyboard-response,430,1345752,0.0-19.0-2.16,28069,List2B,white,woman,,,,null,,,,
7036,,,survey-text,431,1352788,0.0-19.0-3.16,28069,List2B,white,woman,,,,,"{""Q0"":""ruth is dancing with kate""}","<img src=""stim_listB/dance7.gif""style=""height:400px;""></stim_listB>",is dancing with,
null,"<div style=""font-size:60px;"">+</div>",,html-keyboard-response,432,1353292,0.0-19.0-0.17,28069,List2B,white,woman,,,,null,,,,
null,"<img src=""stim_listB/talk2.gif""style=""height:400px;""></stim_listB>",,html-keyboard-response,433,1355308,0.0-19.0-1.17,28069,List2B,white,woman,,,,null,,,,
null,are talking to each other,,html-keyboard-response,434,1357320,0.0-19.0-2.17,28069,List2B,white,woman,,,,null,,,,
8236,,,survey-text,435,1365558,0.0-19.0-3.17,28069,List2B,white,woman,,,,,"{""Q0"":""ruth and dave are talking to each other""}","<img src=""stim_listB/talk2.gif""style=""height:400px;""></stim_listB>",are talking to each other,
null,"<div style=""font-size:60px;"">+</div>",,html-keyboard-response,436,1366063,0.0-19.0-0.18,28069,List2B,white,woman,,,,null,,,,
null,"<img src=""stim_listB/dance2.gif""style=""height:400px;""></stim_listB>",,html-keyboard-response,437,1368071,0.0-19.0-1.18,28069,List2B,white,woman,,,,null,,,,
null,are dancing with each other,,html-keyboard-response,438,1370081,0.0-19.0-2.18,28069,List2B,white,woman,,,,null,,,,
13746,,,survey-text,439,1383829,0.0-19.0-3.18,28069,List2B,white,woman,,,,,"{""Q0"":""ruth and dave are dancing with each other""}","<img src=""stim_listB/dance2.gif""style=""height:400px;""></stim_listB>",are dancing with each other,
null,"<div style=""font-size:60px;"">+</div>",,html-keyboard-response,440,1384331,0.0-19.0-0.19,28069,List2B,white,woman,,,,null,,,,
null,"<img src=""stim_listB/play4.gif""style=""height:400px;""></stim_listB>",,html-keyboard-response,441,1386341,0.0-19.0-1.19,28069,List2B,white,woman,,,,null,,,,
null,are playing with each other,,html-keyboard-response,442,1388354,0.0-19.0-2.19,28069,List2B,white,woman,,,,null,,,,
11705,,,survey-text,443,1400061,0.0-19.0-3.19,28069,List2B,white,woman,,,,,"{""Q0"":""beth and fred are playing with each other""}","<img src=""stim_listB/play4.gif""style=""height:400px;""></stim_listB>",are playing with each other,
1296,<p>Thank you for completing that task.</p><p>The final part of this session is a short questionnaire.</p><p>Press Continue.</p>,0,html-button-response,444,1401359,0.0-20.0,28069,List2B,white,woman,,,,,,,,
38336,,,survey-text,445,1440711,0.0-21.0,28069,List2B,white,woman,,,,,"{""Q0"":""30"",""Q1"":""English"",""Q2"":""English"",""Q3"":""United Kingdom"",""Q4"":""White British/Caucasian"",""Q5"":""Female""}",,,demographics
9206,,,survey-likert,446,1449920,0.0-22.0,28069,List2B,white,woman,,,,,"{""Q0"":4}",,,likert_ESS
8927,,,survey-likert,447,1458851,0.0-23.0,28069,List2B,white,woman,,,,,"{""Q0"":4}",,,likert_NSSAL_Q1
2771,,,survey-likert,448,1461624,0.0-24.0,28069,List2B,white,woman,,,,,"{""Q0"":4}",,,likert_NSSAL_Q2
5765,,,survey-likert,449,1467394,0.0-25.0,28069,List2B,white,woman,,,,,"{""Q0"":4}",,,likert_CGRS_Q1
2763,,,survey-likert,450,1470159,0.0-26.0,28069,List2B,white,woman,,,,,"{""Q0"":4}",,,likert_CGRS_Q2
2226,,,survey-likert,451,1472387,0.0-27.0,28069,List2B,white,woman,,,,,"{""Q0"":4}",,,likert_CGRS_Q3
3550,,,survey-text,452,1475938,0.0-28.0,28069,List2B,white,woman,,,,,"{""Q0"":""ccc""}",,,worker_id
19800,,,external-html,453,1495828,0.0-29.0,28069,List2B,white,woman,debrief.html,,,,,,,
