rt,stimulus,button_pressed,trial_type,trial_index,time_elapsed,internal_node_id,subject,list,ppt_race,ppt_gender,url,first_guess,correct,key_press,responses,image_type,phrase_type,test_part
2106,Welcome to the experiment. Press Continue to begin.,0,html-button-response,0,2109,0.0-0.0,28693,List1B,white,man,,,,,,,,
39531,,,external-html,1,42697,0.0-1.0,28693,List1B,white,man,consent.html,,,,,,,
8556,"<p>On the next page, you will see portraits of 8 people and their names.</p><p>Your first task is to take a few minutes to memorise the names of these people.</p><p>You will have to recall their names during the rest of the experiment, so it is</p><p>essential that you try to memorise these people and their names as best as you can.</p><br><p><strong>You will then be tested on your memory of these names and portraits.</strong></p><br><p>The experiment will start after you have completed this memory test.</p><br><p>Ready?</p>",0,html-button-response,2,51254,0.0-2.0,28693,List1B,white,man,,,,,,,,
86819,"<img src='img/portrait_matrix_list1.jpg' style='width:900px;height:500px;''></img><p>If you have memorised all the portraits and names and are ready to start, press Continue.</p><p><strong>Please note: Your memory of these faces will be tested 4 times during this experiment.</strong></p>",0,html-button-response,3,139078,0.0-3.0-0.0,28693,List1B,white,man,,,,,,,,
10353,"<img src=""portrait/WW1.jpg""style=""height:400px;""></img>",1,html-button-response,4,150435,0.0-3.0-1.0,28693,List1B,white,man,,TRUE,1,,,,,
null,CORRECT,,html-keyboard-response,5,151942,0.0-3.0-2.0-0.0,28693,List1B,white,man,,,,null,,,,
3412,"<img src=""portrait/WM1.jpg""style=""height:400px;""></img>",6,html-button-response,6,155358,0.0-3.0-4.0,28693,List1B,white,man,,TRUE,6,,,,,
null,CORRECT,,html-keyboard-response,7,156866,0.0-3.0-5.0-0.0,28693,List1B,white,man,,,,null,,,,
4546,"<img src=""portrait/WW2.jpg""style=""height:400px;""></img>",3,html-button-response,8,161415,0.0-3.0-7.0,28693,List1B,white,man,,TRUE,3,,,,,
null,CORRECT,,html-keyboard-response,9,162920,0.0-3.0-8.0-0.0,28693,List1B,white,man,,,,null,,,,
8456,"<img src=""portrait/BW1.jpg""style=""height:400px;""></img>",2,html-button-response,10,171378,0.0-3.0-10.0,28693,List1B,white,man,,TRUE,0,,,,,
7255,"<img src=""portrait/BW1.jpg""style=""height:400px;""></img>",0,html-button-response,11,179636,0.0-3.0-12.0-0.0,28693,List1B,white,man,,FALSE,0,,,,,
null,CORRECT,,html-keyboard-response,12,181142,0.0-3.0-12.0-1.0-0.0,28693,List1B,white,man,,,,null,,,,
8195,"<img src=""portrait/WM2.jpg""style=""height:400px;""></img>",7,html-button-response,13,189339,0.0-3.0-13.0,28693,List1B,white,man,,TRUE,7,,,,,
null,CORRECT,,html-keyboard-response,14,190842,0.0-3.0-14.0-0.0,28693,List1B,white,man,,,,null,,,,
8323,"<img src=""portrait/BW2.jpg""style=""height:400px;""></img>",2,html-button-response,15,199166,0.0-3.0-16.0,28693,List1B,white,man,,TRUE,2,,,,,
null,CORRECT,,html-keyboard-response,16,200671,0.0-3.0-17.0-0.0,28693,List1B,white,man,,,,null,,,,
9680,"<img src=""portrait/BM2.jpg""style=""height:400px;""></img>",5,html-button-response,17,210353,0.0-3.0-19.0,28693,List1B,white,man,,TRUE,5,,,,,
null,CORRECT,,html-keyboard-response,18,211856,0.0-3.0-20.0-0.0,28693,List1B,white,man,,,,null,,,,
1491,"<img src=""portrait/BM1.jpg""style=""height:400px;""></img>",4,html-button-response,19,213350,0.0-3.0-22.0,28693,List1B,white,man,,TRUE,4,,,,,
null,CORRECT,,html-keyboard-response,20,214854,0.0-3.0-23.0-0.0,28693,List1B,white,man,,,,null,,,,
4457,<p>You got 7 out of 8 right first time. Press Continue.</p>,0,html-button-response,21,219315,0.0-3.0-25.0,28693,List1B,white,man,,,,,,,,
7298,"As you did not score 100%, the memory game will repeat. Press Continue.",0,html-button-response,22,227615,0.0-3.0-26.0-0.0,28693,List1B,white,man,,,,,,,,
39036,"<img src='img/portrait_matrix_list1.jpg' style='width:900px;height:500px;''></img><p>If you have memorised all the portraits and names and are ready to start, press Continue.</p><p><strong>Please note: Your memory of these faces will be tested 4 times during this experiment.</strong></p>",0,html-button-response,23,267655,0.0-3.1-0.1,28693,List1B,white,man,,,,,,,,
5991,"<img src=""portrait/WW1.jpg""style=""height:400px;""></img>",1,html-button-response,24,274649,0.0-3.1-1.1,28693,List1B,white,man,,TRUE,1,,,,,
null,CORRECT,,html-keyboard-response,25,276153,0.0-3.1-2.1-0.1,28693,List1B,white,man,,,,null,,,,
3289,"<img src=""portrait/WM1.jpg""style=""height:400px;""></img>",6,html-button-response,26,279444,0.0-3.1-4.1,28693,List1B,white,man,,TRUE,6,,,,,
null,CORRECT,,html-keyboard-response,27,280948,0.0-3.1-5.1-0.1,28693,List1B,white,man,,,,null,,,,
3745,"<img src=""portrait/WW2.jpg""style=""height:400px;""></img>",3,html-button-response,28,284695,0.0-3.1-7.1,28693,List1B,white,man,,TRUE,3,,,,,
null,CORRECT,,html-keyboard-response,29,286198,0.0-3.1-8.1-0.1,28693,List1B,white,man,,,,null,,,,
5215,"<img src=""portrait/BW1.jpg""style=""height:400px;""></img>",0,html-button-response,30,291415,0.0-3.1-10.1,28693,List1B,white,man,,TRUE,0,,,,,
null,CORRECT,,html-keyboard-response,31,292918,0.0-3.1-11.1-0.1,28693,List1B,white,man,,,,null,,,,
3708,"<img src=""portrait/WM2.jpg""style=""height:400px;""></img>",7,html-button-response,32,296628,0.0-3.1-13.1,28693,List1B,white,man,,TRUE,7,,,,,
null,CORRECT,,html-keyboard-response,33,298132,0.0-3.1-14.1-0.1,28693,List1B,white,man,,,,null,,,,
5025,"<img src=""portrait/BW2.jpg""style=""height:400px;""></img>",2,html-button-response,34,303160,0.0-3.1-16.1,28693,List1B,white,man,,TRUE,2,,,,,
null,CORRECT,,html-keyboard-response,35,304665,0.0-3.1-17.1-0.1,28693,List1B,white,man,,,,null,,,,
3476,"<img src=""portrait/BM2.jpg""style=""height:400px;""></img>",5,html-button-response,36,308144,0.0-3.1-19.1,28693,List1B,white,man,,TRUE,5,,,,,
null,CORRECT,,html-keyboard-response,37,309649,0.0-3.1-20.1-0.1,28693,List1B,white,man,,,,null,,,,
2644,"<img src=""portrait/BM1.jpg""style=""height:400px;""></img>",4,html-button-response,38,312296,0.0-3.1-22.1,28693,List1B,white,man,,TRUE,4,,,,,
null,CORRECT,,html-keyboard-response,39,313800,0.0-3.1-23.1-0.1,28693,List1B,white,man,,,,null,,,,
1861,<p>You got 8 out of 8 right first time. Press Continue.</p>,0,html-button-response,40,315662,0.0-3.1-25.1,28693,List1B,white,man,,,,,,,,
32384,"<p>In this experiment, you will view photographs of the people from the memory game interacting.</p><p>By using the <strong>exact</strong> phrase given <i>after</i> the photograph appears and recalling the correct names of the people in the photographs, form a sentence describing the interaction. You do not need to capitalise names.</p><p>Type your answer in the space provided. Please complete every sentence before moving onto the next trial.</p><p>You will only have a few seconds to memorise each given photograph and phrase before you can respond, so try your best to focus.</p><p>An example is given below. Press 'Continue' when you are ready.</p><img src='img/speaking_example.jpg' style='width:800px;height:460px;''></img>",0,html-button-response,41,349050,0.0-4.0,28693,List1B,white,man,,,,,,,,
1987,"<p>Before the experiment starts, you will watch two example trials. Press 'Continue'.</p>",0,html-button-response,42,352041,0.0-5.0,28693,List1B,white,man,,,,,,,,
null,<img src='img/meet_eg.gif' style='height:400px;''></img>,,html-keyboard-response,43,355047,0.0-6.0,28693,List1B,white,man,,,,null,,,,
null,<p>is meeting</p>,,html-keyboard-response,44,357050,0.0-7.0,28693,List1B,white,man,,,,null,,,,
2688,<p><b>Answer:</b> kate is meeting beth</p>,0,html-button-response,45,359740,0.0-8.0,28693,List1B,white,man,,,,,,,,
null,<img src='img/look_eg.gif' style='height:400px;''></img>,,html-keyboard-response,46,362744,0.0-9.0,28693,List1B,white,man,,,,null,,,,
null,<p>are looking at each other</p>,,html-keyboard-response,47,364746,0.0-10.0,28693,List1B,white,man,,,,null,,,,
1764,<p><b>Answer:</b> luke and dave are looking at each other</p>,0,html-button-response,48,366512,0.0-11.0,28693,List1B,white,man,,,,,,,,
17446,"<p>Ready to start the experiment?</p><br><p><strong>Remember to describe the picture using a full sentence,</strong></p><p><strong>that combines the names of the people with the <i>exact</i> phrase given.</strong></p><p><strong>To receive full payment you must do this correctly.</strong></p><p><strong> You do not need to capitalise names or use punctuation.</strong></p><br><p>Press 'Continue' to begin.</p>",0,html-button-response,49,384961,0.0-12.0,28693,List1B,white,man,,,,,,,,
null,"<div style=""font-size:60px;"">+</div>",,html-keyboard-response,50,386465,0.0-13.0-0.0,28693,List1B,white,man,,,,null,,,,
null,"<img src=""stim_listB/fight1.gif""style=""height:400px;""></stim_listB>",,html-keyboard-response,51,388470,0.0-13.0-1.0,28693,List1B,white,man,,,,null,,,,
null,is fighting,,html-keyboard-response,52,390472,0.0-13.0-2.0,28693,List1B,white,man,,,,null,,,,
24254,,,survey-text,53,414728,0.0-13.0-3.0,28693,List1B,white,man,,,,,"{""Q0"":""Mike and kate are sparring with each other""}","<img src=""stim_listB/fight1.gif""style=""height:400px;""></stim_listB>",is fighting,
null,"<div style=""font-size:60px;"">+</div>",,html-keyboard-response,54,415231,0.0-13.0-0.1,28693,List1B,white,man,,,,null,,,,
null,"<img src=""stim_listB/touch4.gif""style=""height:400px;""></stim_listB>",,html-keyboard-response,55,417234,0.0-13.0-1.1,28693,List1B,white,man,,,,null,,,,
null,are touching each other,,html-keyboard-response,56,419235,0.0-13.0-2.1,28693,List1B,white,man,,,,null,,,,
30950,,,survey-text,57,450186,0.0-13.0-3.1,28693,List1B,white,man,,,,,"{""Q0"":""Luke and ruth are placing one hand on each others hand""}","<img src=""stim_listB/touch4.gif""style=""height:400px;""></stim_listB>",are touching each other,
null,"<div style=""font-size:60px;"">+</div>",,html-keyboard-response,58,450689,0.0-13.0-0.2,28693,List1B,white,man,,,,null,,,,
null,"<img src=""stim_listB/argue4.gif""style=""height:400px;""></stim_listB>",,html-keyboard-response,59,452698,0.0-13.0-1.2,28693,List1B,white,man,,,,null,,,,
null,are arguing with each other,,html-keyboard-response,60,454700,0.0-13.0-2.2,28693,List1B,white,man,,,,null,,,,
26022,,,survey-text,61,480724,0.0-13.0-3.2,28693,List1B,white,man,,,,,"{""Q0"":""Luke and Jane are facing each other""}","<img src=""stim_listB/argue4.gif""style=""height:400px;""></stim_listB>",are arguing with each other,
null,"<div style=""font-size:60px;"">+</div>",,html-keyboard-response,62,481227,0.0-13.0-0.3,28693,List1B,white,man,,,,null,,,,
null,"<img src=""stim_listB/argue6.gif""style=""height:400px;""></stim_listB>",,html-keyboard-response,63,483229,0.0-13.0-1.3,28693,List1B,white,man,,,,null,,,,
null,are arguing with each other,,html-keyboard-response,64,485230,0.0-13.0-2.3,28693,List1B,white,man,,,,null,,,,
21945,,,survey-text,65,507178,0.0-13.0-3.3,28693,List1B,white,man,,,,,"{""Q0"":""Fred and Dave are discussing something""}","<img src=""stim_listB/argue6.gif""style=""height:400px;""></stim_listB>",are arguing with each other,
null,"<div style=""font-size:60px;"">+</div>",,html-keyboard-response,66,507680,0.0-13.0-0.4,28693,List1B,white,man,,,,null,,,,
null,"<img src=""stim_listB/argue7.gif""style=""height:400px;""></stim_listB>",,html-keyboard-response,67,509686,0.0-13.0-1.4,28693,List1B,white,man,,,,null,,,,
null,is arguing with,,html-keyboard-response,68,511689,0.0-13.0-2.4,28693,List1B,white,man,,,,null,,,,
26783,,,survey-text,69,538473,0.0-13.0-3.4,28693,List1B,white,man,,,,,"{""Q0"":""Ruth and Kate are being argumentative""}","<img src=""stim_listB/argue7.gif""style=""height:400px;""></stim_listB>",is arguing with,
null,"<div style=""font-size:60px;"">+</div>",,html-keyboard-response,70,538976,0.0-13.0-0.5,28693,List1B,white,man,,,,null,,,,
null,"<img src=""stim_listB/touch6.gif""style=""height:400px;""></stim_listB>",,html-keyboard-response,71,540978,0.0-13.0-1.5,28693,List1B,white,man,,,,null,,,,
null,are touching each other,,html-keyboard-response,72,542980,0.0-13.0-2.5,28693,List1B,white,man,,,,null,,,,
35996,,,survey-text,73,578978,0.0-13.0-3.5,28693,List1B,white,man,,,,,"{""Q0"":""Fred and Dave are placing one hand to hand""}","<img src=""stim_listB/touch6.gif""style=""height:400px;""></stim_listB>",are touching each other,
null,"<div style=""font-size:60px;"">+</div>",,html-keyboard-response,74,579481,0.0-13.0-0.6,28693,List1B,white,man,,,,null,,,,
null,"<img src=""stim_listB/argue3.gif""style=""height:400px;""></stim_listB>",,html-keyboard-response,75,581483,0.0-13.0-1.6,28693,List1B,white,man,,,,null,,,,
null,is arguing with,,html-keyboard-response,76,583487,0.0-13.0-2.6,28693,List1B,white,man,,,,null,,,,
17225,,,survey-text,77,600712,0.0-13.0-3.6,28693,List1B,white,man,,,,,"{""Q0"":""Ruth and Dave are discussing something""}","<img src=""stim_listB/argue3.gif""style=""height:400px;""></stim_listB>",is arguing with,
null,"<div style=""font-size:60px;"">+</div>",,html-keyboard-response,78,601214,0.0-13.0-0.7,28693,List1B,white,man,,,,null,,,,
null,"<img src=""stim_listB/marry6.gif""style=""height:400px;""></stim_listB>",,html-keyboard-response,79,603219,0.0-13.0-1.7,28693,List1B,white,man,,,,null,,,,
null,are marrying each other,,html-keyboard-response,80,605221,0.0-13.0-2.7,28693,List1B,white,man,,,,null,,,,
16969,,,survey-text,81,622192,0.0-13.0-3.7,28693,List1B,white,man,,,,,"{""Q0"":""Fred and Dave are facing each other clasping hands""}","<img src=""stim_listB/marry6.gif""style=""height:400px;""></stim_listB>",are marrying each other,
null,"<div style=""font-size:60px;"">+</div>",,html-keyboard-response,82,622694,0.0-13.0-0.8,28693,List1B,white,man,,,,null,,,,
null,"<img src=""stim_listB/shout4.gif""style=""height:400px;""></stim_listB>",,html-keyboard-response,83,624698,0.0-13.0-1.8,28693,List1B,white,man,,,,null,,,,
null,are shouting at each other,,html-keyboard-response,84,626699,0.0-13.0-2.8,28693,List1B,white,man,,,,null,,,,
15842,,,survey-text,85,642543,0.0-13.0-3.8,28693,List1B,white,man,,,,,"{""Q0"":""Jane and Dave are surprised to see each other""}","<img src=""stim_listB/shout4.gif""style=""height:400px;""></stim_listB>",are shouting at each other,
null,"<div style=""font-size:60px;"">+</div>",,html-keyboard-response,86,643045,0.0-13.0-0.9,28693,List1B,white,man,,,,null,,,,
null,"<img src=""stim_listB/talk5.gif""style=""height:400px;""></stim_listB>",,html-keyboard-response,87,645050,0.0-13.0-1.9,28693,List1B,white,man,,,,null,,,,
null,is talking to,,html-keyboard-response,88,647053,0.0-13.0-2.9,28693,List1B,white,man,,,,null,,,,
17546,,,survey-text,89,664600,0.0-13.0-3.9,28693,List1B,white,man,,,,,"{""Q0"":""Fred and Dave are talking face to face""}","<img src=""stim_listB/talk5.gif""style=""height:400px;""></stim_listB>",is talking to,
null,"<div style=""font-size:60px;"">+</div>",,html-keyboard-response,90,665103,0.0-13.0-0.10,28693,List1B,white,man,,,,null,,,,
null,"<img src=""stim_listB/play5.gif""style=""height:400px;""></stim_listB>",,html-keyboard-response,91,667108,0.0-13.0-1.10,28693,List1B,white,man,,,,null,,,,
null,is playing with,,html-keyboard-response,92,669110,0.0-13.0-2.10,28693,List1B,white,man,,,,null,,,,
19709,,,survey-text,93,688822,0.0-13.0-3.10,28693,List1B,white,man,,,,,"{""Q0"":""Mike and Dave are playing cards""}","<img src=""stim_listB/play5.gif""style=""height:400px;""></stim_listB>",is playing with,
null,"<div style=""font-size:60px;"">+</div>",,html-keyboard-response,94,689324,0.0-13.0-0.11,28693,List1B,white,man,,,,null,,,,
null,"<img src=""stim_listB/dance4.gif""style=""height:400px;""></stim_listB>",,html-keyboard-response,95,691325,0.0-13.0-1.11,28693,List1B,white,man,,,,null,,,,
null,are dancing with each other,,html-keyboard-response,96,693327,0.0-13.0-2.11,28693,List1B,white,man,,,,null,,,,
19388,,,survey-text,97,712717,0.0-13.0-3.11,28693,List1B,white,man,,,,,"{""Q0"":""Beth and Dave are having a laugh""}","<img src=""stim_listB/dance4.gif""style=""height:400px;""></stim_listB>",are dancing with each other,
null,"<div style=""font-size:60px;"">+</div>",,html-keyboard-response,98,713219,0.0-13.0-0.12,28693,List1B,white,man,,,,null,,,,
null,"<img src=""stim_listB/kiss8.gif""style=""height:400px;""></stim_listB>",,html-keyboard-response,99,715224,0.0-13.0-1.12,28693,List1B,white,man,,,,null,,,,
null,are kissing each other,,html-keyboard-response,100,717226,0.0-13.0-2.12,28693,List1B,white,man,,,,null,,,,
19215,,,survey-text,101,736442,0.0-13.0-3.12,28693,List1B,white,man,,,,,"{""Q0"":""Jane and Kate are fooling around""}","<img src=""stim_listB/kiss8.gif""style=""height:400px;""></stim_listB>",are kissing each other,
null,"<div style=""font-size:60px;"">+</div>",,html-keyboard-response,102,736944,0.0-13.0-0.13,28693,List1B,white,man,,,,null,,,,
null,"<img src=""stim_listB/talk8.gif""style=""height:400px;""></stim_listB>",,html-keyboard-response,103,738948,0.0-13.0-1.13,28693,List1B,white,man,,,,null,,,,
null,are talking to each other,,html-keyboard-response,104,740951,0.0-13.0-2.13,28693,List1B,white,man,,,,null,,,,
25831,,,survey-text,105,766783,0.0-13.0-3.13,28693,List1B,white,man,,,,,"{""Q0"":""Ruth and Kate are talking to each other""}","<img src=""stim_listB/talk8.gif""style=""height:400px;""></stim_listB>",are talking to each other,
null,"<div style=""font-size:60px;"">+</div>",,html-keyboard-response,106,767286,0.0-13.0-0.14,28693,List1B,white,man,,,,null,,,,
null,"<img src=""stim_listB/dance2.gif""style=""height:400px;""></stim_listB>",,html-keyboard-response,107,769290,0.0-13.0-1.14,28693,List1B,white,man,,,,null,,,,
null,are dancing with each other,,html-keyboard-response,108,771293,0.0-13.0-2.14,28693,List1B,white,man,,,,null,,,,
20332,,,survey-text,109,791625,0.0-13.0-3.14,28693,List1B,white,man,,,,,"{""Q0"":""Fred and Kate are dancing with each other""}","<img src=""stim_listB/dance2.gif""style=""height:400px;""></stim_listB>",are dancing with each other,
null,"<div style=""font-size:60px;"">+</div>",,html-keyboard-response,110,792128,0.0-13.0-0.15,28693,List1B,white,man,,,,null,,,,
null,"<img src=""stim_listB/shout5.gif""style=""height:400px;""></stim_listB>",,html-keyboard-response,111,794132,0.0-13.0-1.15,28693,List1B,white,man,,,,null,,,,
null,is shouting at,,html-keyboard-response,112,796135,0.0-13.0-2.15,28693,List1B,white,man,,,,null,,,,
17043,,,survey-text,113,813180,0.0-13.0-3.15,28693,List1B,white,man,,,,,"{""Q0"":""Luke and Fred are shouting at each other""}","<img src=""stim_listB/shout5.gif""style=""height:400px;""></stim_listB>",is shouting at,
null,"<div style=""font-size:60px;"">+</div>",,html-keyboard-response,114,813682,0.0-13.0-0.16,28693,List1B,white,man,,,,null,,,,
null,"<img src=""stim_listB/marry5.gif""style=""height:400px;""></stim_listB>",,html-keyboard-response,115,815687,0.0-13.0-1.16,28693,List1B,white,man,,,,null,,,,
null,is marrying,,html-keyboard-response,116,817690,0.0-13.0-2.16,28693,List1B,white,man,,,,null,,,,
17518,,,survey-text,117,835209,0.0-13.0-3.16,28693,List1B,white,man,,,,,"{""Q0"":""Mike and Luke are marrying each other""}","<img src=""stim_listB/marry5.gif""style=""height:400px;""></stim_listB>",is marrying,
null,"<div style=""font-size:60px;"">+</div>",,html-keyboard-response,118,835711,0.0-13.0-0.17,28693,List1B,white,man,,,,null,,,,
null,"<img src=""stim_listB/shout8.gif""style=""height:400px;""></stim_listB>",,html-keyboard-response,119,837715,0.0-13.0-1.17,28693,List1B,white,man,,,,null,,,,
null,are shouting at each other,,html-keyboard-response,120,839716,0.0-13.0-2.17,28693,List1B,white,man,,,,null,,,,
18032,,,survey-text,121,857749,0.0-13.0-3.17,28693,List1B,white,man,,,,,"{""Q0"":""Kate and Jane are shouting at each other""}","<img src=""stim_listB/shout8.gif""style=""height:400px;""></stim_listB>",are shouting at each other,
null,"<div style=""font-size:60px;"">+</div>",,html-keyboard-response,122,858252,0.0-13.0-0.18,28693,List1B,white,man,,,,null,,,,
null,"<img src=""stim_listB/fight6.gif""style=""height:400px;""></stim_listB>",,html-keyboard-response,123,860254,0.0-13.0-1.18,28693,List1B,white,man,,,,null,,,,
null,are fighting each other,,html-keyboard-response,124,862257,0.0-13.0-2.18,28693,List1B,white,man,,,,null,,,,
16734,,,survey-text,125,878992,0.0-13.0-3.18,28693,List1B,white,man,,,,,"{""Q0"":""Fred and Luke are fighting each other""}","<img src=""stim_listB/fight6.gif""style=""height:400px;""></stim_listB>",are fighting each other,
null,"<div style=""font-size:60px;"">+</div>",,html-keyboard-response,126,879495,0.0-13.0-0.19,28693,List1B,white,man,,,,null,,,,
null,"<img src=""stim_listB/argue5.gif""style=""height:400px;""></stim_listB>",,html-keyboard-response,127,881497,0.0-13.0-1.19,28693,List1B,white,man,,,,null,,,,
null,is arguing with,,html-keyboard-response,128,883500,0.0-13.0-2.19,28693,List1B,white,man,,,,null,,,,
23003,,,survey-text,129,906504,0.0-13.0-3.19,28693,List1B,white,man,,,,,"{""Q0"":""Mike and Luke are fighting with each other""}","<img src=""stim_listB/argue5.gif""style=""height:400px;""></stim_listB>",is arguing with,
8167,"<img src='img/portrait_matrix_list1.jpg' style='width:900px;height:500px;''></img><p>If you have memorised all the portraits and names and are ready to start, press Continue.</p><p><strong>Please note: Your memory of these faces will be tested 4 times during this experiment.</strong></p>",0,html-button-response,130,914673,0.0-14.0-0.0,28693,List1B,white,man,,,,,,,,
3769,"<img src=""portrait/WW1.jpg""style=""height:400px;""></img>",1,html-button-response,131,919447,0.0-14.0-1.0,28693,List1B,white,man,,TRUE,1,,,,,
null,CORRECT,,html-keyboard-response,132,920951,0.0-14.0-2.0-0.0,28693,List1B,white,man,,,,null,,,,
2672,"<img src=""portrait/BM1.jpg""style=""height:400px;""></img>",4,html-button-response,133,923625,0.0-14.0-4.0,28693,List1B,white,man,,TRUE,4,,,,,
null,CORRECT,,html-keyboard-response,134,925130,0.0-14.0-5.0-0.0,28693,List1B,white,man,,,,null,,,,
5607,"<img src=""portrait/BM2.jpg""style=""height:400px;""></img>",5,html-button-response,135,930739,0.0-14.0-7.0,28693,List1B,white,man,,TRUE,5,,,,,
null,CORRECT,,html-keyboard-response,136,932243,0.0-14.0-8.0-0.0,28693,List1B,white,man,,,,null,,,,
1406,"<img src=""portrait/WM1.jpg""style=""height:400px;""></img>",6,html-button-response,137,933652,0.0-14.0-10.0,28693,List1B,white,man,,TRUE,6,,,,,
null,CORRECT,,html-keyboard-response,138,935156,0.0-14.0-11.0-0.0,28693,List1B,white,man,,,,null,,,,
4301,"<img src=""portrait/BW1.jpg""style=""height:400px;""></img>",0,html-button-response,139,939460,0.0-14.0-13.0,28693,List1B,white,man,,TRUE,0,,,,,
null,CORRECT,,html-keyboard-response,140,940964,0.0-14.0-14.0-0.0,28693,List1B,white,man,,,,null,,,,
1991,"<img src=""portrait/WM2.jpg""style=""height:400px;""></img>",7,html-button-response,141,942957,0.0-14.0-16.0,28693,List1B,white,man,,TRUE,7,,,,,
null,CORRECT,,html-keyboard-response,142,944461,0.0-14.0-17.0-0.0,28693,List1B,white,man,,,,null,,,,
5549,"<img src=""portrait/BW2.jpg""style=""height:400px;""></img>",2,html-button-response,143,950013,0.0-14.0-19.0,28693,List1B,white,man,,TRUE,2,,,,,
null,CORRECT,,html-keyboard-response,144,951517,0.0-14.0-20.0-0.0,28693,List1B,white,man,,,,null,,,,
2728,"<img src=""portrait/WW2.jpg""style=""height:400px;""></img>",3,html-button-response,145,954247,0.0-14.0-22.0,28693,List1B,white,man,,TRUE,3,,,,,
null,CORRECT,,html-keyboard-response,146,955751,0.0-14.0-23.0-0.0,28693,List1B,white,man,,,,null,,,,
1510,<p>You got 8 out of 8 right first time. Press Continue.</p>,0,html-button-response,147,957263,0.0-14.0-25.0,28693,List1B,white,man,,,,,,,,
null,"<div style=""font-size:60px;"">+</div>",,html-keyboard-response,148,958767,0.0-15.0-0.0,28693,List1B,white,man,,,,null,,,,
null,"<img src=""stim_listB/kiss4.gif""style=""height:400px;""></stim_listB>",,html-keyboard-response,149,960771,0.0-15.0-1.0,28693,List1B,white,man,,,,null,,,,
null,are kissing each other,,html-keyboard-response,150,962773,0.0-15.0-2.0,28693,List1B,white,man,,,,null,,,,
31649,,,survey-text,151,994422,0.0-15.0-3.0,28693,List1B,white,man,,,,,"{""Q0"":""Beth and Mike are kissing each other""}","<img src=""stim_listB/kiss4.gif""style=""height:400px;""></stim_listB>",are kissing each other,
null,"<div style=""font-size:60px;"">+</div>",,html-keyboard-response,152,994923,0.0-15.0-0.1,28693,List1B,white,man,,,,null,,,,
null,"<img src=""stim_listB/shout2.gif""style=""height:400px;""></stim_listB>",,html-keyboard-response,153,996926,0.0-15.0-1.1,28693,List1B,white,man,,,,null,,,,
null,are shouting at each other,,html-keyboard-response,154,998928,0.0-15.0-2.1,28693,List1B,white,man,,,,null,,,,
15459,,,survey-text,155,1014388,0.0-15.0-3.1,28693,List1B,white,man,,,,,"{""Q0"":""Kate and Mike are shouting at each other""}","<img src=""stim_listB/shout2.gif""style=""height:400px;""></stim_listB>",are shouting at each other,
null,"<div style=""font-size:60px;"">+</div>",,html-keyboard-response,156,1014890,0.0-15.0-0.2,28693,List1B,white,man,,,,null,,,,
null,"<img src=""stim_listB/kiss6.gif""style=""height:400px;""></stim_listB>",,html-keyboard-response,157,1016892,0.0-15.0-1.2,28693,List1B,white,man,,,,null,,,,
null,are kissing each other,,html-keyboard-response,158,1018893,0.0-15.0-2.2,28693,List1B,white,man,,,,null,,,,
9650,,,survey-text,159,1028545,0.0-15.0-3.2,28693,List1B,white,man,,,,,"{""Q0"":""Dave and Mike are kissing each other""}","<img src=""stim_listB/kiss6.gif""style=""height:400px;""></stim_listB>",are kissing each other,
null,"<div style=""font-size:60px;"">+</div>",,html-keyboard-response,160,1029047,0.0-15.0-0.3,28693,List1B,white,man,,,,null,,,,
null,"<img src=""stim_listB/play3.gif""style=""height:400px;""></stim_listB>",,html-keyboard-response,161,1031049,0.0-15.0-1.3,28693,List1B,white,man,,,,null,,,,
null,is playing with,,html-keyboard-response,162,1033051,0.0-15.0-2.3,28693,List1B,white,man,,,,null,,,,
23909,,,survey-text,163,1056961,0.0-15.0-3.3,28693,List1B,white,man,,,,,"{""Q0"":""Dave and Jane are kissing each other""}","<img src=""stim_listB/play3.gif""style=""height:400px;""></stim_listB>",is playing with,
null,"<div style=""font-size:60px;"">+</div>",,html-keyboard-response,164,1057464,0.0-15.0-0.4,28693,List1B,white,man,,,,null,,,,
null,"<img src=""stim_listB/argue1.gif""style=""height:400px;""></stim_listB>",,html-keyboard-response,165,1059467,0.0-15.0-1.4,28693,List1B,white,man,,,,null,,,,
null,is arguing with,,html-keyboard-response,166,1061469,0.0-15.0-2.4,28693,List1B,white,man,,,,null,,,,
20213,,,survey-text,167,1081684,0.0-15.0-3.4,28693,List1B,white,man,,,,,"{""Q0"":""Mike and Beth are arguing with each other""}","<img src=""stim_listB/argue1.gif""style=""height:400px;""></stim_listB>",is arguing with,
null,"<div style=""font-size:60px;"">+</div>",,html-keyboard-response,168,1082186,0.0-15.0-0.5,28693,List1B,white,man,,,,null,,,,
null,"<img src=""stim_listB/marry8.gif""style=""height:400px;""></stim_listB>",,html-keyboard-response,169,1084192,0.0-15.0-1.5,28693,List1B,white,man,,,,null,,,,
null,are marrying each other,,html-keyboard-response,170,1086195,0.0-15.0-2.5,28693,List1B,white,man,,,,null,,,,
15160,,,survey-text,171,1101356,0.0-15.0-3.5,28693,List1B,white,man,,,,,"{""Q0"":""Jane and Beth are marrying each other""}","<img src=""stim_listB/marry8.gif""style=""height:400px;""></stim_listB>",are marrying each other,
null,"<div style=""font-size:60px;"">+</div>",,html-keyboard-response,172,1101859,0.0-15.0-0.6,28693,List1B,white,man,,,,null,,,,
null,"<img src=""stim_listB/dance5.gif""style=""height:400px;""></stim_listB>",,html-keyboard-response,173,1103863,0.0-15.0-1.6,28693,List1B,white,man,,,,null,,,,
null,is dancing with,,html-keyboard-response,174,1105866,0.0-15.0-2.6,28693,List1B,white,man,,,,null,,,,
20821,,,survey-text,175,1126688,0.0-15.0-3.6,28693,List1B,white,man,,,,,"{""Q0"":""Fred and Dave are dancing with each other""}","<img src=""stim_listB/dance5.gif""style=""height:400px;""></stim_listB>",is dancing with,
null,"<div style=""font-size:60px;"">+</div>",,html-keyboard-response,176,1127191,0.0-15.0-0.7,28693,List1B,white,man,,,,null,,,,
null,"<img src=""stim_listB/kiss5.gif""style=""height:400px;""></stim_listB>",,html-keyboard-response,177,1129193,0.0-15.0-1.7,28693,List1B,white,man,,,,null,,,,
null,is kissing,,html-keyboard-response,178,1131195,0.0-15.0-2.7,28693,List1B,white,man,,,,null,,,,
11887,,,survey-text,179,1143083,0.0-15.0-3.7,28693,List1B,white,man,,,,,"{""Q0"":""Fred and Luke are kissing each other""}","<img src=""stim_listB/kiss5.gif""style=""height:400px;""></stim_listB>",is kissing,
null,"<div style=""font-size:60px;"">+</div>",,html-keyboard-response,180,1143585,0.0-15.0-0.8,28693,List1B,white,man,,,,null,,,,
null,"<img src=""stim_listB/play4.gif""style=""height:400px;""></stim_listB>",,html-keyboard-response,181,1145588,0.0-15.0-1.8,28693,List1B,white,man,,,,null,,,,
null,are playing with each other,,html-keyboard-response,182,1147591,0.0-15.0-2.8,28693,List1B,white,man,,,,null,,,,
24007,,,survey-text,183,1171599,0.0-15.0-3.8,28693,List1B,white,man,,,,,"{""Q0"":""Ruth and Luke are playing cards with each other""}","<img src=""stim_listB/play4.gif""style=""height:400px;""></stim_listB>",are playing with each other,
null,"<div style=""font-size:60px;"">+</div>",,html-keyboard-response,184,1172102,0.0-15.0-0.9,28693,List1B,white,man,,,,null,,,,
null,"<img src=""stim_listB/fight2.gif""style=""height:400px;""></stim_listB>",,html-keyboard-response,185,1174106,0.0-15.0-1.9,28693,List1B,white,man,,,,null,,,,
null,are fighting each other,,html-keyboard-response,186,1176109,0.0-15.0-2.9,28693,List1B,white,man,,,,null,,,,
12326,,,survey-text,187,1188437,0.0-15.0-3.9,28693,List1B,white,man,,,,,"{""Q0"":""Fred and Beth are fighting each other""}","<img src=""stim_listB/fight2.gif""style=""height:400px;""></stim_listB>",are fighting each other,
null,"<div style=""font-size:60px;"">+</div>",,html-keyboard-response,188,1188939,0.0-15.0-0.10,28693,List1B,white,man,,,,null,,,,
null,"<img src=""stim_listB/fight8.gif""style=""height:400px;""></stim_listB>",,html-keyboard-response,189,1190942,0.0-15.0-1.10,28693,List1B,white,man,,,,null,,,,
null,are fighting each other,,html-keyboard-response,190,1192945,0.0-15.0-2.10,28693,List1B,white,man,,,,null,,,,
18146,,,survey-text,191,1211093,0.0-15.0-3.10,28693,List1B,white,man,,,,,"{""Q0"":""Beth and Ruth are fighting each other""}","<img src=""stim_listB/fight8.gif""style=""height:400px;""></stim_listB>",are fighting each other,
null,"<div style=""font-size:60px;"">+</div>",,html-keyboard-response,192,1211596,0.0-15.0-0.11,28693,List1B,white,man,,,,null,,,,
null,"<img src=""stim_listB/flirt8.gif""style=""height:400px;""></stim_listB>",,html-keyboard-response,193,1213599,0.0-15.0-1.11,28693,List1B,white,man,,,,null,,,,
null,are flirting with each other,,html-keyboard-response,194,1215602,0.0-15.0-2.11,28693,List1B,white,man,,,,null,,,,
19082,,,survey-text,195,1234685,0.0-15.0-3.11,28693,List1B,white,man,,,,,"{""Q0"":""Ruth and Kate are flirting with each other""}","<img src=""stim_listB/flirt8.gif""style=""height:400px;""></stim_listB>",are flirting with each other,
null,"<div style=""font-size:60px;"">+</div>",,html-keyboard-response,196,1235188,0.0-15.0-0.12,28693,List1B,white,man,,,,null,,,,
null,"<img src=""stim_listB/talk6.gif""style=""height:400px;""></stim_listB>",,html-keyboard-response,197,1237191,0.0-15.0-1.12,28693,List1B,white,man,,,,null,,,,
null,are talking to each other,,html-keyboard-response,198,1239192,0.0-15.0-2.12,28693,List1B,white,man,,,,null,,,,
10412,,,survey-text,199,1249605,0.0-15.0-3.12,28693,List1B,white,man,,,,,"{""Q0"":""Mike and Luke are talking to each other""}","<img src=""stim_listB/talk6.gif""style=""height:400px;""></stim_listB>",are talking to each other,
null,"<div style=""font-size:60px;"">+</div>",,html-keyboard-response,200,1250107,0.0-15.0-0.13,28693,List1B,white,man,,,,null,,,,
null,"<img src=""stim_listB/kiss2.gif""style=""height:400px;""></stim_listB>",,html-keyboard-response,201,1252112,0.0-15.0-1.13,28693,List1B,white,man,,,,null,,,,
null,are kissing each other,,html-keyboard-response,202,1254115,0.0-15.0-2.13,28693,List1B,white,man,,,,null,,,,
12213,,,survey-text,203,1266330,0.0-15.0-3.13,28693,List1B,white,man,,,,,"{""Q0"":""Mike and Kate are kissing each other""}","<img src=""stim_listB/kiss2.gif""style=""height:400px;""></stim_listB>",are kissing each other,
null,"<div style=""font-size:60px;"">+</div>",,html-keyboard-response,204,1266835,0.0-15.0-0.14,28693,List1B,white,man,,,,null,,,,
null,"<img src=""stim_listB/flirt7.gif""style=""height:400px;""></stim_listB>",,html-keyboard-response,205,1268841,0.0-15.0-1.14,28693,List1B,white,man,,,,null,,,,
null,is flirting with,,html-keyboard-response,206,1270845,0.0-15.0-2.14,28693,List1B,white,man,,,,null,,,,
16202,,,survey-text,207,1287049,0.0-15.0-3.14,28693,List1B,white,man,,,,,"{""Q0"":""Kate and Beth are flirting with each other""}","<img src=""stim_listB/flirt7.gif""style=""height:400px;""></stim_listB>",is flirting with,
null,"<div style=""font-size:60px;"">+</div>",,html-keyboard-response,208,1287552,0.0-15.0-0.15,28693,List1B,white,man,,,,null,,,,
null,"<img src=""stim_listB/dance6.gif""style=""height:400px;""></stim_listB>",,html-keyboard-response,209,1289556,0.0-15.0-1.15,28693,List1B,white,man,,,,null,,,,
null,are dancing with each other,,html-keyboard-response,210,1291559,0.0-15.0-2.15,28693,List1B,white,man,,,,null,,,,
12011,,,survey-text,211,1303571,0.0-15.0-3.15,28693,List1B,white,man,,,,,"{""Q0"":""Mike and Luke are dancing with each other""}","<img src=""stim_listB/dance6.gif""style=""height:400px;""></stim_listB>",are dancing with each other,
null,"<div style=""font-size:60px;"">+</div>",,html-keyboard-response,212,1304074,0.0-15.0-0.16,28693,List1B,white,man,,,,null,,,,
null,"<img src=""stim_listB/flirt1.gif""style=""height:400px;""></stim_listB>",,html-keyboard-response,213,1306079,0.0-15.0-1.16,28693,List1B,white,man,,,,null,,,,
null,is flirting with,,html-keyboard-response,214,1308083,0.0-15.0-2.16,28693,List1B,white,man,,,,null,,,,
12173,,,survey-text,215,1320256,0.0-15.0-3.16,28693,List1B,white,man,,,,,"{""Q0"":""Fred and Kate are flirting with each other""}","<img src=""stim_listB/flirt1.gif""style=""height:400px;""></stim_listB>",is flirting with,
null,"<div style=""font-size:60px;"">+</div>",,html-keyboard-response,216,1320758,0.0-15.0-0.17,28693,List1B,white,man,,,,null,,,,
null,"<img src=""stim_listB/kiss3.gif""style=""height:400px;""></stim_listB>",,html-keyboard-response,217,1322762,0.0-15.0-1.17,28693,List1B,white,man,,,,null,,,,
null,is kissing,,html-keyboard-response,218,1324765,0.0-15.0-2.17,28693,List1B,white,man,,,,null,,,,
15294,,,survey-text,219,1340060,0.0-15.0-3.17,28693,List1B,white,man,,,,,"{""Q0"":""Luke and Ruth are kissing each other""}","<img src=""stim_listB/kiss3.gif""style=""height:400px;""></stim_listB>",is kissing,
null,"<div style=""font-size:60px;"">+</div>",,html-keyboard-response,220,1340562,0.0-15.0-0.18,28693,List1B,white,man,,,,null,,,,
null,"<img src=""stim_listB/play6.gif""style=""height:400px;""></stim_listB>",,html-keyboard-response,221,1342567,0.0-15.0-1.18,28693,List1B,white,man,,,,null,,,,
null,are playing with each other,,html-keyboard-response,222,1344570,0.0-15.0-2.18,28693,List1B,white,man,,,,null,,,,
14090,,,survey-text,223,1358660,0.0-15.0-3.18,28693,List1B,white,man,,,,,"{""Q0"":""Fred and Luke are playing with each other""}","<img src=""stim_listB/play6.gif""style=""height:400px;""></stim_listB>",are playing with each other,
null,"<div style=""font-size:60px;"">+</div>",,html-keyboard-response,224,1359163,0.0-15.0-0.19,28693,List1B,white,man,,,,null,,,,
null,"<img src=""stim_listB/flirt6.gif""style=""height:400px;""></stim_listB>",,html-keyboard-response,225,1361166,0.0-15.0-1.19,28693,List1B,white,man,,,,null,,,,
null,are flirting with each other,,html-keyboard-response,226,1363167,0.0-15.0-2.19,28693,List1B,white,man,,,,null,,,,
14522,,,survey-text,227,1377691,0.0-15.0-3.19,28693,List1B,white,man,,,,,"{""Q0"":""Luke and Mike are flirting with each other""}","<img src=""stim_listB/flirt6.gif""style=""height:400px;""></stim_listB>",are flirting with each other,
16039,"<img src='img/portrait_matrix_list1.jpg' style='width:900px;height:500px;''></img><p>If you have memorised all the portraits and names and are ready to start, press Continue.</p><p><strong>Please note: Your memory of these faces will be tested 4 times during this experiment.</strong></p>",0,html-button-response,228,1393731,0.0-16.0-0.0,28693,List1B,white,man,,,,,,,,
16022,"<img src=""portrait/BW1.jpg""style=""height:400px;""></img>",0,html-button-response,229,1410756,0.0-16.0-1.0,28693,List1B,white,man,,TRUE,0,,,,,
null,CORRECT,,html-keyboard-response,230,1412260,0.0-16.0-2.0-0.0,28693,List1B,white,man,,,,null,,,,
2270,"<img src=""portrait/WM1.jpg""style=""height:400px;""></img>",6,html-button-response,231,1414532,0.0-16.0-4.0,28693,List1B,white,man,,TRUE,6,,,,,
null,CORRECT,,html-keyboard-response,232,1416036,0.0-16.0-5.0-0.0,28693,List1B,white,man,,,,null,,,,
1959,"<img src=""portrait/BM1.jpg""style=""height:400px;""></img>",4,html-button-response,233,1417997,0.0-16.0-7.0,28693,List1B,white,man,,TRUE,4,,,,,
null,CORRECT,,html-keyboard-response,234,1419501,0.0-16.0-8.0-0.0,28693,List1B,white,man,,,,null,,,,
3828,"<img src=""portrait/WM2.jpg""style=""height:400px;""></img>",7,html-button-response,235,1423331,0.0-16.0-10.0,28693,List1B,white,man,,TRUE,7,,,,,
null,CORRECT,,html-keyboard-response,236,1424834,0.0-16.0-11.0-0.0,28693,List1B,white,man,,,,null,,,,
6188,"<img src=""portrait/WW1.jpg""style=""height:400px;""></img>",1,html-button-response,237,1431023,0.0-16.0-13.0,28693,List1B,white,man,,TRUE,1,,,,,
null,CORRECT,,html-keyboard-response,238,1432528,0.0-16.0-14.0-0.0,28693,List1B,white,man,,,,null,,,,
2221,"<img src=""portrait/BW2.jpg""style=""height:400px;""></img>",2,html-button-response,239,1434751,0.0-16.0-16.0,28693,List1B,white,man,,TRUE,2,,,,,
null,CORRECT,,html-keyboard-response,240,1436256,0.0-16.0-17.0-0.0,28693,List1B,white,man,,,,null,,,,
2743,"<img src=""portrait/WW2.jpg""style=""height:400px;""></img>",3,html-button-response,241,1439001,0.0-16.0-19.0,28693,List1B,white,man,,TRUE,3,,,,,
null,CORRECT,,html-keyboard-response,242,1440505,0.0-16.0-20.0-0.0,28693,List1B,white,man,,,,null,,,,
2484,"<img src=""portrait/BM2.jpg""style=""height:400px;""></img>",5,html-button-response,243,1442991,0.0-16.0-22.0,28693,List1B,white,man,,TRUE,5,,,,,
null,CORRECT,,html-keyboard-response,244,1444496,0.0-16.0-23.0-0.0,28693,List1B,white,man,,,,null,,,,
1280,<p>You got 8 out of 8 right first time. Press Continue.</p>,0,html-button-response,245,1445777,0.0-16.0-25.0,28693,List1B,white,man,,,,,,,,
null,"<div style=""font-size:60px;"">+</div>",,html-keyboard-response,246,1447286,0.0-17.0-0.0,28693,List1B,white,man,,,,null,,,,
null,"<img src=""stim_listB/argue8.gif""style=""height:400px;""></stim_listB>",,html-keyboard-response,247,1449291,0.0-17.0-1.0,28693,List1B,white,man,,,,null,,,,
null,are arguing with each other,,html-keyboard-response,248,1451293,0.0-17.0-2.0,28693,List1B,white,man,,,,null,,,,
21939,,,survey-text,249,1473234,0.0-17.0-3.0,28693,List1B,white,man,,,,,"{""Q0"":""Jane and Beth are fighting with each other""}","<img src=""stim_listB/argue8.gif""style=""height:400px;""></stim_listB>",are arguing with each other,
null,"<div style=""font-size:60px;"">+</div>",,html-keyboard-response,250,1473737,0.0-17.0-0.1,28693,List1B,white,man,,,,null,,,,
null,"<img src=""stim_listB/shout7.gif""style=""height:400px;""></stim_listB>",,html-keyboard-response,251,1475741,0.0-17.0-1.1,28693,List1B,white,man,,,,null,,,,
null,is shouting at,,html-keyboard-response,252,1477743,0.0-17.0-2.1,28693,List1B,white,man,,,,null,,,,
24327,,,survey-text,253,1502073,0.0-17.0-3.1,28693,List1B,white,man,,,,,"{""Q0"":""Ruth and Beth are shouting at each other""}","<img src=""stim_listB/shout7.gif""style=""height:400px;""></stim_listB>",is shouting at,
null,"<div style=""font-size:60px;"">+</div>",,html-keyboard-response,254,1502575,0.0-17.0-0.2,28693,List1B,white,man,,,,null,,,,
null,"<img src=""stim_listB/touch7.gif""style=""height:400px;""></stim_listB>",,html-keyboard-response,255,1504578,0.0-17.0-1.2,28693,List1B,white,man,,,,null,,,,
null,is touching,,html-keyboard-response,256,1506580,0.0-17.0-2.2,28693,List1B,white,man,,,,null,,,,
19089,,,survey-text,257,1525671,0.0-17.0-3.2,28693,List1B,white,man,,,,,"{""Q0"":""Kate and Jane are taking to each other""}","<img src=""stim_listB/touch7.gif""style=""height:400px;""></stim_listB>",is touching,
null,"<div style=""font-size:60px;"">+</div>",,html-keyboard-response,258,1526174,0.0-17.0-0.3,28693,List1B,white,man,,,,null,,,,
null,"<img src=""stim_listB/flirt3.gif""style=""height:400px;""></stim_listB>",,html-keyboard-response,259,1528178,0.0-17.0-1.3,28693,List1B,white,man,,,,null,,,,
null,is flirting with,,html-keyboard-response,260,1530179,0.0-17.0-2.3,28693,List1B,white,man,,,,null,,,,
12999,,,survey-text,261,1543179,0.0-17.0-3.3,28693,List1B,white,man,,,,,"{""Q0"":""Luke and Jane are flirting with each other""}","<img src=""stim_listB/flirt3.gif""style=""height:400px;""></stim_listB>",is flirting with,
null,"<div style=""font-size:60px;"">+</div>",,html-keyboard-response,262,1543682,0.0-17.0-0.4,28693,List1B,white,man,,,,null,,,,
null,"<img src=""stim_listB/marry2.gif""style=""height:400px;""></stim_listB>",,html-keyboard-response,263,1545685,0.0-17.0-1.4,28693,List1B,white,man,,,,null,,,,
null,are marrying each other,,html-keyboard-response,264,1547687,0.0-17.0-2.4,28693,List1B,white,man,,,,null,,,,
10932,,,survey-text,265,1558620,0.0-17.0-3.4,28693,List1B,white,man,,,,,"{""Q0"":""Fred and Kate are marrying each other""}","<img src=""stim_listB/marry2.gif""style=""height:400px;""></stim_listB>",are marrying each other,
null,"<div style=""font-size:60px;"">+</div>",,html-keyboard-response,266,1559123,0.0-17.0-0.5,28693,List1B,white,man,,,,null,,,,
null,"<img src=""stim_listB/fight7.gif""style=""height:400px;""></stim_listB>",,html-keyboard-response,267,1561126,0.0-17.0-1.5,28693,List1B,white,man,,,,null,,,,
null,is fighting,,html-keyboard-response,268,1563128,0.0-17.0-2.5,28693,List1B,white,man,,,,null,,,,
11710,,,survey-text,269,1574839,0.0-17.0-3.5,28693,List1B,white,man,,,,,"{""Q0"":""Kate and Jane is fighting each other""}","<img src=""stim_listB/fight7.gif""style=""height:400px;""></stim_listB>",is fighting,
null,"<div style=""font-size:60px;"">+</div>",,html-keyboard-response,270,1575342,0.0-17.0-0.6,28693,List1B,white,man,,,,null,,,,
null,"<img src=""stim_listB/marry3.gif""style=""height:400px;""></stim_listB>",,html-keyboard-response,271,1577344,0.0-17.0-1.6,28693,List1B,white,man,,,,null,,,,
null,is marrying,,html-keyboard-response,272,1579347,0.0-17.0-2.6,28693,List1B,white,man,,,,null,,,,
23575,,,survey-text,273,1602924,0.0-17.0-3.6,28693,List1B,white,man,,,,,"{""Q0"":""Dave and Ruth are fighting each other""}","<img src=""stim_listB/marry3.gif""style=""height:400px;""></stim_listB>",is marrying,
null,"<div style=""font-size:60px;"">+</div>",,html-keyboard-response,274,1603426,0.0-17.0-0.7,28693,List1B,white,man,,,,null,,,,
null,"<img src=""stim_listB/touch8.gif""style=""height:400px;""></stim_listB>",,html-keyboard-response,275,1605431,0.0-17.0-1.7,28693,List1B,white,man,,,,null,,,,
null,are touching each other,,html-keyboard-response,276,1607433,0.0-17.0-2.7,28693,List1B,white,man,,,,null,,,,
17175,,,survey-text,277,1624610,0.0-17.0-3.7,28693,List1B,white,man,,,,,"{""Q0"":""Ruth and Beth are touching each other""}","<img src=""stim_listB/touch8.gif""style=""height:400px;""></stim_listB>",are touching each other,
null,"<div style=""font-size:60px;"">+</div>",,html-keyboard-response,278,1625113,0.0-17.0-0.8,28693,List1B,white,man,,,,null,,,,
null,"<img src=""stim_listB/fight4.gif""style=""height:400px;""></stim_listB>",,html-keyboard-response,279,1627116,0.0-17.0-1.8,28693,List1B,white,man,,,,null,,,,
null,are fighting each other,,html-keyboard-response,280,1629118,0.0-17.0-2.8,28693,List1B,white,man,,,,null,,,,
12738,,,survey-text,281,1641857,0.0-17.0-3.8,28693,List1B,white,man,,,,,"{""Q0"":""Luke and Ruth are fighting each other""}","<img src=""stim_listB/fight4.gif""style=""height:400px;""></stim_listB>",are fighting each other,
null,"<div style=""font-size:60px;"">+</div>",,html-keyboard-response,282,1642359,0.0-17.0-0.9,28693,List1B,white,man,,,,null,,,,
null,"<img src=""stim_listB/touch2.gif""style=""height:400px;""></stim_listB>",,html-keyboard-response,283,1644362,0.0-17.0-1.9,28693,List1B,white,man,,,,null,,,,
null,are touching each other,,html-keyboard-response,284,1646364,0.0-17.0-2.9,28693,List1B,white,man,,,,null,,,,
11692,,,survey-text,285,1658058,0.0-17.0-3.9,28693,List1B,white,man,,,,,"{""Q0"":""Fred and Beth are touching each other""}","<img src=""stim_listB/touch2.gif""style=""height:400px;""></stim_listB>",are touching each other,
null,"<div style=""font-size:60px;"">+</div>",,html-keyboard-response,286,1658560,0.0-17.0-0.10,28693,List1B,white,man,,,,null,,,,
null,"<img src=""stim_listB/kiss7.gif""style=""height:400px;""></stim_listB>",,html-keyboard-response,287,1660564,0.0-17.0-1.10,28693,List1B,white,man,,,,null,,,,
null,is kissing,,html-keyboard-response,288,1662567,0.0-17.0-2.10,28693,List1B,white,man,,,,null,,,,
12000,,,survey-text,289,1674570,0.0-17.0-3.10,28693,List1B,white,man,,,,,"{""Q0"":""Beth and Ruth are kissing each other""}","<img src=""stim_listB/kiss7.gif""style=""height:400px;""></stim_listB>",is kissing,
null,"<div style=""font-size:60px;"">+</div>",,html-keyboard-response,290,1675072,0.0-17.0-0.11,28693,List1B,white,man,,,,null,,,,
null,"<img src=""stim_listB/dance3.gif""style=""height:400px;""></stim_listB>",,html-keyboard-response,291,1677075,0.0-17.0-1.11,28693,List1B,white,man,,,,null,,,,
null,is dancing with,,html-keyboard-response,292,1679077,0.0-17.0-2.11,28693,List1B,white,man,,,,null,,,,
11251,,,survey-text,293,1690329,0.0-17.0-3.11,28693,List1B,white,man,,,,,"{""Q0"":""Luke and jane are dancing with each other""}","<img src=""stim_listB/dance3.gif""style=""height:400px;""></stim_listB>",is dancing with,
null,"<div style=""font-size:60px;"">+</div>",,html-keyboard-response,294,1690832,0.0-17.0-0.12,28693,List1B,white,man,,,,null,,,,
null,"<img src=""stim_listB/dance8.gif""style=""height:400px;""></stim_listB>",,html-keyboard-response,295,1692836,0.0-17.0-1.12,28693,List1B,white,man,,,,null,,,,
null,are dancing with each other,,html-keyboard-response,296,1694839,0.0-17.0-2.12,28693,List1B,white,man,,,,null,,,,
18291,,,survey-text,297,1713131,0.0-17.0-3.12,28693,List1B,white,man,,,,,"{""Q0"":""Kate and Ruth are dancing with each other""}","<img src=""stim_listB/dance8.gif""style=""height:400px;""></stim_listB>",are dancing with each other,
null,"<div style=""font-size:60px;"">+</div>",,html-keyboard-response,298,1713633,0.0-17.0-0.13,28693,List1B,white,man,,,,null,,,,
null,"<img src=""stim_listB/dance1.gif""style=""height:400px;""></stim_listB>",,html-keyboard-response,299,1715637,0.0-17.0-1.13,28693,List1B,white,man,,,,null,,,,
null,is dancing with,,html-keyboard-response,300,1717637,0.0-17.0-2.13,28693,List1B,white,man,,,,null,,,,
11448,,,survey-text,301,1729086,0.0-17.0-3.13,28693,List1B,white,man,,,,,"{""Q0"":""Fred is dancing with Kate""}","<img src=""stim_listB/dance1.gif""style=""height:400px;""></stim_listB>",is dancing with,
null,"<div style=""font-size:60px;"">+</div>",,html-keyboard-response,302,1729588,0.0-17.0-0.14,28693,List1B,white,man,,,,null,,,,
null,"<img src=""stim_listB/kiss1.gif""style=""height:400px;""></stim_listB>",,html-keyboard-response,303,1731591,0.0-17.0-1.14,28693,List1B,white,man,,,,null,,,,
null,is kissing,,html-keyboard-response,304,1733593,0.0-17.0-2.14,28693,List1B,white,man,,,,null,,,,
10775,,,survey-text,305,1744370,0.0-17.0-3.14,28693,List1B,white,man,,,,,"{""Q0"":""Fred is kissing Beth""}","<img src=""stim_listB/kiss1.gif""style=""height:400px;""></stim_listB>",is kissing,
null,"<div style=""font-size:60px;"">+</div>",,html-keyboard-response,306,1744874,0.0-17.0-0.15,28693,List1B,white,man,,,,null,,,,
null,"<img src=""stim_listB/touch3.gif""style=""height:400px;""></stim_listB>",,html-keyboard-response,307,1746877,0.0-17.0-1.15,28693,List1B,white,man,,,,null,,,,
null,is touching,,html-keyboard-response,308,1748880,0.0-17.0-2.15,28693,List1B,white,man,,,,null,,,,
14465,,,survey-text,309,1763348,0.0-17.0-3.15,28693,List1B,white,man,,,,,"{""Q0"":""Luke is touching Jane""}","<img src=""stim_listB/touch3.gif""style=""height:400px;""></stim_listB>",is touching,
null,"<div style=""font-size:60px;"">+</div>",,html-keyboard-response,310,1763850,0.0-17.0-0.16,28693,List1B,white,man,,,,null,,,,
null,"<img src=""stim_listB/talk3.gif""style=""height:400px;""></stim_listB>",,html-keyboard-response,311,1765854,0.0-17.0-1.16,28693,List1B,white,man,,,,null,,,,
null,is talking to,,html-keyboard-response,312,1767856,0.0-17.0-2.16,28693,List1B,white,man,,,,null,,,,
8908,,,survey-text,313,1776766,0.0-17.0-3.16,28693,List1B,white,man,,,,,"{""Q0"":""Luke is taking to Jane""}","<img src=""stim_listB/talk3.gif""style=""height:400px;""></stim_listB>",is talking to,
null,"<div style=""font-size:60px;"">+</div>",,html-keyboard-response,314,1777269,0.0-17.0-0.17,28693,List1B,white,man,,,,null,,,,
null,"<img src=""stim_listB/fight3.gif""style=""height:400px;""></stim_listB>",,html-keyboard-response,315,1779273,0.0-17.0-1.17,28693,List1B,white,man,,,,null,,,,
null,is fighting,,html-keyboard-response,316,1781275,0.0-17.0-2.17,28693,List1B,white,man,,,,null,,,,
8244,,,survey-text,317,1789522,0.0-17.0-3.17,28693,List1B,white,man,,,,,"{""Q0"":""Luke is fighting Jane""}","<img src=""stim_listB/fight3.gif""style=""height:400px;""></stim_listB>",is fighting,
null,"<div style=""font-size:60px;"">+</div>",,html-keyboard-response,318,1790024,0.0-17.0-0.18,28693,List1B,white,man,,,,null,,,,
null,"<img src=""stim_listB/play8.gif""style=""height:400px;""></stim_listB>",,html-keyboard-response,319,1792027,0.0-17.0-1.18,28693,List1B,white,man,,,,null,,,,
null,are playing with each other,,html-keyboard-response,320,1794029,0.0-17.0-2.18,28693,List1B,white,man,,,,null,,,,
25469,,,survey-text,321,1819500,0.0-17.0-3.18,28693,List1B,white,man,,,,,"{""Q0"":""Ruth is playing with Luke""}","<img src=""stim_listB/play8.gif""style=""height:400px;""></stim_listB>",are playing with each other,
null,"<div style=""font-size:60px;"">+</div>",,html-keyboard-response,322,1820002,0.0-17.0-0.19,28693,List1B,white,man,,,,null,,,,
null,"<img src=""stim_listB/talk2.gif""style=""height:400px;""></stim_listB>",,html-keyboard-response,323,1822005,0.0-17.0-1.19,28693,List1B,white,man,,,,null,,,,
null,are talking to each other,,html-keyboard-response,324,1824007,0.0-17.0-2.19,28693,List1B,white,man,,,,null,,,,
14276,,,survey-text,325,1838285,0.0-17.0-3.19,28693,List1B,white,man,,,,,"{""Q0"":""Mike and Beth are talking to each other""}","<img src=""stim_listB/talk2.gif""style=""height:400px;""></stim_listB>",are talking to each other,
5464,"<img src='img/portrait_matrix_list1.jpg' style='width:900px;height:500px;''></img><p>If you have memorised all the portraits and names and are ready to start, press Continue.</p><p><strong>Please note: Your memory of these faces will be tested 4 times during this experiment.</strong></p>",0,html-button-response,326,1843750,0.0-18.0-0.0,28693,List1B,white,man,,,,,,,,
2667,"<img src=""portrait/BM2.jpg""style=""height:400px;""></img>",5,html-button-response,327,1847421,0.0-18.0-1.0,28693,List1B,white,man,,TRUE,5,,,,,
null,CORRECT,,html-keyboard-response,328,1848924,0.0-18.0-2.0-0.0,28693,List1B,white,man,,,,null,,,,
3394,"<img src=""portrait/WW2.jpg""style=""height:400px;""></img>",3,html-button-response,329,1852320,0.0-18.0-4.0,28693,List1B,white,man,,TRUE,3,,,,,
null,CORRECT,,html-keyboard-response,330,1853823,0.0-18.0-5.0-0.0,28693,List1B,white,man,,,,null,,,,
2106,"<img src=""portrait/WM2.jpg""style=""height:400px;""></img>",7,html-button-response,331,1855931,0.0-18.0-7.0,28693,List1B,white,man,,TRUE,7,,,,,
null,CORRECT,,html-keyboard-response,332,1857435,0.0-18.0-8.0-0.0,28693,List1B,white,man,,,,null,,,,
2722,"<img src=""portrait/WM1.jpg""style=""height:400px;""></img>",6,html-button-response,333,1860159,0.0-18.0-10.0,28693,List1B,white,man,,TRUE,6,,,,,
null,CORRECT,,html-keyboard-response,334,1861664,0.0-18.0-11.0-0.0,28693,List1B,white,man,,,,null,,,,
12032,"<img src=""portrait/WW1.jpg""style=""height:400px;""></img>",1,html-button-response,335,1873699,0.0-18.0-13.0,28693,List1B,white,man,,TRUE,1,,,,,
null,CORRECT,,html-keyboard-response,336,1875203,0.0-18.0-14.0-0.0,28693,List1B,white,man,,,,null,,,,
4598,"<img src=""portrait/BW2.jpg""style=""height:400px;""></img>",2,html-button-response,337,1879804,0.0-18.0-16.0,28693,List1B,white,man,,TRUE,2,,,,,
null,CORRECT,,html-keyboard-response,338,1881307,0.0-18.0-17.0-0.0,28693,List1B,white,man,,,,null,,,,
2207,"<img src=""portrait/BM1.jpg""style=""height:400px;""></img>",4,html-button-response,339,1883516,0.0-18.0-19.0,28693,List1B,white,man,,TRUE,4,,,,,
null,CORRECT,,html-keyboard-response,340,1885021,0.0-18.0-20.0-0.0,28693,List1B,white,man,,,,null,,,,
6353,"<img src=""portrait/BW1.jpg""style=""height:400px;""></img>",0,html-button-response,341,1891377,0.0-18.0-22.0,28693,List1B,white,man,,TRUE,0,,,,,
null,CORRECT,,html-keyboard-response,342,1892882,0.0-18.0-23.0-0.0,28693,List1B,white,man,,,,null,,,,
1506,<p>You got 8 out of 8 right first time. Press Continue.</p>,0,html-button-response,343,1894391,0.0-18.0-25.0,28693,List1B,white,man,,,,,,,,
null,"<div style=""font-size:60px;"">+</div>",,html-keyboard-response,344,1895897,0.0-19.0-0.0,28693,List1B,white,man,,,,null,,,,
null,"<img src=""stim_listB/play7.gif""style=""height:400px;""></stim_listB>",,html-keyboard-response,345,1897900,0.0-19.0-1.0,28693,List1B,white,man,,,,null,,,,
null,is playing with,,html-keyboard-response,346,1899902,0.0-19.0-2.0,28693,List1B,white,man,,,,null,,,,
16730,,,survey-text,347,1916633,0.0-19.0-3.0,28693,List1B,white,man,,,,,"{""Q0"":""kate is playing with jane""}","<img src=""stim_listB/play7.gif""style=""height:400px;""></stim_listB>",is playing with,
null,"<div style=""font-size:60px;"">+</div>",,html-keyboard-response,348,1917135,0.0-19.0-0.1,28693,List1B,white,man,,,,null,,,,
null,"<img src=""stim_listB/play1.gif""style=""height:400px;""></stim_listB>",,html-keyboard-response,349,1919138,0.0-19.0-1.1,28693,List1B,white,man,,,,null,,,,
null,is playing with,,html-keyboard-response,350,1921140,0.0-19.0-2.1,28693,List1B,white,man,,,,null,,,,
8868,,,survey-text,351,1930011,0.0-19.0-3.1,28693,List1B,white,man,,,,,"{""Q0"":""Mike is playing with Kate""}","<img src=""stim_listB/play1.gif""style=""height:400px;""></stim_listB>",is playing with,
null,"<div style=""font-size:60px;"">+</div>",,html-keyboard-response,352,1930513,0.0-19.0-0.2,28693,List1B,white,man,,,,null,,,,
null,"<img src=""stim_listB/talk7.gif""style=""height:400px;""></stim_listB>",,html-keyboard-response,353,1932517,0.0-19.0-1.2,28693,List1B,white,man,,,,null,,,,
null,is talking to,,html-keyboard-response,354,1934519,0.0-19.0-2.2,28693,List1B,white,man,,,,null,,,,
12749,,,survey-text,355,1947270,0.0-19.0-3.2,28693,List1B,white,man,,,,,"{""Q0"":""Jane is talking with Beth""}","<img src=""stim_listB/talk7.gif""style=""height:400px;""></stim_listB>",is talking to,
null,"<div style=""font-size:60px;"">+</div>",,html-keyboard-response,356,1947772,0.0-19.0-0.3,28693,List1B,white,man,,,,null,,,,
null,"<img src=""stim_listB/talk4.gif""style=""height:400px;""></stim_listB>",,html-keyboard-response,357,1949775,0.0-19.0-1.3,28693,List1B,white,man,,,,null,,,,
null,are talking to each other,,html-keyboard-response,358,1951777,0.0-19.0-2.3,28693,List1B,white,man,,,,null,,,,
19218,,,survey-text,359,1970996,0.0-19.0-3.3,28693,List1B,white,man,,,,,"{""Q0"":""Dave is talking to Ruth""}","<img src=""stim_listB/talk4.gif""style=""height:400px;""></stim_listB>",are talking to each other,
null,"<div style=""font-size:60px;"">+</div>",,html-keyboard-response,360,1971499,0.0-19.0-0.4,28693,List1B,white,man,,,,null,,,,
null,"<img src=""stim_listB/flirt4.gif""style=""height:400px;""></stim_listB>",,html-keyboard-response,361,1973502,0.0-19.0-1.4,28693,List1B,white,man,,,,null,,,,
null,are flirting with each other,,html-keyboard-response,362,1975503,0.0-19.0-2.4,28693,List1B,white,man,,,,null,,,,
12740,,,survey-text,363,1988245,0.0-19.0-3.4,28693,List1B,white,man,,,,,"{""Q0"":""Dave is flirting with Ruth""}","<img src=""stim_listB/flirt4.gif""style=""height:400px;""></stim_listB>",are flirting with each other,
null,"<div style=""font-size:60px;"">+</div>",,html-keyboard-response,364,1988747,0.0-19.0-0.5,28693,List1B,white,man,,,,null,,,,
null,"<img src=""stim_listB/fight5.gif""style=""height:400px;""></stim_listB>",,html-keyboard-response,365,1990752,0.0-19.0-1.5,28693,List1B,white,man,,,,null,,,,
null,is fighting,,html-keyboard-response,366,1992755,0.0-19.0-2.5,28693,List1B,white,man,,,,null,,,,
8446,,,survey-text,367,2001203,0.0-19.0-3.5,28693,List1B,white,man,,,,,"{""Q0"":""Mike is fighting Dave""}","<img src=""stim_listB/fight5.gif""style=""height:400px;""></stim_listB>",is fighting,
null,"<div style=""font-size:60px;"">+</div>",,html-keyboard-response,368,2001705,0.0-19.0-0.6,28693,List1B,white,man,,,,null,,,,
null,"<img src=""stim_listB/shout3.gif""style=""height:400px;""></stim_listB>",,html-keyboard-response,369,2003708,0.0-19.0-1.6,28693,List1B,white,man,,,,null,,,,
null,is shouting at,,html-keyboard-response,370,2005710,0.0-19.0-2.6,28693,List1B,white,man,,,,null,,,,
15272,,,survey-text,371,2020985,0.0-19.0-3.6,28693,List1B,white,man,,,,,"{""Q0"":""luke is shouting at Ruth""}","<img src=""stim_listB/shout3.gif""style=""height:400px;""></stim_listB>",is shouting at,
null,"<div style=""font-size:60px;"">+</div>",,html-keyboard-response,372,2021488,0.0-19.0-0.7,28693,List1B,white,man,,,,null,,,,
null,"<img src=""stim_listB/dance7.gif""style=""height:400px;""></stim_listB>",,html-keyboard-response,373,2023493,0.0-19.0-1.7,28693,List1B,white,man,,,,null,,,,
null,is dancing with,,html-keyboard-response,374,2025497,0.0-19.0-2.7,28693,List1B,white,man,,,,null,,,,
15470,,,survey-text,375,2040970,0.0-19.0-3.7,28693,List1B,white,man,,,,,"{""Q0"":""Beth is dancing with Jane""}","<img src=""stim_listB/dance7.gif""style=""height:400px;""></stim_listB>",is dancing with,
null,"<div style=""font-size:60px;"">+</div>",,html-keyboard-response,376,2041475,0.0-19.0-0.8,28693,List1B,white,man,,,,null,,,,
null,"<img src=""stim_listB/shout6.gif""style=""height:400px;""></stim_listB>",,html-keyboard-response,377,2043478,0.0-19.0-1.8,28693,List1B,white,man,,,,null,,,,
null,are shouting at each other,,html-keyboard-response,378,2045480,0.0-19.0-2.8,28693,List1B,white,man,,,,null,,,,
14878,,,survey-text,379,2060359,0.0-19.0-3.8,28693,List1B,white,man,,,,,"{""Q0"":""Fred and Dave are shouting at each other""}","<img src=""stim_listB/shout6.gif""style=""height:400px;""></stim_listB>",are shouting at each other,
null,"<div style=""font-size:60px;"">+</div>",,html-keyboard-response,380,2060862,0.0-19.0-0.9,28693,List1B,white,man,,,,null,,,,
null,"<img src=""stim_listB/play2.gif""style=""height:400px;""></stim_listB>",,html-keyboard-response,381,2062864,0.0-19.0-1.9,28693,List1B,white,man,,,,null,,,,
null,are playing with each other,,html-keyboard-response,382,2064865,0.0-19.0-2.9,28693,List1B,white,man,,,,null,,,,
22191,,,survey-text,383,2087058,0.0-19.0-3.9,28693,List1B,white,man,,,,,"{""Q0"":""Fred and Beth are playing with each other""}","<img src=""stim_listB/play2.gif""style=""height:400px;""></stim_listB>",are playing with each other,
null,"<div style=""font-size:60px;"">+</div>",,html-keyboard-response,384,2087560,0.0-19.0-0.10,28693,List1B,white,man,,,,null,,,,
null,"<img src=""stim_listB/talk1.gif""style=""height:400px;""></stim_listB>",,html-keyboard-response,385,2089566,0.0-19.0-1.10,28693,List1B,white,man,,,,null,,,,
null,is talking to,,html-keyboard-response,386,2091568,0.0-19.0-2.10,28693,List1B,white,man,,,,null,,,,
13705,,,survey-text,387,2105275,0.0-19.0-3.10,28693,List1B,white,man,,,,,"{""Q0"":""Fred is talking to kate""}","<img src=""stim_listB/talk1.gif""style=""height:400px;""></stim_listB>",is talking to,
null,"<div style=""font-size:60px;"">+</div>",,html-keyboard-response,388,2105778,0.0-19.0-0.11,28693,List1B,white,man,,,,null,,,,
null,"<img src=""stim_listB/argue2.gif""style=""height:400px;""></stim_listB>",,html-keyboard-response,389,2107781,0.0-19.0-1.11,28693,List1B,white,man,,,,null,,,,
null,are arguing with each other,,html-keyboard-response,390,2109782,0.0-19.0-2.11,28693,List1B,white,man,,,,null,,,,
12696,,,survey-text,391,2122479,0.0-19.0-3.11,28693,List1B,white,man,,,,,"{""Q0"":""fred and kate are arguing with each other""}","<img src=""stim_listB/argue2.gif""style=""height:400px;""></stim_listB>",are arguing with each other,
null,"<div style=""font-size:60px;"">+</div>",,html-keyboard-response,392,2122981,0.0-19.0-0.12,28693,List1B,white,man,,,,null,,,,
null,"<img src=""stim_listB/touch1.gif""style=""height:400px;""></stim_listB>",,html-keyboard-response,393,2124983,0.0-19.0-1.12,28693,List1B,white,man,,,,null,,,,
null,is touching,,html-keyboard-response,394,2126985,0.0-19.0-2.12,28693,List1B,white,man,,,,null,,,,
8706,,,survey-text,395,2135692,0.0-19.0-3.12,28693,List1B,white,man,,,,,"{""Q0"":""mike is touching kate""}","<img src=""stim_listB/touch1.gif""style=""height:400px;""></stim_listB>",is touching,
null,"<div style=""font-size:60px;"">+</div>",,html-keyboard-response,396,2136195,0.0-19.0-0.13,28693,List1B,white,man,,,,null,,,,
null,"<img src=""stim_listB/flirt2.gif""style=""height:400px;""></stim_listB>",,html-keyboard-response,397,2138198,0.0-19.0-1.13,28693,List1B,white,man,,,,null,,,,
null,are flirting with each other,,html-keyboard-response,398,2140202,0.0-19.0-2.13,28693,List1B,white,man,,,,null,,,,
14028,,,survey-text,399,2154232,0.0-19.0-3.13,28693,List1B,white,man,,,,,"{""Q0"":""Beth and Mike are flirting with each other""}","<img src=""stim_listB/flirt2.gif""style=""height:400px;""></stim_listB>",are flirting with each other,
null,"<div style=""font-size:60px;"">+</div>",,html-keyboard-response,400,2154734,0.0-19.0-0.14,28693,List1B,white,man,,,,null,,,,
null,"<img src=""stim_listB/marry4.gif""style=""height:400px;""></stim_listB>",,html-keyboard-response,401,2156737,0.0-19.0-1.14,28693,List1B,white,man,,,,null,,,,
null,are marrying each other,,html-keyboard-response,402,2158739,0.0-19.0-2.14,28693,List1B,white,man,,,,null,,,,
19512,,,survey-text,403,2178253,0.0-19.0-3.14,28693,List1B,white,man,,,,,"{""Q0"":""luke and jane are marrying each other""}","<img src=""stim_listB/marry4.gif""style=""height:400px;""></stim_listB>",are marrying each other,
null,"<div style=""font-size:60px;"">+</div>",,html-keyboard-response,404,2178755,0.0-19.0-0.15,28693,List1B,white,man,,,,null,,,,
null,"<img src=""stim_listB/flirt5.gif""style=""height:400px;""></stim_listB>",,html-keyboard-response,405,2180759,0.0-19.0-1.15,28693,List1B,white,man,,,,null,,,,
null,is flirting with,,html-keyboard-response,406,2182762,0.0-19.0-2.15,28693,List1B,white,man,,,,null,,,,
7595,,,survey-text,407,2190362,0.0-19.0-3.15,28693,List1B,white,man,,,,,"{""Q0"":""fred is flirting with dave""}","<img src=""stim_listB/flirt5.gif""style=""height:400px;""></stim_listB>",is flirting with,
null,"<div style=""font-size:60px;"">+</div>",,html-keyboard-response,408,2190865,0.0-19.0-0.16,28693,List1B,white,man,,,,null,,,,
null,"<img src=""stim_listB/marry1.gif""style=""height:400px;""></stim_listB>",,html-keyboard-response,409,2192869,0.0-19.0-1.16,28693,List1B,white,man,,,,null,,,,
null,is marrying,,html-keyboard-response,410,2194873,0.0-19.0-2.16,28693,List1B,white,man,,,,null,,,,
12161,,,survey-text,411,2207035,0.0-19.0-3.16,28693,List1B,white,man,,,,,"{""Q0"":""mike is marrying beth""}","<img src=""stim_listB/marry1.gif""style=""height:400px;""></stim_listB>",is marrying,
null,"<div style=""font-size:60px;"">+</div>",,html-keyboard-response,412,2207537,0.0-19.0-0.17,28693,List1B,white,man,,,,null,,,,
null,"<img src=""stim_listB/marry7.gif""style=""height:400px;""></stim_listB>",,html-keyboard-response,413,2209540,0.0-19.0-1.17,28693,List1B,white,man,,,,null,,,,
null,is marrying,,html-keyboard-response,414,2211543,0.0-19.0-2.17,28693,List1B,white,man,,,,null,,,,
12524,,,survey-text,415,2224069,0.0-19.0-3.17,28693,List1B,white,man,,,,,"{""Q0"":""kate is marrying ruth""}","<img src=""stim_listB/marry7.gif""style=""height:400px;""></stim_listB>",is marrying,
null,"<div style=""font-size:60px;"">+</div>",,html-keyboard-response,416,2224571,0.0-19.0-0.18,28693,List1B,white,man,,,,null,,,,
null,"<img src=""stim_listB/touch5.gif""style=""height:400px;""></stim_listB>",,html-keyboard-response,417,2226577,0.0-19.0-1.18,28693,List1B,white,man,,,,null,,,,
null,is touching,,html-keyboard-response,418,2228579,0.0-19.0-2.18,28693,List1B,white,man,,,,null,,,,
8379,,,survey-text,419,2236960,0.0-19.0-3.18,28693,List1B,white,man,,,,,"{""Q0"":""mike is touching dave""}","<img src=""stim_listB/touch5.gif""style=""height:400px;""></stim_listB>",is touching,
null,"<div style=""font-size:60px;"">+</div>",,html-keyboard-response,420,2237462,0.0-19.0-0.19,28693,List1B,white,man,,,,null,,,,
null,"<img src=""stim_listB/shout1.gif""style=""height:400px;""></stim_listB>",,html-keyboard-response,421,2239464,0.0-19.0-1.19,28693,List1B,white,man,,,,null,,,,
null,is shouting at,,html-keyboard-response,422,2241466,0.0-19.0-2.19,28693,List1B,white,man,,,,null,,,,
7707,,,survey-text,423,2249174,0.0-19.0-3.19,28693,List1B,white,man,,,,,"{""Q0"":""beth is shouting at fred""}","<img src=""stim_listB/shout1.gif""style=""height:400px;""></stim_listB>",is shouting at,
2419,<p>Thank you for completing that task.</p><p>The final part of this session is a short questionnaire.</p><p>Press Continue.</p>,0,html-button-response,424,2251595,0.0-20.0,28693,List1B,white,man,,,,,,,,
26517,,,survey-text,425,2279115,0.0-21.0,28693,List1B,white,man,,,,,"{""Q0"":""43"",""Q1"":""english"",""Q2"":""english"",""Q3"":""England"",""Q4"":""white"",""Q5"":""male""}",,,demographics
6337,,,survey-likert,426,2285455,0.0-22.0,28693,List1B,white,man,,,,,"{""Q0"":4}",,,likert_ESS
12557,,,survey-likert,427,2298013,0.0-23.0,28693,List1B,white,man,,,,,"{""Q0"":5}",,,likert_NSSAL_Q1
2950,,,survey-likert,428,2300966,0.0-24.0,28693,List1B,white,man,,,,,"{""Q0"":""""}",,,likert_NSSAL_Q2
5642,,,survey-likert,429,2306609,0.0-25.0,28693,List1B,white,man,,,,,"{""Q0"":4}",,,likert_CGRS_Q1
1930,,,survey-likert,430,2308542,0.0-26.0,28693,List1B,white,man,,,,,"{""Q0"":""""}",,,likert_CGRS_Q2
5640,,,survey-likert,431,2314184,0.0-27.0,28693,List1B,white,man,,,,,"{""Q0"":4}",,,likert_CGRS_Q3
7028,,,survey-text,432,2321213,0.0-28.0,28693,List1B,white,man,,,,,"{""Q0"":""ccc""}",,,worker_id
22138,,,external-html,433,2343506,0.0-29.0,28693,List1B,white,man,debrief.html,,,,,,,
