rt,stimulus,button_pressed,trial_type,trial_index,time_elapsed,internal_node_id,subject,list,ppt_race,ppt_gender,url,first_guess,correct,key_press,responses,image_type,phrase_type,test_part
2048,Welcome to the experiment. Press Continue to begin.,0,html-button-response,0,2054,0.0-0.0,28751,List2A,white,man,,,,,,,,
34889,,,external-html,1,38073,0.0-1.0,28751,List2A,white,man,consent.html,,,,,,,
2791,"<p>On the next page, you will see portraits of 8 people and their names.</p><p>Your first task is to take a few minutes to memorise the names of these people.</p><p>You will have to recall their names during the rest of the experiment, so it is</p><p>essential that you try to memorise these people and their names as best as you can.</p><br><p><strong>You will then be tested on your memory of these names and portraits.</strong></p><br><p>The experiment will start after you have completed this memory test.</p><br><p>Ready?</p>",0,html-button-response,2,40865,0.0-2.0,28751,List2A,white,man,,,,,,,,
141597,"<img src='img/portrait_matrix_list2.jpg' style='width:900px;height:500px;''></img><p>If you have memorised all the portraits and names and are ready to start, press Continue.</p><p><strong>Please note: Your memory of these faces will be tested 4 times during this experiment.</strong></p>",0,html-button-response,3,183465,0.0-3.0-0.0,28751,List2A,white,man,,,,,,,,
9824,"<img src=""portrait/BW1.jpg""style=""height:400px;""></img>",0,html-button-response,4,194296,0.0-3.0-1.0,28751,List2A,white,man,,TRUE,0,,,,,
null,CORRECT,,html-keyboard-response,5,195799,0.0-3.0-2.0-0.0,28751,List2A,white,man,,,,null,,,,
4376,"<img src=""portrait/WW1.jpg""style=""height:400px;""></img>",1,html-button-response,6,200176,0.0-3.0-4.0,28751,List2A,white,man,,TRUE,1,,,,,
null,CORRECT,,html-keyboard-response,7,201681,0.0-3.0-5.0-0.0,28751,List2A,white,man,,,,null,,,,
4750,"<img src=""portrait/BW2.jpg""style=""height:400px;""></img>",2,html-button-response,8,206436,0.0-3.0-7.0,28751,List2A,white,man,,TRUE,2,,,,,
null,CORRECT,,html-keyboard-response,9,207941,0.0-3.0-8.0-0.0,28751,List2A,white,man,,,,null,,,,
4980,"<img src=""portrait/BM1.jpg""style=""height:400px;""></img>",4,html-button-response,10,212927,0.0-3.0-10.0,28751,List2A,white,man,,TRUE,4,,,,,
null,CORRECT,,html-keyboard-response,11,214432,0.0-3.0-11.0-0.0,28751,List2A,white,man,,,,null,,,,
5590,"<img src=""portrait/BM2.jpg""style=""height:400px;""></img>",5,html-button-response,12,220028,0.0-3.0-13.0,28751,List2A,white,man,,TRUE,5,,,,,
null,CORRECT,,html-keyboard-response,13,221533,0.0-3.0-14.0-0.0,28751,List2A,white,man,,,,null,,,,
3056,"<img src=""portrait/WW2.jpg""style=""height:400px;""></img>",3,html-button-response,14,224595,0.0-3.0-16.0,28751,List2A,white,man,,TRUE,3,,,,,
null,CORRECT,,html-keyboard-response,15,226099,0.0-3.0-17.0-0.0,28751,List2A,white,man,,,,null,,,,
4803,"<img src=""portrait/WM1.jpg""style=""height:400px;""></img>",6,html-button-response,16,230908,0.0-3.0-19.0,28751,List2A,white,man,,TRUE,6,,,,,
null,CORRECT,,html-keyboard-response,17,232412,0.0-3.0-20.0-0.0,28751,List2A,white,man,,,,null,,,,
5553,"<img src=""portrait/WM2.jpg""style=""height:400px;""></img>",7,html-button-response,18,237969,0.0-3.0-22.0,28751,List2A,white,man,,TRUE,7,,,,,
null,CORRECT,,html-keyboard-response,19,239474,0.0-3.0-23.0-0.0,28751,List2A,white,man,,,,null,,,,
1807,<p>You got 8 out of 8 right first time. Press Continue.</p>,0,html-button-response,20,241285,0.0-3.0-25.0,28751,List2A,white,man,,,,,,,,
44904,"<p>In this experiment, you will view photographs of the people from the memory game interacting.</p><p>By using the <strong>exact</strong> phrase given <i>after</i> the photograph appears and recalling the correct names of the people in the photographs, form a sentence describing the interaction. You do not need to capitalise names.</p><p>Type your answer in the space provided. Please complete every sentence before moving onto the next trial.</p><p>You will only have a few seconds to memorise each given photograph and phrase before you can respond, so try your best to focus.</p><p>An example is given below. Press 'Continue' when you are ready.</p><img src='img/speaking_example.jpg' style='width:800px;height:460px;''></img>",0,html-button-response,21,287195,0.0-4.0,28751,List2A,white,man,,,,,,,,
3125,"<p>Before the experiment starts, you will watch two example trials. Press 'Continue'.</p>",0,html-button-response,22,291323,0.0-5.0,28751,List2A,white,man,,,,,,,,
null,<img src='img/meet_eg.gif' style='height:400px;''></img>,,html-keyboard-response,23,294328,0.0-6.0,28751,List2A,white,man,,,,null,,,,
null,<p>is meeting</p>,,html-keyboard-response,24,296332,0.0-7.0,28751,List2A,white,man,,,,null,,,,
3740,<p><b>Answer:</b> jane is meeting ruth</p>,0,html-button-response,25,300075,0.0-8.0,28751,List2A,white,man,,,,,,,,
null,<img src='img/look_eg.gif' style='height:400px;''></img>,,html-keyboard-response,26,303081,0.0-9.0,28751,List2A,white,man,,,,null,,,,
null,<p>are looking at each other</p>,,html-keyboard-response,27,305084,0.0-10.0,28751,List2A,white,man,,,,null,,,,
3762,<p><b>Answer:</b> fred and mike are looking at each other</p>,0,html-button-response,28,308850,0.0-11.0,28751,List2A,white,man,,,,,,,,
8083,"<p>Ready to start the experiment?</p><br><p><strong>Remember to describe the picture using a full sentence,</strong></p><p><strong>that combines the names of the people with the <i>exact</i> phrase given.</strong></p><p><strong>To receive full payment you must do this correctly.</strong></p><p><strong> You do not need to capitalise names or use punctuation.</strong></p><br><p>Press 'Continue' to begin.</p>",0,html-button-response,29,317936,0.0-12.0,28751,List2A,white,man,,,,,,,,
null,"<div style=""font-size:60px;"">+</div>",,html-keyboard-response,30,319440,0.0-13.0-0.0,28751,List2A,white,man,,,,null,,,,
null,"<img src=""stim_listA/talk6.gif""style=""height:400px;""></stim_listA>",,html-keyboard-response,31,321444,0.0-13.0-1.0,28751,List2A,white,man,,,,null,,,,
null,are talking to each other,,html-keyboard-response,32,323447,0.0-13.0-2.0,28751,List2A,white,man,,,,null,,,,
25031,,,survey-text,33,348485,0.0-13.0-3.0,28751,List2A,white,man,,,,,"{""Q0"":""Fred and David are talking to each other""}","<img src=""stim_listA/talk6.gif""style=""height:400px;""></stim_listA>",are talking to each other,
null,"<div style=""font-size:60px;"">+</div>",,html-keyboard-response,34,348987,0.0-13.0-0.1,28751,List2A,white,man,,,,null,,,,
null,"<img src=""stim_listA/flirt4.gif""style=""height:400px;""></stim_listA>",,html-keyboard-response,35,350991,0.0-13.0-1.1,28751,List2A,white,man,,,,null,,,,
null,are flirting with each other,,html-keyboard-response,36,352997,0.0-13.0-2.1,28751,List2A,white,man,,,,null,,,,
36481,,,survey-text,37,389481,0.0-13.0-3.1,28751,List2A,white,man,,,,,"{""Q0"":""Luke and Ruth are flirting with each other""}","<img src=""stim_listA/flirt4.gif""style=""height:400px;""></stim_listA>",are flirting with each other,
null,"<div style=""font-size:60px;"">+</div>",,html-keyboard-response,38,389984,0.0-13.0-0.2,28751,List2A,white,man,,,,null,,,,
null,"<img src=""stim_listA/touch4.gif""style=""height:400px;""></stim_listA>",,html-keyboard-response,39,391988,0.0-13.0-1.2,28751,List2A,white,man,,,,null,,,,
null,are touching each other,,html-keyboard-response,40,393992,0.0-13.0-2.2,28751,List2A,white,man,,,,null,,,,
22213,,,survey-text,41,416210,0.0-13.0-3.2,28751,List2A,white,man,,,,,"{""Q0"":""Fred and Beth are touching each other""}","<img src=""stim_listA/touch4.gif""style=""height:400px;""></stim_listA>",are touching each other,
null,"<div style=""font-size:60px;"">+</div>",,html-keyboard-response,42,416713,0.0-13.0-0.3,28751,List2A,white,man,,,,null,,,,
null,"<img src=""stim_listA/shout2.gif""style=""height:400px;""></stim_listA>",,html-keyboard-response,43,418717,0.0-13.0-1.3,28751,List2A,white,man,,,,null,,,,
null,are shouting at each other,,html-keyboard-response,44,420722,0.0-13.0-2.3,28751,List2A,white,man,,,,null,,,,
19185,,,survey-text,45,439911,0.0-13.0-3.3,28751,List2A,white,man,,,,,"{""Q0"":""Dave and Jane are shouting at each other""}","<img src=""stim_listA/shout2.gif""style=""height:400px;""></stim_listA>",are shouting at each other,
null,"<div style=""font-size:60px;"">+</div>",,html-keyboard-response,46,440414,0.0-13.0-0.4,28751,List2A,white,man,,,,null,,,,
null,"<img src=""stim_listA/touch1.gif""style=""height:400px;""></stim_listA>",,html-keyboard-response,47,442418,0.0-13.0-1.4,28751,List2A,white,man,,,,null,,,,
null,is touching,,html-keyboard-response,48,444423,0.0-13.0-2.4,28751,List2A,white,man,,,,null,,,,
11518,,,survey-text,49,455945,0.0-13.0-3.4,28751,List2A,white,man,,,,,"{""Q0"":""Fred is touching jane""}","<img src=""stim_listA/touch1.gif""style=""height:400px;""></stim_listA>",is touching,
null,"<div style=""font-size:60px;"">+</div>",,html-keyboard-response,50,456447,0.0-13.0-0.5,28751,List2A,white,man,,,,null,,,,
null,"<img src=""stim_listA/kiss2.gif""style=""height:400px;""></stim_listA>",,html-keyboard-response,51,458450,0.0-13.0-1.5,28751,List2A,white,man,,,,null,,,,
null,are kissing each other,,html-keyboard-response,52,460455,0.0-13.0-2.5,28751,List2A,white,man,,,,null,,,,
29999,,,survey-text,53,490457,0.0-13.0-3.5,28751,List2A,white,man,,,,,"{""Q0"":""Dave and Jane are kissing ""}","<img src=""stim_listA/kiss2.gif""style=""height:400px;""></stim_listA>",are kissing each other,
null,"<div style=""font-size:60px;"">+</div>",,html-keyboard-response,54,490959,0.0-13.0-0.6,28751,List2A,white,man,,,,null,,,,
null,"<img src=""stim_listA/flirt2.gif""style=""height:400px;""></stim_listA>",,html-keyboard-response,55,492961,0.0-13.0-1.6,28751,List2A,white,man,,,,null,,,,
null,are flirting with each other,,html-keyboard-response,56,494965,0.0-13.0-2.6,28751,List2A,white,man,,,,null,,,,
17776,,,survey-text,57,512744,0.0-13.0-3.6,28751,List2A,white,man,,,,,"{""Q0"":""Dave and Ruth are flirting""}","<img src=""stim_listA/flirt2.gif""style=""height:400px;""></stim_listA>",are flirting with each other,
null,"<div style=""font-size:60px;"">+</div>",,html-keyboard-response,58,513247,0.0-13.0-0.7,28751,List2A,white,man,,,,null,,,,
null,"<img src=""stim_listA/play5.gif""style=""height:400px;""></stim_listA>",,html-keyboard-response,59,515250,0.0-13.0-1.7,28751,List2A,white,man,,,,null,,,,
null,is playing with,,html-keyboard-response,60,517255,0.0-13.0-2.7,28751,List2A,white,man,,,,null,,,,
46078,,,survey-text,61,563338,0.0-13.0-3.7,28751,List2A,white,man,,,,,"{""Q0"":""Dave and Luke are playing""}","<img src=""stim_listA/play5.gif""style=""height:400px;""></stim_listA>",is playing with,
null,"<div style=""font-size:60px;"">+</div>",,html-keyboard-response,62,563840,0.0-13.0-0.8,28751,List2A,white,man,,,,null,,,,
null,"<img src=""stim_listA/fight4.gif""style=""height:400px;""></stim_listA>",,html-keyboard-response,63,565843,0.0-13.0-1.8,28751,List2A,white,man,,,,null,,,,
null,are fighting each other,,html-keyboard-response,64,567847,0.0-13.0-2.8,28751,List2A,white,man,,,,null,,,,
16799,,,survey-text,65,584650,0.0-13.0-3.8,28751,List2A,white,man,,,,,"{""Q0"":""Fred and Beth are fighting""}","<img src=""stim_listA/fight4.gif""style=""height:400px;""></stim_listA>",are fighting each other,
null,"<div style=""font-size:60px;"">+</div>",,html-keyboard-response,66,585153,0.0-13.0-0.9,28751,List2A,white,man,,,,null,,,,
null,"<img src=""stim_listA/play6.gif""style=""height:400px;""></stim_listA>",,html-keyboard-response,67,587156,0.0-13.0-1.9,28751,List2A,white,man,,,,null,,,,
null,are playing with each other,,html-keyboard-response,68,589161,0.0-13.0-2.9,28751,List2A,white,man,,,,null,,,,
30160,,,survey-text,69,619325,0.0-13.0-3.9,28751,List2A,white,man,,,,,"{""Q0"":""Fred and Luke are playing with each other""}","<img src=""stim_listA/play6.gif""style=""height:400px;""></stim_listA>",are playing with each other,
null,"<div style=""font-size:60px;"">+</div>",,html-keyboard-response,70,619827,0.0-13.0-0.10,28751,List2A,white,man,,,,null,,,,
null,"<img src=""stim_listA/marry2.gif""style=""height:400px;""></stim_listA>",,html-keyboard-response,71,621830,0.0-13.0-1.10,28751,List2A,white,man,,,,null,,,,
null,are marrying each other,,html-keyboard-response,72,623835,0.0-13.0-2.10,28751,List2A,white,man,,,,null,,,,
18107,,,survey-text,73,641945,0.0-13.0-3.10,28751,List2A,white,man,,,,,"{""Q0"":""Luke and Jane are marrying each other""}","<img src=""stim_listA/marry2.gif""style=""height:400px;""></stim_listA>",are marrying each other,
null,"<div style=""font-size:60px;"">+</div>",,html-keyboard-response,74,642448,0.0-13.0-0.11,28751,List2A,white,man,,,,null,,,,
null,"<img src=""stim_listA/marry3.gif""style=""height:400px;""></stim_listA>",,html-keyboard-response,75,644452,0.0-13.0-1.11,28751,List2A,white,man,,,,null,,,,
null,is marrying,,html-keyboard-response,76,646457,0.0-13.0-2.11,28751,List2A,white,man,,,,null,,,,
15265,,,survey-text,77,661726,0.0-13.0-3.11,28751,List2A,white,man,,,,,"{""Q0"":""Mike is marrying beth""}","<img src=""stim_listA/marry3.gif""style=""height:400px;""></stim_listA>",is marrying,
null,"<div style=""font-size:60px;"">+</div>",,html-keyboard-response,78,662228,0.0-13.0-0.12,28751,List2A,white,man,,,,null,,,,
null,"<img src=""stim_listA/dance2.gif""style=""height:400px;""></stim_listA>",,html-keyboard-response,79,664232,0.0-13.0-1.12,28751,List2A,white,man,,,,null,,,,
null,are dancing with each other,,html-keyboard-response,80,666237,0.0-13.0-2.12,28751,List2A,white,man,,,,null,,,,
20505,,,survey-text,81,686745,0.0-13.0-3.12,28751,List2A,white,man,,,,,"{""Q0"":""Ruth and Dave are dancing""}","<img src=""stim_listA/dance2.gif""style=""height:400px;""></stim_listA>",are dancing with each other,
null,"<div style=""font-size:60px;"">+</div>",,html-keyboard-response,82,687248,0.0-13.0-0.13,28751,List2A,white,man,,,,null,,,,
null,"<img src=""stim_listA/shout4.gif""style=""height:400px;""></stim_listA>",,html-keyboard-response,83,689251,0.0-13.0-1.13,28751,List2A,white,man,,,,null,,,,
null,are shouting at each other,,html-keyboard-response,84,691255,0.0-13.0-2.13,28751,List2A,white,man,,,,null,,,,
11187,,,survey-text,85,702445,0.0-13.0-3.13,28751,List2A,white,man,,,,,"{""Q0"":""Mike and kate""}","<img src=""stim_listA/shout4.gif""style=""height:400px;""></stim_listA>",are shouting at each other,
null,"<div style=""font-size:60px;"">+</div>",,html-keyboard-response,86,702947,0.0-13.0-0.14,28751,List2A,white,man,,,,null,,,,
null,"<img src=""stim_listA/flirt3.gif""style=""height:400px;""></stim_listA>",,html-keyboard-response,87,704949,0.0-13.0-1.14,28751,List2A,white,man,,,,null,,,,
null,is flirting with,,html-keyboard-response,88,706954,0.0-13.0-2.14,28751,List2A,white,man,,,,null,,,,
16602,,,survey-text,89,723561,0.0-13.0-3.14,28751,List2A,white,man,,,,,"{""Q0"":""Fred is flirting with kate""}","<img src=""stim_listA/flirt3.gif""style=""height:400px;""></stim_listA>",is flirting with,
null,"<div style=""font-size:60px;"">+</div>",,html-keyboard-response,90,724063,0.0-13.0-0.15,28751,List2A,white,man,,,,null,,,,
null,"<img src=""stim_listA/marry4.gif""style=""height:400px;""></stim_listA>",,html-keyboard-response,91,726066,0.0-13.0-1.15,28751,List2A,white,man,,,,null,,,,
null,are marrying each other,,html-keyboard-response,92,728071,0.0-13.0-2.15,28751,List2A,white,man,,,,null,,,,
16229,,,survey-text,93,744304,0.0-13.0-3.15,28751,List2A,white,man,,,,,"{""Q0"":""Fred and Kate are marrying each other""}","<img src=""stim_listA/marry4.gif""style=""height:400px;""></stim_listA>",are marrying each other,
null,"<div style=""font-size:60px;"">+</div>",,html-keyboard-response,94,744807,0.0-13.0-0.16,28751,List2A,white,man,,,,null,,,,
null,"<img src=""stim_listA/marry6.gif""style=""height:400px;""></stim_listA>",,html-keyboard-response,95,746811,0.0-13.0-1.16,28751,List2A,white,man,,,,null,,,,
null,are marrying each other,,html-keyboard-response,96,748815,0.0-13.0-2.16,28751,List2A,white,man,,,,null,,,,
19964,,,survey-text,97,768782,0.0-13.0-3.16,28751,List2A,white,man,,,,,"{""Q0"":""Mike and Luke are marrying each other""}","<img src=""stim_listA/marry6.gif""style=""height:400px;""></stim_listA>",are marrying each other,
null,"<div style=""font-size:60px;"">+</div>",,html-keyboard-response,98,769285,0.0-13.0-0.17,28751,List2A,white,man,,,,null,,,,
null,"<img src=""stim_listA/argue8.gif""style=""height:400px;""></stim_listA>",,html-keyboard-response,99,771289,0.0-13.0-1.17,28751,List2A,white,man,,,,null,,,,
null,are arguing with each other,,html-keyboard-response,100,773294,0.0-13.0-2.17,28751,List2A,white,man,,,,null,,,,
24414,,,survey-text,101,797712,0.0-13.0-3.17,28751,List2A,white,man,,,,,"{""Q0"":""Ruth and Kate are argueing each other""}","<img src=""stim_listA/argue8.gif""style=""height:400px;""></stim_listA>",are arguing with each other,
null,"<div style=""font-size:60px;"">+</div>",,html-keyboard-response,102,798216,0.0-13.0-0.18,28751,List2A,white,man,,,,null,,,,
null,"<img src=""stim_listA/argue2.gif""style=""height:400px;""></stim_listA>",,html-keyboard-response,103,800219,0.0-13.0-1.18,28751,List2A,white,man,,,,null,,,,
null,are arguing with each other,,html-keyboard-response,104,802224,0.0-13.0-2.18,28751,List2A,white,man,,,,null,,,,
32037,,,survey-text,105,834265,0.0-13.0-3.18,28751,List2A,white,man,,,,,"{""Q0"":""Luke and Jane are arguing with each other ""}","<img src=""stim_listA/argue2.gif""style=""height:400px;""></stim_listA>",are arguing with each other,
null,"<div style=""font-size:60px;"">+</div>",,html-keyboard-response,106,834766,0.0-13.0-0.19,28751,List2A,white,man,,,,null,,,,
null,"<img src=""stim_listA/argue3.gif""style=""height:400px;""></stim_listA>",,html-keyboard-response,107,836770,0.0-13.0-1.19,28751,List2A,white,man,,,,null,,,,
null,is arguing with,,html-keyboard-response,108,838774,0.0-13.0-2.19,28751,List2A,white,man,,,,null,,,,
7901,,,survey-text,109,846679,0.0-13.0-3.19,28751,List2A,white,man,,,,,"{""Q0"":""Beth and mike""}","<img src=""stim_listA/argue3.gif""style=""height:400px;""></stim_listA>",is arguing with,
8256,"<img src='img/portrait_matrix_list2.jpg' style='width:900px;height:500px;''></img><p>If you have memorised all the portraits and names and are ready to start, press Continue.</p><p><strong>Please note: Your memory of these faces will be tested 4 times during this experiment.</strong></p>",0,html-button-response,110,854938,0.0-14.0-0.0,28751,List2A,white,man,,,,,,,,
4234,"<img src=""portrait/WM1.jpg""style=""height:400px;""></img>",6,html-button-response,111,860174,0.0-14.0-1.0,28751,List2A,white,man,,TRUE,6,,,,,
null,CORRECT,,html-keyboard-response,112,861678,0.0-14.0-2.0-0.0,28751,List2A,white,man,,,,null,,,,
6461,"<img src=""portrait/BW2.jpg""style=""height:400px;""></img>",2,html-button-response,113,868145,0.0-14.0-4.0,28751,List2A,white,man,,TRUE,2,,,,,
null,CORRECT,,html-keyboard-response,114,869649,0.0-14.0-5.0-0.0,28751,List2A,white,man,,,,null,,,,
2558,"<img src=""portrait/WW1.jpg""style=""height:400px;""></img>",1,html-button-response,115,872213,0.0-14.0-7.0,28751,List2A,white,man,,TRUE,1,,,,,
null,CORRECT,,html-keyboard-response,116,873717,0.0-14.0-8.0-0.0,28751,List2A,white,man,,,,null,,,,
2405,"<img src=""portrait/BM2.jpg""style=""height:400px;""></img>",5,html-button-response,117,876128,0.0-14.0-10.0,28751,List2A,white,man,,TRUE,5,,,,,
null,CORRECT,,html-keyboard-response,118,877633,0.0-14.0-11.0-0.0,28751,List2A,white,man,,,,null,,,,
2387,"<img src=""portrait/WM2.jpg""style=""height:400px;""></img>",7,html-button-response,119,880025,0.0-14.0-13.0,28751,List2A,white,man,,TRUE,7,,,,,
null,CORRECT,,html-keyboard-response,120,881530,0.0-14.0-14.0-0.0,28751,List2A,white,man,,,,null,,,,
2557,"<img src=""portrait/BM1.jpg""style=""height:400px;""></img>",4,html-button-response,121,884091,0.0-14.0-16.0,28751,List2A,white,man,,TRUE,4,,,,,
null,CORRECT,,html-keyboard-response,122,885595,0.0-14.0-17.0-0.0,28751,List2A,white,man,,,,null,,,,
2838,"<img src=""portrait/WW2.jpg""style=""height:400px;""></img>",3,html-button-response,123,888435,0.0-14.0-19.0,28751,List2A,white,man,,TRUE,3,,,,,
null,CORRECT,,html-keyboard-response,124,889939,0.0-14.0-20.0-0.0,28751,List2A,white,man,,,,null,,,,
2784,"<img src=""portrait/BW1.jpg""style=""height:400px;""></img>",0,html-button-response,125,892728,0.0-14.0-22.0,28751,List2A,white,man,,TRUE,0,,,,,
null,CORRECT,,html-keyboard-response,126,894232,0.0-14.0-23.0-0.0,28751,List2A,white,man,,,,null,,,,
5732,<p>You got 8 out of 8 right first time. Press Continue.</p>,0,html-button-response,127,899969,0.0-14.0-25.0,28751,List2A,white,man,,,,,,,,
null,"<div style=""font-size:60px;"">+</div>",,html-keyboard-response,128,901476,0.0-15.0-0.0,28751,List2A,white,man,,,,null,,,,
null,"<img src=""stim_listA/talk3.gif""style=""height:400px;""></stim_listA>",,html-keyboard-response,129,903481,0.0-15.0-1.0,28751,List2A,white,man,,,,null,,,,
null,is talking to,,html-keyboard-response,130,905486,0.0-15.0-2.0,28751,List2A,white,man,,,,null,,,,
25572,,,survey-text,131,931062,0.0-15.0-3.0,28751,List2A,white,man,,,,,"{""Q0"":""Kate is talking to Dave""}","<img src=""stim_listA/talk3.gif""style=""height:400px;""></stim_listA>",is talking to,
null,"<div style=""font-size:60px;"">+</div>",,html-keyboard-response,132,931568,0.0-15.0-0.1,28751,List2A,white,man,,,,null,,,,
null,"<img src=""stim_listA/touch3.gif""style=""height:400px;""></stim_listA>",,html-keyboard-response,133,933572,0.0-15.0-1.1,28751,List2A,white,man,,,,null,,,,
null,is touching,,html-keyboard-response,134,935576,0.0-15.0-2.1,28751,List2A,white,man,,,,null,,,,
11998,,,survey-text,135,947579,0.0-15.0-3.1,28751,List2A,white,man,,,,,"{""Q0"":""Kate is touching mike""}","<img src=""stim_listA/touch3.gif""style=""height:400px;""></stim_listA>",is touching,
null,"<div style=""font-size:60px;"">+</div>",,html-keyboard-response,136,948082,0.0-15.0-0.2,28751,List2A,white,man,,,,null,,,,
null,"<img src=""stim_listA/marry1.gif""style=""height:400px;""></stim_listA>",,html-keyboard-response,137,950086,0.0-15.0-1.2,28751,List2A,white,man,,,,null,,,,
null,is marrying,,html-keyboard-response,138,952090,0.0-15.0-2.2,28751,List2A,white,man,,,,null,,,,
14100,,,survey-text,139,966195,0.0-15.0-3.2,28751,List2A,white,man,,,,,"{""Q0"":""Ruth is marrying luke""}","<img src=""stim_listA/marry1.gif""style=""height:400px;""></stim_listA>",is marrying,
null,"<div style=""font-size:60px;"">+</div>",,html-keyboard-response,140,966697,0.0-15.0-0.3,28751,List2A,white,man,,,,null,,,,
null,"<img src=""stim_listA/shout7.gif""style=""height:400px;""></stim_listA>",,html-keyboard-response,141,968700,0.0-15.0-1.3,28751,List2A,white,man,,,,null,,,,
null,is shouting at,,html-keyboard-response,142,970705,0.0-15.0-2.3,28751,List2A,white,man,,,,null,,,,
11701,,,survey-text,143,982410,0.0-15.0-3.3,28751,List2A,white,man,,,,,"{""Q0"":""Beth is shouting at ruth""}","<img src=""stim_listA/shout7.gif""style=""height:400px;""></stim_listA>",is shouting at,
null,"<div style=""font-size:60px;"">+</div>",,html-keyboard-response,144,982913,0.0-15.0-0.4,28751,List2A,white,man,,,,null,,,,
null,"<img src=""stim_listA/flirt7.gif""style=""height:400px;""></stim_listA>",,html-keyboard-response,145,984916,0.0-15.0-1.4,28751,List2A,white,man,,,,null,,,,
null,is flirting with,,html-keyboard-response,146,986921,0.0-15.0-2.4,28751,List2A,white,man,,,,null,,,,
16641,,,survey-text,147,1003565,0.0-15.0-3.4,28751,List2A,white,man,,,,,"{""Q0"":""Ruth is flirting with kate""}","<img src=""stim_listA/flirt7.gif""style=""height:400px;""></stim_listA>",is flirting with,
null,"<div style=""font-size:60px;"">+</div>",,html-keyboard-response,148,1004068,0.0-15.0-0.5,28751,List2A,white,man,,,,null,,,,
null,"<img src=""stim_listA/flirt8.gif""style=""height:400px;""></stim_listA>",,html-keyboard-response,149,1006072,0.0-15.0-1.5,28751,List2A,white,man,,,,null,,,,
null,are flirting with each other,,html-keyboard-response,150,1008077,0.0-15.0-2.5,28751,List2A,white,man,,,,null,,,,
25013,,,survey-text,151,1033094,0.0-15.0-3.5,28751,List2A,white,man,,,,,"{""Q0"":""Ruth and Jane are flirting with each other""}","<img src=""stim_listA/flirt8.gif""style=""height:400px;""></stim_listA>",are flirting with each other,
null,"<div style=""font-size:60px;"">+</div>",,html-keyboard-response,152,1033597,0.0-15.0-0.6,28751,List2A,white,man,,,,null,,,,
null,"<img src=""stim_listA/play7.gif""style=""height:400px;""></stim_listA>",,html-keyboard-response,153,1035600,0.0-15.0-1.6,28751,List2A,white,man,,,,null,,,,
null,is playing with,,html-keyboard-response,154,1037603,0.0-15.0-2.6,28751,List2A,white,man,,,,null,,,,
17236,,,survey-text,155,1054843,0.0-15.0-3.6,28751,List2A,white,man,,,,,"{""Q0"":""Kate is playing with Jane""}","<img src=""stim_listA/play7.gif""style=""height:400px;""></stim_listA>",is playing with,
null,"<div style=""font-size:60px;"">+</div>",,html-keyboard-response,156,1055346,0.0-15.0-0.7,28751,List2A,white,man,,,,null,,,,
null,"<img src=""stim_listA/dance5.gif""style=""height:400px;""></stim_listA>",,html-keyboard-response,157,1057350,0.0-15.0-1.7,28751,List2A,white,man,,,,null,,,,
null,is dancing with,,html-keyboard-response,158,1059355,0.0-15.0-2.7,28751,List2A,white,man,,,,null,,,,
16451,,,survey-text,159,1075809,0.0-15.0-3.7,28751,List2A,white,man,,,,,"{""Q0"":""Luke is dancing with mike""}","<img src=""stim_listA/dance5.gif""style=""height:400px;""></stim_listA>",is dancing with,
null,"<div style=""font-size:60px;"">+</div>",,html-keyboard-response,160,1076312,0.0-15.0-0.8,28751,List2A,white,man,,,,null,,,,
null,"<img src=""stim_listA/touch5.gif""style=""height:400px;""></stim_listA>",,html-keyboard-response,161,1078316,0.0-15.0-1.8,28751,List2A,white,man,,,,null,,,,
null,is touching,,html-keyboard-response,162,1080320,0.0-15.0-2.8,28751,List2A,white,man,,,,null,,,,
9958,,,survey-text,163,1090283,0.0-15.0-3.8,28751,List2A,white,man,,,,,"{""Q0"":""Dave is touching mike""}","<img src=""stim_listA/touch5.gif""style=""height:400px;""></stim_listA>",is touching,
null,"<div style=""font-size:60px;"">+</div>",,html-keyboard-response,164,1090786,0.0-15.0-0.9,28751,List2A,white,man,,,,null,,,,
null,"<img src=""stim_listA/shout1.gif""style=""height:400px;""></stim_listA>",,html-keyboard-response,165,1092789,0.0-15.0-1.9,28751,List2A,white,man,,,,null,,,,
null,is shouting at,,html-keyboard-response,166,1094794,0.0-15.0-2.9,28751,List2A,white,man,,,,null,,,,
22297,,,survey-text,167,1117096,0.0-15.0-3.9,28751,List2A,white,man,,,,,"{""Q0"":""Ruth is shouting at Luke""}","<img src=""stim_listA/shout1.gif""style=""height:400px;""></stim_listA>",is shouting at,
null,"<div style=""font-size:60px;"">+</div>",,html-keyboard-response,168,1117597,0.0-15.0-0.10,28751,List2A,white,man,,,,null,,,,
null,"<img src=""stim_listA/talk1.gif""style=""height:400px;""></stim_listA>",,html-keyboard-response,169,1119600,0.0-15.0-1.10,28751,List2A,white,man,,,,null,,,,
null,is talking to,,html-keyboard-response,170,1121605,0.0-15.0-2.10,28751,List2A,white,man,,,,null,,,,
10773,,,survey-text,171,1132382,0.0-15.0-3.10,28751,List2A,white,man,,,,,"{""Q0"":""Luke is talking to jane""}","<img src=""stim_listA/talk1.gif""style=""height:400px;""></stim_listA>",is talking to,
null,"<div style=""font-size:60px;"">+</div>",,html-keyboard-response,172,1132885,0.0-15.0-0.11,28751,List2A,white,man,,,,null,,,,
null,"<img src=""stim_listA/dance4.gif""style=""height:400px;""></stim_listA>",,html-keyboard-response,173,1134888,0.0-15.0-1.11,28751,List2A,white,man,,,,null,,,,
null,are dancing with each other,,html-keyboard-response,174,1136892,0.0-15.0-2.11,28751,List2A,white,man,,,,null,,,,
17217,,,survey-text,175,1154113,0.0-15.0-3.11,28751,List2A,white,man,,,,,"{""Q0"":""Beth and mike are dancing with each other""}","<img src=""stim_listA/dance4.gif""style=""height:400px;""></stim_listA>",are dancing with each other,
null,"<div style=""font-size:60px;"">+</div>",,html-keyboard-response,176,1154615,0.0-15.0-0.12,28751,List2A,white,man,,,,null,,,,
null,"<img src=""stim_listA/argue6.gif""style=""height:400px;""></stim_listA>",,html-keyboard-response,177,1156618,0.0-15.0-1.12,28751,List2A,white,man,,,,null,,,,
null,are arguing with each other,,html-keyboard-response,178,1158623,0.0-15.0-2.12,28751,List2A,white,man,,,,null,,,,
18645,,,survey-text,179,1177271,0.0-15.0-3.12,28751,List2A,white,man,,,,,"{""Q0"":""Luke and mike are arguing with each other""}","<img src=""stim_listA/argue6.gif""style=""height:400px;""></stim_listA>",are arguing with each other,
null,"<div style=""font-size:60px;"">+</div>",,html-keyboard-response,180,1177773,0.0-15.0-0.13,28751,List2A,white,man,,,,null,,,,
null,"<img src=""stim_listA/flirt5.gif""style=""height:400px;""></stim_listA>",,html-keyboard-response,181,1179776,0.0-15.0-1.13,28751,List2A,white,man,,,,null,,,,
null,is flirting with,,html-keyboard-response,182,1181780,0.0-15.0-2.13,28751,List2A,white,man,,,,null,,,,
15343,,,survey-text,183,1197126,0.0-15.0-3.13,28751,List2A,white,man,,,,,"{""Q0"":""Luke is flirting with mike""}","<img src=""stim_listA/flirt5.gif""style=""height:400px;""></stim_listA>",is flirting with,
null,"<div style=""font-size:60px;"">+</div>",,html-keyboard-response,184,1197627,0.0-15.0-0.14,28751,List2A,white,man,,,,null,,,,
null,"<img src=""stim_listA/fight1.gif""style=""height:400px;""></stim_listA>",,html-keyboard-response,185,1199630,0.0-15.0-1.14,28751,List2A,white,man,,,,null,,,,
null,is fighting,,html-keyboard-response,186,1201635,0.0-15.0-2.14,28751,List2A,white,man,,,,null,,,,
11028,,,survey-text,187,1212666,0.0-15.0-3.14,28751,List2A,white,man,,,,,"{""Q0"":""Dave is fighting Jane ""}","<img src=""stim_listA/fight1.gif""style=""height:400px;""></stim_listA>",is fighting,
null,"<div style=""font-size:60px;"">+</div>",,html-keyboard-response,188,1213168,0.0-15.0-0.15,28751,List2A,white,man,,,,null,,,,
null,"<img src=""stim_listA/touch6.gif""style=""height:400px;""></stim_listA>",,html-keyboard-response,189,1215171,0.0-15.0-1.15,28751,List2A,white,man,,,,null,,,,
null,are touching each other,,html-keyboard-response,190,1217176,0.0-15.0-2.15,28751,List2A,white,man,,,,null,,,,
12378,,,survey-text,191,1229557,0.0-15.0-3.15,28751,List2A,white,man,,,,,"{""Q0"":""Fred is touching Luke ""}","<img src=""stim_listA/touch6.gif""style=""height:400px;""></stim_listA>",are touching each other,
null,"<div style=""font-size:60px;"">+</div>",,html-keyboard-response,192,1230059,0.0-15.0-0.16,28751,List2A,white,man,,,,null,,,,
null,"<img src=""stim_listA/fight8.gif""style=""height:400px;""></stim_listA>",,html-keyboard-response,193,1232062,0.0-15.0-1.16,28751,List2A,white,man,,,,null,,,,
null,are fighting each other,,html-keyboard-response,194,1234067,0.0-15.0-2.16,28751,List2A,white,man,,,,null,,,,
12681,,,survey-text,195,1246752,0.0-15.0-3.16,28751,List2A,white,man,,,,,"{""Q0"":""Beth is fighting Ruth ""}","<img src=""stim_listA/fight8.gif""style=""height:400px;""></stim_listA>",are fighting each other,
null,"<div style=""font-size:60px;"">+</div>",,html-keyboard-response,196,1247255,0.0-15.0-0.17,28751,List2A,white,man,,,,null,,,,
null,"<img src=""stim_listA/kiss3.gif""style=""height:400px;""></stim_listA>",,html-keyboard-response,197,1249259,0.0-15.0-1.17,28751,List2A,white,man,,,,null,,,,
null,is kissing,,html-keyboard-response,198,1251264,0.0-15.0-2.17,28751,List2A,white,man,,,,null,,,,
16399,,,survey-text,199,1267666,0.0-15.0-3.17,28751,List2A,white,man,,,,,"{""Q0"":""Beth is kissing fred""}","<img src=""stim_listA/kiss3.gif""style=""height:400px;""></stim_listA>",is kissing,
null,"<div style=""font-size:60px;"">+</div>",,html-keyboard-response,200,1268168,0.0-15.0-0.18,28751,List2A,white,man,,,,null,,,,
null,"<img src=""stim_listA/argue5.gif""style=""height:400px;""></stim_listA>",,html-keyboard-response,201,1270171,0.0-15.0-1.18,28751,List2A,white,man,,,,null,,,,
null,is arguing with,,html-keyboard-response,202,1272174,0.0-15.0-2.18,28751,List2A,white,man,,,,null,,,,
13263,,,survey-text,203,1285441,0.0-15.0-3.18,28751,List2A,white,man,,,,,"{""Q0"":""Fred is arguing with Dave ""}","<img src=""stim_listA/argue5.gif""style=""height:400px;""></stim_listA>",is arguing with,
null,"<div style=""font-size:60px;"">+</div>",,html-keyboard-response,204,1285944,0.0-15.0-0.19,28751,List2A,white,man,,,,null,,,,
null,"<img src=""stim_listA/touch7.gif""style=""height:400px;""></stim_listA>",,html-keyboard-response,205,1287948,0.0-15.0-1.19,28751,List2A,white,man,,,,null,,,,
null,is touching,,html-keyboard-response,206,1289953,0.0-15.0-2.19,28751,List2A,white,man,,,,null,,,,
14884,,,survey-text,207,1304841,0.0-15.0-3.19,28751,List2A,white,man,,,,,"{""Q0"":""Kate is touching Jane""}","<img src=""stim_listA/touch7.gif""style=""height:400px;""></stim_listA>",is touching,
4237,"<img src='img/portrait_matrix_list2.jpg' style='width:900px;height:500px;''></img><p>If you have memorised all the portraits and names and are ready to start, press Continue.</p><p><strong>Please note: Your memory of these faces will be tested 4 times during this experiment.</strong></p>",0,html-button-response,208,1309080,0.0-16.0-0.0,28751,List2A,white,man,,,,,,,,
3217,"<img src=""portrait/WM1.jpg""style=""height:400px;""></img>",6,html-button-response,209,1313301,0.0-16.0-1.0,28751,List2A,white,man,,TRUE,6,,,,,
null,CORRECT,,html-keyboard-response,210,1314805,0.0-16.0-2.0-0.0,28751,List2A,white,man,,,,null,,,,
2438,"<img src=""portrait/BM2.jpg""style=""height:400px;""></img>",5,html-button-response,211,1317249,0.0-16.0-4.0,28751,List2A,white,man,,TRUE,5,,,,,
null,CORRECT,,html-keyboard-response,212,1318753,0.0-16.0-5.0-0.0,28751,List2A,white,man,,,,null,,,,
2734,"<img src=""portrait/WW1.jpg""style=""height:400px;""></img>",1,html-button-response,213,1321492,0.0-16.0-7.0,28751,List2A,white,man,,TRUE,1,,,,,
null,CORRECT,,html-keyboard-response,214,1322997,0.0-16.0-8.0-0.0,28751,List2A,white,man,,,,null,,,,
2375,"<img src=""portrait/WW2.jpg""style=""height:400px;""></img>",3,html-button-response,215,1325377,0.0-16.0-10.0,28751,List2A,white,man,,TRUE,3,,,,,
null,CORRECT,,html-keyboard-response,216,1326880,0.0-16.0-11.0-0.0,28751,List2A,white,man,,,,null,,,,
2413,"<img src=""portrait/WM2.jpg""style=""height:400px;""></img>",7,html-button-response,217,1329295,0.0-16.0-13.0,28751,List2A,white,man,,TRUE,7,,,,,
null,CORRECT,,html-keyboard-response,218,1330799,0.0-16.0-14.0-0.0,28751,List2A,white,man,,,,null,,,,
3846,"<img src=""portrait/BW1.jpg""style=""height:400px;""></img>",0,html-button-response,219,1334651,0.0-16.0-16.0,28751,List2A,white,man,,TRUE,0,,,,,
null,CORRECT,,html-keyboard-response,220,1336155,0.0-16.0-17.0-0.0,28751,List2A,white,man,,,,null,,,,
3218,"<img src=""portrait/BW2.jpg""style=""height:400px;""></img>",2,html-button-response,221,1339378,0.0-16.0-19.0,28751,List2A,white,man,,TRUE,2,,,,,
null,CORRECT,,html-keyboard-response,222,1340882,0.0-16.0-20.0-0.0,28751,List2A,white,man,,,,null,,,,
2599,"<img src=""portrait/BM1.jpg""style=""height:400px;""></img>",4,html-button-response,223,1343486,0.0-16.0-22.0,28751,List2A,white,man,,TRUE,4,,,,,
null,CORRECT,,html-keyboard-response,224,1344989,0.0-16.0-23.0-0.0,28751,List2A,white,man,,,,null,,,,
1822,<p>You got 8 out of 8 right first time. Press Continue.</p>,0,html-button-response,225,1346816,0.0-16.0-25.0,28751,List2A,white,man,,,,,,,,
null,"<div style=""font-size:60px;"">+</div>",,html-keyboard-response,226,1348323,0.0-17.0-0.0,28751,List2A,white,man,,,,null,,,,
null,"<img src=""stim_listA/flirt1.gif""style=""height:400px;""></stim_listA>",,html-keyboard-response,227,1350328,0.0-17.0-1.0,28751,List2A,white,man,,,,null,,,,
null,is flirting with,,html-keyboard-response,228,1352332,0.0-17.0-2.0,28751,List2A,white,man,,,,null,,,,
21375,,,survey-text,229,1373712,0.0-17.0-3.0,28751,List2A,white,man,,,,,"{""Q0"":""Luke is flirting with Jane ""}","<img src=""stim_listA/flirt1.gif""style=""height:400px;""></stim_listA>",is flirting with,
null,"<div style=""font-size:60px;"">+</div>",,html-keyboard-response,230,1374215,0.0-17.0-0.1,28751,List2A,white,man,,,,null,,,,
null,"<img src=""stim_listA/dance1.gif""style=""height:400px;""></stim_listA>",,html-keyboard-response,231,1376223,0.0-17.0-1.1,28751,List2A,white,man,,,,null,,,,
null,is dancing with,,html-keyboard-response,232,1378232,0.0-17.0-2.1,28751,List2A,white,man,,,,null,,,,
15820,,,survey-text,233,1394056,0.0-17.0-3.1,28751,List2A,white,man,,,,,"{""Q0"":""Luke is dancing with Jane""}","<img src=""stim_listA/dance1.gif""style=""height:400px;""></stim_listA>",is dancing with,
null,"<div style=""font-size:60px;"">+</div>",,html-keyboard-response,234,1394558,0.0-17.0-0.2,28751,List2A,white,man,,,,null,,,,
null,"<img src=""stim_listA/argue4.gif""style=""height:400px;""></stim_listA>",,html-keyboard-response,235,1396563,0.0-17.0-1.2,28751,List2A,white,man,,,,null,,,,
null,are arguing with each other,,html-keyboard-response,236,1398567,0.0-17.0-2.2,28751,List2A,white,man,,,,null,,,,
21454,,,survey-text,237,1420026,0.0-17.0-3.2,28751,List2A,white,man,,,,,"{""Q0"":""Kate and Fred ""}","<img src=""stim_listA/argue4.gif""style=""height:400px;""></stim_listA>",are arguing with each other,
null,"<div style=""font-size:60px;"">+</div>",,html-keyboard-response,238,1420528,0.0-17.0-0.3,28751,List2A,white,man,,,,null,,,,
null,"<img src=""stim_listA/fight2.gif""style=""height:400px;""></stim_listA>",,html-keyboard-response,239,1422532,0.0-17.0-1.3,28751,List2A,white,man,,,,null,,,,
null,are fighting each other,,html-keyboard-response,240,1424537,0.0-17.0-2.3,28751,List2A,white,man,,,,null,,,,
22285,,,survey-text,241,1446826,0.0-17.0-3.3,28751,List2A,white,man,,,,,"{""Q0"":""Luke and Ruth are fighting with each other""}","<img src=""stim_listA/fight2.gif""style=""height:400px;""></stim_listA>",are fighting each other,
null,"<div style=""font-size:60px;"">+</div>",,html-keyboard-response,242,1447328,0.0-17.0-0.4,28751,List2A,white,man,,,,null,,,,
null,"<img src=""stim_listA/talk5.gif""style=""height:400px;""></stim_listA>",,html-keyboard-response,243,1449332,0.0-17.0-1.4,28751,List2A,white,man,,,,null,,,,
null,is talking to,,html-keyboard-response,244,1451337,0.0-17.0-2.4,28751,List2A,white,man,,,,null,,,,
9135,,,survey-text,245,1460477,0.0-17.0-3.4,28751,List2A,white,man,,,,,"{""Q0"":""Luke is talking to mike""}","<img src=""stim_listA/talk5.gif""style=""height:400px;""></stim_listA>",is talking to,
null,"<div style=""font-size:60px;"">+</div>",,html-keyboard-response,246,1460980,0.0-17.0-0.5,28751,List2A,white,man,,,,null,,,,
null,"<img src=""stim_listA/marry7.gif""style=""height:400px;""></stim_listA>",,html-keyboard-response,247,1462985,0.0-17.0-1.5,28751,List2A,white,man,,,,null,,,,
null,is marrying,,html-keyboard-response,248,1464990,0.0-17.0-2.5,28751,List2A,white,man,,,,null,,,,
11033,,,survey-text,249,1476027,0.0-17.0-3.5,28751,List2A,white,man,,,,,"{""Q0"":""Beth is marrying Jane""}","<img src=""stim_listA/marry7.gif""style=""height:400px;""></stim_listA>",is marrying,
null,"<div style=""font-size:60px;"">+</div>",,html-keyboard-response,250,1476529,0.0-17.0-0.6,28751,List2A,white,man,,,,null,,,,
null,"<img src=""stim_listA/shout5.gif""style=""height:400px;""></stim_listA>",,html-keyboard-response,251,1478533,0.0-17.0-1.6,28751,List2A,white,man,,,,null,,,,
null,is shouting at,,html-keyboard-response,252,1480537,0.0-17.0-2.6,28751,List2A,white,man,,,,null,,,,
10960,,,survey-text,253,1491502,0.0-17.0-3.6,28751,List2A,white,man,,,,,"{""Q0"":""Fred is shouting at luke""}","<img src=""stim_listA/shout5.gif""style=""height:400px;""></stim_listA>",is shouting at,
null,"<div style=""font-size:60px;"">+</div>",,html-keyboard-response,254,1492006,0.0-17.0-0.7,28751,List2A,white,man,,,,null,,,,
null,"<img src=""stim_listA/marry8.gif""style=""height:400px;""></stim_listA>",,html-keyboard-response,255,1494010,0.0-17.0-1.7,28751,List2A,white,man,,,,null,,,,
null,are marrying each other,,html-keyboard-response,256,1496015,0.0-17.0-2.7,28751,List2A,white,man,,,,null,,,,
15600,,,survey-text,257,1511618,0.0-17.0-3.7,28751,List2A,white,man,,,,,"{""Q0"":""Ruth and Kate are marrying each other""}","<img src=""stim_listA/marry8.gif""style=""height:400px;""></stim_listA>",are marrying each other,
null,"<div style=""font-size:60px;"">+</div>",,html-keyboard-response,258,1512120,0.0-17.0-0.8,28751,List2A,white,man,,,,null,,,,
null,"<img src=""stim_listA/touch2.gif""style=""height:400px;""></stim_listA>",,html-keyboard-response,259,1514124,0.0-17.0-1.8,28751,List2A,white,man,,,,null,,,,
null,are touching each other,,html-keyboard-response,260,1516128,0.0-17.0-2.8,28751,List2A,white,man,,,,null,,,,
18037,,,survey-text,261,1534168,0.0-17.0-3.8,28751,List2A,white,man,,,,,"{""Q0"":""Ruth and Luke are touching each other""}","<img src=""stim_listA/touch2.gif""style=""height:400px;""></stim_listA>",are touching each other,
null,"<div style=""font-size:60px;"">+</div>",,html-keyboard-response,262,1534669,0.0-17.0-0.9,28751,List2A,white,man,,,,null,,,,
null,"<img src=""stim_listA/dance7.gif""style=""height:400px;""></stim_listA>",,html-keyboard-response,263,1536680,0.0-17.0-1.9,28751,List2A,white,man,,,,null,,,,
null,is dancing with,,html-keyboard-response,264,1538694,0.0-17.0-2.9,28751,List2A,white,man,,,,null,,,,
12888,,,survey-text,265,1551586,0.0-17.0-3.9,28751,List2A,white,man,,,,,"{""Q0"":""Ruth is dancing with kate""}","<img src=""stim_listA/dance7.gif""style=""height:400px;""></stim_listA>",is dancing with,
null,"<div style=""font-size:60px;"">+</div>",,html-keyboard-response,266,1552089,0.0-17.0-0.10,28751,List2A,white,man,,,,null,,,,
null,"<img src=""stim_listA/talk7.gif""style=""height:400px;""></stim_listA>",,html-keyboard-response,267,1554092,0.0-17.0-1.10,28751,List2A,white,man,,,,null,,,,
null,is talking to,,html-keyboard-response,268,1556097,0.0-17.0-2.10,28751,List2A,white,man,,,,null,,,,
11029,,,survey-text,269,1567130,0.0-17.0-3.10,28751,List2A,white,man,,,,,"{""Q0"":""Ruth is talking to kate""}","<img src=""stim_listA/talk7.gif""style=""height:400px;""></stim_listA>",is talking to,
null,"<div style=""font-size:60px;"">+</div>",,html-keyboard-response,270,1567634,0.0-17.0-0.11,28751,List2A,white,man,,,,null,,,,
null,"<img src=""stim_listA/fight3.gif""style=""height:400px;""></stim_listA>",,html-keyboard-response,271,1569637,0.0-17.0-1.11,28751,List2A,white,man,,,,null,,,,
null,is fighting,,html-keyboard-response,272,1571642,0.0-17.0-2.11,28751,List2A,white,man,,,,null,,,,
9405,,,survey-text,273,1581051,0.0-17.0-3.11,28751,List2A,white,man,,,,,"{""Q0"":""Mike is fighting kate""}","<img src=""stim_listA/fight3.gif""style=""height:400px;""></stim_listA>",is fighting,
null,"<div style=""font-size:60px;"">+</div>",,html-keyboard-response,274,1581553,0.0-17.0-0.12,28751,List2A,white,man,,,,null,,,,
null,"<img src=""stim_listA/dance6.gif""style=""height:400px;""></stim_listA>",,html-keyboard-response,275,1583557,0.0-17.0-1.12,28751,List2A,white,man,,,,null,,,,
null,are dancing with each other,,html-keyboard-response,276,1585562,0.0-17.0-2.12,28751,List2A,white,man,,,,null,,,,
19177,,,survey-text,277,1604742,0.0-17.0-3.12,28751,List2A,white,man,,,,,"{""Q0"":""Fred and Dave are dancing with each other""}","<img src=""stim_listA/dance6.gif""style=""height:400px;""></stim_listA>",are dancing with each other,
null,"<div style=""font-size:60px;"">+</div>",,html-keyboard-response,278,1605244,0.0-17.0-0.13,28751,List2A,white,man,,,,null,,,,
null,"<img src=""stim_listA/marry5.gif""style=""height:400px;""></stim_listA>",,html-keyboard-response,279,1607247,0.0-17.0-1.13,28751,List2A,white,man,,,,null,,,,
null,is marrying,,html-keyboard-response,280,1609252,0.0-17.0-2.13,28751,List2A,white,man,,,,null,,,,
8644,,,survey-text,281,1617901,0.0-17.0-3.13,28751,List2A,white,man,,,,,"{""Q0"":""Fred is marrying dave""}","<img src=""stim_listA/marry5.gif""style=""height:400px;""></stim_listA>",is marrying,
null,"<div style=""font-size:60px;"">+</div>",,html-keyboard-response,282,1618403,0.0-17.0-0.14,28751,List2A,white,man,,,,null,,,,
null,"<img src=""stim_listA/talk2.gif""style=""height:400px;""></stim_listA>",,html-keyboard-response,283,1620406,0.0-17.0-1.14,28751,List2A,white,man,,,,null,,,,
null,are talking to each other,,html-keyboard-response,284,1622411,0.0-17.0-2.14,28751,List2A,white,man,,,,null,,,,
15332,,,survey-text,285,1637747,0.0-17.0-3.14,28751,List2A,white,man,,,,,"{""Q0"":""Dave and Ruth are talking to each other""}","<img src=""stim_listA/talk2.gif""style=""height:400px;""></stim_listA>",are talking to each other,
null,"<div style=""font-size:60px;"">+</div>",,html-keyboard-response,286,1638250,0.0-17.0-0.15,28751,List2A,white,man,,,,null,,,,
null,"<img src=""stim_listA/touch8.gif""style=""height:400px;""></stim_listA>",,html-keyboard-response,287,1640253,0.0-17.0-1.15,28751,List2A,white,man,,,,null,,,,
null,are touching each other,,html-keyboard-response,288,1642258,0.0-17.0-2.15,28751,List2A,white,man,,,,null,,,,
15717,,,survey-text,289,1657981,0.0-17.0-3.15,28751,List2A,white,man,,,,,"{""Q0"":""Beth and Ruth are touching each other""}","<img src=""stim_listA/touch8.gif""style=""height:400px;""></stim_listA>",are touching each other,
null,"<div style=""font-size:60px;"">+</div>",,html-keyboard-response,290,1658483,0.0-17.0-0.16,28751,List2A,white,man,,,,null,,,,
null,"<img src=""stim_listA/play1.gif""style=""height:400px;""></stim_listA>",,html-keyboard-response,291,1660486,0.0-17.0-1.16,28751,List2A,white,man,,,,null,,,,
null,is playing with,,html-keyboard-response,292,1662491,0.0-17.0-2.16,28751,List2A,white,man,,,,null,,,,
17915,,,survey-text,293,1680410,0.0-17.0-3.16,28751,List2A,white,man,,,,,"{""Q0"":""Jane is playing with Dave""}","<img src=""stim_listA/play1.gif""style=""height:400px;""></stim_listA>",is playing with,
null,"<div style=""font-size:60px;"">+</div>",,html-keyboard-response,294,1680912,0.0-17.0-0.17,28751,List2A,white,man,,,,null,,,,
null,"<img src=""stim_listA/shout6.gif""style=""height:400px;""></stim_listA>",,html-keyboard-response,295,1682915,0.0-17.0-1.17,28751,List2A,white,man,,,,null,,,,
null,are shouting at each other,,html-keyboard-response,296,1684920,0.0-17.0-2.17,28751,List2A,white,man,,,,null,,,,
14781,,,survey-text,297,1699705,0.0-17.0-3.17,28751,List2A,white,man,,,,,"{""Q0"":""Dave and mike are shouting at each other""}","<img src=""stim_listA/shout6.gif""style=""height:400px;""></stim_listA>",are shouting at each other,
null,"<div style=""font-size:60px;"">+</div>",,html-keyboard-response,298,1700208,0.0-17.0-0.18,28751,List2A,white,man,,,,null,,,,
null,"<img src=""stim_listA/dance8.gif""style=""height:400px;""></stim_listA>",,html-keyboard-response,299,1702211,0.0-17.0-1.18,28751,List2A,white,man,,,,null,,,,
null,are dancing with each other,,html-keyboard-response,300,1704216,0.0-17.0-2.18,28751,List2A,white,man,,,,null,,,,
20017,,,survey-text,301,1724237,0.0-17.0-3.18,28751,List2A,white,man,,,,,"{""Q0"":""Jane and Beth are dancing with each other ""}","<img src=""stim_listA/dance8.gif""style=""height:400px;""></stim_listA>",are dancing with each other,
null,"<div style=""font-size:60px;"">+</div>",,html-keyboard-response,302,1724741,0.0-17.0-0.19,28751,List2A,white,man,,,,null,,,,
null,"<img src=""stim_listA/kiss5.gif""style=""height:400px;""></stim_listA>",,html-keyboard-response,303,1726745,0.0-17.0-1.19,28751,List2A,white,man,,,,null,,,,
null,is kissing,,html-keyboard-response,304,1728750,0.0-17.0-2.19,28751,List2A,white,man,,,,null,,,,
10286,,,survey-text,305,1739040,0.0-17.0-3.19,28751,List2A,white,man,,,,,"{""Q0"":""Fred is kissing luke""}","<img src=""stim_listA/kiss5.gif""style=""height:400px;""></stim_listA>",is kissing,
4044,"<img src='img/portrait_matrix_list2.jpg' style='width:900px;height:500px;''></img><p>If you have memorised all the portraits and names and are ready to start, press Continue.</p><p><strong>Please note: Your memory of these faces will be tested 4 times during this experiment.</strong></p>",0,html-button-response,306,1743087,0.0-18.0-0.0,28751,List2A,white,man,,,,,,,,
4320,"<img src=""portrait/BW2.jpg""style=""height:400px;""></img>",2,html-button-response,307,1748411,0.0-18.0-1.0,28751,List2A,white,man,,TRUE,2,,,,,
null,CORRECT,,html-keyboard-response,308,1749916,0.0-18.0-2.0-0.0,28751,List2A,white,man,,,,null,,,,
5178,"<img src=""portrait/WM1.jpg""style=""height:400px;""></img>",6,html-button-response,309,1755100,0.0-18.0-4.0,28751,List2A,white,man,,TRUE,6,,,,,
null,CORRECT,,html-keyboard-response,310,1756605,0.0-18.0-5.0-0.0,28751,List2A,white,man,,,,null,,,,
3212,"<img src=""portrait/BW1.jpg""style=""height:400px;""></img>",0,html-button-response,311,1759823,0.0-18.0-7.0,28751,List2A,white,man,,TRUE,0,,,,,
null,CORRECT,,html-keyboard-response,312,1761327,0.0-18.0-8.0-0.0,28751,List2A,white,man,,,,null,,,,
1921,"<img src=""portrait/WW2.jpg""style=""height:400px;""></img>",3,html-button-response,313,1763254,0.0-18.0-10.0,28751,List2A,white,man,,TRUE,3,,,,,
null,CORRECT,,html-keyboard-response,314,1764759,0.0-18.0-11.0-0.0,28751,List2A,white,man,,,,null,,,,
3229,"<img src=""portrait/WM2.jpg""style=""height:400px;""></img>",7,html-button-response,315,1767993,0.0-18.0-13.0,28751,List2A,white,man,,TRUE,7,,,,,
null,CORRECT,,html-keyboard-response,316,1769498,0.0-18.0-14.0-0.0,28751,List2A,white,man,,,,null,,,,
2718,"<img src=""portrait/BM2.jpg""style=""height:400px;""></img>",5,html-button-response,317,1772220,0.0-18.0-16.0,28751,List2A,white,man,,TRUE,5,,,,,
null,CORRECT,,html-keyboard-response,318,1773725,0.0-18.0-17.0-0.0,28751,List2A,white,man,,,,null,,,,
2567,"<img src=""portrait/BM1.jpg""style=""height:400px;""></img>",4,html-button-response,319,1776297,0.0-18.0-19.0,28751,List2A,white,man,,TRUE,4,,,,,
null,CORRECT,,html-keyboard-response,320,1777801,0.0-18.0-20.0-0.0,28751,List2A,white,man,,,,null,,,,
2642,"<img src=""portrait/WW1.jpg""style=""height:400px;""></img>",1,html-button-response,321,1780448,0.0-18.0-22.0,28751,List2A,white,man,,TRUE,1,,,,,
null,CORRECT,,html-keyboard-response,322,1781952,0.0-18.0-23.0-0.0,28751,List2A,white,man,,,,null,,,,
1519,<p>You got 8 out of 8 right first time. Press Continue.</p>,0,html-button-response,323,1783484,0.0-18.0-25.0,28751,List2A,white,man,,,,,,,,
null,"<div style=""font-size:60px;"">+</div>",,html-keyboard-response,324,1784992,0.0-19.0-0.0,28751,List2A,white,man,,,,null,,,,
null,"<img src=""stim_listA/kiss8.gif""style=""height:400px;""></stim_listA>",,html-keyboard-response,325,1786998,0.0-19.0-1.0,28751,List2A,white,man,,,,null,,,,
null,are kissing each other,,html-keyboard-response,326,1789003,0.0-19.0-2.0,28751,List2A,white,man,,,,null,,,,
19561,,,survey-text,327,1808568,0.0-19.0-3.0,28751,List2A,white,man,,,,,"{""Q0"":""Jane and Kate are kissing each other""}","<img src=""stim_listA/kiss8.gif""style=""height:400px;""></stim_listA>",are kissing each other,
null,"<div style=""font-size:60px;"">+</div>",,html-keyboard-response,328,1809070,0.0-19.0-0.1,28751,List2A,white,man,,,,null,,,,
null,"<img src=""stim_listA/dance3.gif""style=""height:400px;""></stim_listA>",,html-keyboard-response,329,1811073,0.0-19.0-1.1,28751,List2A,white,man,,,,null,,,,
null,is dancing with,,html-keyboard-response,330,1813078,0.0-19.0-2.1,28751,List2A,white,man,,,,null,,,,
15619,,,survey-text,331,1828702,0.0-19.0-3.1,28751,List2A,white,man,,,,,"{""Q0"":""Fred is dancing with kate""}","<img src=""stim_listA/dance3.gif""style=""height:400px;""></stim_listA>",is dancing with,
null,"<div style=""font-size:60px;"">+</div>",,html-keyboard-response,332,1829204,0.0-19.0-0.2,28751,List2A,white,man,,,,null,,,,
null,"<img src=""stim_listA/flirt6.gif""style=""height:400px;""></stim_listA>",,html-keyboard-response,333,1831208,0.0-19.0-1.2,28751,List2A,white,man,,,,null,,,,
null,are flirting with each other,,html-keyboard-response,334,1833213,0.0-19.0-2.2,28751,List2A,white,man,,,,null,,,,
16849,,,survey-text,335,1850067,0.0-19.0-3.2,28751,List2A,white,man,,,,,"{""Q0"":""Dave and fred are flirting with each other ""}","<img src=""stim_listA/flirt6.gif""style=""height:400px;""></stim_listA>",are flirting with each other,
null,"<div style=""font-size:60px;"">+</div>",,html-keyboard-response,336,1850570,0.0-19.0-0.3,28751,List2A,white,man,,,,null,,,,
null,"<img src=""stim_listA/talk8.gif""style=""height:400px;""></stim_listA>",,html-keyboard-response,337,1852574,0.0-19.0-1.3,28751,List2A,white,man,,,,null,,,,
null,are talking to each other,,html-keyboard-response,338,1854578,0.0-19.0-2.3,28751,List2A,white,man,,,,null,,,,
15742,,,survey-text,339,1870325,0.0-19.0-3.3,28751,List2A,white,man,,,,,"{""Q0"":""Jane and Beth are talking to each other""}","<img src=""stim_listA/talk8.gif""style=""height:400px;""></stim_listA>",are talking to each other,
null,"<div style=""font-size:60px;"">+</div>",,html-keyboard-response,340,1870827,0.0-19.0-0.4,28751,List2A,white,man,,,,null,,,,
null,"<img src=""stim_listA/fight6.gif""style=""height:400px;""></stim_listA>",,html-keyboard-response,341,1872831,0.0-19.0-1.4,28751,List2A,white,man,,,,null,,,,
null,are fighting each other,,html-keyboard-response,342,1874836,0.0-19.0-2.4,28751,List2A,white,man,,,,null,,,,
13846,,,survey-text,343,1888686,0.0-19.0-3.4,28751,List2A,white,man,,,,,"{""Q0"":""Luke and Fred are fighting""}","<img src=""stim_listA/fight6.gif""style=""height:400px;""></stim_listA>",are fighting each other,
null,"<div style=""font-size:60px;"">+</div>",,html-keyboard-response,344,1889189,0.0-19.0-0.5,28751,List2A,white,man,,,,null,,,,
null,"<img src=""stim_listA/talk4.gif""style=""height:400px;""></stim_listA>",,html-keyboard-response,345,1891193,0.0-19.0-1.5,28751,List2A,white,man,,,,null,,,,
null,are talking to each other,,html-keyboard-response,346,1893198,0.0-19.0-2.5,28751,List2A,white,man,,,,null,,,,
15349,,,survey-text,347,1908552,0.0-19.0-3.5,28751,List2A,white,man,,,,,"{""Q0"":""Mike and Beth are talking to each other""}","<img src=""stim_listA/talk4.gif""style=""height:400px;""></stim_listA>",are talking to each other,
null,"<div style=""font-size:60px;"">+</div>",,html-keyboard-response,348,1909055,0.0-19.0-0.6,28751,List2A,white,man,,,,null,,,,
null,"<img src=""stim_listA/shout3.gif""style=""height:400px;""></stim_listA>",,html-keyboard-response,349,1911059,0.0-19.0-1.6,28751,List2A,white,man,,,,null,,,,
null,is shouting at,,html-keyboard-response,350,1913064,0.0-19.0-2.6,28751,List2A,white,man,,,,null,,,,
12877,,,survey-text,351,1925946,0.0-19.0-3.6,28751,List2A,white,man,,,,,"{""Q0"":""Fred is shouting at Beth""}","<img src=""stim_listA/shout3.gif""style=""height:400px;""></stim_listA>",is shouting at,
null,"<div style=""font-size:60px;"">+</div>",,html-keyboard-response,352,1926450,0.0-19.0-0.7,28751,List2A,white,man,,,,null,,,,
null,"<img src=""stim_listA/shout8.gif""style=""height:400px;""></stim_listA>",,html-keyboard-response,353,1928453,0.0-19.0-1.7,28751,List2A,white,man,,,,null,,,,
null,are shouting at each other,,html-keyboard-response,354,1930458,0.0-19.0-2.7,28751,List2A,white,man,,,,null,,,,
20656,,,survey-text,355,1951118,0.0-19.0-3.7,28751,List2A,white,man,,,,,"{""Q0"":""Jane and Kate are shouting at each other""}","<img src=""stim_listA/shout8.gif""style=""height:400px;""></stim_listA>",are shouting at each other,
null,"<div style=""font-size:60px;"">+</div>",,html-keyboard-response,356,1951621,0.0-19.0-0.8,28751,List2A,white,man,,,,null,,,,
null,"<img src=""stim_listA/play2.gif""style=""height:400px;""></stim_listA>",,html-keyboard-response,357,1953624,0.0-19.0-1.8,28751,List2A,white,man,,,,null,,,,
null,are playing with each other,,html-keyboard-response,358,1955629,0.0-19.0-2.8,28751,List2A,white,man,,,,null,,,,
16100,,,survey-text,359,1971733,0.0-19.0-3.8,28751,List2A,white,man,,,,,"{""Q0"":""Luke and Ruth are playing with each other""}","<img src=""stim_listA/play2.gif""style=""height:400px;""></stim_listA>",are playing with each other,
null,"<div style=""font-size:60px;"">+</div>",,html-keyboard-response,360,1972237,0.0-19.0-0.9,28751,List2A,white,man,,,,null,,,,
null,"<img src=""stim_listA/play4.gif""style=""height:400px;""></stim_listA>",,html-keyboard-response,361,1974241,0.0-19.0-1.9,28751,List2A,white,man,,,,null,,,,
null,are playing with each other,,html-keyboard-response,362,1976246,0.0-19.0-2.9,28751,List2A,white,man,,,,null,,,,
16966,,,survey-text,363,1993217,0.0-19.0-3.9,28751,List2A,white,man,,,,,"{""Q0"":""Beth and Fred are playing each other""}","<img src=""stim_listA/play4.gif""style=""height:400px;""></stim_listA>",are playing with each other,
null,"<div style=""font-size:60px;"">+</div>",,html-keyboard-response,364,1993718,0.0-19.0-0.10,28751,List2A,white,man,,,,null,,,,
null,"<img src=""stim_listA/kiss7.gif""style=""height:400px;""></stim_listA>",,html-keyboard-response,365,1995721,0.0-19.0-1.10,28751,List2A,white,man,,,,null,,,,
null,is kissing,,html-keyboard-response,366,1997724,0.0-19.0-2.10,28751,List2A,white,man,,,,null,,,,
10902,,,survey-text,367,2008634,0.0-19.0-3.10,28751,List2A,white,man,,,,,"{""Q0"":""Beth is kissing ruth""}","<img src=""stim_listA/kiss7.gif""style=""height:400px;""></stim_listA>",is kissing,
null,"<div style=""font-size:60px;"">+</div>",,html-keyboard-response,368,2009137,0.0-19.0-0.11,28751,List2A,white,man,,,,null,,,,
null,"<img src=""stim_listA/kiss1.gif""style=""height:400px;""></stim_listA>",,html-keyboard-response,369,2011141,0.0-19.0-1.11,28751,List2A,white,man,,,,null,,,,
null,is kissing,,html-keyboard-response,370,2013146,0.0-19.0-2.11,28751,List2A,white,man,,,,null,,,,
9373,,,survey-text,371,2022523,0.0-19.0-3.11,28751,List2A,white,man,,,,,"{""Q0"":""Ruth is kissing luke""}","<img src=""stim_listA/kiss1.gif""style=""height:400px;""></stim_listA>",is kissing,
null,"<div style=""font-size:60px;"">+</div>",,html-keyboard-response,372,2023025,0.0-19.0-0.12,28751,List2A,white,man,,,,null,,,,
null,"<img src=""stim_listA/kiss6.gif""style=""height:400px;""></stim_listA>",,html-keyboard-response,373,2025028,0.0-19.0-1.12,28751,List2A,white,man,,,,null,,,,
null,are kissing each other,,html-keyboard-response,374,2027033,0.0-19.0-2.12,28751,List2A,white,man,,,,null,,,,
13543,,,survey-text,375,2040581,0.0-19.0-3.12,28751,List2A,white,man,,,,,"{""Q0"":""Dave and mike are kissing ""}","<img src=""stim_listA/kiss6.gif""style=""height:400px;""></stim_listA>",are kissing each other,
null,"<div style=""font-size:60px;"">+</div>",,html-keyboard-response,376,2041084,0.0-19.0-0.13,28751,List2A,white,man,,,,null,,,,
null,"<img src=""stim_listA/argue1.gif""style=""height:400px;""></stim_listA>",,html-keyboard-response,377,2043088,0.0-19.0-1.13,28751,List2A,white,man,,,,null,,,,
null,is arguing with,,html-keyboard-response,378,2045097,0.0-19.0-2.13,28751,List2A,white,man,,,,null,,,,
12174,,,survey-text,379,2057275,0.0-19.0-3.13,28751,List2A,white,man,,,,,"{""Q0"":""Dave is arguing with ruth""}","<img src=""stim_listA/argue1.gif""style=""height:400px;""></stim_listA>",is arguing with,
null,"<div style=""font-size:60px;"">+</div>",,html-keyboard-response,380,2057778,0.0-19.0-0.14,28751,List2A,white,man,,,,null,,,,
null,"<img src=""stim_listA/kiss4.gif""style=""height:400px;""></stim_listA>",,html-keyboard-response,381,2059783,0.0-19.0-1.14,28751,List2A,white,man,,,,null,,,,
null,are kissing each other,,html-keyboard-response,382,2061788,0.0-19.0-2.14,28751,List2A,white,man,,,,null,,,,
20190,,,survey-text,383,2081981,0.0-19.0-3.14,28751,List2A,white,man,,,,,"{""Q0"":""Mike and Kate are kissing each other""}","<img src=""stim_listA/kiss4.gif""style=""height:400px;""></stim_listA>",are kissing each other,
null,"<div style=""font-size:60px;"">+</div>",,html-keyboard-response,384,2082483,0.0-19.0-0.15,28751,List2A,white,man,,,,null,,,,
null,"<img src=""stim_listA/play8.gif""style=""height:400px;""></stim_listA>",,html-keyboard-response,385,2084487,0.0-19.0-1.15,28751,List2A,white,man,,,,null,,,,
null,are playing with each other,,html-keyboard-response,386,2086492,0.0-19.0-2.15,28751,List2A,white,man,,,,null,,,,
17212,,,survey-text,387,2103708,0.0-19.0-3.15,28751,List2A,white,man,,,,,"{""Q0"":""Beth and Ruth are playing each other""}","<img src=""stim_listA/play8.gif""style=""height:400px;""></stim_listA>",are playing with each other,
null,"<div style=""font-size:60px;"">+</div>",,html-keyboard-response,388,2104210,0.0-19.0-0.16,28751,List2A,white,man,,,,null,,,,
null,"<img src=""stim_listA/argue7.gif""style=""height:400px;""></stim_listA>",,html-keyboard-response,389,2106214,0.0-19.0-1.16,28751,List2A,white,man,,,,null,,,,
null,is arguing with,,html-keyboard-response,390,2108219,0.0-19.0-2.16,28751,List2A,white,man,,,,null,,,,
14327,,,survey-text,391,2122550,0.0-19.0-3.16,28751,List2A,white,man,,,,,"{""Q0"":""Beth is arguing with Jane""}","<img src=""stim_listA/argue7.gif""style=""height:400px;""></stim_listA>",is arguing with,
null,"<div style=""font-size:60px;"">+</div>",,html-keyboard-response,392,2123052,0.0-19.0-0.17,28751,List2A,white,man,,,,null,,,,
null,"<img src=""stim_listA/fight7.gif""style=""height:400px;""></stim_listA>",,html-keyboard-response,393,2125055,0.0-19.0-1.17,28751,List2A,white,man,,,,null,,,,
null,is fighting,,html-keyboard-response,394,2127061,0.0-19.0-2.17,28751,List2A,white,man,,,,null,,,,
12624,,,survey-text,395,2139690,0.0-19.0-3.17,28751,List2A,white,man,,,,,"{""Q0"":""Jane is fighting kate""}","<img src=""stim_listA/fight7.gif""style=""height:400px;""></stim_listA>",is fighting,
null,"<div style=""font-size:60px;"">+</div>",,html-keyboard-response,396,2140192,0.0-19.0-0.18,28751,List2A,white,man,,,,null,,,,
null,"<img src=""stim_listA/fight5.gif""style=""height:400px;""></stim_listA>",,html-keyboard-response,397,2142195,0.0-19.0-1.18,28751,List2A,white,man,,,,null,,,,
null,is fighting,,html-keyboard-response,398,2144200,0.0-19.0-2.18,28751,List2A,white,man,,,,null,,,,
10077,,,survey-text,399,2154282,0.0-19.0-3.18,28751,List2A,white,man,,,,,"{""Q0"":""Dave is fighting mike""}","<img src=""stim_listA/fight5.gif""style=""height:400px;""></stim_listA>",is fighting,
null,"<div style=""font-size:60px;"">+</div>",,html-keyboard-response,400,2154785,0.0-19.0-0.19,28751,List2A,white,man,,,,null,,,,
null,"<img src=""stim_listA/play3.gif""style=""height:400px;""></stim_listA>",,html-keyboard-response,401,2156787,0.0-19.0-1.19,28751,List2A,white,man,,,,null,,,,
null,is playing with,,html-keyboard-response,402,2158792,0.0-19.0-2.19,28751,List2A,white,man,,,,null,,,,
14076,,,survey-text,403,2172874,0.0-19.0-3.19,28751,List2A,white,man,,,,,"{""Q0"":""Mike is playing with kate""}","<img src=""stim_listA/play3.gif""style=""height:400px;""></stim_listA>",is playing with,
2801,<p>Thank you for completing that task.</p><p>The final part of this session is a short questionnaire.</p><p>Press Continue.</p>,0,html-button-response,404,2175677,0.0-20.0,28751,List2A,white,man,,,,,,,,
30487,,,survey-text,405,2207170,0.0-21.0,28751,List2A,white,man,,,,,"{""Q0"":""45"",""Q1"":""English"",""Q2"":""English"",""Q3"":""Uk"",""Q4"":""White"",""Q5"":""Male""}",,,demographics
7193,,,survey-likert,406,2214369,0.0-22.0,28751,List2A,white,man,,,,,"{""Q0"":4}",,,likert_ESS
6670,,,survey-likert,407,2221044,0.0-23.0,28751,List2A,white,man,,,,,"{""Q0"":4}",,,likert_NSSAL_Q1
3469,,,survey-likert,408,2224517,0.0-24.0,28751,List2A,white,man,,,,,"{""Q0"":4}",,,likert_NSSAL_Q2
5223,,,survey-likert,409,2229744,0.0-25.0,28751,List2A,white,man,,,,,"{""Q0"":4}",,,likert_CGRS_Q1
3372,,,survey-likert,410,2233120,0.0-26.0,28751,List2A,white,man,,,,,"{""Q0"":4}",,,likert_CGRS_Q2
2644,,,survey-likert,411,2235770,0.0-27.0,28751,List2A,white,man,,,,,"{""Q0"":4}",,,likert_CGRS_Q3
5044,,,survey-text,412,2240818,0.0-28.0,28751,List2A,white,man,,,,,"{""Q0"":""ccc""}",,,worker_id
6638,,,external-html,413,2247544,0.0-29.0,28751,List2A,white,man,debrief.html,,,,,,,
