rt,stimulus,button_pressed,trial_type,trial_index,time_elapsed,internal_node_id,subject,list,ppt_race,ppt_gender,url,first_guess,correct,key_press,responses,image_type,phrase_type,test_part
11738,Welcome to the experiment. Press Continue to begin.,0,html-button-response,0,11757,0.0-0.0,28894,List1B,black,woman,,,,,,,,
40641,,,external-html,1,53493,0.0-1.0,28894,List1B,black,woman,consent.html,,,,,,,
9278,"<p>On the next page, you will see portraits of 8 people and their names.</p><p>Your first task is to take a few minutes to memorise the names of these people.</p><p>You will have to recall their names during the rest of the experiment, so it is</p><p>essential that you try to memorise these people and their names as best as you can.</p><br><p><strong>You will then be tested on your memory of these names and portraits.</strong></p><br><p>The experiment will start after you have completed this memory test.</p><br><p>Ready?</p>",0,html-button-response,2,62785,0.0-2.0,28894,List1B,black,woman,,,,,,,,
86116,"<img src='img/portrait_matrix_list1.jpg' style='width:900px;height:500px;''></img><p>If you have memorised all the portraits and names and are ready to start, press Continue.</p><p><strong>Please note: Your memory of these faces will be tested 4 times during this experiment.</strong></p>",0,html-button-response,3,149937,0.0-3.0-0.0,28894,List1B,black,woman,,,,,,,,
19474,"<img src=""portrait/WW1.jpg""style=""height:400px;""></img>",1,html-button-response,4,170465,0.0-3.0-1.0,28894,List1B,black,woman,,TRUE,1,,,,,
null,CORRECT,,html-keyboard-response,5,172032,0.0-3.0-2.0-0.0,28894,List1B,black,woman,,,,null,,,,
4890,"<img src=""portrait/BW2.jpg""style=""height:400px;""></img>",2,html-button-response,6,176967,0.0-3.0-4.0,28894,List1B,black,woman,,TRUE,2,,,,,
null,CORRECT,,html-keyboard-response,7,178497,0.0-3.0-5.0-0.0,28894,List1B,black,woman,,,,null,,,,
2724,"<img src=""portrait/WM1.jpg""style=""height:400px;""></img>",6,html-button-response,8,181236,0.0-3.0-7.0,28894,List1B,black,woman,,TRUE,6,,,,,
null,CORRECT,,html-keyboard-response,9,182810,0.0-3.0-8.0-0.0,28894,List1B,black,woman,,,,null,,,,
2449,"<img src=""portrait/BM1.jpg""style=""height:400px;""></img>",4,html-button-response,10,185270,0.0-3.0-10.0,28894,List1B,black,woman,,TRUE,4,,,,,
null,CORRECT,,html-keyboard-response,11,186819,0.0-3.0-11.0-0.0,28894,List1B,black,woman,,,,null,,,,
2789,"<img src=""portrait/WW2.jpg""style=""height:400px;""></img>",3,html-button-response,12,189621,0.0-3.0-13.0,28894,List1B,black,woman,,TRUE,3,,,,,
null,CORRECT,,html-keyboard-response,13,191167,0.0-3.0-14.0-0.0,28894,List1B,black,woman,,,,null,,,,
2114,"<img src=""portrait/BM2.jpg""style=""height:400px;""></img>",5,html-button-response,14,193293,0.0-3.0-16.0,28894,List1B,black,woman,,TRUE,5,,,,,
null,CORRECT,,html-keyboard-response,15,194836,0.0-3.0-17.0-0.0,28894,List1B,black,woman,,,,null,,,,
2292,"<img src=""portrait/BW1.jpg""style=""height:400px;""></img>",0,html-button-response,16,197140,0.0-3.0-19.0,28894,List1B,black,woman,,TRUE,0,,,,,
null,CORRECT,,html-keyboard-response,17,198665,0.0-3.0-20.0-0.0,28894,List1B,black,woman,,,,null,,,,
19922,"<img src=""portrait/WM2.jpg""style=""height:400px;""></img>",7,html-button-response,18,218600,0.0-3.0-22.0,28894,List1B,black,woman,,TRUE,7,,,,,
null,CORRECT,,html-keyboard-response,19,220187,0.0-3.0-23.0-0.0,28894,List1B,black,woman,,,,null,,,,
2254,<p>You got 8 out of 8 right first time. Press Continue.</p>,0,html-button-response,20,222457,0.0-3.0-25.0,28894,List1B,black,woman,,,,,,,,
34781,"<p>In this experiment, you will view photographs of the people from the memory game interacting.</p><p>By using the <strong>exact</strong> phrase given <i>after</i> the photograph appears and recalling the correct names of the people in the photographs, form a sentence describing the interaction. You do not need to capitalise names.</p><p>Type your answer in the space provided. Please complete every sentence before moving onto the next trial.</p><p>You will only have a few seconds to memorise each given photograph and phrase before you can respond, so try your best to focus.</p><p>An example is given below. Press 'Continue' when you are ready.</p><img src='img/speaking_example.jpg' style='width:800px;height:460px;''></img>",0,html-button-response,21,258280,0.0-4.0,28894,List1B,black,woman,,,,,,,,
2326,"<p>Before the experiment starts, you will watch two example trials. Press 'Continue'.</p>",0,html-button-response,22,261637,0.0-5.0,28894,List1B,black,woman,,,,,,,,
null,<img src='img/meet_eg.gif' style='height:400px;''></img>,,html-keyboard-response,23,264677,0.0-6.0,28894,List1B,black,woman,,,,null,,,,
null,<p>is meeting</p>,,html-keyboard-response,24,266665,0.0-7.0,28894,List1B,black,woman,,,,null,,,,
4556,<p><b>Answer:</b> kate is meeting beth</p>,0,html-button-response,25,271229,0.0-8.0,28894,List1B,black,woman,,,,,,,,
null,<img src='img/look_eg.gif' style='height:400px;''></img>,,html-keyboard-response,26,274260,0.0-9.0,28894,List1B,black,woman,,,,null,,,,
null,<p>are looking at each other</p>,,html-keyboard-response,27,276257,0.0-10.0,28894,List1B,black,woman,,,,null,,,,
1438,<p><b>Answer:</b> luke and dave are looking at each other</p>,0,html-button-response,28,277700,0.0-11.0,28894,List1B,black,woman,,,,,,,,
3791,"<p>Ready to start the experiment?</p><br><p><strong>Remember to describe the picture using a full sentence,</strong></p><p><strong>that combines the names of the people with the <i>exact</i> phrase given.</strong></p><p><strong>To receive full payment you must do this correctly.</strong></p><p><strong> You do not need to capitalise names or use punctuation.</strong></p><br><p>Press 'Continue' to begin.</p>",0,html-button-response,29,282509,0.0-12.0,28894,List1B,black,woman,,,,,,,,
null,"<div style=""font-size:60px;"">+</div>",,html-keyboard-response,30,284092,0.0-13.0-0.0,28894,List1B,black,woman,,,,null,,,,
null,"<img src=""stim_listB/flirt1.gif""style=""height:400px;""></stim_listB>",,html-keyboard-response,31,286124,0.0-13.0-1.0,28894,List1B,black,woman,,,,null,,,,
null,is flirting with,,html-keyboard-response,32,288130,0.0-13.0-2.0,28894,List1B,black,woman,,,,null,,,,
10276,,,survey-text,33,298418,0.0-13.0-3.0,28894,List1B,black,woman,,,,,"{""Q0"":""Kate is flirting with Fred""}","<img src=""stim_listB/flirt1.gif""style=""height:400px;""></stim_listB>",is flirting with,
null,"<div style=""font-size:60px;"">+</div>",,html-keyboard-response,34,298943,0.0-13.0-0.1,28894,List1B,black,woman,,,,null,,,,
null,"<img src=""stim_listB/marry8.gif""style=""height:400px;""></stim_listB>",,html-keyboard-response,35,300963,0.0-13.0-1.1,28894,List1B,black,woman,,,,null,,,,
null,are marrying each other,,html-keyboard-response,36,302965,0.0-13.0-2.1,28894,List1B,black,woman,,,,null,,,,
12226,,,survey-text,37,315199,0.0-13.0-3.1,28894,List1B,black,woman,,,,,"{""Q0"":""Beth is looking at Jane ""}","<img src=""stim_listB/marry8.gif""style=""height:400px;""></stim_listB>",are marrying each other,
null,"<div style=""font-size:60px;"">+</div>",,html-keyboard-response,38,315708,0.0-13.0-0.2,28894,List1B,black,woman,,,,null,,,,
null,"<img src=""stim_listB/argue2.gif""style=""height:400px;""></stim_listB>",,html-keyboard-response,39,317737,0.0-13.0-1.2,28894,List1B,black,woman,,,,null,,,,
null,are arguing with each other,,html-keyboard-response,40,319741,0.0-13.0-2.2,28894,List1B,black,woman,,,,null,,,,
23325,,,survey-text,41,343071,0.0-13.0-3.2,28894,List1B,black,woman,,,,,"{""Q0"":""Fred and Kate are arguing with eachother ""}","<img src=""stim_listB/argue2.gif""style=""height:400px;""></stim_listB>",are arguing with each other,
null,"<div style=""font-size:60px;"">+</div>",,html-keyboard-response,42,343589,0.0-13.0-0.3,28894,List1B,black,woman,,,,null,,,,
null,"<img src=""stim_listB/talk7.gif""style=""height:400px;""></stim_listB>",,html-keyboard-response,43,345611,0.0-13.0-1.3,28894,List1B,black,woman,,,,null,,,,
null,is talking to,,html-keyboard-response,44,347652,0.0-13.0-2.3,28894,List1B,black,woman,,,,null,,,,
9468,,,survey-text,45,357132,0.0-13.0-3.3,28894,List1B,black,woman,,,,,"{""Q0"":""Beth is talking to Jane ""}","<img src=""stim_listB/talk7.gif""style=""height:400px;""></stim_listB>",is talking to,
null,"<div style=""font-size:60px;"">+</div>",,html-keyboard-response,46,357656,0.0-13.0-0.4,28894,List1B,black,woman,,,,null,,,,
null,"<img src=""stim_listB/dance4.gif""style=""height:400px;""></stim_listB>",,html-keyboard-response,47,359682,0.0-13.0-1.4,28894,List1B,black,woman,,,,null,,,,
null,are dancing with each other,,html-keyboard-response,48,361686,0.0-13.0-2.4,28894,List1B,black,woman,,,,null,,,,
20845,,,survey-text,49,382539,0.0-13.0-3.4,28894,List1B,black,woman,,,,,"{""Q0"":""Ruth and Dave are dancing with each other ""}","<img src=""stim_listB/dance4.gif""style=""height:400px;""></stim_listB>",are dancing with each other,
null,"<div style=""font-size:60px;"">+</div>",,html-keyboard-response,50,383061,0.0-13.0-0.5,28894,List1B,black,woman,,,,null,,,,
null,"<img src=""stim_listB/kiss2.gif""style=""height:400px;""></stim_listB>",,html-keyboard-response,51,385085,0.0-13.0-1.5,28894,List1B,black,woman,,,,null,,,,
null,are kissing each other,,html-keyboard-response,52,387075,0.0-13.0-2.5,28894,List1B,black,woman,,,,null,,,,
41965,,,survey-text,53,429063,0.0-13.0-3.5,28894,List1B,black,woman,,,,,"{""Q0"":""Kate and Mike are kissing each other""}","<img src=""stim_listB/kiss2.gif""style=""height:400px;""></stim_listB>",are kissing each other,
null,"<div style=""font-size:60px;"">+</div>",,html-keyboard-response,54,429595,0.0-13.0-0.6,28894,List1B,black,woman,,,,null,,,,
null,"<img src=""stim_listB/shout4.gif""style=""height:400px;""></stim_listB>",,html-keyboard-response,55,431631,0.0-13.0-1.6,28894,List1B,black,woman,,,,null,,,,
null,are shouting at each other,,html-keyboard-response,56,433655,0.0-13.0-2.6,28894,List1B,black,woman,,,,null,,,,
16695,,,survey-text,57,450361,0.0-13.0-3.6,28894,List1B,black,woman,,,,,"{""Q0"":""Dave and Jane are shouting at eachother ""}","<img src=""stim_listB/shout4.gif""style=""height:400px;""></stim_listB>",are shouting at each other,
null,"<div style=""font-size:60px;"">+</div>",,html-keyboard-response,58,450881,0.0-13.0-0.7,28894,List1B,black,woman,,,,null,,,,
null,"<img src=""stim_listB/kiss3.gif""style=""height:400px;""></stim_listB>",,html-keyboard-response,59,452901,0.0-13.0-1.7,28894,List1B,black,woman,,,,null,,,,
null,is kissing,,html-keyboard-response,60,454905,0.0-13.0-2.7,28894,List1B,black,woman,,,,null,,,,
9330,,,survey-text,61,464245,0.0-13.0-3.7,28894,List1B,black,woman,,,,,"{""Q0"":""Ruth and Luke is kissing""}","<img src=""stim_listB/kiss3.gif""style=""height:400px;""></stim_listB>",is kissing,
null,"<div style=""font-size:60px;"">+</div>",,html-keyboard-response,62,464769,0.0-13.0-0.8,28894,List1B,black,woman,,,,null,,,,
null,"<img src=""stim_listB/marry6.gif""style=""height:400px;""></stim_listB>",,html-keyboard-response,63,466801,0.0-13.0-1.8,28894,List1B,black,woman,,,,null,,,,
null,are marrying each other,,html-keyboard-response,64,468817,0.0-13.0-2.8,28894,List1B,black,woman,,,,null,,,,
14442,,,survey-text,65,483268,0.0-13.0-3.8,28894,List1B,black,woman,,,,,"{""Q0"":""Fred and Dave are marrying eachother""}","<img src=""stim_listB/marry6.gif""style=""height:400px;""></stim_listB>",are marrying each other,
null,"<div style=""font-size:60px;"">+</div>",,html-keyboard-response,66,483785,0.0-13.0-0.9,28894,List1B,black,woman,,,,null,,,,
null,"<img src=""stim_listB/marry1.gif""style=""height:400px;""></stim_listB>",,html-keyboard-response,67,485807,0.0-13.0-1.9,28894,List1B,black,woman,,,,null,,,,
null,is marrying,,html-keyboard-response,68,487814,0.0-13.0-2.9,28894,List1B,black,woman,,,,null,,,,
7049,,,survey-text,69,494871,0.0-13.0-3.9,28894,List1B,black,woman,,,,,"{""Q0"":""Beth is marrying Mike""}","<img src=""stim_listB/marry1.gif""style=""height:400px;""></stim_listB>",is marrying,
null,"<div style=""font-size:60px;"">+</div>",,html-keyboard-response,70,495383,0.0-13.0-0.10,28894,List1B,black,woman,,,,null,,,,
null,"<img src=""stim_listB/talk2.gif""style=""height:400px;""></stim_listB>",,html-keyboard-response,71,497414,0.0-13.0-1.10,28894,List1B,black,woman,,,,null,,,,
null,are talking to each other,,html-keyboard-response,72,499414,0.0-13.0-2.10,28894,List1B,black,woman,,,,null,,,,
12919,,,survey-text,73,512347,0.0-13.0-3.10,28894,List1B,black,woman,,,,,"{""Q0"":""Mike and Beth are talking to eachother""}","<img src=""stim_listB/talk2.gif""style=""height:400px;""></stim_listB>",are talking to each other,
null,"<div style=""font-size:60px;"">+</div>",,html-keyboard-response,74,512866,0.0-13.0-0.11,28894,List1B,black,woman,,,,null,,,,
null,"<img src=""stim_listB/fight1.gif""style=""height:400px;""></stim_listB>",,html-keyboard-response,75,514894,0.0-13.0-1.11,28894,List1B,black,woman,,,,null,,,,
null,is fighting,,html-keyboard-response,76,516905,0.0-13.0-2.11,28894,List1B,black,woman,,,,null,,,,
8136,,,survey-text,77,525049,0.0-13.0-3.11,28894,List1B,black,woman,,,,,"{""Q0"":""Kate is fighting Mike""}","<img src=""stim_listB/fight1.gif""style=""height:400px;""></stim_listB>",is fighting,
null,"<div style=""font-size:60px;"">+</div>",,html-keyboard-response,78,525570,0.0-13.0-0.12,28894,List1B,black,woman,,,,null,,,,
null,"<img src=""stim_listB/fight4.gif""style=""height:400px;""></stim_listB>",,html-keyboard-response,79,527591,0.0-13.0-1.12,28894,List1B,black,woman,,,,null,,,,
null,are fighting each other,,html-keyboard-response,80,529596,0.0-13.0-2.12,28894,List1B,black,woman,,,,null,,,,
14615,,,survey-text,81,544217,0.0-13.0-3.12,28894,List1B,black,woman,,,,,"{""Q0"":""Luke and Ruth are fighting eachother""}","<img src=""stim_listB/fight4.gif""style=""height:400px;""></stim_listB>",are fighting each other,
null,"<div style=""font-size:60px;"">+</div>",,html-keyboard-response,82,544755,0.0-13.0-0.13,28894,List1B,black,woman,,,,null,,,,
null,"<img src=""stim_listB/fight8.gif""style=""height:400px;""></stim_listB>",,html-keyboard-response,83,546779,0.0-13.0-1.13,28894,List1B,black,woman,,,,null,,,,
null,are fighting each other,,html-keyboard-response,84,548769,0.0-13.0-2.13,28894,List1B,black,woman,,,,null,,,,
19178,,,survey-text,85,567953,0.0-13.0-3.13,28894,List1B,black,woman,,,,,"{""Q0"":""Beth and Ruth are fighting each other""}","<img src=""stim_listB/fight8.gif""style=""height:400px;""></stim_listB>",are fighting each other,
null,"<div style=""font-size:60px;"">+</div>",,html-keyboard-response,86,568467,0.0-13.0-0.14,28894,List1B,black,woman,,,,null,,,,
null,"<img src=""stim_listB/kiss5.gif""style=""height:400px;""></stim_listB>",,html-keyboard-response,87,570493,0.0-13.0-1.14,28894,List1B,black,woman,,,,null,,,,
null,is kissing,,html-keyboard-response,88,572505,0.0-13.0-2.14,28894,List1B,black,woman,,,,null,,,,
7635,,,survey-text,89,580148,0.0-13.0-3.14,28894,List1B,black,woman,,,,,"{""Q0"":""Luke is kissing Fred""}","<img src=""stim_listB/kiss5.gif""style=""height:400px;""></stim_listB>",is kissing,
null,"<div style=""font-size:60px;"">+</div>",,html-keyboard-response,90,580719,0.0-13.0-0.15,28894,List1B,black,woman,,,,null,,,,
null,"<img src=""stim_listB/touch3.gif""style=""height:400px;""></stim_listB>",,html-keyboard-response,91,582741,0.0-13.0-1.15,28894,List1B,black,woman,,,,null,,,,
null,is touching,,html-keyboard-response,92,584746,0.0-13.0-2.15,28894,List1B,black,woman,,,,null,,,,
8241,,,survey-text,93,592996,0.0-13.0-3.15,28894,List1B,black,woman,,,,,"{""Q0"":""Jane is touching Fred""}","<img src=""stim_listB/touch3.gif""style=""height:400px;""></stim_listB>",is touching,
null,"<div style=""font-size:60px;"">+</div>",,html-keyboard-response,94,593513,0.0-13.0-0.16,28894,List1B,black,woman,,,,null,,,,
null,"<img src=""stim_listB/dance5.gif""style=""height:400px;""></stim_listB>",,html-keyboard-response,95,595534,0.0-13.0-1.16,28894,List1B,black,woman,,,,null,,,,
null,is dancing with,,html-keyboard-response,96,597537,0.0-13.0-2.16,28894,List1B,black,woman,,,,null,,,,
10119,,,survey-text,97,607663,0.0-13.0-3.16,28894,List1B,black,woman,,,,,"{""Q0"":""Dave is dancing with Fred""}","<img src=""stim_listB/dance5.gif""style=""height:400px;""></stim_listB>",is dancing with,
null,"<div style=""font-size:60px;"">+</div>",,html-keyboard-response,98,608176,0.0-13.0-0.17,28894,List1B,black,woman,,,,null,,,,
null,"<img src=""stim_listB/fight5.gif""style=""height:400px;""></stim_listB>",,html-keyboard-response,99,610205,0.0-13.0-1.17,28894,List1B,black,woman,,,,null,,,,
null,is fighting,,html-keyboard-response,100,612193,0.0-13.0-2.17,28894,List1B,black,woman,,,,null,,,,
10521,,,survey-text,101,622721,0.0-13.0-3.17,28894,List1B,black,woman,,,,,"{""Q0"":""Dave is fighting Mike""}","<img src=""stim_listB/fight5.gif""style=""height:400px;""></stim_listB>",is fighting,
null,"<div style=""font-size:60px;"">+</div>",,html-keyboard-response,102,623236,0.0-13.0-0.18,28894,List1B,black,woman,,,,null,,,,
null,"<img src=""stim_listB/kiss4.gif""style=""height:400px;""></stim_listB>",,html-keyboard-response,103,625266,0.0-13.0-1.18,28894,List1B,black,woman,,,,null,,,,
null,are kissing each other,,html-keyboard-response,104,627270,0.0-13.0-2.18,28894,List1B,black,woman,,,,null,,,,
11292,,,survey-text,105,638568,0.0-13.0-3.18,28894,List1B,black,woman,,,,,"{""Q0"":""Dave and Jane are kissing each other ""}","<img src=""stim_listB/kiss4.gif""style=""height:400px;""></stim_listB>",are kissing each other,
null,"<div style=""font-size:60px;"">+</div>",,html-keyboard-response,106,639084,0.0-13.0-0.19,28894,List1B,black,woman,,,,null,,,,
null,"<img src=""stim_listB/argue5.gif""style=""height:400px;""></stim_listB>",,html-keyboard-response,107,641108,0.0-13.0-1.19,28894,List1B,black,woman,,,,null,,,,
null,is arguing with,,html-keyboard-response,108,643126,0.0-13.0-2.19,28894,List1B,black,woman,,,,null,,,,
9828,,,survey-text,109,652960,0.0-13.0-3.19,28894,List1B,black,woman,,,,,"{""Q0"":""Luke is arguing with Mike""}","<img src=""stim_listB/argue5.gif""style=""height:400px;""></stim_listB>",is arguing with,
22982,"<img src='img/portrait_matrix_list1.jpg' style='width:900px;height:500px;''></img><p>If you have memorised all the portraits and names and are ready to start, press Continue.</p><p><strong>Please note: Your memory of these faces will be tested 4 times during this experiment.</strong></p>",0,html-button-response,110,675956,0.0-14.0-0.0,28894,List1B,black,woman,,,,,,,,
2303,"<img src=""portrait/BM1.jpg""style=""height:400px;""></img>",4,html-button-response,111,679296,0.0-14.0-1.0,28894,List1B,black,woman,,TRUE,4,,,,,
null,CORRECT,,html-keyboard-response,112,680852,0.0-14.0-2.0-0.0,28894,List1B,black,woman,,,,null,,,,
3998,"<img src=""portrait/WW1.jpg""style=""height:400px;""></img>",1,html-button-response,113,684862,0.0-14.0-4.0,28894,List1B,black,woman,,TRUE,1,,,,,
null,CORRECT,,html-keyboard-response,114,686396,0.0-14.0-5.0-0.0,28894,List1B,black,woman,,,,null,,,,
2426,"<img src=""portrait/WM1.jpg""style=""height:400px;""></img>",6,html-button-response,115,688848,0.0-14.0-7.0,28894,List1B,black,woman,,TRUE,6,,,,,
null,CORRECT,,html-keyboard-response,116,690386,0.0-14.0-8.0-0.0,28894,List1B,black,woman,,,,null,,,,
1589,"<img src=""portrait/WW2.jpg""style=""height:400px;""></img>",3,html-button-response,117,691992,0.0-14.0-10.0,28894,List1B,black,woman,,TRUE,3,,,,,
null,CORRECT,,html-keyboard-response,118,693554,0.0-14.0-11.0-0.0,28894,List1B,black,woman,,,,null,,,,
1945,"<img src=""portrait/WM2.jpg""style=""height:400px;""></img>",7,html-button-response,119,695514,0.0-14.0-13.0,28894,List1B,black,woman,,TRUE,7,,,,,
null,CORRECT,,html-keyboard-response,120,697045,0.0-14.0-14.0-0.0,28894,List1B,black,woman,,,,null,,,,
2538,"<img src=""portrait/BW1.jpg""style=""height:400px;""></img>",0,html-button-response,121,699602,0.0-14.0-16.0,28894,List1B,black,woman,,TRUE,0,,,,,
null,CORRECT,,html-keyboard-response,122,701152,0.0-14.0-17.0-0.0,28894,List1B,black,woman,,,,null,,,,
2616,"<img src=""portrait/BW2.jpg""style=""height:400px;""></img>",2,html-button-response,123,703787,0.0-14.0-19.0,28894,List1B,black,woman,,TRUE,2,,,,,
null,CORRECT,,html-keyboard-response,124,705324,0.0-14.0-20.0-0.0,28894,List1B,black,woman,,,,null,,,,
2639,"<img src=""portrait/BM2.jpg""style=""height:400px;""></img>",5,html-button-response,125,707982,0.0-14.0-22.0,28894,List1B,black,woman,,TRUE,5,,,,,
null,CORRECT,,html-keyboard-response,126,709518,0.0-14.0-23.0-0.0,28894,List1B,black,woman,,,,null,,,,
3265,<p>You got 8 out of 8 right first time. Press Continue.</p>,0,html-button-response,127,712796,0.0-14.0-25.0,28894,List1B,black,woman,,,,,,,,
null,"<div style=""font-size:60px;"">+</div>",,html-keyboard-response,128,714355,0.0-15.0-0.0,28894,List1B,black,woman,,,,null,,,,
null,"<img src=""stim_listB/shout2.gif""style=""height:400px;""></stim_listB>",,html-keyboard-response,129,716379,0.0-15.0-1.0,28894,List1B,black,woman,,,,null,,,,
null,are shouting at each other,,html-keyboard-response,130,718383,0.0-15.0-2.0,28894,List1B,black,woman,,,,null,,,,
13894,,,survey-text,131,732288,0.0-15.0-3.0,28894,List1B,black,woman,,,,,"{""Q0"":""Mike and Kate are shouting at each other ""}","<img src=""stim_listB/shout2.gif""style=""height:400px;""></stim_listB>",are shouting at each other,
null,"<div style=""font-size:60px;"">+</div>",,html-keyboard-response,132,732808,0.0-15.0-0.1,28894,List1B,black,woman,,,,null,,,,
null,"<img src=""stim_listB/dance7.gif""style=""height:400px;""></stim_listB>",,html-keyboard-response,133,734830,0.0-15.0-1.1,28894,List1B,black,woman,,,,null,,,,
null,is dancing with,,html-keyboard-response,134,736834,0.0-15.0-2.1,28894,List1B,black,woman,,,,null,,,,
8186,,,survey-text,135,745027,0.0-15.0-3.1,28894,List1B,black,woman,,,,,"{""Q0"":""Jane is dancing with Beth""}","<img src=""stim_listB/dance7.gif""style=""height:400px;""></stim_listB>",is dancing with,
null,"<div style=""font-size:60px;"">+</div>",,html-keyboard-response,136,745550,0.0-15.0-0.2,28894,List1B,black,woman,,,,null,,,,
null,"<img src=""stim_listB/kiss8.gif""style=""height:400px;""></stim_listB>",,html-keyboard-response,137,747592,0.0-15.0-1.2,28894,List1B,black,woman,,,,null,,,,
null,are kissing each other,,html-keyboard-response,138,749599,0.0-15.0-2.2,28894,List1B,black,woman,,,,null,,,,
12448,,,survey-text,139,762055,0.0-15.0-3.2,28894,List1B,black,woman,,,,,"{""Q0"":""Kate and Jane are kissing eachother""}","<img src=""stim_listB/kiss8.gif""style=""height:400px;""></stim_listB>",are kissing each other,
null,"<div style=""font-size:60px;"">+</div>",,html-keyboard-response,140,762614,0.0-15.0-0.3,28894,List1B,black,woman,,,,null,,,,
null,"<img src=""stim_listB/touch8.gif""style=""height:400px;""></stim_listB>",,html-keyboard-response,141,764633,0.0-15.0-1.3,28894,List1B,black,woman,,,,null,,,,
null,are touching each other,,html-keyboard-response,142,766633,0.0-15.0-2.3,28894,List1B,black,woman,,,,null,,,,
18461,,,survey-text,143,785102,0.0-15.0-3.3,28894,List1B,black,woman,,,,,"{""Q0"":""Beth and Ruth are touching eachother ""}","<img src=""stim_listB/touch8.gif""style=""height:400px;""></stim_listB>",are touching each other,
null,"<div style=""font-size:60px;"">+</div>",,html-keyboard-response,144,785627,0.0-15.0-0.4,28894,List1B,black,woman,,,,null,,,,
null,"<img src=""stim_listB/marry7.gif""style=""height:400px;""></stim_listB>",,html-keyboard-response,145,787655,0.0-15.0-1.4,28894,List1B,black,woman,,,,null,,,,
null,is marrying,,html-keyboard-response,146,789643,0.0-15.0-2.4,28894,List1B,black,woman,,,,null,,,,
11324,,,survey-text,147,800976,0.0-15.0-3.4,28894,List1B,black,woman,,,,,"{""Q0"":""Ruth is marrying Kate""}","<img src=""stim_listB/marry7.gif""style=""height:400px;""></stim_listB>",is marrying,
null,"<div style=""font-size:60px;"">+</div>",,html-keyboard-response,148,801487,0.0-15.0-0.5,28894,List1B,black,woman,,,,null,,,,
null,"<img src=""stim_listB/flirt8.gif""style=""height:400px;""></stim_listB>",,html-keyboard-response,149,803499,0.0-15.0-1.5,28894,List1B,black,woman,,,,null,,,,
null,are flirting with each other,,html-keyboard-response,150,805506,0.0-15.0-2.5,28894,List1B,black,woman,,,,null,,,,
12508,,,survey-text,151,818036,0.0-15.0-3.5,28894,List1B,black,woman,,,,,"{""Q0"":""Kate and Ruth are flirting with each other""}","<img src=""stim_listB/flirt8.gif""style=""height:400px;""></stim_listB>",are flirting with each other,
null,"<div style=""font-size:60px;"">+</div>",,html-keyboard-response,152,818554,0.0-15.0-0.6,28894,List1B,black,woman,,,,null,,,,
null,"<img src=""stim_listB/play8.gif""style=""height:400px;""></stim_listB>",,html-keyboard-response,153,820576,0.0-15.0-1.6,28894,List1B,black,woman,,,,null,,,,
null,are playing with each other,,html-keyboard-response,154,822582,0.0-15.0-2.6,28894,List1B,black,woman,,,,null,,,,
19477,,,survey-text,155,842076,0.0-15.0-3.6,28894,List1B,black,woman,,,,,"{""Q0"":""Beth and Ruth are playing with each other""}","<img src=""stim_listB/play8.gif""style=""height:400px;""></stim_listB>",are playing with each other,
null,"<div style=""font-size:60px;"">+</div>",,html-keyboard-response,156,842605,0.0-15.0-0.7,28894,List1B,black,woman,,,,null,,,,
null,"<img src=""stim_listB/shout6.gif""style=""height:400px;""></stim_listB>",,html-keyboard-response,157,844637,0.0-15.0-1.7,28894,List1B,black,woman,,,,null,,,,
null,are shouting at each other,,html-keyboard-response,158,846623,0.0-15.0-2.7,28894,List1B,black,woman,,,,null,,,,
11545,,,survey-text,159,858181,0.0-15.0-3.7,28894,List1B,black,woman,,,,,"{""Q0"":""Mike and Dave are shouting at each other""}","<img src=""stim_listB/shout6.gif""style=""height:400px;""></stim_listB>",are shouting at each other,
null,"<div style=""font-size:60px;"">+</div>",,html-keyboard-response,160,858688,0.0-15.0-0.8,28894,List1B,black,woman,,,,null,,,,
null,"<img src=""stim_listB/shout8.gif""style=""height:400px;""></stim_listB>",,html-keyboard-response,161,860718,0.0-15.0-1.8,28894,List1B,black,woman,,,,null,,,,
null,are shouting at each other,,html-keyboard-response,162,862721,0.0-15.0-2.8,28894,List1B,black,woman,,,,null,,,,
11433,,,survey-text,163,874162,0.0-15.0-3.8,28894,List1B,black,woman,,,,,"{""Q0"":""Kate and Jane are shouting at each other ""}","<img src=""stim_listB/shout8.gif""style=""height:400px;""></stim_listB>",are shouting at each other,
null,"<div style=""font-size:60px;"">+</div>",,html-keyboard-response,164,874673,0.0-15.0-0.9,28894,List1B,black,woman,,,,null,,,,
null,"<img src=""stim_listB/play5.gif""style=""height:400px;""></stim_listB>",,html-keyboard-response,165,876686,0.0-15.0-1.9,28894,List1B,black,woman,,,,null,,,,
null,is playing with,,html-keyboard-response,166,878690,0.0-15.0-2.9,28894,List1B,black,woman,,,,null,,,,
10643,,,survey-text,167,889341,0.0-15.0-3.9,28894,List1B,black,woman,,,,,"{""Q0"":""Dave is playing with Mike""}","<img src=""stim_listB/play5.gif""style=""height:400px;""></stim_listB>",is playing with,
null,"<div style=""font-size:60px;"">+</div>",,html-keyboard-response,168,889862,0.0-15.0-0.10,28894,List1B,black,woman,,,,null,,,,
null,"<img src=""stim_listB/talk5.gif""style=""height:400px;""></stim_listB>",,html-keyboard-response,169,891889,0.0-15.0-1.10,28894,List1B,black,woman,,,,null,,,,
null,is talking to,,html-keyboard-response,170,893907,0.0-15.0-2.10,28894,List1B,black,woman,,,,null,,,,
9091,,,survey-text,171,903005,0.0-15.0-3.10,28894,List1B,black,woman,,,,,"{""Q0"":""Dave is talking to Fred""}","<img src=""stim_listB/talk5.gif""style=""height:400px;""></stim_listB>",is talking to,
null,"<div style=""font-size:60px;"">+</div>",,html-keyboard-response,172,903533,0.0-15.0-0.11,28894,List1B,black,woman,,,,null,,,,
null,"<img src=""stim_listB/touch2.gif""style=""height:400px;""></stim_listB>",,html-keyboard-response,173,905560,0.0-15.0-1.11,28894,List1B,black,woman,,,,null,,,,
null,are touching each other,,html-keyboard-response,174,907574,0.0-15.0-2.11,28894,List1B,black,woman,,,,null,,,,
9387,,,survey-text,175,916966,0.0-15.0-3.11,28894,List1B,black,woman,,,,,"{""Q0"":""Fred and Beth are touching each other""}","<img src=""stim_listB/touch2.gif""style=""height:400px;""></stim_listB>",are touching each other,
null,"<div style=""font-size:60px;"">+</div>",,html-keyboard-response,176,917483,0.0-15.0-0.12,28894,List1B,black,woman,,,,null,,,,
null,"<img src=""stim_listB/touch7.gif""style=""height:400px;""></stim_listB>",,html-keyboard-response,177,919506,0.0-15.0-1.12,28894,List1B,black,woman,,,,null,,,,
null,is touching,,html-keyboard-response,178,921511,0.0-15.0-2.12,28894,List1B,black,woman,,,,null,,,,
6981,,,survey-text,179,928503,0.0-15.0-3.12,28894,List1B,black,woman,,,,,"{""Q0"":""Jane is touching Kate ""}","<img src=""stim_listB/touch7.gif""style=""height:400px;""></stim_listB>",is touching,
null,"<div style=""font-size:60px;"">+</div>",,html-keyboard-response,180,929012,0.0-15.0-0.13,28894,List1B,black,woman,,,,null,,,,
null,"<img src=""stim_listB/dance6.gif""style=""height:400px;""></stim_listB>",,html-keyboard-response,181,931040,0.0-15.0-1.13,28894,List1B,black,woman,,,,null,,,,
null,are dancing with each other,,html-keyboard-response,182,933057,0.0-15.0-2.13,28894,List1B,black,woman,,,,null,,,,
19381,,,survey-text,183,952448,0.0-15.0-3.13,28894,List1B,black,woman,,,,,"{""Q0"":""Mike and Luke are dancing with each other""}","<img src=""stim_listB/dance6.gif""style=""height:400px;""></stim_listB>",are dancing with each other,
null,"<div style=""font-size:60px;"">+</div>",,html-keyboard-response,184,952971,0.0-15.0-0.14,28894,List1B,black,woman,,,,null,,,,
null,"<img src=""stim_listB/touch4.gif""style=""height:400px;""></stim_listB>",,html-keyboard-response,185,954994,0.0-15.0-1.14,28894,List1B,black,woman,,,,null,,,,
null,are touching each other,,html-keyboard-response,186,956998,0.0-15.0-2.14,28894,List1B,black,woman,,,,null,,,,
12359,,,survey-text,187,969367,0.0-15.0-3.14,28894,List1B,black,woman,,,,,"{""Q0"":""Luke and Ruth are touching each other ""}","<img src=""stim_listB/touch4.gif""style=""height:400px;""></stim_listB>",are touching each other,
null,"<div style=""font-size:60px;"">+</div>",,html-keyboard-response,188,969894,0.0-15.0-0.15,28894,List1B,black,woman,,,,null,,,,
null,"<img src=""stim_listB/fight2.gif""style=""height:400px;""></stim_listB>",,html-keyboard-response,189,971923,0.0-15.0-1.15,28894,List1B,black,woman,,,,null,,,,
null,are fighting each other,,html-keyboard-response,190,973941,0.0-15.0-2.15,28894,List1B,black,woman,,,,null,,,,
9600,,,survey-text,191,983560,0.0-15.0-3.15,28894,List1B,black,woman,,,,,"{""Q0"":""Fred and Beth are fighting each other ""}","<img src=""stim_listB/fight2.gif""style=""height:400px;""></stim_listB>",are fighting each other,
null,"<div style=""font-size:60px;"">+</div>",,html-keyboard-response,192,984076,0.0-15.0-0.16,28894,List1B,black,woman,,,,null,,,,
null,"<img src=""stim_listB/argue7.gif""style=""height:400px;""></stim_listB>",,html-keyboard-response,193,986112,0.0-15.0-1.16,28894,List1B,black,woman,,,,null,,,,
null,is arguing with,,html-keyboard-response,194,988097,0.0-15.0-2.16,28894,List1B,black,woman,,,,null,,,,
10507,,,survey-text,195,998611,0.0-15.0-3.16,28894,List1B,black,woman,,,,,"{""Q0"":""Ruth is arguing with Kate""}","<img src=""stim_listB/argue7.gif""style=""height:400px;""></stim_listB>",is arguing with,
null,"<div style=""font-size:60px;"">+</div>",,html-keyboard-response,196,999132,0.0-15.0-0.17,28894,List1B,black,woman,,,,null,,,,
null,"<img src=""stim_listB/dance3.gif""style=""height:400px;""></stim_listB>",,html-keyboard-response,197,1001167,0.0-15.0-1.17,28894,List1B,black,woman,,,,null,,,,
null,is dancing with,,html-keyboard-response,198,1003155,0.0-15.0-2.17,28894,List1B,black,woman,,,,null,,,,
10220,,,survey-text,199,1013382,0.0-15.0-3.17,28894,List1B,black,woman,,,,,"{""Q0"":""Jane is dancing with Luke""}","<img src=""stim_listB/dance3.gif""style=""height:400px;""></stim_listB>",is dancing with,
null,"<div style=""font-size:60px;"">+</div>",,html-keyboard-response,200,1013913,0.0-15.0-0.18,28894,List1B,black,woman,,,,null,,,,
null,"<img src=""stim_listB/dance2.gif""style=""height:400px;""></stim_listB>",,html-keyboard-response,201,1015953,0.0-15.0-1.18,28894,List1B,black,woman,,,,null,,,,
null,are dancing with each other,,html-keyboard-response,202,1017951,0.0-15.0-2.18,28894,List1B,black,woman,,,,null,,,,
14331,,,survey-text,203,1032290,0.0-15.0-3.18,28894,List1B,black,woman,,,,,"{""Q0"":""Mike and Beth are dancing with each other""}","<img src=""stim_listB/dance2.gif""style=""height:400px;""></stim_listB>",are dancing with each other,
null,"<div style=""font-size:60px;"">+</div>",,html-keyboard-response,204,1032810,0.0-15.0-0.19,28894,List1B,black,woman,,,,null,,,,
null,"<img src=""stim_listB/flirt4.gif""style=""height:400px;""></stim_listB>",,html-keyboard-response,205,1034830,0.0-15.0-1.19,28894,List1B,black,woman,,,,null,,,,
null,are flirting with each other,,html-keyboard-response,206,1036836,0.0-15.0-2.19,28894,List1B,black,woman,,,,null,,,,
17028,,,survey-text,207,1053868,0.0-15.0-3.19,28894,List1B,black,woman,,,,,"{""Q0"":""Dave and Ruth are flirting with each other""}","<img src=""stim_listB/flirt4.gif""style=""height:400px;""></stim_listB>",are flirting with each other,
6347,"<img src='img/portrait_matrix_list1.jpg' style='width:900px;height:500px;''></img><p>If you have memorised all the portraits and names and are ready to start, press Continue.</p><p><strong>Please note: Your memory of these faces will be tested 4 times during this experiment.</strong></p>",0,html-button-response,208,1060226,0.0-16.0-0.0,28894,List1B,black,woman,,,,,,,,
1895,"<img src=""portrait/WW2.jpg""style=""height:400px;""></img>",3,html-button-response,209,1063166,0.0-16.0-1.0,28894,List1B,black,woman,,TRUE,3,,,,,
null,CORRECT,,html-keyboard-response,210,1064700,0.0-16.0-2.0-0.0,28894,List1B,black,woman,,,,null,,,,
2146,"<img src=""portrait/BM2.jpg""style=""height:400px;""></img>",5,html-button-response,211,1066862,0.0-16.0-4.0,28894,List1B,black,woman,,TRUE,5,,,,,
null,CORRECT,,html-keyboard-response,212,1068392,0.0-16.0-5.0-0.0,28894,List1B,black,woman,,,,null,,,,
1848,"<img src=""portrait/WM1.jpg""style=""height:400px;""></img>",6,html-button-response,213,1070256,0.0-16.0-7.0,28894,List1B,black,woman,,TRUE,6,,,,,
null,CORRECT,,html-keyboard-response,214,1071802,0.0-16.0-8.0-0.0,28894,List1B,black,woman,,,,null,,,,
2938,"<img src=""portrait/WW1.jpg""style=""height:400px;""></img>",1,html-button-response,215,1074754,0.0-16.0-10.0,28894,List1B,black,woman,,TRUE,1,,,,,
null,CORRECT,,html-keyboard-response,216,1076292,0.0-16.0-11.0-0.0,28894,List1B,black,woman,,,,null,,,,
1635,"<img src=""portrait/BM1.jpg""style=""height:400px;""></img>",4,html-button-response,217,1077947,0.0-16.0-13.0,28894,List1B,black,woman,,TRUE,4,,,,,
null,CORRECT,,html-keyboard-response,218,1079487,0.0-16.0-14.0-0.0,28894,List1B,black,woman,,,,null,,,,
4314,"<img src=""portrait/WM2.jpg""style=""height:400px;""></img>",7,html-button-response,219,1083830,0.0-16.0-16.0,28894,List1B,black,woman,,TRUE,7,,,,,
null,CORRECT,,html-keyboard-response,220,1085366,0.0-16.0-17.0-0.0,28894,List1B,black,woman,,,,null,,,,
2474,"<img src=""portrait/BW2.jpg""style=""height:400px;""></img>",2,html-button-response,221,1087858,0.0-16.0-19.0,28894,List1B,black,woman,,TRUE,2,,,,,
null,CORRECT,,html-keyboard-response,222,1089412,0.0-16.0-20.0-0.0,28894,List1B,black,woman,,,,null,,,,
1471,"<img src=""portrait/BW1.jpg""style=""height:400px;""></img>",0,html-button-response,223,1090898,0.0-16.0-22.0,28894,List1B,black,woman,,TRUE,0,,,,,
null,CORRECT,,html-keyboard-response,224,1092452,0.0-16.0-23.0-0.0,28894,List1B,black,woman,,,,null,,,,
1582,<p>You got 8 out of 8 right first time. Press Continue.</p>,0,html-button-response,225,1094063,0.0-16.0-25.0,28894,List1B,black,woman,,,,,,,,
null,"<div style=""font-size:60px;"">+</div>",,html-keyboard-response,226,1095625,0.0-17.0-0.0,28894,List1B,black,woman,,,,null,,,,
null,"<img src=""stim_listB/talk1.gif""style=""height:400px;""></stim_listB>",,html-keyboard-response,227,1097645,0.0-17.0-1.0,28894,List1B,black,woman,,,,null,,,,
null,is talking to,,html-keyboard-response,228,1099631,0.0-17.0-2.0,28894,List1B,black,woman,,,,null,,,,
7172,,,survey-text,229,1106812,0.0-17.0-3.0,28894,List1B,black,woman,,,,,"{""Q0"":""Beth is talking to Fred""}","<img src=""stim_listB/talk1.gif""style=""height:400px;""></stim_listB>",is talking to,
null,"<div style=""font-size:60px;"">+</div>",,html-keyboard-response,230,1107341,0.0-17.0-0.1,28894,List1B,black,woman,,,,null,,,,
null,"<img src=""stim_listB/play6.gif""style=""height:400px;""></stim_listB>",,html-keyboard-response,231,1109363,0.0-17.0-1.1,28894,List1B,black,woman,,,,null,,,,
null,are playing with each other,,html-keyboard-response,232,1111349,0.0-17.0-2.1,28894,List1B,black,woman,,,,null,,,,
15392,,,survey-text,233,1126750,0.0-17.0-3.1,28894,List1B,black,woman,,,,,"{""Q0"":""Fred and Luke are playing with each other ""}","<img src=""stim_listB/play6.gif""style=""height:400px;""></stim_listB>",are playing with each other,
null,"<div style=""font-size:60px;"">+</div>",,html-keyboard-response,234,1127268,0.0-17.0-0.2,28894,List1B,black,woman,,,,null,,,,
null,"<img src=""stim_listB/flirt3.gif""style=""height:400px;""></stim_listB>",,html-keyboard-response,235,1129304,0.0-17.0-1.2,28894,List1B,black,woman,,,,null,,,,
null,is flirting with,,html-keyboard-response,236,1131305,0.0-17.0-2.2,28894,List1B,black,woman,,,,null,,,,
14049,,,survey-text,237,1145363,0.0-17.0-3.2,28894,List1B,black,woman,,,,,"{""Q0"":""Jane is flirting with Luke ""}","<img src=""stim_listB/flirt3.gif""style=""height:400px;""></stim_listB>",is flirting with,
null,"<div style=""font-size:60px;"">+</div>",,html-keyboard-response,238,1145884,0.0-17.0-0.3,28894,List1B,black,woman,,,,null,,,,
null,"<img src=""stim_listB/touch1.gif""style=""height:400px;""></stim_listB>",,html-keyboard-response,239,1147919,0.0-17.0-1.3,28894,List1B,black,woman,,,,null,,,,
null,is touching,,html-keyboard-response,240,1149960,0.0-17.0-2.3,28894,List1B,black,woman,,,,null,,,,
7683,,,survey-text,241,1157650,0.0-17.0-3.3,28894,List1B,black,woman,,,,,"{""Q0"":""Kate is touching Mike""}","<img src=""stim_listB/touch1.gif""style=""height:400px;""></stim_listB>",is touching,
null,"<div style=""font-size:60px;"">+</div>",,html-keyboard-response,242,1158165,0.0-17.0-0.4,28894,List1B,black,woman,,,,null,,,,
null,"<img src=""stim_listB/flirt5.gif""style=""height:400px;""></stim_listB>",,html-keyboard-response,243,1160189,0.0-17.0-1.4,28894,List1B,black,woman,,,,null,,,,
null,is flirting with,,html-keyboard-response,244,1162209,0.0-17.0-2.4,28894,List1B,black,woman,,,,null,,,,
14144,,,survey-text,245,1176362,0.0-17.0-3.4,28894,List1B,black,woman,,,,,"{""Q0"":""Dave is flirting with Fred ""}","<img src=""stim_listB/flirt5.gif""style=""height:400px;""></stim_listB>",is flirting with,
null,"<div style=""font-size:60px;"">+</div>",,html-keyboard-response,246,1176874,0.0-17.0-0.5,28894,List1B,black,woman,,,,null,,,,
null,"<img src=""stim_listB/play7.gif""style=""height:400px;""></stim_listB>",,html-keyboard-response,247,1178894,0.0-17.0-1.5,28894,List1B,black,woman,,,,null,,,,
null,is playing with,,html-keyboard-response,248,1180896,0.0-17.0-2.5,28894,List1B,black,woman,,,,null,,,,
6189,,,survey-text,249,1187093,0.0-17.0-3.5,28894,List1B,black,woman,,,,,"{""Q0"":""Jane is playing with Kate""}","<img src=""stim_listB/play7.gif""style=""height:400px;""></stim_listB>",is playing with,
null,"<div style=""font-size:60px;"">+</div>",,html-keyboard-response,250,1187613,0.0-17.0-0.6,28894,List1B,black,woman,,,,null,,,,
null,"<img src=""stim_listB/talk6.gif""style=""height:400px;""></stim_listB>",,html-keyboard-response,251,1189639,0.0-17.0-1.6,28894,List1B,black,woman,,,,null,,,,
null,are talking to each other,,html-keyboard-response,252,1191641,0.0-17.0-2.6,28894,List1B,black,woman,,,,null,,,,
15891,,,survey-text,253,1207540,0.0-17.0-3.6,28894,List1B,black,woman,,,,,"{""Q0"":""Mike and Luke are talking to each other ""}","<img src=""stim_listB/talk6.gif""style=""height:400px;""></stim_listB>",are talking to each other,
null,"<div style=""font-size:60px;"">+</div>",,html-keyboard-response,254,1208063,0.0-17.0-0.7,28894,List1B,black,woman,,,,null,,,,
null,"<img src=""stim_listB/argue1.gif""style=""height:400px;""></stim_listB>",,html-keyboard-response,255,1210096,0.0-17.0-1.7,28894,List1B,black,woman,,,,null,,,,
null,is arguing with,,html-keyboard-response,256,1212088,0.0-17.0-2.7,28894,List1B,black,woman,,,,null,,,,
7471,,,survey-text,257,1219570,0.0-17.0-3.7,28894,List1B,black,woman,,,,,"{""Q0"":""Beth is arguing with Mike""}","<img src=""stim_listB/argue1.gif""style=""height:400px;""></stim_listB>",is arguing with,
null,"<div style=""font-size:60px;"">+</div>",,html-keyboard-response,258,1220084,0.0-17.0-0.8,28894,List1B,black,woman,,,,null,,,,
null,"<img src=""stim_listB/flirt2.gif""style=""height:400px;""></stim_listB>",,html-keyboard-response,259,1222110,0.0-17.0-1.8,28894,List1B,black,woman,,,,null,,,,
null,are flirting with each other,,html-keyboard-response,260,1224101,0.0-17.0-2.8,28894,List1B,black,woman,,,,null,,,,
10136,,,survey-text,261,1234246,0.0-17.0-3.8,28894,List1B,black,woman,,,,,"{""Q0"":""Mike and Beth are flirting with each other ""}","<img src=""stim_listB/flirt2.gif""style=""height:400px;""></stim_listB>",are flirting with each other,
null,"<div style=""font-size:60px;"">+</div>",,html-keyboard-response,262,1234763,0.0-17.0-0.9,28894,List1B,black,woman,,,,null,,,,
null,"<img src=""stim_listB/talk4.gif""style=""height:400px;""></stim_listB>",,html-keyboard-response,263,1236783,0.0-17.0-1.9,28894,List1B,black,woman,,,,null,,,,
null,are talking to each other,,html-keyboard-response,264,1238789,0.0-17.0-2.9,28894,List1B,black,woman,,,,null,,,,
10965,,,survey-text,265,1249763,0.0-17.0-3.9,28894,List1B,black,woman,,,,,"{""Q0"":""Dave and Ruth are talking to each other ""}","<img src=""stim_listB/talk4.gif""style=""height:400px;""></stim_listB>",are talking to each other,
null,"<div style=""font-size:60px;"">+</div>",,html-keyboard-response,266,1250294,0.0-17.0-0.10,28894,List1B,black,woman,,,,null,,,,
null,"<img src=""stim_listB/play3.gif""style=""height:400px;""></stim_listB>",,html-keyboard-response,267,1252321,0.0-17.0-1.10,28894,List1B,black,woman,,,,null,,,,
null,is playing with,,html-keyboard-response,268,1254339,0.0-17.0-2.10,28894,List1B,black,woman,,,,null,,,,
12029,,,survey-text,269,1266375,0.0-17.0-3.10,28894,List1B,black,woman,,,,,"{""Q0"":""Jane is playing with Dave""}","<img src=""stim_listB/play3.gif""style=""height:400px;""></stim_listB>",is playing with,
null,"<div style=""font-size:60px;"">+</div>",,html-keyboard-response,270,1266890,0.0-17.0-0.11,28894,List1B,black,woman,,,,null,,,,
null,"<img src=""stim_listB/marry5.gif""style=""height:400px;""></stim_listB>",,html-keyboard-response,271,1268925,0.0-17.0-1.11,28894,List1B,black,woman,,,,null,,,,
null,is marrying,,html-keyboard-response,272,1270913,0.0-17.0-2.11,28894,List1B,black,woman,,,,null,,,,
6955,,,survey-text,273,1277879,0.0-17.0-3.11,28894,List1B,black,woman,,,,,"{""Q0"":""Luke is marrying Mike""}","<img src=""stim_listB/marry5.gif""style=""height:400px;""></stim_listB>",is marrying,
null,"<div style=""font-size:60px;"">+</div>",,html-keyboard-response,274,1278394,0.0-17.0-0.12,28894,List1B,black,woman,,,,null,,,,
null,"<img src=""stim_listB/fight7.gif""style=""height:400px;""></stim_listB>",,html-keyboard-response,275,1280402,0.0-17.0-1.12,28894,List1B,black,woman,,,,null,,,,
null,is fighting,,html-keyboard-response,276,1282434,0.0-17.0-2.12,28894,List1B,black,woman,,,,null,,,,
9360,,,survey-text,277,1291801,0.0-17.0-3.12,28894,List1B,black,woman,,,,,"{""Q0"":""Jane is fighting Kate ""}","<img src=""stim_listB/fight7.gif""style=""height:400px;""></stim_listB>",is fighting,
null,"<div style=""font-size:60px;"">+</div>",,html-keyboard-response,278,1292335,0.0-17.0-0.13,28894,List1B,black,woman,,,,null,,,,
null,"<img src=""stim_listB/play1.gif""style=""height:400px;""></stim_listB>",,html-keyboard-response,279,1294355,0.0-17.0-1.13,28894,List1B,black,woman,,,,null,,,,
null,is playing with,,html-keyboard-response,280,1296363,0.0-17.0-2.13,28894,List1B,black,woman,,,,null,,,,
8389,,,survey-text,281,1304759,0.0-17.0-3.13,28894,List1B,black,woman,,,,,"{""Q0"":""Kate is plying with Mike ""}","<img src=""stim_listB/play1.gif""style=""height:400px;""></stim_listB>",is playing with,
null,"<div style=""font-size:60px;"">+</div>",,html-keyboard-response,282,1305284,0.0-17.0-0.14,28894,List1B,black,woman,,,,null,,,,
null,"<img src=""stim_listB/touch5.gif""style=""height:400px;""></stim_listB>",,html-keyboard-response,283,1307312,0.0-17.0-1.14,28894,List1B,black,woman,,,,null,,,,
null,is touching,,html-keyboard-response,284,1309308,0.0-17.0-2.14,28894,List1B,black,woman,,,,null,,,,
6653,,,survey-text,285,1315971,0.0-17.0-3.14,28894,List1B,black,woman,,,,,"{""Q0"":""Dave is touching Mike""}","<img src=""stim_listB/touch5.gif""style=""height:400px;""></stim_listB>",is touching,
null,"<div style=""font-size:60px;"">+</div>",,html-keyboard-response,286,1316485,0.0-17.0-0.15,28894,List1B,black,woman,,,,null,,,,
null,"<img src=""stim_listB/kiss6.gif""style=""height:400px;""></stim_listB>",,html-keyboard-response,287,1318509,0.0-17.0-1.15,28894,List1B,black,woman,,,,null,,,,
null,are kissing each other,,html-keyboard-response,288,1320512,0.0-17.0-2.15,28894,List1B,black,woman,,,,null,,,,
11635,,,survey-text,289,1332164,0.0-17.0-3.15,28894,List1B,black,woman,,,,,"{""Q0"":""Mike and Dave are kissing each other ""}","<img src=""stim_listB/kiss6.gif""style=""height:400px;""></stim_listB>",are kissing each other,
null,"<div style=""font-size:60px;"">+</div>",,html-keyboard-response,290,1332680,0.0-17.0-0.16,28894,List1B,black,woman,,,,null,,,,
null,"<img src=""stim_listB/shout3.gif""style=""height:400px;""></stim_listB>",,html-keyboard-response,291,1334702,0.0-17.0-1.16,28894,List1B,black,woman,,,,null,,,,
null,is shouting at,,html-keyboard-response,292,1336726,0.0-17.0-2.16,28894,List1B,black,woman,,,,null,,,,
6698,,,survey-text,293,1343434,0.0-17.0-3.16,28894,List1B,black,woman,,,,,"{""Q0"":""Ruth is shouting at Luke ""}","<img src=""stim_listB/shout3.gif""style=""height:400px;""></stim_listB>",is shouting at,
null,"<div style=""font-size:60px;"">+</div>",,html-keyboard-response,294,1343944,0.0-17.0-0.17,28894,List1B,black,woman,,,,null,,,,
null,"<img src=""stim_listB/marry4.gif""style=""height:400px;""></stim_listB>",,html-keyboard-response,295,1345974,0.0-17.0-1.17,28894,List1B,black,woman,,,,null,,,,
null,are marrying each other,,html-keyboard-response,296,1347982,0.0-17.0-2.17,28894,List1B,black,woman,,,,null,,,,
9633,,,survey-text,297,1357625,0.0-17.0-3.17,28894,List1B,black,woman,,,,,"{""Q0"":""Jane and Luke are marying each other ""}","<img src=""stim_listB/marry4.gif""style=""height:400px;""></stim_listB>",are marrying each other,
null,"<div style=""font-size:60px;"">+</div>",,html-keyboard-response,298,1358169,0.0-17.0-0.18,28894,List1B,black,woman,,,,null,,,,
null,"<img src=""stim_listB/talk8.gif""style=""height:400px;""></stim_listB>",,html-keyboard-response,299,1360217,0.0-17.0-1.18,28894,List1B,black,woman,,,,null,,,,
null,are talking to each other,,html-keyboard-response,300,1362217,0.0-17.0-2.18,28894,List1B,black,woman,,,,null,,,,
11087,,,survey-text,301,1373311,0.0-17.0-3.18,28894,List1B,black,woman,,,,,"{""Q0"":""Kate and Ruth are talking to each other ""}","<img src=""stim_listB/talk8.gif""style=""height:400px;""></stim_listB>",are talking to each other,
null,"<div style=""font-size:60px;"">+</div>",,html-keyboard-response,302,1373838,0.0-17.0-0.19,28894,List1B,black,woman,,,,null,,,,
null,"<img src=""stim_listB/fight3.gif""style=""height:400px;""></stim_listB>",,html-keyboard-response,303,1375856,0.0-17.0-1.19,28894,List1B,black,woman,,,,null,,,,
null,is fighting,,html-keyboard-response,304,1377858,0.0-17.0-2.19,28894,List1B,black,woman,,,,null,,,,
12836,,,survey-text,305,1390704,0.0-17.0-3.19,28894,List1B,black,woman,,,,,"{""Q0"":""Jane is fighting Dave ""}","<img src=""stim_listB/fight3.gif""style=""height:400px;""></stim_listB>",is fighting,
31507,"<img src='img/portrait_matrix_list1.jpg' style='width:900px;height:500px;''></img><p>If you have memorised all the portraits and names and are ready to start, press Continue.</p><p><strong>Please note: Your memory of these faces will be tested 4 times during this experiment.</strong></p>",0,html-button-response,306,1422225,0.0-18.0-0.0,28894,List1B,black,woman,,,,,,,,
2975,"<img src=""portrait/WW1.jpg""style=""height:400px;""></img>",1,html-button-response,307,1426256,0.0-18.0-1.0,28894,List1B,black,woman,,TRUE,1,,,,,
null,CORRECT,,html-keyboard-response,308,1427818,0.0-18.0-2.0-0.0,28894,List1B,black,woman,,,,null,,,,
2816,"<img src=""portrait/WM1.jpg""style=""height:400px;""></img>",6,html-button-response,309,1430645,0.0-18.0-4.0,28894,List1B,black,woman,,TRUE,6,,,,,
null,CORRECT,,html-keyboard-response,310,1432219,0.0-18.0-5.0-0.0,28894,List1B,black,woman,,,,null,,,,
1982,"<img src=""portrait/WW2.jpg""style=""height:400px;""></img>",3,html-button-response,311,1434235,0.0-18.0-7.0,28894,List1B,black,woman,,TRUE,3,,,,,
null,CORRECT,,html-keyboard-response,312,1435798,0.0-18.0-8.0-0.0,28894,List1B,black,woman,,,,null,,,,
1530,"<img src=""portrait/BW2.jpg""style=""height:400px;""></img>",2,html-button-response,313,1437359,0.0-18.0-10.0,28894,List1B,black,woman,,TRUE,2,,,,,
null,CORRECT,,html-keyboard-response,314,1438884,0.0-18.0-11.0-0.0,28894,List1B,black,woman,,,,null,,,,
4126,"<img src=""portrait/BM1.jpg""style=""height:400px;""></img>",4,html-button-response,315,1443020,0.0-18.0-13.0,28894,List1B,black,woman,,TRUE,4,,,,,
null,CORRECT,,html-keyboard-response,316,1444574,0.0-18.0-14.0-0.0,28894,List1B,black,woman,,,,null,,,,
2981,"<img src=""portrait/BW1.jpg""style=""height:400px;""></img>",0,html-button-response,317,1447574,0.0-18.0-16.0,28894,List1B,black,woman,,TRUE,0,,,,,
null,CORRECT,,html-keyboard-response,318,1449130,0.0-18.0-17.0-0.0,28894,List1B,black,woman,,,,null,,,,
3187,"<img src=""portrait/BM2.jpg""style=""height:400px;""></img>",5,html-button-response,319,1452335,0.0-18.0-19.0,28894,List1B,black,woman,,TRUE,5,,,,,
null,CORRECT,,html-keyboard-response,320,1453858,0.0-18.0-20.0-0.0,28894,List1B,black,woman,,,,null,,,,
1840,"<img src=""portrait/WM2.jpg""style=""height:400px;""></img>",7,html-button-response,321,1455723,0.0-18.0-22.0,28894,List1B,black,woman,,TRUE,7,,,,,
null,CORRECT,,html-keyboard-response,322,1457262,0.0-18.0-23.0-0.0,28894,List1B,black,woman,,,,null,,,,
2132,<p>You got 8 out of 8 right first time. Press Continue.</p>,0,html-button-response,323,1459404,0.0-18.0-25.0,28894,List1B,black,woman,,,,,,,,
null,"<div style=""font-size:60px;"">+</div>",,html-keyboard-response,324,1460934,0.0-19.0-0.0,28894,List1B,black,woman,,,,null,,,,
null,"<img src=""stim_listB/fight6.gif""style=""height:400px;""></stim_listB>",,html-keyboard-response,325,1462948,0.0-19.0-1.0,28894,List1B,black,woman,,,,null,,,,
null,are fighting each other,,html-keyboard-response,326,1464982,0.0-19.0-2.0,28894,List1B,black,woman,,,,null,,,,
13985,,,survey-text,327,1478974,0.0-19.0-3.0,28894,List1B,black,woman,,,,,"{""Q0"":""Fred and Luke are fighting each other ""}","<img src=""stim_listB/fight6.gif""style=""height:400px;""></stim_listB>",are fighting each other,
null,"<div style=""font-size:60px;"">+</div>",,html-keyboard-response,328,1479499,0.0-19.0-0.1,28894,List1B,black,woman,,,,null,,,,
null,"<img src=""stim_listB/shout5.gif""style=""height:400px;""></stim_listB>",,html-keyboard-response,329,1481519,0.0-19.0-1.1,28894,List1B,black,woman,,,,null,,,,
null,is shouting at,,html-keyboard-response,330,1483538,0.0-19.0-2.1,28894,List1B,black,woman,,,,null,,,,
24506,,,survey-text,331,1508061,0.0-19.0-3.1,28894,List1B,black,woman,,,,,"{""Q0"":""Fred and Luke are argiung with each other ""}","<img src=""stim_listB/shout5.gif""style=""height:400px;""></stim_listB>",is shouting at,
null,"<div style=""font-size:60px;"">+</div>",,html-keyboard-response,332,1508592,0.0-19.0-0.2,28894,List1B,black,woman,,,,null,,,,
null,"<img src=""stim_listB/shout1.gif""style=""height:400px;""></stim_listB>",,html-keyboard-response,333,1510619,0.0-19.0-1.2,28894,List1B,black,woman,,,,null,,,,
null,is shouting at,,html-keyboard-response,334,1512613,0.0-19.0-2.2,28894,List1B,black,woman,,,,null,,,,
8326,,,survey-text,335,1520946,0.0-19.0-3.2,28894,List1B,black,woman,,,,,"{""Q0"":""Beth is shouting  at Fred ""}","<img src=""stim_listB/shout1.gif""style=""height:400px;""></stim_listB>",is shouting at,
null,"<div style=""font-size:60px;"">+</div>",,html-keyboard-response,336,1521473,0.0-19.0-0.3,28894,List1B,black,woman,,,,null,,,,
null,"<img src=""stim_listB/play2.gif""style=""height:400px;""></stim_listB>",,html-keyboard-response,337,1523503,0.0-19.0-1.3,28894,List1B,black,woman,,,,null,,,,
null,are playing with each other,,html-keyboard-response,338,1525495,0.0-19.0-2.3,28894,List1B,black,woman,,,,null,,,,
18140,,,survey-text,339,1543643,0.0-19.0-3.3,28894,List1B,black,woman,,,,,"{""Q0"":""Fred and Beth are playing with each other ""}","<img src=""stim_listB/play2.gif""style=""height:400px;""></stim_listB>",are playing with each other,
null,"<div style=""font-size:60px;"">+</div>",,html-keyboard-response,340,1544161,0.0-19.0-0.4,28894,List1B,black,woman,,,,null,,,,
null,"<img src=""stim_listB/argue8.gif""style=""height:400px;""></stim_listB>",,html-keyboard-response,341,1546182,0.0-19.0-1.4,28894,List1B,black,woman,,,,null,,,,
null,are arguing with each other,,html-keyboard-response,342,1548173,0.0-19.0-2.4,28894,List1B,black,woman,,,,null,,,,
18100,,,survey-text,343,1566280,0.0-19.0-3.4,28894,List1B,black,woman,,,,,"{""Q0"":""Beth and Jane are arguing with each other ""}","<img src=""stim_listB/argue8.gif""style=""height:400px;""></stim_listB>",are arguing with each other,
null,"<div style=""font-size:60px;"">+</div>",,html-keyboard-response,344,1566817,0.0-19.0-0.5,28894,List1B,black,woman,,,,null,,,,
null,"<img src=""stim_listB/play4.gif""style=""height:400px;""></stim_listB>",,html-keyboard-response,345,1568844,0.0-19.0-1.5,28894,List1B,black,woman,,,,null,,,,
null,are playing with each other,,html-keyboard-response,346,1570832,0.0-19.0-2.5,28894,List1B,black,woman,,,,null,,,,
13253,,,survey-text,347,1584090,0.0-19.0-3.5,28894,List1B,black,woman,,,,,"{""Q0"":""Luke and Ruth are playing with each other ""}","<img src=""stim_listB/play4.gif""style=""height:400px;""></stim_listB>",are playing with each other,
null,"<div style=""font-size:60px;"">+</div>",,html-keyboard-response,348,1584602,0.0-19.0-0.6,28894,List1B,black,woman,,,,null,,,,
null,"<img src=""stim_listB/dance8.gif""style=""height:400px;""></stim_listB>",,html-keyboard-response,349,1586619,0.0-19.0-1.6,28894,List1B,black,woman,,,,null,,,,
null,are dancing with each other,,html-keyboard-response,350,1588659,0.0-19.0-2.6,28894,List1B,black,woman,,,,null,,,,
17581,,,survey-text,351,1606248,0.0-19.0-3.6,28894,List1B,black,woman,,,,,"{""Q0"":""Kate and Ruth are dancing with each other""}","<img src=""stim_listB/dance8.gif""style=""height:400px;""></stim_listB>",are dancing with each other,
null,"<div style=""font-size:60px;"">+</div>",,html-keyboard-response,352,1606771,0.0-19.0-0.7,28894,List1B,black,woman,,,,null,,,,
null,"<img src=""stim_listB/argue4.gif""style=""height:400px;""></stim_listB>",,html-keyboard-response,353,1608783,0.0-19.0-1.7,28894,List1B,black,woman,,,,null,,,,
null,are arguing with each other,,html-keyboard-response,354,1610809,0.0-19.0-2.7,28894,List1B,black,woman,,,,null,,,,
16861,,,survey-text,355,1627676,0.0-19.0-3.7,28894,List1B,black,woman,,,,,"{""Q0"":""Luke and Jane are arguing with each other ""}","<img src=""stim_listB/argue4.gif""style=""height:400px;""></stim_listB>",are arguing with each other,
null,"<div style=""font-size:60px;"">+</div>",,html-keyboard-response,356,1628199,0.0-19.0-0.8,28894,List1B,black,woman,,,,null,,,,
null,"<img src=""stim_listB/kiss1.gif""style=""height:400px;""></stim_listB>",,html-keyboard-response,357,1630219,0.0-19.0-1.8,28894,List1B,black,woman,,,,null,,,,
null,is kissing,,html-keyboard-response,358,1632223,0.0-19.0-2.8,28894,List1B,black,woman,,,,null,,,,
7749,,,survey-text,359,1639978,0.0-19.0-3.8,28894,List1B,black,woman,,,,,"{""Q0"":""Beth is kissing Fred ""}","<img src=""stim_listB/kiss1.gif""style=""height:400px;""></stim_listB>",is kissing,
null,"<div style=""font-size:60px;"">+</div>",,html-keyboard-response,360,1640491,0.0-19.0-0.9,28894,List1B,black,woman,,,,null,,,,
null,"<img src=""stim_listB/flirt6.gif""style=""height:400px;""></stim_listB>",,html-keyboard-response,361,1642526,0.0-19.0-1.9,28894,List1B,black,woman,,,,null,,,,
null,are flirting with each other,,html-keyboard-response,362,1644519,0.0-19.0-2.9,28894,List1B,black,woman,,,,null,,,,
11927,,,survey-text,363,1656452,0.0-19.0-3.9,28894,List1B,black,woman,,,,,"{""Q0"":""Mike and Luke are flirting with eachother ""}","<img src=""stim_listB/flirt6.gif""style=""height:400px;""></stim_listB>",are flirting with each other,
null,"<div style=""font-size:60px;"">+</div>",,html-keyboard-response,364,1656974,0.0-19.0-0.10,28894,List1B,black,woman,,,,null,,,,
null,"<img src=""stim_listB/dance1.gif""style=""height:400px;""></stim_listB>",,html-keyboard-response,365,1658994,0.0-19.0-1.10,28894,List1B,black,woman,,,,null,,,,
null,is dancing with,,html-keyboard-response,366,1661004,0.0-19.0-2.10,28894,List1B,black,woman,,,,null,,,,
9049,,,survey-text,367,1670057,0.0-19.0-3.10,28894,List1B,black,woman,,,,,"{""Q0"":""Kate is dancing with Fred ""}","<img src=""stim_listB/dance1.gif""style=""height:400px;""></stim_listB>",is dancing with,
null,"<div style=""font-size:60px;"">+</div>",,html-keyboard-response,368,1670578,0.0-19.0-0.11,28894,List1B,black,woman,,,,null,,,,
null,"<img src=""stim_listB/argue3.gif""style=""height:400px;""></stim_listB>",,html-keyboard-response,369,1672599,0.0-19.0-1.11,28894,List1B,black,woman,,,,null,,,,
null,is arguing with,,html-keyboard-response,370,1674602,0.0-19.0-2.11,28894,List1B,black,woman,,,,null,,,,
14601,,,survey-text,371,1689213,0.0-19.0-3.11,28894,List1B,black,woman,,,,,"{""Q0"":""Ruth is arguing with Dave ""}","<img src=""stim_listB/argue3.gif""style=""height:400px;""></stim_listB>",is arguing with,
null,"<div style=""font-size:60px;"">+</div>",,html-keyboard-response,372,1689729,0.0-19.0-0.12,28894,List1B,black,woman,,,,null,,,,
null,"<img src=""stim_listB/argue6.gif""style=""height:400px;""></stim_listB>",,html-keyboard-response,373,1691761,0.0-19.0-1.12,28894,List1B,black,woman,,,,null,,,,
null,are arguing with each other,,html-keyboard-response,374,1693748,0.0-19.0-2.12,28894,List1B,black,woman,,,,null,,,,
10423,,,survey-text,375,1704180,0.0-19.0-3.12,28894,List1B,black,woman,,,,,"{""Q0"":""Fred and Dave are arguing with each other ""}","<img src=""stim_listB/argue6.gif""style=""height:400px;""></stim_listB>",are arguing with each other,
null,"<div style=""font-size:60px;"">+</div>",,html-keyboard-response,376,1704706,0.0-19.0-0.13,28894,List1B,black,woman,,,,null,,,,
null,"<img src=""stim_listB/marry3.gif""style=""height:400px;""></stim_listB>",,html-keyboard-response,377,1706737,0.0-19.0-1.13,28894,List1B,black,woman,,,,null,,,,
null,is marrying,,html-keyboard-response,378,1708726,0.0-19.0-2.13,28894,List1B,black,woman,,,,null,,,,
9331,,,survey-text,379,1718063,0.0-19.0-3.13,28894,List1B,black,woman,,,,,"{""Q0"":""Ruth is marrying Dave ""}","<img src=""stim_listB/marry3.gif""style=""height:400px;""></stim_listB>",is marrying,
null,"<div style=""font-size:60px;"">+</div>",,html-keyboard-response,380,1718601,0.0-19.0-0.14,28894,List1B,black,woman,,,,null,,,,
null,"<img src=""stim_listB/shout7.gif""style=""height:400px;""></stim_listB>",,html-keyboard-response,381,1720631,0.0-19.0-1.14,28894,List1B,black,woman,,,,null,,,,
null,is shouting at,,html-keyboard-response,382,1722635,0.0-19.0-2.14,28894,List1B,black,woman,,,,null,,,,
12379,,,survey-text,383,1735020,0.0-19.0-3.14,28894,List1B,black,woman,,,,,"{""Q0"":""Ruth is shouting at Beth""}","<img src=""stim_listB/shout7.gif""style=""height:400px;""></stim_listB>",is shouting at,
null,"<div style=""font-size:60px;"">+</div>",,html-keyboard-response,384,1735564,0.0-19.0-0.15,28894,List1B,black,woman,,,,null,,,,
null,"<img src=""stim_listB/touch6.gif""style=""height:400px;""></stim_listB>",,html-keyboard-response,385,1737582,0.0-19.0-1.15,28894,List1B,black,woman,,,,null,,,,
null,are touching each other,,html-keyboard-response,386,1739574,0.0-19.0-2.15,28894,List1B,black,woman,,,,null,,,,
11755,,,survey-text,387,1751341,0.0-19.0-3.15,28894,List1B,black,woman,,,,,"{""Q0"":""Fred and Luke are touching each other ""}","<img src=""stim_listB/touch6.gif""style=""height:400px;""></stim_listB>",are touching each other,
null,"<div style=""font-size:60px;"">+</div>",,html-keyboard-response,388,1751873,0.0-19.0-0.16,28894,List1B,black,woman,,,,null,,,,
null,"<img src=""stim_listB/flirt7.gif""style=""height:400px;""></stim_listB>",,html-keyboard-response,389,1753893,0.0-19.0-1.16,28894,List1B,black,woman,,,,null,,,,
null,is flirting with,,html-keyboard-response,390,1755913,0.0-19.0-2.16,28894,List1B,black,woman,,,,null,,,,
8272,,,survey-text,391,1764193,0.0-19.0-3.16,28894,List1B,black,woman,,,,,"{""Q0"":""Jane is flirting with Beth""}","<img src=""stim_listB/flirt7.gif""style=""height:400px;""></stim_listB>",is flirting with,
null,"<div style=""font-size:60px;"">+</div>",,html-keyboard-response,392,1764710,0.0-19.0-0.17,28894,List1B,black,woman,,,,null,,,,
null,"<img src=""stim_listB/marry2.gif""style=""height:400px;""></stim_listB>",,html-keyboard-response,393,1766731,0.0-19.0-1.17,28894,List1B,black,woman,,,,null,,,,
null,are marrying each other,,html-keyboard-response,394,1768734,0.0-19.0-2.17,28894,List1B,black,woman,,,,null,,,,
11414,,,survey-text,395,1780162,0.0-19.0-3.17,28894,List1B,black,woman,,,,,"{""Q0"":""Fred and Kate are marrying each other ""}","<img src=""stim_listB/marry2.gif""style=""height:400px;""></stim_listB>",are marrying each other,
null,"<div style=""font-size:60px;"">+</div>",,html-keyboard-response,396,1780674,0.0-19.0-0.18,28894,List1B,black,woman,,,,null,,,,
null,"<img src=""stim_listB/talk3.gif""style=""height:400px;""></stim_listB>",,html-keyboard-response,397,1782710,0.0-19.0-1.18,28894,List1B,black,woman,,,,null,,,,
null,is talking to,,html-keyboard-response,398,1784685,0.0-19.0-2.18,28894,List1B,black,woman,,,,null,,,,
8115,,,survey-text,399,1792812,0.0-19.0-3.18,28894,List1B,black,woman,,,,,"{""Q0"":""Jane is talking to Luke ""}","<img src=""stim_listB/talk3.gif""style=""height:400px;""></stim_listB>",is talking to,
null,"<div style=""font-size:60px;"">+</div>",,html-keyboard-response,400,1793322,0.0-19.0-0.19,28894,List1B,black,woman,,,,null,,,,
null,"<img src=""stim_listB/kiss7.gif""style=""height:400px;""></stim_listB>",,html-keyboard-response,401,1795359,0.0-19.0-1.19,28894,List1B,black,woman,,,,null,,,,
null,is kissing,,html-keyboard-response,402,1797357,0.0-19.0-2.19,28894,List1B,black,woman,,,,null,,,,
6821,,,survey-text,403,1804199,0.0-19.0-3.19,28894,List1B,black,woman,,,,,"{""Q0"":""Ruth is kissing Beth""}","<img src=""stim_listB/kiss7.gif""style=""height:400px;""></stim_listB>",is kissing,
2315,<p>Thank you for completing that task.</p><p>The final part of this session is a short questionnaire.</p><p>Press Continue.</p>,0,html-button-response,404,1806523,0.0-20.0,28894,List1B,black,woman,,,,,,,,
39555,,,survey-text,405,1847107,0.0-21.0,28894,List1B,black,woman,,,,,"{""Q0"":""20"",""Q1"":""English"",""Q2"":""English"",""Q3"":""United Kingdom"",""Q4"":""Black British"",""Q5"":""Female ""}",,,demographics
22420,,,survey-likert,406,1869556,0.0-22.0,28894,List1B,black,woman,,,,,"{""Q0"":4}",,,likert_ESS
12566,,,survey-likert,407,1882132,0.0-23.0,28894,List1B,black,woman,,,,,"{""Q0"":4}",,,likert_NSSAL_Q1
1391,,,survey-likert,408,1883534,0.0-24.0,28894,List1B,black,woman,,,,,"{""Q0"":""""}",,,likert_NSSAL_Q2
5861,,,survey-likert,409,1889404,0.0-25.0,28894,List1B,black,woman,,,,,"{""Q0"":4}",,,likert_CGRS_Q1
6190,,,survey-likert,410,1895611,0.0-26.0,28894,List1B,black,woman,,,,,"{""Q0"":4}",,,likert_CGRS_Q2
3586,,,survey-likert,411,1899211,0.0-27.0,28894,List1B,black,woman,,,,,"{""Q0"":4}",,,likert_CGRS_Q3
3776,,,survey-text,412,1903008,0.0-28.0,28894,List1B,black,woman,,,,,"{""Q0"":""ccc""}",,,worker_id
19180,,,external-html,413,1922308,0.0-29.0,28894,List1B,black,woman,debrief.html,,,,,,,
