rt,stimulus,button_pressed,trial_type,trial_index,time_elapsed,internal_node_id,subject,list,ppt_race,ppt_gender,url,first_guess,correct,key_press,responses,image_type,phrase_type,test_part
9795,Welcome to the experiment. Press Continue to begin.,0,html-button-response,0,9801,0.0-0.0,28980,List2B,white,woman,,,,,,,,
111791,,,external-html,1,122613,0.0-1.0,28980,List2B,white,woman,consent.html,,,,,,,
5122,"<p>On the next page, you will see portraits of 8 people and their names.</p><p>Your first task is to take a few minutes to memorise the names of these people.</p><p>You will have to recall their names during the rest of the experiment, so it is</p><p>essential that you try to memorise these people and their names as best as you can.</p><br><p><strong>You will then be tested on your memory of these names and portraits.</strong></p><br><p>The experiment will start after you have completed this memory test.</p><br><p>Ready?</p>",0,html-button-response,2,127741,0.0-2.0,28980,List2B,white,woman,,,,,,,,
131302,"<img src='img/portrait_matrix_list2.jpg' style='width:900px;height:500px;''></img><p>If you have memorised all the portraits and names and are ready to start, press Continue.</p><p><strong>Please note: Your memory of these faces will be tested 4 times during this experiment.</strong></p>",0,html-button-response,3,260048,0.0-3.0-0.0,28980,List2B,white,woman,,,,,,,,
3155,"<img src=""portrait/BM1.jpg""style=""height:400px;""></img>",4,html-button-response,4,264208,0.0-3.0-1.0,28980,List2B,white,woman,,TRUE,4,,,,,
null,CORRECT,,html-keyboard-response,5,265719,0.0-3.0-2.0-0.0,28980,List2B,white,woman,,,,null,,,,
6543,"<img src=""portrait/WW1.jpg""style=""height:400px;""></img>",1,html-button-response,6,272268,0.0-3.0-4.0,28980,List2B,white,woman,,TRUE,1,,,,,
null,CORRECT,,html-keyboard-response,7,273771,0.0-3.0-5.0-0.0,28980,List2B,white,woman,,,,null,,,,
5419,"<img src=""portrait/WM1.jpg""style=""height:400px;""></img>",7,html-button-response,8,279198,0.0-3.0-7.0,28980,List2B,white,woman,,TRUE,6,,,,,
8192,"<img src=""portrait/WM1.jpg""style=""height:400px;""></img>",6,html-button-response,9,288396,0.0-3.0-9.0-0.0,28980,List2B,white,woman,,FALSE,6,,,,,
null,CORRECT,,html-keyboard-response,10,289901,0.0-3.0-9.0-1.0-0.0,28980,List2B,white,woman,,,,null,,,,
13610,"<img src=""portrait/BW2.jpg""style=""height:400px;""></img>",0,html-button-response,11,303518,0.0-3.0-10.0,28980,List2B,white,woman,,TRUE,2,,,,,
3965,"<img src=""portrait/BW2.jpg""style=""height:400px;""></img>",2,html-button-response,12,308488,0.0-3.0-12.0-0.0,28980,List2B,white,woman,,FALSE,2,,,,,
null,CORRECT,,html-keyboard-response,13,309992,0.0-3.0-12.0-1.0-0.0,28980,List2B,white,woman,,,,null,,,,
4534,"<img src=""portrait/WM2.jpg""style=""height:400px;""></img>",7,html-button-response,14,314535,0.0-3.0-13.0,28980,List2B,white,woman,,TRUE,7,,,,,
null,CORRECT,,html-keyboard-response,15,316039,0.0-3.0-14.0-0.0,28980,List2B,white,woman,,,,null,,,,
2508,"<img src=""portrait/BM2.jpg""style=""height:400px;""></img>",5,html-button-response,16,318556,0.0-3.0-16.0,28980,List2B,white,woman,,TRUE,5,,,,,
null,CORRECT,,html-keyboard-response,17,320059,0.0-3.0-17.0-0.0,28980,List2B,white,woman,,,,null,,,,
2404,"<img src=""portrait/WW2.jpg""style=""height:400px;""></img>",3,html-button-response,18,322469,0.0-3.0-19.0,28980,List2B,white,woman,,TRUE,3,,,,,
null,CORRECT,,html-keyboard-response,19,323973,0.0-3.0-20.0-0.0,28980,List2B,white,woman,,,,null,,,,
3122,"<img src=""portrait/BW1.jpg""style=""height:400px;""></img>",0,html-button-response,20,327101,0.0-3.0-22.0,28980,List2B,white,woman,,TRUE,0,,,,,
null,CORRECT,,html-keyboard-response,21,328604,0.0-3.0-23.0-0.0,28980,List2B,white,woman,,,,null,,,,
2282,<p>You got 6 out of 8 right first time. Press Continue.</p>,0,html-button-response,22,330890,0.0-3.0-25.0,28980,List2B,white,woman,,,,,,,,
2825,"As you did not score 100%, the memory game will repeat. Press Continue.",0,html-button-response,23,334719,0.0-3.0-26.0-0.0,28980,List2B,white,woman,,,,,,,,
12040,"<img src='img/portrait_matrix_list2.jpg' style='width:900px;height:500px;''></img><p>If you have memorised all the portraits and names and are ready to start, press Continue.</p><p><strong>Please note: Your memory of these faces will be tested 4 times during this experiment.</strong></p>",0,html-button-response,24,347770,0.0-3.1-0.1,28980,List2B,white,woman,,,,,,,,
2762,"<img src=""portrait/BM1.jpg""style=""height:400px;""></img>",4,html-button-response,25,351537,0.0-3.1-1.1,28980,List2B,white,woman,,TRUE,4,,,,,
null,CORRECT,,html-keyboard-response,26,353042,0.0-3.1-2.1-0.1,28980,List2B,white,woman,,,,null,,,,
3210,"<img src=""portrait/WW1.jpg""style=""height:400px;""></img>",1,html-button-response,27,356257,0.0-3.1-4.1,28980,List2B,white,woman,,TRUE,1,,,,,
null,CORRECT,,html-keyboard-response,28,357762,0.0-3.1-5.1-0.1,28980,List2B,white,woman,,,,null,,,,
6872,"<img src=""portrait/WM1.jpg""style=""height:400px;""></img>",6,html-button-response,29,364639,0.0-3.1-7.1,28980,List2B,white,woman,,TRUE,6,,,,,
null,CORRECT,,html-keyboard-response,30,366144,0.0-3.1-8.1-0.1,28980,List2B,white,woman,,,,null,,,,
6079,"<img src=""portrait/BW2.jpg""style=""height:400px;""></img>",2,html-button-response,31,372229,0.0-3.1-10.1,28980,List2B,white,woman,,TRUE,2,,,,,
null,CORRECT,,html-keyboard-response,32,373733,0.0-3.1-11.1-0.1,28980,List2B,white,woman,,,,null,,,,
2287,"<img src=""portrait/WM2.jpg""style=""height:400px;""></img>",7,html-button-response,33,376026,0.0-3.1-13.1,28980,List2B,white,woman,,TRUE,7,,,,,
null,CORRECT,,html-keyboard-response,34,377531,0.0-3.1-14.1-0.1,28980,List2B,white,woman,,,,null,,,,
1744,"<img src=""portrait/BM2.jpg""style=""height:400px;""></img>",5,html-button-response,35,379281,0.0-3.1-16.1,28980,List2B,white,woman,,TRUE,5,,,,,
null,CORRECT,,html-keyboard-response,36,380784,0.0-3.1-17.1-0.1,28980,List2B,white,woman,,,,null,,,,
2404,"<img src=""portrait/WW2.jpg""style=""height:400px;""></img>",3,html-button-response,37,383191,0.0-3.1-19.1,28980,List2B,white,woman,,TRUE,3,,,,,
null,CORRECT,,html-keyboard-response,38,384696,0.0-3.1-20.1-0.1,28980,List2B,white,woman,,,,null,,,,
2472,"<img src=""portrait/BW1.jpg""style=""height:400px;""></img>",0,html-button-response,39,387173,0.0-3.1-22.1,28980,List2B,white,woman,,TRUE,0,,,,,
null,CORRECT,,html-keyboard-response,40,388678,0.0-3.1-23.1-0.1,28980,List2B,white,woman,,,,null,,,,
1280,<p>You got 8 out of 8 right first time. Press Continue.</p>,0,html-button-response,41,389959,0.0-3.1-25.1,28980,List2B,white,woman,,,,,,,,
7134,"<p>In this experiment, you will view photographs of the people from the memory game interacting.</p><p>By using the <strong>exact</strong> phrase given <i>after</i> the photograph appears and recalling the correct names of the people in the photographs, form a sentence describing the interaction. You do not need to capitalise names.</p><p>Type your answer in the space provided. Please complete every sentence before moving onto the next trial.</p><p>You will only have a few seconds to memorise each given photograph and phrase before you can respond, so try your best to focus.</p><p>An example is given below. Press 'Continue' when you are ready.</p><img src='img/speaking_example.jpg' style='width:800px;height:460px;''></img>",0,html-button-response,42,398100,0.0-4.0,28980,List2B,white,woman,,,,,,,,
1630,"<p>Before the experiment starts, you will watch two example trials. Press 'Continue'.</p>",0,html-button-response,43,400734,0.0-5.0,28980,List2B,white,woman,,,,,,,,
null,<img src='img/meet_eg.gif' style='height:400px;''></img>,,html-keyboard-response,44,403739,0.0-6.0,28980,List2B,white,woman,,,,null,,,,
null,<p>is meeting</p>,,html-keyboard-response,45,405743,0.0-7.0,28980,List2B,white,woman,,,,null,,,,
2368,<p><b>Answer:</b> jane is meeting ruth</p>,0,html-button-response,46,408114,0.0-8.0,28980,List2B,white,woman,,,,,,,,
null,<img src='img/look_eg.gif' style='height:400px;''></img>,,html-keyboard-response,47,411119,0.0-9.0,28980,List2B,white,woman,,,,null,,,,
null,<p>are looking at each other</p>,,html-keyboard-response,48,413123,0.0-10.0,28980,List2B,white,woman,,,,null,,,,
1953,<p><b>Answer:</b> fred and mike are looking at each other</p>,0,html-button-response,49,415080,0.0-11.0,28980,List2B,white,woman,,,,,,,,
4496,"<p>Ready to start the experiment?</p><br><p><strong>Remember to describe the picture using a full sentence,</strong></p><p><strong>that combines the names of the people with the <i>exact</i> phrase given.</strong></p><p><strong>To receive full payment you must do this correctly.</strong></p><p><strong> You do not need to capitalise names or use punctuation.</strong></p><br><p>Press 'Continue' to begin.</p>",0,html-button-response,50,420580,0.0-12.0,28980,List2B,white,woman,,,,,,,,
null,"<div style=""font-size:60px;"">+</div>",,html-keyboard-response,51,422085,0.0-13.0-0.0,28980,List2B,white,woman,,,,null,,,,
null,"<img src=""stim_listB/kiss8.gif""style=""height:400px;""></stim_listB>",,html-keyboard-response,52,424091,0.0-13.0-1.0,28980,List2B,white,woman,,,,null,,,,
null,are kissing each other,,html-keyboard-response,53,426095,0.0-13.0-2.0,28980,List2B,white,woman,,,,null,,,,
18529,,,survey-text,54,444631,0.0-13.0-3.0,28980,List2B,white,woman,,,,,"{""Q0"":""Jane and Kate are kissing each other ""}","<img src=""stim_listB/kiss8.gif""style=""height:400px;""></stim_listB>",are kissing each other,
null,"<div style=""font-size:60px;"">+</div>",,html-keyboard-response,55,445139,0.0-13.0-0.1,28980,List2B,white,woman,,,,null,,,,
null,"<img src=""stim_listB/argue3.gif""style=""height:400px;""></stim_listB>",,html-keyboard-response,56,447149,0.0-13.0-1.1,28980,List2B,white,woman,,,,null,,,,
null,is arguing with,,html-keyboard-response,57,449152,0.0-13.0-2.1,28980,List2B,white,woman,,,,null,,,,
26458,,,survey-text,58,475614,0.0-13.0-3.1,28980,List2B,white,woman,,,,,"{""Q0"":""Mike and Beth are arguing with each other ""}","<img src=""stim_listB/argue3.gif""style=""height:400px;""></stim_listB>",is arguing with,
null,"<div style=""font-size:60px;"">+</div>",,html-keyboard-response,59,476117,0.0-13.0-0.2,28980,List2B,white,woman,,,,null,,,,
null,"<img src=""stim_listB/talk2.gif""style=""height:400px;""></stim_listB>",,html-keyboard-response,60,478121,0.0-13.0-1.2,28980,List2B,white,woman,,,,null,,,,
null,are talking to each other,,html-keyboard-response,61,480132,0.0-13.0-2.2,28980,List2B,white,woman,,,,null,,,,
15612,,,survey-text,62,495746,0.0-13.0-3.2,28980,List2B,white,woman,,,,,"{""Q0"":""Ruth and Dave are talking to each other ""}","<img src=""stim_listB/talk2.gif""style=""height:400px;""></stim_listB>",are talking to each other,
null,"<div style=""font-size:60px;"">+</div>",,html-keyboard-response,63,496251,0.0-13.0-0.3,28980,List2B,white,woman,,,,null,,,,
null,"<img src=""stim_listB/talk5.gif""style=""height:400px;""></stim_listB>",,html-keyboard-response,64,498254,0.0-13.0-1.3,28980,List2B,white,woman,,,,null,,,,
null,is talking to,,html-keyboard-response,65,500258,0.0-13.0-2.3,28980,List2B,white,woman,,,,null,,,,
11404,,,survey-text,66,511665,0.0-13.0-3.3,28980,List2B,white,woman,,,,,"{""Q0"":""Mike is talking to luke""}","<img src=""stim_listB/talk5.gif""style=""height:400px;""></stim_listB>",is talking to,
null,"<div style=""font-size:60px;"">+</div>",,html-keyboard-response,67,512169,0.0-13.0-0.4,28980,List2B,white,woman,,,,null,,,,
null,"<img src=""stim_listB/play8.gif""style=""height:400px;""></stim_listB>",,html-keyboard-response,68,514174,0.0-13.0-1.4,28980,List2B,white,woman,,,,null,,,,
null,are playing with each other,,html-keyboard-response,69,516178,0.0-13.0-2.4,28980,List2B,white,woman,,,,null,,,,
12942,,,survey-text,70,529124,0.0-13.0-3.4,28980,List2B,white,woman,,,,,"{""Q0"":""Ruth and Beth are playing with each other ""}","<img src=""stim_listB/play8.gif""style=""height:400px;""></stim_listB>",are playing with each other,
null,"<div style=""font-size:60px;"">+</div>",,html-keyboard-response,71,529627,0.0-13.0-0.5,28980,List2B,white,woman,,,,null,,,,
null,"<img src=""stim_listB/marry3.gif""style=""height:400px;""></stim_listB>",,html-keyboard-response,72,531633,0.0-13.0-1.5,28980,List2B,white,woman,,,,null,,,,
null,is marrying,,html-keyboard-response,73,533637,0.0-13.0-2.5,28980,List2B,white,woman,,,,null,,,,
9740,,,survey-text,74,543381,0.0-13.0-3.5,28980,List2B,white,woman,,,,,"{""Q0"":""Beth is marrying mike ""}","<img src=""stim_listB/marry3.gif""style=""height:400px;""></stim_listB>",is marrying,
null,"<div style=""font-size:60px;"">+</div>",,html-keyboard-response,75,543884,0.0-13.0-0.6,28980,List2B,white,woman,,,,null,,,,
null,"<img src=""stim_listB/shout2.gif""style=""height:400px;""></stim_listB>",,html-keyboard-response,76,545889,0.0-13.0-1.6,28980,List2B,white,woman,,,,null,,,,
null,are shouting at each other,,html-keyboard-response,77,547894,0.0-13.0-2.6,28980,List2B,white,woman,,,,null,,,,
27632,,,survey-text,78,575530,0.0-13.0-3.6,28980,List2B,white,woman,,,,,"{""Q0"":""Dave and Ruth are arguing with each other ""}","<img src=""stim_listB/shout2.gif""style=""height:400px;""></stim_listB>",are shouting at each other,
null,"<div style=""font-size:60px;"">+</div>",,html-keyboard-response,79,576033,0.0-13.0-0.7,28980,List2B,white,woman,,,,null,,,,
null,"<img src=""stim_listB/kiss3.gif""style=""height:400px;""></stim_listB>",,html-keyboard-response,80,578037,0.0-13.0-1.7,28980,List2B,white,woman,,,,null,,,,
null,is kissing,,html-keyboard-response,81,580042,0.0-13.0-2.7,28980,List2B,white,woman,,,,null,,,,
10765,,,survey-text,82,590810,0.0-13.0-3.7,28980,List2B,white,woman,,,,,"{""Q0"":""Beth is kissing Fred ""}","<img src=""stim_listB/kiss3.gif""style=""height:400px;""></stim_listB>",is kissing,
null,"<div style=""font-size:60px;"">+</div>",,html-keyboard-response,83,591314,0.0-13.0-0.8,28980,List2B,white,woman,,,,null,,,,
null,"<img src=""stim_listB/touch5.gif""style=""height:400px;""></stim_listB>",,html-keyboard-response,84,593319,0.0-13.0-1.8,28980,List2B,white,woman,,,,null,,,,
null,is touching,,html-keyboard-response,85,595323,0.0-13.0-2.8,28980,List2B,white,woman,,,,null,,,,
10364,,,survey-text,86,605691,0.0-13.0-3.8,28980,List2B,white,woman,,,,,"{""Q0"":""Mike is touching Dave ""}","<img src=""stim_listB/touch5.gif""style=""height:400px;""></stim_listB>",is touching,
null,"<div style=""font-size:60px;"">+</div>",,html-keyboard-response,87,606194,0.0-13.0-0.9,28980,List2B,white,woman,,,,null,,,,
null,"<img src=""stim_listB/talk7.gif""style=""height:400px;""></stim_listB>",,html-keyboard-response,88,608199,0.0-13.0-1.9,28980,List2B,white,woman,,,,null,,,,
null,is talking to,,html-keyboard-response,89,610204,0.0-13.0-2.9,28980,List2B,white,woman,,,,null,,,,
10137,,,survey-text,90,620343,0.0-13.0-3.9,28980,List2B,white,woman,,,,,"{""Q0"":""Ruth is talking to Kate ""}","<img src=""stim_listB/talk7.gif""style=""height:400px;""></stim_listB>",is talking to,
null,"<div style=""font-size:60px;"">+</div>",,html-keyboard-response,91,620845,0.0-13.0-0.10,28980,List2B,white,woman,,,,null,,,,
null,"<img src=""stim_listB/argue5.gif""style=""height:400px;""></stim_listB>",,html-keyboard-response,92,622850,0.0-13.0-1.10,28980,List2B,white,woman,,,,null,,,,
null,is arguing with,,html-keyboard-response,93,624853,0.0-13.0-2.10,28980,List2B,white,woman,,,,null,,,,
8383,,,survey-text,94,633238,0.0-13.0-3.10,28980,List2B,white,woman,,,,,"{""Q0"":""Fred is arguing with Dave ""}","<img src=""stim_listB/argue5.gif""style=""height:400px;""></stim_listB>",is arguing with,
null,"<div style=""font-size:60px;"">+</div>",,html-keyboard-response,95,633742,0.0-13.0-0.11,28980,List2B,white,woman,,,,null,,,,
null,"<img src=""stim_listB/touch6.gif""style=""height:400px;""></stim_listB>",,html-keyboard-response,96,635746,0.0-13.0-1.11,28980,List2B,white,woman,,,,null,,,,
null,are touching each other,,html-keyboard-response,97,637752,0.0-13.0-2.11,28980,List2B,white,woman,,,,null,,,,
13068,,,survey-text,98,650823,0.0-13.0-3.11,28980,List2B,white,woman,,,,,"{""Q0"":""Luke and Dave are touching each other ""}","<img src=""stim_listB/touch6.gif""style=""height:400px;""></stim_listB>",are touching each other,
null,"<div style=""font-size:60px;"">+</div>",,html-keyboard-response,99,651327,0.0-13.0-0.12,28980,List2B,white,woman,,,,null,,,,
null,"<img src=""stim_listB/argue2.gif""style=""height:400px;""></stim_listB>",,html-keyboard-response,100,653336,0.0-13.0-1.12,28980,List2B,white,woman,,,,null,,,,
null,are arguing with each other,,html-keyboard-response,101,655345,0.0-13.0-2.12,28980,List2B,white,woman,,,,null,,,,
28441,,,survey-text,102,683794,0.0-13.0-3.12,28980,List2B,white,woman,,,,,"{""Q0"":""Jane and luke are arguing with each other ""}","<img src=""stim_listB/argue2.gif""style=""height:400px;""></stim_listB>",are arguing with each other,
null,"<div style=""font-size:60px;"">+</div>",,html-keyboard-response,103,684299,0.0-13.0-0.13,28980,List2B,white,woman,,,,null,,,,
null,"<img src=""stim_listB/shout5.gif""style=""height:400px;""></stim_listB>",,html-keyboard-response,104,686311,0.0-13.0-1.13,28980,List2B,white,woman,,,,null,,,,
null,is shouting at,,html-keyboard-response,105,688316,0.0-13.0-2.13,28980,List2B,white,woman,,,,null,,,,
13459,,,survey-text,106,701780,0.0-13.0-3.13,28980,List2B,white,woman,,,,,"{""Q0"":""Fred is shouting at luke ""}","<img src=""stim_listB/shout5.gif""style=""height:400px;""></stim_listB>",is shouting at,
null,"<div style=""font-size:60px;"">+</div>",,html-keyboard-response,107,702283,0.0-13.0-0.14,28980,List2B,white,woman,,,,null,,,,
null,"<img src=""stim_listB/shout3.gif""style=""height:400px;""></stim_listB>",,html-keyboard-response,108,704289,0.0-13.0-1.14,28980,List2B,white,woman,,,,null,,,,
null,is shouting at,,html-keyboard-response,109,706293,0.0-13.0-2.14,28980,List2B,white,woman,,,,null,,,,
8914,,,survey-text,110,715212,0.0-13.0-3.14,28980,List2B,white,woman,,,,,"{""Q0"":""Beth is shouting at Fred ""}","<img src=""stim_listB/shout3.gif""style=""height:400px;""></stim_listB>",is shouting at,
null,"<div style=""font-size:60px;"">+</div>",,html-keyboard-response,111,715715,0.0-13.0-0.15,28980,List2B,white,woman,,,,null,,,,
null,"<img src=""stim_listB/kiss6.gif""style=""height:400px;""></stim_listB>",,html-keyboard-response,112,717719,0.0-13.0-1.15,28980,List2B,white,woman,,,,null,,,,
null,are kissing each other,,html-keyboard-response,113,719723,0.0-13.0-2.15,28980,List2B,white,woman,,,,null,,,,
17711,,,survey-text,114,737440,0.0-13.0-3.15,28980,List2B,white,woman,,,,,"{""Q0"":""Mike and Dave are kissing ""}","<img src=""stim_listB/kiss6.gif""style=""height:400px;""></stim_listB>",are kissing each other,
null,"<div style=""font-size:60px;"">+</div>",,html-keyboard-response,115,737944,0.0-13.0-0.16,28980,List2B,white,woman,,,,null,,,,
null,"<img src=""stim_listB/kiss1.gif""style=""height:400px;""></stim_listB>",,html-keyboard-response,116,739947,0.0-13.0-1.16,28980,List2B,white,woman,,,,null,,,,
null,is kissing,,html-keyboard-response,117,741950,0.0-13.0-2.16,28980,List2B,white,woman,,,,null,,,,
9033,,,survey-text,118,750985,0.0-13.0-3.16,28980,List2B,white,woman,,,,,"{""Q0"":""Luke is kissing Ruth ""}","<img src=""stim_listB/kiss1.gif""style=""height:400px;""></stim_listB>",is kissing,
null,"<div style=""font-size:60px;"">+</div>",,html-keyboard-response,119,751494,0.0-13.0-0.17,28980,List2B,white,woman,,,,null,,,,
null,"<img src=""stim_listB/fight3.gif""style=""height:400px;""></stim_listB>",,html-keyboard-response,120,753497,0.0-13.0-1.17,28980,List2B,white,woman,,,,null,,,,
null,is fighting,,html-keyboard-response,121,755500,0.0-13.0-2.17,28980,List2B,white,woman,,,,null,,,,
8209,,,survey-text,122,763711,0.0-13.0-3.17,28980,List2B,white,woman,,,,,"{""Q0"":""Mike is fighting Kate ""}","<img src=""stim_listB/fight3.gif""style=""height:400px;""></stim_listB>",is fighting,
null,"<div style=""font-size:60px;"">+</div>",,html-keyboard-response,123,764214,0.0-13.0-0.18,28980,List2B,white,woman,,,,null,,,,
null,"<img src=""stim_listB/dance1.gif""style=""height:400px;""></stim_listB>",,html-keyboard-response,124,766219,0.0-13.0-1.18,28980,List2B,white,woman,,,,null,,,,
null,is dancing with,,html-keyboard-response,125,768223,0.0-13.0-2.18,28980,List2B,white,woman,,,,null,,,,
10481,,,survey-text,126,778707,0.0-13.0-3.18,28980,List2B,white,woman,,,,,"{""Q0"":""Jane is dancing with Luke ""}","<img src=""stim_listB/dance1.gif""style=""height:400px;""></stim_listB>",is dancing with,
null,"<div style=""font-size:60px;"">+</div>",,html-keyboard-response,127,779211,0.0-13.0-0.19,28980,List2B,white,woman,,,,null,,,,
null,"<img src=""stim_listB/marry2.gif""style=""height:400px;""></stim_listB>",,html-keyboard-response,128,781216,0.0-13.0-1.19,28980,List2B,white,woman,,,,null,,,,
null,are marrying each other,,html-keyboard-response,129,783220,0.0-13.0-2.19,28980,List2B,white,woman,,,,null,,,,
14406,,,survey-text,130,797630,0.0-13.0-3.19,28980,List2B,white,woman,,,,,"{""Q0"":""Jane and luke are marrying each other ""}","<img src=""stim_listB/marry2.gif""style=""height:400px;""></stim_listB>",are marrying each other,
7800,"<img src='img/portrait_matrix_list2.jpg' style='width:900px;height:500px;''></img><p>If you have memorised all the portraits and names and are ready to start, press Continue.</p><p><strong>Please note: Your memory of these faces will be tested 4 times during this experiment.</strong></p>",0,html-button-response,131,805434,0.0-14.0-0.0,28980,List2B,white,woman,,,,,,,,
3807,"<img src=""portrait/BW2.jpg""style=""height:400px;""></img>",2,html-button-response,132,810247,0.0-14.0-1.0,28980,List2B,white,woman,,TRUE,2,,,,,
null,CORRECT,,html-keyboard-response,133,811751,0.0-14.0-2.0-0.0,28980,List2B,white,woman,,,,null,,,,
3526,"<img src=""portrait/BM1.jpg""style=""height:400px;""></img>",4,html-button-response,134,815286,0.0-14.0-4.0,28980,List2B,white,woman,,TRUE,4,,,,,
null,CORRECT,,html-keyboard-response,135,816790,0.0-14.0-5.0-0.0,28980,List2B,white,woman,,,,null,,,,
2402,"<img src=""portrait/BW1.jpg""style=""height:400px;""></img>",0,html-button-response,136,819197,0.0-14.0-7.0,28980,List2B,white,woman,,TRUE,0,,,,,
null,CORRECT,,html-keyboard-response,137,820702,0.0-14.0-8.0-0.0,28980,List2B,white,woman,,,,null,,,,
1989,"<img src=""portrait/WM1.jpg""style=""height:400px;""></img>",6,html-button-response,138,822696,0.0-14.0-10.0,28980,List2B,white,woman,,TRUE,6,,,,,
null,CORRECT,,html-keyboard-response,139,824200,0.0-14.0-11.0-0.0,28980,List2B,white,woman,,,,null,,,,
2479,"<img src=""portrait/BM2.jpg""style=""height:400px;""></img>",5,html-button-response,140,826685,0.0-14.0-13.0,28980,List2B,white,woman,,TRUE,5,,,,,
null,CORRECT,,html-keyboard-response,141,828190,0.0-14.0-14.0-0.0,28980,List2B,white,woman,,,,null,,,,
3390,"<img src=""portrait/WW1.jpg""style=""height:400px;""></img>",1,html-button-response,142,831586,0.0-14.0-16.0,28980,List2B,white,woman,,TRUE,1,,,,,
null,CORRECT,,html-keyboard-response,143,833091,0.0-14.0-17.0-0.0,28980,List2B,white,woman,,,,null,,,,
1959,"<img src=""portrait/WW2.jpg""style=""height:400px;""></img>",3,html-button-response,144,835056,0.0-14.0-19.0,28980,List2B,white,woman,,TRUE,3,,,,,
null,CORRECT,,html-keyboard-response,145,836560,0.0-14.0-20.0-0.0,28980,List2B,white,woman,,,,null,,,,
5535,"<img src=""portrait/WM2.jpg""style=""height:400px;""></img>",7,html-button-response,146,842101,0.0-14.0-22.0,28980,List2B,white,woman,,TRUE,7,,,,,
null,CORRECT,,html-keyboard-response,147,843606,0.0-14.0-23.0-0.0,28980,List2B,white,woman,,,,null,,,,
1287,<p>You got 8 out of 8 right first time. Press Continue.</p>,0,html-button-response,148,844897,0.0-14.0-25.0,28980,List2B,white,woman,,,,,,,,
null,"<div style=""font-size:60px;"">+</div>",,html-keyboard-response,149,846404,0.0-15.0-0.0,28980,List2B,white,woman,,,,null,,,,
null,"<img src=""stim_listB/shout7.gif""style=""height:400px;""></stim_listB>",,html-keyboard-response,150,848409,0.0-15.0-1.0,28980,List2B,white,woman,,,,null,,,,
null,is shouting at,,html-keyboard-response,151,850414,0.0-15.0-2.0,28980,List2B,white,woman,,,,null,,,,
10599,,,survey-text,152,861016,0.0-15.0-3.0,28980,List2B,white,woman,,,,,"{""Q0"":""Ruth is shouting at Beth ""}","<img src=""stim_listB/shout7.gif""style=""height:400px;""></stim_listB>",is shouting at,
null,"<div style=""font-size:60px;"">+</div>",,html-keyboard-response,153,861530,0.0-15.0-0.1,28980,List2B,white,woman,,,,null,,,,
null,"<img src=""stim_listB/marry1.gif""style=""height:400px;""></stim_listB>",,html-keyboard-response,154,863555,0.0-15.0-1.1,28980,List2B,white,woman,,,,null,,,,
null,is marrying,,html-keyboard-response,155,865565,0.0-15.0-2.1,28980,List2B,white,woman,,,,null,,,,
7396,,,survey-text,156,872969,0.0-15.0-3.1,28980,List2B,white,woman,,,,,"{""Q0"":""Ruth is marrying Dave ""}","<img src=""stim_listB/marry1.gif""style=""height:400px;""></stim_listB>",is marrying,
null,"<div style=""font-size:60px;"">+</div>",,html-keyboard-response,157,873475,0.0-15.0-0.2,28980,List2B,white,woman,,,,null,,,,
null,"<img src=""stim_listB/touch8.gif""style=""height:400px;""></stim_listB>",,html-keyboard-response,158,875478,0.0-15.0-1.2,28980,List2B,white,woman,,,,null,,,,
null,are touching each other,,html-keyboard-response,159,877482,0.0-15.0-2.2,28980,List2B,white,woman,,,,null,,,,
11515,,,survey-text,160,889000,0.0-15.0-3.2,28980,List2B,white,woman,,,,,"{""Q0"":""Ruth and Beth are touching each other ""}","<img src=""stim_listB/touch8.gif""style=""height:400px;""></stim_listB>",are touching each other,
null,"<div style=""font-size:60px;"">+</div>",,html-keyboard-response,161,889503,0.0-15.0-0.3,28980,List2B,white,woman,,,,null,,,,
null,"<img src=""stim_listB/talk3.gif""style=""height:400px;""></stim_listB>",,html-keyboard-response,162,891507,0.0-15.0-1.3,28980,List2B,white,woman,,,,null,,,,
null,is talking to,,html-keyboard-response,163,893514,0.0-15.0-2.3,28980,List2B,white,woman,,,,null,,,,
8472,,,survey-text,164,901988,0.0-15.0-3.3,28980,List2B,white,woman,,,,,"{""Q0"":""Fred is talking to Kate ""}","<img src=""stim_listB/talk3.gif""style=""height:400px;""></stim_listB>",is talking to,
null,"<div style=""font-size:60px;"">+</div>",,html-keyboard-response,165,902491,0.0-15.0-0.4,28980,List2B,white,woman,,,,null,,,,
null,"<img src=""stim_listB/marry7.gif""style=""height:400px;""></stim_listB>",,html-keyboard-response,166,904495,0.0-15.0-1.4,28980,List2B,white,woman,,,,null,,,,
null,is marrying,,html-keyboard-response,167,906499,0.0-15.0-2.4,28980,List2B,white,woman,,,,null,,,,
7537,,,survey-text,168,914040,0.0-15.0-3.4,28980,List2B,white,woman,,,,,"{""Q0"":""Beth is marrying Jane ""}","<img src=""stim_listB/marry7.gif""style=""height:400px;""></stim_listB>",is marrying,
null,"<div style=""font-size:60px;"">+</div>",,html-keyboard-response,169,914544,0.0-15.0-0.5,28980,List2B,white,woman,,,,null,,,,
null,"<img src=""stim_listB/flirt8.gif""style=""height:400px;""></stim_listB>",,html-keyboard-response,170,916549,0.0-15.0-1.5,28980,List2B,white,woman,,,,null,,,,
null,are flirting with each other,,html-keyboard-response,171,918552,0.0-15.0-2.5,28980,List2B,white,woman,,,,null,,,,
10945,,,survey-text,172,929501,0.0-15.0-3.5,28980,List2B,white,woman,,,,,"{""Q0"":""Beth and Jane are flirting with each other ""}","<img src=""stim_listB/flirt8.gif""style=""height:400px;""></stim_listB>",are flirting with each other,
null,"<div style=""font-size:60px;"">+</div>",,html-keyboard-response,173,930004,0.0-15.0-0.6,28980,List2B,white,woman,,,,null,,,,
null,"<img src=""stim_listB/play5.gif""style=""height:400px;""></stim_listB>",,html-keyboard-response,174,932008,0.0-15.0-1.6,28980,List2B,white,woman,,,,null,,,,
null,is playing with,,html-keyboard-response,175,934013,0.0-15.0-2.6,28980,List2B,white,woman,,,,null,,,,
7522,,,survey-text,176,941538,0.0-15.0-3.6,28980,List2B,white,woman,,,,,"{""Q0"":""Dave is playing with mike ""}","<img src=""stim_listB/play5.gif""style=""height:400px;""></stim_listB>",is playing with,
null,"<div style=""font-size:60px;"">+</div>",,html-keyboard-response,177,942042,0.0-15.0-0.7,28980,List2B,white,woman,,,,null,,,,
null,"<img src=""stim_listB/talk1.gif""style=""height:400px;""></stim_listB>",,html-keyboard-response,178,944045,0.0-15.0-1.7,28980,List2B,white,woman,,,,null,,,,
null,is talking to,,html-keyboard-response,179,946049,0.0-15.0-2.7,28980,List2B,white,woman,,,,null,,,,
8025,,,survey-text,180,954075,0.0-15.0-3.7,28980,List2B,white,woman,,,,,"{""Q0"":""Luke is talking to Jane ""}","<img src=""stim_listB/talk1.gif""style=""height:400px;""></stim_listB>",is talking to,
null,"<div style=""font-size:60px;"">+</div>",,html-keyboard-response,181,954579,0.0-15.0-0.8,28980,List2B,white,woman,,,,null,,,,
null,"<img src=""stim_listB/fight1.gif""style=""height:400px;""></stim_listB>",,html-keyboard-response,182,956583,0.0-15.0-1.8,28980,List2B,white,woman,,,,null,,,,
null,is fighting,,html-keyboard-response,183,958586,0.0-15.0-2.8,28980,List2B,white,woman,,,,null,,,,
7539,,,survey-text,184,966127,0.0-15.0-3.8,28980,List2B,white,woman,,,,,"{""Q0"":""Jane is fighting Dave ""}","<img src=""stim_listB/fight1.gif""style=""height:400px;""></stim_listB>",is fighting,
null,"<div style=""font-size:60px;"">+</div>",,html-keyboard-response,185,966630,0.0-15.0-0.9,28980,List2B,white,woman,,,,null,,,,
null,"<img src=""stim_listB/kiss4.gif""style=""height:400px;""></stim_listB>",,html-keyboard-response,186,968634,0.0-15.0-1.9,28980,List2B,white,woman,,,,null,,,,
null,are kissing each other,,html-keyboard-response,187,970639,0.0-15.0-2.9,28980,List2B,white,woman,,,,null,,,,
10662,,,survey-text,188,981305,0.0-15.0-3.9,28980,List2B,white,woman,,,,,"{""Q0"":""Mike and Kate are kissing each other ""}","<img src=""stim_listB/kiss4.gif""style=""height:400px;""></stim_listB>",are kissing each other,
null,"<div style=""font-size:60px;"">+</div>",,html-keyboard-response,189,981808,0.0-15.0-0.10,28980,List2B,white,woman,,,,null,,,,
null,"<img src=""stim_listB/flirt6.gif""style=""height:400px;""></stim_listB>",,html-keyboard-response,190,983811,0.0-15.0-1.10,28980,List2B,white,woman,,,,null,,,,
null,are flirting with each other,,html-keyboard-response,191,985815,0.0-15.0-2.10,28980,List2B,white,woman,,,,null,,,,
15648,,,survey-text,192,1001467,0.0-15.0-3.10,28980,List2B,white,woman,,,,,"{""Q0"":""Dave and Fred are flirting with each other ""}","<img src=""stim_listB/flirt6.gif""style=""height:400px;""></stim_listB>",are flirting with each other,
null,"<div style=""font-size:60px;"">+</div>",,html-keyboard-response,193,1001970,0.0-15.0-0.11,28980,List2B,white,woman,,,,null,,,,
null,"<img src=""stim_listB/dance3.gif""style=""height:400px;""></stim_listB>",,html-keyboard-response,194,1003974,0.0-15.0-1.11,28980,List2B,white,woman,,,,null,,,,
null,is dancing with,,html-keyboard-response,195,1005979,0.0-15.0-2.11,28980,List2B,white,woman,,,,null,,,,
8811,,,survey-text,196,1014795,0.0-15.0-3.11,28980,List2B,white,woman,,,,,"{""Q0"":""Fred is dancing with Kate ""}","<img src=""stim_listB/dance3.gif""style=""height:400px;""></stim_listB>",is dancing with,
null,"<div style=""font-size:60px;"">+</div>",,html-keyboard-response,197,1015298,0.0-15.0-0.12,28980,List2B,white,woman,,,,null,,,,
null,"<img src=""stim_listB/dance7.gif""style=""height:400px;""></stim_listB>",,html-keyboard-response,198,1017303,0.0-15.0-1.12,28980,List2B,white,woman,,,,null,,,,
null,is dancing with,,html-keyboard-response,199,1019308,0.0-15.0-2.12,28980,List2B,white,woman,,,,null,,,,
7624,,,survey-text,200,1026936,0.0-15.0-3.12,28980,List2B,white,woman,,,,,"{""Q0"":""Ruth is dancing with Kate ""}","<img src=""stim_listB/dance7.gif""style=""height:400px;""></stim_listB>",is dancing with,
null,"<div style=""font-size:60px;"">+</div>",,html-keyboard-response,201,1027439,0.0-15.0-0.13,28980,List2B,white,woman,,,,null,,,,
null,"<img src=""stim_listB/play3.gif""style=""height:400px;""></stim_listB>",,html-keyboard-response,202,1029443,0.0-15.0-1.13,28980,List2B,white,woman,,,,null,,,,
null,is playing with,,html-keyboard-response,203,1031448,0.0-15.0-2.13,28980,List2B,white,woman,,,,null,,,,
7054,,,survey-text,204,1038505,0.0-15.0-3.13,28980,List2B,white,woman,,,,,"{""Q0"":""Kate is playing with mike ""}","<img src=""stim_listB/play3.gif""style=""height:400px;""></stim_listB>",is playing with,
null,"<div style=""font-size:60px;"">+</div>",,html-keyboard-response,205,1039008,0.0-15.0-0.14,28980,List2B,white,woman,,,,null,,,,
null,"<img src=""stim_listB/dance5.gif""style=""height:400px;""></stim_listB>",,html-keyboard-response,206,1041011,0.0-15.0-1.14,28980,List2B,white,woman,,,,null,,,,
null,is dancing with,,html-keyboard-response,207,1043016,0.0-15.0-2.14,28980,List2B,white,woman,,,,null,,,,
7422,,,survey-text,208,1050442,0.0-15.0-3.14,28980,List2B,white,woman,,,,,"{""Q0"":""Luke is dancing with mike ""}","<img src=""stim_listB/dance5.gif""style=""height:400px;""></stim_listB>",is dancing with,
null,"<div style=""font-size:60px;"">+</div>",,html-keyboard-response,209,1050945,0.0-15.0-0.15,28980,List2B,white,woman,,,,null,,,,
null,"<img src=""stim_listB/flirt7.gif""style=""height:400px;""></stim_listB>",,html-keyboard-response,210,1052950,0.0-15.0-1.15,28980,List2B,white,woman,,,,null,,,,
null,is flirting with,,html-keyboard-response,211,1054954,0.0-15.0-2.15,28980,List2B,white,woman,,,,null,,,,
7098,,,survey-text,212,1062056,0.0-15.0-3.15,28980,List2B,white,woman,,,,,"{""Q0"":""Kate is flirting with Ruth ""}","<img src=""stim_listB/flirt7.gif""style=""height:400px;""></stim_listB>",is flirting with,
null,"<div style=""font-size:60px;"">+</div>",,html-keyboard-response,213,1062560,0.0-15.0-0.16,28980,List2B,white,woman,,,,null,,,,
null,"<img src=""stim_listB/shout1.gif""style=""height:400px;""></stim_listB>",,html-keyboard-response,214,1064563,0.0-15.0-1.16,28980,List2B,white,woman,,,,null,,,,
null,is shouting at,,html-keyboard-response,215,1066568,0.0-15.0-2.16,28980,List2B,white,woman,,,,null,,,,
8620,,,survey-text,216,1075191,0.0-15.0-3.16,28980,List2B,white,woman,,,,,"{""Q0"":""Luke is shouting at Ruth ""}","<img src=""stim_listB/shout1.gif""style=""height:400px;""></stim_listB>",is shouting at,
null,"<div style=""font-size:60px;"">+</div>",,html-keyboard-response,217,1075700,0.0-15.0-0.17,28980,List2B,white,woman,,,,null,,,,
null,"<img src=""stim_listB/talk8.gif""style=""height:400px;""></stim_listB>",,html-keyboard-response,218,1077707,0.0-15.0-1.17,28980,List2B,white,woman,,,,null,,,,
null,are talking to each other,,html-keyboard-response,219,1079710,0.0-15.0-2.17,28980,List2B,white,woman,,,,null,,,,
13931,,,survey-text,220,1093644,0.0-15.0-3.17,28980,List2B,white,woman,,,,,"{""Q0"":""Jane and Beth are talking to each other ""}","<img src=""stim_listB/talk8.gif""style=""height:400px;""></stim_listB>",are talking to each other,
null,"<div style=""font-size:60px;"">+</div>",,html-keyboard-response,221,1094149,0.0-15.0-0.18,28980,List2B,white,woman,,,,null,,,,
null,"<img src=""stim_listB/marry5.gif""style=""height:400px;""></stim_listB>",,html-keyboard-response,222,1096153,0.0-15.0-1.18,28980,List2B,white,woman,,,,null,,,,
null,is marrying,,html-keyboard-response,223,1098157,0.0-15.0-2.18,28980,List2B,white,woman,,,,null,,,,
8006,,,survey-text,224,1106168,0.0-15.0-3.18,28980,List2B,white,woman,,,,,"{""Q0"":""Fred is marrying Dave ""}","<img src=""stim_listB/marry5.gif""style=""height:400px;""></stim_listB>",is marrying,
null,"<div style=""font-size:60px;"">+</div>",,html-keyboard-response,225,1106673,0.0-15.0-0.19,28980,List2B,white,woman,,,,null,,,,
null,"<img src=""stim_listB/dance6.gif""style=""height:400px;""></stim_listB>",,html-keyboard-response,226,1108677,0.0-15.0-1.19,28980,List2B,white,woman,,,,null,,,,
null,are dancing with each other,,html-keyboard-response,227,1110680,0.0-15.0-2.19,28980,List2B,white,woman,,,,null,,,,
11768,,,survey-text,228,1122452,0.0-15.0-3.19,28980,List2B,white,woman,,,,,"{""Q0"":""Fred and Dave are dancing with each other ""}","<img src=""stim_listB/dance6.gif""style=""height:400px;""></stim_listB>",are dancing with each other,
3614,"<img src='img/portrait_matrix_list2.jpg' style='width:900px;height:500px;''></img><p>If you have memorised all the portraits and names and are ready to start, press Continue.</p><p><strong>Please note: Your memory of these faces will be tested 4 times during this experiment.</strong></p>",0,html-button-response,229,1126070,0.0-16.0-0.0,28980,List2B,white,woman,,,,,,,,
2632,"<img src=""portrait/BW1.jpg""style=""height:400px;""></img>",0,html-button-response,230,1129708,0.0-16.0-1.0,28980,List2B,white,woman,,TRUE,0,,,,,
null,CORRECT,,html-keyboard-response,231,1131214,0.0-16.0-2.0-0.0,28980,List2B,white,woman,,,,null,,,,
1968,"<img src=""portrait/BM1.jpg""style=""height:400px;""></img>",4,html-button-response,232,1133189,0.0-16.0-4.0,28980,List2B,white,woman,,TRUE,4,,,,,
null,CORRECT,,html-keyboard-response,233,1134693,0.0-16.0-5.0-0.0,28980,List2B,white,woman,,,,null,,,,
2543,"<img src=""portrait/WM2.jpg""style=""height:400px;""></img>",7,html-button-response,234,1137242,0.0-16.0-7.0,28980,List2B,white,woman,,TRUE,7,,,,,
null,CORRECT,,html-keyboard-response,235,1138745,0.0-16.0-8.0-0.0,28980,List2B,white,woman,,,,null,,,,
1875,"<img src=""portrait/WM1.jpg""style=""height:400px;""></img>",6,html-button-response,236,1140628,0.0-16.0-10.0,28980,List2B,white,woman,,TRUE,6,,,,,
null,CORRECT,,html-keyboard-response,237,1142132,0.0-16.0-11.0-0.0,28980,List2B,white,woman,,,,null,,,,
1819,"<img src=""portrait/WW2.jpg""style=""height:400px;""></img>",3,html-button-response,238,1143958,0.0-16.0-13.0,28980,List2B,white,woman,,TRUE,3,,,,,
null,CORRECT,,html-keyboard-response,239,1145462,0.0-16.0-14.0-0.0,28980,List2B,white,woman,,,,null,,,,
2502,"<img src=""portrait/BW2.jpg""style=""height:400px;""></img>",2,html-button-response,240,1147969,0.0-16.0-16.0,28980,List2B,white,woman,,TRUE,2,,,,,
null,CORRECT,,html-keyboard-response,241,1149473,0.0-16.0-17.0-0.0,28980,List2B,white,woman,,,,null,,,,
1693,"<img src=""portrait/BM2.jpg""style=""height:400px;""></img>",5,html-button-response,242,1151171,0.0-16.0-19.0,28980,List2B,white,woman,,TRUE,5,,,,,
null,CORRECT,,html-keyboard-response,243,1152677,0.0-16.0-20.0-0.0,28980,List2B,white,woman,,,,null,,,,
2190,"<img src=""portrait/WW1.jpg""style=""height:400px;""></img>",1,html-button-response,244,1154872,0.0-16.0-22.0,28980,List2B,white,woman,,TRUE,1,,,,,
null,CORRECT,,html-keyboard-response,245,1156378,0.0-16.0-23.0-0.0,28980,List2B,white,woman,,,,null,,,,
1227,<p>You got 8 out of 8 right first time. Press Continue.</p>,0,html-button-response,246,1157610,0.0-16.0-25.0,28980,List2B,white,woman,,,,,,,,
null,"<div style=""font-size:60px;"">+</div>",,html-keyboard-response,247,1159117,0.0-17.0-0.0,28980,List2B,white,woman,,,,null,,,,
null,"<img src=""stim_listB/fight5.gif""style=""height:400px;""></stim_listB>",,html-keyboard-response,248,1161122,0.0-17.0-1.0,28980,List2B,white,woman,,,,null,,,,
null,is fighting,,html-keyboard-response,249,1163127,0.0-17.0-2.0,28980,List2B,white,woman,,,,null,,,,
9644,,,survey-text,250,1172774,0.0-17.0-3.0,28980,List2B,white,woman,,,,,"{""Q0"":""Mike is fighting Dave ""}","<img src=""stim_listB/fight5.gif""style=""height:400px;""></stim_listB>",is fighting,
null,"<div style=""font-size:60px;"">+</div>",,html-keyboard-response,251,1173278,0.0-17.0-0.1,28980,List2B,white,woman,,,,null,,,,
null,"<img src=""stim_listB/touch4.gif""style=""height:400px;""></stim_listB>",,html-keyboard-response,252,1175283,0.0-17.0-1.1,28980,List2B,white,woman,,,,null,,,,
null,are touching each other,,html-keyboard-response,253,1177288,0.0-17.0-2.1,28980,List2B,white,woman,,,,null,,,,
9363,,,survey-text,254,1186655,0.0-17.0-3.1,28980,List2B,white,woman,,,,,"{""Q0"":""Fred and Beth are touching each other ""}","<img src=""stim_listB/touch4.gif""style=""height:400px;""></stim_listB>",are touching each other,
null,"<div style=""font-size:60px;"">+</div>",,html-keyboard-response,255,1187157,0.0-17.0-0.2,28980,List2B,white,woman,,,,null,,,,
null,"<img src=""stim_listB/fight6.gif""style=""height:400px;""></stim_listB>",,html-keyboard-response,256,1189161,0.0-17.0-1.2,28980,List2B,white,woman,,,,null,,,,
null,are fighting each other,,html-keyboard-response,257,1191165,0.0-17.0-2.2,28980,List2B,white,woman,,,,null,,,,
10471,,,survey-text,258,1201640,0.0-17.0-3.2,28980,List2B,white,woman,,,,,"{""Q0"":""Luke and Fred are fighting each other ""}","<img src=""stim_listB/fight6.gif""style=""height:400px;""></stim_listB>",are fighting each other,
null,"<div style=""font-size:60px;"">+</div>",,html-keyboard-response,259,1202144,0.0-17.0-0.3,28980,List2B,white,woman,,,,null,,,,
null,"<img src=""stim_listB/marry8.gif""style=""height:400px;""></stim_listB>",,html-keyboard-response,260,1204147,0.0-17.0-1.3,28980,List2B,white,woman,,,,null,,,,
null,are marrying each other,,html-keyboard-response,261,1206151,0.0-17.0-2.3,28980,List2B,white,woman,,,,null,,,,
14789,,,survey-text,262,1220942,0.0-17.0-3.3,28980,List2B,white,woman,,,,,"{""Q0"":""Ruth and Kate are marrying each other ""}","<img src=""stim_listB/marry8.gif""style=""height:400px;""></stim_listB>",are marrying each other,
null,"<div style=""font-size:60px;"">+</div>",,html-keyboard-response,263,1221444,0.0-17.0-0.4,28980,List2B,white,woman,,,,null,,,,
null,"<img src=""stim_listB/fight2.gif""style=""height:400px;""></stim_listB>",,html-keyboard-response,264,1223448,0.0-17.0-1.4,28980,List2B,white,woman,,,,null,,,,
null,are fighting each other,,html-keyboard-response,265,1225452,0.0-17.0-2.4,28980,List2B,white,woman,,,,null,,,,
10370,,,survey-text,266,1235826,0.0-17.0-3.4,28980,List2B,white,woman,,,,,"{""Q0"":""Luke and Ruth are fighting each other ""}","<img src=""stim_listB/fight2.gif""style=""height:400px;""></stim_listB>",are fighting each other,
null,"<div style=""font-size:60px;"">+</div>",,html-keyboard-response,267,1236328,0.0-17.0-0.5,28980,List2B,white,woman,,,,null,,,,
null,"<img src=""stim_listB/marry6.gif""style=""height:400px;""></stim_listB>",,html-keyboard-response,268,1238331,0.0-17.0-1.5,28980,List2B,white,woman,,,,null,,,,
null,are marrying each other,,html-keyboard-response,269,1240336,0.0-17.0-2.5,28980,List2B,white,woman,,,,null,,,,
11191,,,survey-text,270,1251532,0.0-17.0-3.5,28980,List2B,white,woman,,,,,"{""Q0"":""Luke and mike are marrying each other ""}","<img src=""stim_listB/marry6.gif""style=""height:400px;""></stim_listB>",are marrying each other,
null,"<div style=""font-size:60px;"">+</div>",,html-keyboard-response,271,1252035,0.0-17.0-0.6,28980,List2B,white,woman,,,,null,,,,
null,"<img src=""stim_listB/argue4.gif""style=""height:400px;""></stim_listB>",,html-keyboard-response,272,1254040,0.0-17.0-1.6,28980,List2B,white,woman,,,,null,,,,
null,are arguing with each other,,html-keyboard-response,273,1256045,0.0-17.0-2.6,28980,List2B,white,woman,,,,null,,,,
9728,,,survey-text,274,1265777,0.0-17.0-3.6,28980,List2B,white,woman,,,,,"{""Q0"":""Fred and Kate are arguing with each other ""}","<img src=""stim_listB/argue4.gif""style=""height:400px;""></stim_listB>",are arguing with each other,
null,"<div style=""font-size:60px;"">+</div>",,html-keyboard-response,275,1266279,0.0-17.0-0.7,28980,List2B,white,woman,,,,null,,,,
null,"<img src=""stim_listB/flirt3.gif""style=""height:400px;""></stim_listB>",,html-keyboard-response,276,1268282,0.0-17.0-1.7,28980,List2B,white,woman,,,,null,,,,
null,is flirting with,,html-keyboard-response,277,1270286,0.0-17.0-2.7,28980,List2B,white,woman,,,,null,,,,
8262,,,survey-text,278,1278552,0.0-17.0-3.7,28980,List2B,white,woman,,,,,"{""Q0"":""Kate is flirting with Fred ""}","<img src=""stim_listB/flirt3.gif""style=""height:400px;""></stim_listB>",is flirting with,
null,"<div style=""font-size:60px;"">+</div>",,html-keyboard-response,279,1279055,0.0-17.0-0.8,28980,List2B,white,woman,,,,null,,,,
null,"<img src=""stim_listB/talk4.gif""style=""height:400px;""></stim_listB>",,html-keyboard-response,280,1281061,0.0-17.0-1.8,28980,List2B,white,woman,,,,null,,,,
null,are talking to each other,,html-keyboard-response,281,1283065,0.0-17.0-2.8,28980,List2B,white,woman,,,,null,,,,
9643,,,survey-text,282,1292711,0.0-17.0-3.8,28980,List2B,white,woman,,,,,"{""Q0"":""Mike and Beth are talking to each other ""}","<img src=""stim_listB/talk4.gif""style=""height:400px;""></stim_listB>",are talking to each other,
null,"<div style=""font-size:60px;"">+</div>",,html-keyboard-response,283,1293215,0.0-17.0-0.9,28980,List2B,white,woman,,,,null,,,,
null,"<img src=""stim_listB/argue7.gif""style=""height:400px;""></stim_listB>",,html-keyboard-response,284,1295220,0.0-17.0-1.9,28980,List2B,white,woman,,,,null,,,,
null,is arguing with,,html-keyboard-response,285,1297225,0.0-17.0-2.9,28980,List2B,white,woman,,,,null,,,,
7532,,,survey-text,286,1304764,0.0-17.0-3.9,28980,List2B,white,woman,,,,,"{""Q0"":""Jane is arguing with Beth ""}","<img src=""stim_listB/argue7.gif""style=""height:400px;""></stim_listB>",is arguing with,
null,"<div style=""font-size:60px;"">+</div>",,html-keyboard-response,287,1305267,0.0-17.0-0.10,28980,List2B,white,woman,,,,null,,,,
null,"<img src=""stim_listB/shout6.gif""style=""height:400px;""></stim_listB>",,html-keyboard-response,288,1307272,0.0-17.0-1.10,28980,List2B,white,woman,,,,null,,,,
null,are shouting at each other,,html-keyboard-response,289,1309276,0.0-17.0-2.10,28980,List2B,white,woman,,,,null,,,,
10661,,,survey-text,290,1319940,0.0-17.0-3.10,28980,List2B,white,woman,,,,,"{""Q0"":""Dave and mike are shouting at each other ""}","<img src=""stim_listB/shout6.gif""style=""height:400px;""></stim_listB>",are shouting at each other,
null,"<div style=""font-size:60px;"">+</div>",,html-keyboard-response,291,1320442,0.0-17.0-0.11,28980,List2B,white,woman,,,,null,,,,
null,"<img src=""stim_listB/shout4.gif""style=""height:400px;""></stim_listB>",,html-keyboard-response,292,1322447,0.0-17.0-1.11,28980,List2B,white,woman,,,,null,,,,
null,are shouting at each other,,html-keyboard-response,293,1324452,0.0-17.0-2.11,28980,List2B,white,woman,,,,null,,,,
10807,,,survey-text,294,1335266,0.0-17.0-3.11,28980,List2B,white,woman,,,,,"{""Q0"":""Mike and Kate are shouting at each other ""}","<img src=""stim_listB/shout4.gif""style=""height:400px;""></stim_listB>",are shouting at each other,
null,"<div style=""font-size:60px;"">+</div>",,html-keyboard-response,295,1335770,0.0-17.0-0.12,28980,List2B,white,woman,,,,null,,,,
null,"<img src=""stim_listB/dance4.gif""style=""height:400px;""></stim_listB>",,html-keyboard-response,296,1337775,0.0-17.0-1.12,28980,List2B,white,woman,,,,null,,,,
null,are dancing with each other,,html-keyboard-response,297,1339780,0.0-17.0-2.12,28980,List2B,white,woman,,,,null,,,,
10307,,,survey-text,298,1350094,0.0-17.0-3.12,28980,List2B,white,woman,,,,,"{""Q0"":""Beth and mike are dancing with each other ""}","<img src=""stim_listB/dance4.gif""style=""height:400px;""></stim_listB>",are dancing with each other,
null,"<div style=""font-size:60px;"">+</div>",,html-keyboard-response,299,1350598,0.0-17.0-0.13,28980,List2B,white,woman,,,,null,,,,
null,"<img src=""stim_listB/touch2.gif""style=""height:400px;""></stim_listB>",,html-keyboard-response,300,1352603,0.0-17.0-1.13,28980,List2B,white,woman,,,,null,,,,
null,are touching each other,,html-keyboard-response,301,1354607,0.0-17.0-2.13,28980,List2B,white,woman,,,,null,,,,
12402,,,survey-text,302,1367013,0.0-17.0-3.13,28980,List2B,white,woman,,,,,"{""Q0"":""Ruth and luke are touching each other ""}","<img src=""stim_listB/touch2.gif""style=""height:400px;""></stim_listB>",are touching each other,
null,"<div style=""font-size:60px;"">+</div>",,html-keyboard-response,303,1367516,0.0-17.0-0.14,28980,List2B,white,woman,,,,null,,,,
null,"<img src=""stim_listB/argue6.gif""style=""height:400px;""></stim_listB>",,html-keyboard-response,304,1369521,0.0-17.0-1.14,28980,List2B,white,woman,,,,null,,,,
null,are arguing with each other,,html-keyboard-response,305,1371525,0.0-17.0-2.14,28980,List2B,white,woman,,,,null,,,,
13598,,,survey-text,306,1385127,0.0-17.0-3.14,28980,List2B,white,woman,,,,,"{""Q0"":""Luke and mike are arguing with each other ""}","<img src=""stim_listB/argue6.gif""style=""height:400px;""></stim_listB>",are arguing with each other,
null,"<div style=""font-size:60px;"">+</div>",,html-keyboard-response,307,1385630,0.0-17.0-0.15,28980,List2B,white,woman,,,,null,,,,
null,"<img src=""stim_listB/kiss7.gif""style=""height:400px;""></stim_listB>",,html-keyboard-response,308,1387641,0.0-17.0-1.15,28980,List2B,white,woman,,,,null,,,,
null,is kissing,,html-keyboard-response,309,1389646,0.0-17.0-2.15,28980,List2B,white,woman,,,,null,,,,
6608,,,survey-text,310,1396258,0.0-17.0-3.15,28980,List2B,white,woman,,,,,"{""Q0"":""Beth is kissing Ruth ""}","<img src=""stim_listB/kiss7.gif""style=""height:400px;""></stim_listB>",is kissing,
null,"<div style=""font-size:60px;"">+</div>",,html-keyboard-response,311,1396763,0.0-17.0-0.16,28980,List2B,white,woman,,,,null,,,,
null,"<img src=""stim_listB/play6.gif""style=""height:400px;""></stim_listB>",,html-keyboard-response,312,1398768,0.0-17.0-1.16,28980,List2B,white,woman,,,,null,,,,
null,are playing with each other,,html-keyboard-response,313,1400772,0.0-17.0-2.16,28980,List2B,white,woman,,,,null,,,,
13802,,,survey-text,314,1414579,0.0-17.0-3.16,28980,List2B,white,woman,,,,,"{""Q0"":""Luke and Fred are playing with each other ""}","<img src=""stim_listB/play6.gif""style=""height:400px;""></stim_listB>",are playing with each other,
null,"<div style=""font-size:60px;"">+</div>",,html-keyboard-response,315,1415085,0.0-17.0-0.17,28980,List2B,white,woman,,,,null,,,,
null,"<img src=""stim_listB/touch1.gif""style=""height:400px;""></stim_listB>",,html-keyboard-response,316,1417090,0.0-17.0-1.17,28980,List2B,white,woman,,,,null,,,,
null,is touching,,html-keyboard-response,317,1419094,0.0-17.0-2.17,28980,List2B,white,woman,,,,null,,,,
10297,,,survey-text,318,1429395,0.0-17.0-3.17,28980,List2B,white,woman,,,,,"{""Q0"":""Jane is touching Dave ""}","<img src=""stim_listB/touch1.gif""style=""height:400px;""></stim_listB>",is touching,
null,"<div style=""font-size:60px;"">+</div>",,html-keyboard-response,319,1429898,0.0-17.0-0.18,28980,List2B,white,woman,,,,null,,,,
null,"<img src=""stim_listB/dance8.gif""style=""height:400px;""></stim_listB>",,html-keyboard-response,320,1431903,0.0-17.0-1.18,28980,List2B,white,woman,,,,null,,,,
null,are dancing with each other,,html-keyboard-response,321,1433907,0.0-17.0-2.18,28980,List2B,white,woman,,,,null,,,,
12763,,,survey-text,322,1446680,0.0-17.0-3.18,28980,List2B,white,woman,,,,,"{""Q0"":""Jane and Beth are dancing with each other ""}","<img src=""stim_listB/dance8.gif""style=""height:400px;""></stim_listB>",are dancing with each other,
null,"<div style=""font-size:60px;"">+</div>",,html-keyboard-response,323,1447187,0.0-17.0-0.19,28980,List2B,white,woman,,,,null,,,,
null,"<img src=""stim_listB/play7.gif""style=""height:400px;""></stim_listB>",,html-keyboard-response,324,1449193,0.0-17.0-1.19,28980,List2B,white,woman,,,,null,,,,
null,is playing with,,html-keyboard-response,325,1451197,0.0-17.0-2.19,28980,List2B,white,woman,,,,null,,,,
8172,,,survey-text,326,1459372,0.0-17.0-3.19,28980,List2B,white,woman,,,,,"{""Q0"":""Kate is playing with Jane ""}","<img src=""stim_listB/play7.gif""style=""height:400px;""></stim_listB>",is playing with,
7752,"<img src='img/portrait_matrix_list2.jpg' style='width:900px;height:500px;''></img><p>If you have memorised all the portraits and names and are ready to start, press Continue.</p><p><strong>Please note: Your memory of these faces will be tested 4 times during this experiment.</strong></p>",0,html-button-response,327,1467137,0.0-18.0-0.0,28980,List2B,white,woman,,,,,,,,
3358,"<img src=""portrait/BM2.jpg""style=""height:400px;""></img>",5,html-button-response,328,1471501,0.0-18.0-1.0,28980,List2B,white,woman,,TRUE,5,,,,,
null,CORRECT,,html-keyboard-response,329,1473006,0.0-18.0-2.0-0.0,28980,List2B,white,woman,,,,null,,,,
1637,"<img src=""portrait/WW2.jpg""style=""height:400px;""></img>",3,html-button-response,330,1474649,0.0-18.0-4.0,28980,List2B,white,woman,,TRUE,3,,,,,
null,CORRECT,,html-keyboard-response,331,1476154,0.0-18.0-5.0-0.0,28980,List2B,white,woman,,,,null,,,,
1945,"<img src=""portrait/BM1.jpg""style=""height:400px;""></img>",4,html-button-response,332,1478104,0.0-18.0-7.0,28980,List2B,white,woman,,TRUE,4,,,,,
null,CORRECT,,html-keyboard-response,333,1479608,0.0-18.0-8.0-0.0,28980,List2B,white,woman,,,,null,,,,
2331,"<img src=""portrait/WM1.jpg""style=""height:400px;""></img>",6,html-button-response,334,1481944,0.0-18.0-10.0,28980,List2B,white,woman,,TRUE,6,,,,,
null,CORRECT,,html-keyboard-response,335,1483449,0.0-18.0-11.0-0.0,28980,List2B,white,woman,,,,null,,,,
1974,"<img src=""portrait/BW2.jpg""style=""height:400px;""></img>",2,html-button-response,336,1485428,0.0-18.0-13.0,28980,List2B,white,woman,,TRUE,2,,,,,
null,CORRECT,,html-keyboard-response,337,1486932,0.0-18.0-14.0-0.0,28980,List2B,white,woman,,,,null,,,,
4162,"<img src=""portrait/WM2.jpg""style=""height:400px;""></img>",7,html-button-response,338,1491099,0.0-18.0-16.0,28980,List2B,white,woman,,TRUE,7,,,,,
null,CORRECT,,html-keyboard-response,339,1492603,0.0-18.0-17.0-0.0,28980,List2B,white,woman,,,,null,,,,
2957,"<img src=""portrait/BW1.jpg""style=""height:400px;""></img>",0,html-button-response,340,1495566,0.0-18.0-19.0,28980,List2B,white,woman,,TRUE,0,,,,,
null,CORRECT,,html-keyboard-response,341,1497069,0.0-18.0-20.0-0.0,28980,List2B,white,woman,,,,null,,,,
1684,"<img src=""portrait/WW1.jpg""style=""height:400px;""></img>",1,html-button-response,342,1498757,0.0-18.0-22.0,28980,List2B,white,woman,,TRUE,1,,,,,
null,CORRECT,,html-keyboard-response,343,1500262,0.0-18.0-23.0-0.0,28980,List2B,white,woman,,,,null,,,,
1322,<p>You got 8 out of 8 right first time. Press Continue.</p>,0,html-button-response,344,1501588,0.0-18.0-25.0,28980,List2B,white,woman,,,,,,,,
null,"<div style=""font-size:60px;"">+</div>",,html-keyboard-response,345,1503095,0.0-19.0-0.0,28980,List2B,white,woman,,,,null,,,,
null,"<img src=""stim_listB/flirt1.gif""style=""height:400px;""></stim_listB>",,html-keyboard-response,346,1505101,0.0-19.0-1.0,28980,List2B,white,woman,,,,null,,,,
null,is flirting with,,html-keyboard-response,347,1507105,0.0-19.0-2.0,28980,List2B,white,woman,,,,null,,,,
9823,,,survey-text,348,1516932,0.0-19.0-3.0,28980,List2B,white,woman,,,,,"{""Q0"":""Luke is flirting with Jane ""}","<img src=""stim_listB/flirt1.gif""style=""height:400px;""></stim_listB>",is flirting with,
null,"<div style=""font-size:60px;"">+</div>",,html-keyboard-response,349,1517443,0.0-19.0-0.1,28980,List2B,white,woman,,,,null,,,,
null,"<img src=""stim_listB/touch7.gif""style=""height:400px;""></stim_listB>",,html-keyboard-response,350,1519448,0.0-19.0-1.1,28980,List2B,white,woman,,,,null,,,,
null,is touching,,html-keyboard-response,351,1521452,0.0-19.0-2.1,28980,List2B,white,woman,,,,null,,,,
8653,,,survey-text,352,1530108,0.0-19.0-3.1,28980,List2B,white,woman,,,,,"{""Q0"":""Kate is touching Jane ""}","<img src=""stim_listB/touch7.gif""style=""height:400px;""></stim_listB>",is touching,
null,"<div style=""font-size:60px;"">+</div>",,html-keyboard-response,353,1530612,0.0-19.0-0.2,28980,List2B,white,woman,,,,null,,,,
null,"<img src=""stim_listB/shout8.gif""style=""height:400px;""></stim_listB>",,html-keyboard-response,354,1532616,0.0-19.0-1.2,28980,List2B,white,woman,,,,null,,,,
null,are shouting at each other,,html-keyboard-response,355,1534621,0.0-19.0-2.2,28980,List2B,white,woman,,,,null,,,,
13157,,,survey-text,356,1547782,0.0-19.0-3.2,28980,List2B,white,woman,,,,,"{""Q0"":""Jane and Kate are shouting at each other ""}","<img src=""stim_listB/shout8.gif""style=""height:400px;""></stim_listB>",are shouting at each other,
null,"<div style=""font-size:60px;"">+</div>",,html-keyboard-response,357,1548286,0.0-19.0-0.3,28980,List2B,white,woman,,,,null,,,,
null,"<img src=""stim_listB/play1.gif""style=""height:400px;""></stim_listB>",,html-keyboard-response,358,1550290,0.0-19.0-1.3,28980,List2B,white,woman,,,,null,,,,
null,is playing with,,html-keyboard-response,359,1552294,0.0-19.0-2.3,28980,List2B,white,woman,,,,null,,,,
10554,,,survey-text,360,1562853,0.0-19.0-3.3,28980,List2B,white,woman,,,,,"{""Q0"":""Jane is playing with Dave ""}","<img src=""stim_listB/play1.gif""style=""height:400px;""></stim_listB>",is playing with,
null,"<div style=""font-size:60px;"">+</div>",,html-keyboard-response,361,1563358,0.0-19.0-0.4,28980,List2B,white,woman,,,,null,,,,
null,"<img src=""stim_listB/flirt4.gif""style=""height:400px;""></stim_listB>",,html-keyboard-response,362,1565363,0.0-19.0-1.4,28980,List2B,white,woman,,,,null,,,,
null,are flirting with each other,,html-keyboard-response,363,1567367,0.0-19.0-2.4,28980,List2B,white,woman,,,,null,,,,
10920,,,survey-text,364,1578290,0.0-19.0-3.4,28980,List2B,white,woman,,,,,"{""Q0"":""Mike and Beth are flirting with each other ""}","<img src=""stim_listB/flirt4.gif""style=""height:400px;""></stim_listB>",are flirting with each other,
null,"<div style=""font-size:60px;"">+</div>",,html-keyboard-response,365,1578793,0.0-19.0-0.5,28980,List2B,white,woman,,,,null,,,,
null,"<img src=""stim_listB/argue1.gif""style=""height:400px;""></stim_listB>",,html-keyboard-response,366,1580798,0.0-19.0-1.5,28980,List2B,white,woman,,,,null,,,,
null,is arguing with,,html-keyboard-response,367,1582803,0.0-19.0-2.5,28980,List2B,white,woman,,,,null,,,,
16669,,,survey-text,368,1599476,0.0-19.0-3.5,28980,List2B,white,woman,,,,,"{""Q0"":""Ruth is arguing with Dave ""}","<img src=""stim_listB/argue1.gif""style=""height:400px;""></stim_listB>",is arguing with,
null,"<div style=""font-size:60px;"">+</div>",,html-keyboard-response,369,1599980,0.0-19.0-0.6,28980,List2B,white,woman,,,,null,,,,
null,"<img src=""stim_listB/kiss5.gif""style=""height:400px;""></stim_listB>",,html-keyboard-response,370,1601984,0.0-19.0-1.6,28980,List2B,white,woman,,,,null,,,,
null,is kissing,,html-keyboard-response,371,1603989,0.0-19.0-2.6,28980,List2B,white,woman,,,,null,,,,
10569,,,survey-text,372,1614562,0.0-19.0-3.6,28980,List2B,white,woman,,,,,"{""Q0"":""Fred is kissing luke ""}","<img src=""stim_listB/kiss5.gif""style=""height:400px;""></stim_listB>",is kissing,
null,"<div style=""font-size:60px;"">+</div>",,html-keyboard-response,373,1615068,0.0-19.0-0.7,28980,List2B,white,woman,,,,null,,,,
null,"<img src=""stim_listB/fight8.gif""style=""height:400px;""></stim_listB>",,html-keyboard-response,374,1617073,0.0-19.0-1.7,28980,List2B,white,woman,,,,null,,,,
null,are fighting each other,,html-keyboard-response,375,1619076,0.0-19.0-2.7,28980,List2B,white,woman,,,,null,,,,
12516,,,survey-text,376,1631596,0.0-19.0-3.7,28980,List2B,white,woman,,,,,"{""Q0"":""Ruth and Beth are fighting each other ""}","<img src=""stim_listB/fight8.gif""style=""height:400px;""></stim_listB>",are fighting each other,
null,"<div style=""font-size:60px;"">+</div>",,html-keyboard-response,377,1632101,0.0-19.0-0.8,28980,List2B,white,woman,,,,null,,,,
null,"<img src=""stim_listB/play4.gif""style=""height:400px;""></stim_listB>",,html-keyboard-response,378,1634106,0.0-19.0-1.8,28980,List2B,white,woman,,,,null,,,,
null,are playing with each other,,html-keyboard-response,379,1636112,0.0-19.0-2.8,28980,List2B,white,woman,,,,null,,,,
18226,,,survey-text,380,1654342,0.0-19.0-3.8,28980,List2B,white,woman,,,,,"{""Q0"":""Fred and Beth are playing with each other ""}","<img src=""stim_listB/play4.gif""style=""height:400px;""></stim_listB>",are playing with each other,
null,"<div style=""font-size:60px;"">+</div>",,html-keyboard-response,381,1654846,0.0-19.0-0.9,28980,List2B,white,woman,,,,null,,,,
null,"<img src=""stim_listB/marry4.gif""style=""height:400px;""></stim_listB>",,html-keyboard-response,382,1656851,0.0-19.0-1.9,28980,List2B,white,woman,,,,null,,,,
null,are marrying each other,,html-keyboard-response,383,1658856,0.0-19.0-2.9,28980,List2B,white,woman,,,,null,,,,
11365,,,survey-text,384,1670235,0.0-19.0-3.9,28980,List2B,white,woman,,,,,"{""Q0"":""Fred and Kate are marrying each other ""}","<img src=""stim_listB/marry4.gif""style=""height:400px;""></stim_listB>",are marrying each other,
null,"<div style=""font-size:60px;"">+</div>",,html-keyboard-response,385,1670739,0.0-19.0-0.10,28980,List2B,white,woman,,,,null,,,,
null,"<img src=""stim_listB/touch3.gif""style=""height:400px;""></stim_listB>",,html-keyboard-response,386,1672744,0.0-19.0-1.10,28980,List2B,white,woman,,,,null,,,,
null,is touching,,html-keyboard-response,387,1674749,0.0-19.0-2.10,28980,List2B,white,woman,,,,null,,,,
7999,,,survey-text,388,1682751,0.0-19.0-3.10,28980,List2B,white,woman,,,,,"{""Q0"":""Kate is touching mike ""}","<img src=""stim_listB/touch3.gif""style=""height:400px;""></stim_listB>",is touching,
null,"<div style=""font-size:60px;"">+</div>",,html-keyboard-response,389,1683255,0.0-19.0-0.11,28980,List2B,white,woman,,,,null,,,,
null,"<img src=""stim_listB/argue8.gif""style=""height:400px;""></stim_listB>",,html-keyboard-response,390,1685259,0.0-19.0-1.11,28980,List2B,white,woman,,,,null,,,,
null,are arguing with each other,,html-keyboard-response,391,1687264,0.0-19.0-2.11,28980,List2B,white,woman,,,,null,,,,
10259,,,survey-text,392,1697526,0.0-19.0-3.11,28980,List2B,white,woman,,,,,"{""Q0"":""Kate and Ruth are arguing with each other ""}","<img src=""stim_listB/argue8.gif""style=""height:400px;""></stim_listB>",are arguing with each other,
null,"<div style=""font-size:60px;"">+</div>",,html-keyboard-response,393,1698030,0.0-19.0-0.12,28980,List2B,white,woman,,,,null,,,,
null,"<img src=""stim_listB/flirt2.gif""style=""height:400px;""></stim_listB>",,html-keyboard-response,394,1700035,0.0-19.0-1.12,28980,List2B,white,woman,,,,null,,,,
null,are flirting with each other,,html-keyboard-response,395,1702040,0.0-19.0-2.12,28980,List2B,white,woman,,,,null,,,,
10163,,,survey-text,396,1712207,0.0-19.0-3.12,28980,List2B,white,woman,,,,,"{""Q0"":""Dave and Ruth are flirting with each other ""}","<img src=""stim_listB/flirt2.gif""style=""height:400px;""></stim_listB>",are flirting with each other,
null,"<div style=""font-size:60px;"">+</div>",,html-keyboard-response,397,1712716,0.0-19.0-0.13,28980,List2B,white,woman,,,,null,,,,
null,"<img src=""stim_listB/play2.gif""style=""height:400px;""></stim_listB>",,html-keyboard-response,398,1714721,0.0-19.0-1.13,28980,List2B,white,woman,,,,null,,,,
null,are playing with each other,,html-keyboard-response,399,1716726,0.0-19.0-2.13,28980,List2B,white,woman,,,,null,,,,
17869,,,survey-text,400,1734600,0.0-19.0-3.13,28980,List2B,white,woman,,,,,"{""Q0"":""Luke and Ruth are playing with each other ""}","<img src=""stim_listB/play2.gif""style=""height:400px;""></stim_listB>",are playing with each other,
null,"<div style=""font-size:60px;"">+</div>",,html-keyboard-response,401,1735106,0.0-19.0-0.14,28980,List2B,white,woman,,,,null,,,,
null,"<img src=""stim_listB/fight7.gif""style=""height:400px;""></stim_listB>",,html-keyboard-response,402,1737111,0.0-19.0-1.14,28980,List2B,white,woman,,,,null,,,,
null,is fighting,,html-keyboard-response,403,1739116,0.0-19.0-2.14,28980,List2B,white,woman,,,,null,,,,
6918,,,survey-text,404,1746048,0.0-19.0-3.14,28980,List2B,white,woman,,,,,"{""Q0"":""Jane is fighting Kate ""}","<img src=""stim_listB/fight7.gif""style=""height:400px;""></stim_listB>",is fighting,
null,"<div style=""font-size:60px;"">+</div>",,html-keyboard-response,405,1746551,0.0-19.0-0.15,28980,List2B,white,woman,,,,null,,,,
null,"<img src=""stim_listB/kiss2.gif""style=""height:400px;""></stim_listB>",,html-keyboard-response,406,1748556,0.0-19.0-1.15,28980,List2B,white,woman,,,,null,,,,
null,are kissing each other,,html-keyboard-response,407,1750560,0.0-19.0-2.15,28980,List2B,white,woman,,,,null,,,,
10130,,,survey-text,408,1760695,0.0-19.0-3.15,28980,List2B,white,woman,,,,,"{""Q0"":""Dave and Jane are kissing each other ""}","<img src=""stim_listB/kiss2.gif""style=""height:400px;""></stim_listB>",are kissing each other,
null,"<div style=""font-size:60px;"">+</div>",,html-keyboard-response,409,1761198,0.0-19.0-0.16,28980,List2B,white,woman,,,,null,,,,
null,"<img src=""stim_listB/fight4.gif""style=""height:400px;""></stim_listB>",,html-keyboard-response,410,1763203,0.0-19.0-1.16,28980,List2B,white,woman,,,,null,,,,
null,are fighting each other,,html-keyboard-response,411,1765207,0.0-19.0-2.16,28980,List2B,white,woman,,,,null,,,,
10893,,,survey-text,412,1776104,0.0-19.0-3.16,28980,List2B,white,woman,,,,,"{""Q0"":""Beth and Fred are fighting each other ""}","<img src=""stim_listB/fight4.gif""style=""height:400px;""></stim_listB>",are fighting each other,
null,"<div style=""font-size:60px;"">+</div>",,html-keyboard-response,413,1776609,0.0-19.0-0.17,28980,List2B,white,woman,,,,null,,,,
null,"<img src=""stim_listB/dance2.gif""style=""height:400px;""></stim_listB>",,html-keyboard-response,414,1778614,0.0-19.0-1.17,28980,List2B,white,woman,,,,null,,,,
null,are dancing with each other,,html-keyboard-response,415,1780619,0.0-19.0-2.17,28980,List2B,white,woman,,,,null,,,,
16077,,,survey-text,416,1796700,0.0-19.0-3.17,28980,List2B,white,woman,,,,,"{""Q0"":""Ruth and Dave are dancing with each other ""}","<img src=""stim_listB/dance2.gif""style=""height:400px;""></stim_listB>",are dancing with each other,
null,"<div style=""font-size:60px;"">+</div>",,html-keyboard-response,417,1797203,0.0-19.0-0.18,28980,List2B,white,woman,,,,null,,,,
null,"<img src=""stim_listB/talk6.gif""style=""height:400px;""></stim_listB>",,html-keyboard-response,418,1799207,0.0-19.0-1.18,28980,List2B,white,woman,,,,null,,,,
null,are talking to each other,,html-keyboard-response,419,1801212,0.0-19.0-2.18,28980,List2B,white,woman,,,,null,,,,
15693,,,survey-text,420,1816909,0.0-19.0-3.18,28980,List2B,white,woman,,,,,"{""Q0"":""Fred and Dave are taking to each other ""}","<img src=""stim_listB/talk6.gif""style=""height:400px;""></stim_listB>",are talking to each other,
null,"<div style=""font-size:60px;"">+</div>",,html-keyboard-response,421,1817412,0.0-19.0-0.19,28980,List2B,white,woman,,,,null,,,,
null,"<img src=""stim_listB/flirt5.gif""style=""height:400px;""></stim_listB>",,html-keyboard-response,422,1819417,0.0-19.0-1.19,28980,List2B,white,woman,,,,null,,,,
null,is flirting with,,html-keyboard-response,423,1821421,0.0-19.0-2.19,28980,List2B,white,woman,,,,null,,,,
8865,,,survey-text,424,1830296,0.0-19.0-3.19,28980,List2B,white,woman,,,,,"{""Q0"":""Luke is flirting with mike ""}","<img src=""stim_listB/flirt5.gif""style=""height:400px;""></stim_listB>",is flirting with,
2639,<p>Thank you for completing that task.</p><p>The final part of this session is a short questionnaire.</p><p>Press Continue.</p>,0,html-button-response,425,1832940,0.0-20.0,28980,List2B,white,woman,,,,,,,,
23921,,,survey-text,426,1857867,0.0-21.0,28980,List2B,white,woman,,,,,"{""Q0"":""28 "",""Q1"":""English "",""Q2"":""English "",""Q3"":""UK "",""Q4"":""White "",""Q5"":""Female ""}",,,demographics
12858,,,survey-likert,427,1870738,0.0-22.0,28980,List2B,white,woman,,,,,"{""Q0"":4}",,,likert_ESS
9246,,,survey-likert,428,1879990,0.0-23.0,28980,List2B,white,woman,,,,,"{""Q0"":4}",,,likert_NSSAL_Q1
5259,,,survey-likert,429,1885253,0.0-24.0,28980,List2B,white,woman,,,,,"{""Q0"":4}",,,likert_NSSAL_Q2
6636,,,survey-likert,430,1891893,0.0-25.0,28980,List2B,white,woman,,,,,"{""Q0"":4}",,,likert_CGRS_Q1
3873,,,survey-likert,431,1895771,0.0-26.0,28980,List2B,white,woman,,,,,"{""Q0"":4}",,,likert_CGRS_Q2
6332,,,survey-likert,432,1902114,0.0-27.0,28980,List2B,white,woman,,,,,"{""Q0"":4}",,,likert_CGRS_Q3
7069,,,survey-text,433,1909197,0.0-28.0,28980,List2B,white,woman,,,,,"{""Q0"":""ccc""}",,,worker_id
18080,,,external-html,434,1927436,0.0-29.0,28980,List2B,white,woman,debrief.html,,,,,,,
