rt,stimulus,button_pressed,trial_type,trial_index,time_elapsed,internal_node_id,subject,list,ppt_race,ppt_gender,url,first_guess,correct,key_press,responses,image_type,phrase_type,test_part
1518,Welcome to the experiment. Press Continue to begin.,0,html-button-response,0,1522,0.0-0.0,29046,List2B,white,woman,,,,,,,,
33083,,,external-html,1,35767,0.0-1.0,29046,List2B,white,woman,consent.html,,,,,,,
8370,"<p>On the next page, you will see portraits of 8 people and their names.</p><p>Your first task is to take a few minutes to memorise the names of these people.</p><p>You will have to recall their names during the rest of the experiment, so it is</p><p>essential that you try to memorise these people and their names as best as you can.</p><br><p><strong>You will then be tested on your memory of these names and portraits.</strong></p><br><p>The experiment will start after you have completed this memory test.</p><br><p>Ready?</p>",0,html-button-response,2,44141,0.0-2.0,29046,List2B,white,woman,,,,,,,,
124810,"<img src='img/portrait_matrix_list2.jpg' style='width:900px;height:500px;''></img><p>If you have memorised all the portraits and names and are ready to start, press Continue.</p><p><strong>Please note: Your memory of these faces will be tested 4 times during this experiment.</strong></p>",0,html-button-response,3,169960,0.0-3.0-0.0,29046,List2B,white,woman,,,,,,,,
2953,"<img src=""portrait/WM1.jpg""style=""height:400px;""></img>",6,html-button-response,4,173927,0.0-3.0-1.0,29046,List2B,white,woman,,TRUE,6,,,,,
null,CORRECT,,html-keyboard-response,5,175441,0.0-3.0-2.0-0.0,29046,List2B,white,woman,,,,null,,,,
5598,"<img src=""portrait/WW2.jpg""style=""height:400px;""></img>",3,html-button-response,6,181043,0.0-3.0-4.0,29046,List2B,white,woman,,TRUE,3,,,,,
null,CORRECT,,html-keyboard-response,7,182571,0.0-3.0-5.0-0.0,29046,List2B,white,woman,,,,null,,,,
3417,"<img src=""portrait/WM2.jpg""style=""height:400px;""></img>",7,html-button-response,8,185990,0.0-3.0-7.0,29046,List2B,white,woman,,TRUE,7,,,,,
null,CORRECT,,html-keyboard-response,9,187503,0.0-3.0-8.0-0.0,29046,List2B,white,woman,,,,null,,,,
6320,"<img src=""portrait/BW1.jpg""style=""height:400px;""></img>",0,html-button-response,10,193825,0.0-3.0-10.0,29046,List2B,white,woman,,TRUE,0,,,,,
null,CORRECT,,html-keyboard-response,11,195333,0.0-3.0-11.0-0.0,29046,List2B,white,woman,,,,null,,,,
3158,"<img src=""portrait/BW2.jpg""style=""height:400px;""></img>",2,html-button-response,12,198494,0.0-3.0-13.0,29046,List2B,white,woman,,TRUE,2,,,,,
null,CORRECT,,html-keyboard-response,13,200012,0.0-3.0-14.0-0.0,29046,List2B,white,woman,,,,null,,,,
2471,"<img src=""portrait/BM2.jpg""style=""height:400px;""></img>",5,html-button-response,14,202486,0.0-3.0-16.0,29046,List2B,white,woman,,TRUE,5,,,,,
null,CORRECT,,html-keyboard-response,15,204011,0.0-3.0-17.0-0.0,29046,List2B,white,woman,,,,null,,,,
3995,"<img src=""portrait/BM1.jpg""style=""height:400px;""></img>",4,html-button-response,16,208008,0.0-3.0-19.0,29046,List2B,white,woman,,TRUE,4,,,,,
null,CORRECT,,html-keyboard-response,17,209515,0.0-3.0-20.0-0.0,29046,List2B,white,woman,,,,null,,,,
3480,"<img src=""portrait/WW1.jpg""style=""height:400px;""></img>",1,html-button-response,18,212999,0.0-3.0-22.0,29046,List2B,white,woman,,TRUE,1,,,,,
null,CORRECT,,html-keyboard-response,19,214511,0.0-3.0-23.0-0.0,29046,List2B,white,woman,,,,null,,,,
1402,<p>You got 8 out of 8 right first time. Press Continue.</p>,0,html-button-response,20,215916,0.0-3.0-25.0,29046,List2B,white,woman,,,,,,,,
21896,"<p>In this experiment, you will view photographs of the people from the memory game interacting.</p><p>By using the <strong>exact</strong> phrase given <i>after</i> the photograph appears and recalling the correct names of the people in the photographs, form a sentence describing the interaction. You do not need to capitalise names.</p><p>Type your answer in the space provided. Please complete every sentence before moving onto the next trial.</p><p>You will only have a few seconds to memorise each given photograph and phrase before you can respond, so try your best to focus.</p><p>An example is given below. Press 'Continue' when you are ready.</p><img src='img/speaking_example.jpg' style='width:800px;height:460px;''></img>",0,html-button-response,21,238825,0.0-4.0,29046,List2B,white,woman,,,,,,,,
1757,"<p>Before the experiment starts, you will watch two example trials. Press 'Continue'.</p>",0,html-button-response,22,241592,0.0-5.0,29046,List2B,white,woman,,,,,,,,
null,<img src='img/meet_eg.gif' style='height:400px;''></img>,,html-keyboard-response,23,244607,0.0-6.0,29046,List2B,white,woman,,,,null,,,,
null,<p>is meeting</p>,,html-keyboard-response,24,246616,0.0-7.0,29046,List2B,white,woman,,,,null,,,,
2958,<p><b>Answer:</b> jane is meeting ruth</p>,0,html-button-response,25,249576,0.0-8.0,29046,List2B,white,woman,,,,,,,,
null,<img src='img/look_eg.gif' style='height:400px;''></img>,,html-keyboard-response,26,252587,0.0-9.0,29046,List2B,white,woman,,,,null,,,,
null,<p>are looking at each other</p>,,html-keyboard-response,27,254593,0.0-10.0,29046,List2B,white,woman,,,,null,,,,
2363,<p><b>Answer:</b> fred and mike are looking at each other</p>,0,html-button-response,28,256958,0.0-11.0,29046,List2B,white,woman,,,,,,,,
7013,"<p>Ready to start the experiment?</p><br><p><strong>Remember to describe the picture using a full sentence,</strong></p><p><strong>that combines the names of the people with the <i>exact</i> phrase given.</strong></p><p><strong>To receive full payment you must do this correctly.</strong></p><p><strong> You do not need to capitalise names or use punctuation.</strong></p><br><p>Press 'Continue' to begin.</p>",0,html-button-response,29,264974,0.0-12.0,29046,List2B,white,woman,,,,,,,,
null,"<div style=""font-size:60px;"">+</div>",,html-keyboard-response,30,266483,0.0-13.0-0.0,29046,List2B,white,woman,,,,null,,,,
null,"<img src=""stim_listB/shout1.gif""style=""height:400px;""></stim_listB>",,html-keyboard-response,31,268488,0.0-13.0-1.0,29046,List2B,white,woman,,,,null,,,,
null,is shouting at,,html-keyboard-response,32,270492,0.0-13.0-2.0,29046,List2B,white,woman,,,,null,,,,
10472,,,survey-text,33,280967,0.0-13.0-3.0,29046,List2B,white,woman,,,,,"{""Q0"":""luke is shouting at ruth""}","<img src=""stim_listB/shout1.gif""style=""height:400px;""></stim_listB>",is shouting at,
null,"<div style=""font-size:60px;"">+</div>",,html-keyboard-response,34,281478,0.0-13.0-0.1,29046,List2B,white,woman,,,,null,,,,
null,"<img src=""stim_listB/marry6.gif""style=""height:400px;""></stim_listB>",,html-keyboard-response,35,283482,0.0-13.0-1.1,29046,List2B,white,woman,,,,null,,,,
null,are marrying each other,,html-keyboard-response,36,285494,0.0-13.0-2.1,29046,List2B,white,woman,,,,null,,,,
11070,,,survey-text,37,296566,0.0-13.0-3.1,29046,List2B,white,woman,,,,,"{""Q0"":""luke and mike are marrying each other""}","<img src=""stim_listB/marry6.gif""style=""height:400px;""></stim_listB>",are marrying each other,
null,"<div style=""font-size:60px;"">+</div>",,html-keyboard-response,38,297077,0.0-13.0-0.2,29046,List2B,white,woman,,,,null,,,,
null,"<img src=""stim_listB/play5.gif""style=""height:400px;""></stim_listB>",,html-keyboard-response,39,299081,0.0-13.0-1.2,29046,List2B,white,woman,,,,null,,,,
null,is playing with,,html-keyboard-response,40,301089,0.0-13.0-2.2,29046,List2B,white,woman,,,,null,,,,
5442,,,survey-text,41,306533,0.0-13.0-3.2,29046,List2B,white,woman,,,,,"{""Q0"":""mark is playing with dave""}","<img src=""stim_listB/play5.gif""style=""height:400px;""></stim_listB>",is playing with,
null,"<div style=""font-size:60px;"">+</div>",,html-keyboard-response,42,307040,0.0-13.0-0.3,29046,List2B,white,woman,,,,null,,,,
null,"<img src=""stim_listB/flirt7.gif""style=""height:400px;""></stim_listB>",,html-keyboard-response,43,309045,0.0-13.0-1.3,29046,List2B,white,woman,,,,null,,,,
null,is flirting with,,html-keyboard-response,44,311048,0.0-13.0-2.3,29046,List2B,white,woman,,,,null,,,,
5980,,,survey-text,45,317030,0.0-13.0-3.3,29046,List2B,white,woman,,,,,"{""Q0"":""kate is flirting with ruth""}","<img src=""stim_listB/flirt7.gif""style=""height:400px;""></stim_listB>",is flirting with,
null,"<div style=""font-size:60px;"">+</div>",,html-keyboard-response,46,317537,0.0-13.0-0.4,29046,List2B,white,woman,,,,null,,,,
null,"<img src=""stim_listB/kiss1.gif""style=""height:400px;""></stim_listB>",,html-keyboard-response,47,319540,0.0-13.0-1.4,29046,List2B,white,woman,,,,null,,,,
null,is kissing,,html-keyboard-response,48,321554,0.0-13.0-2.4,29046,List2B,white,woman,,,,null,,,,
7700,,,survey-text,49,329256,0.0-13.0-3.4,29046,List2B,white,woman,,,,,"{""Q0"":""luke is kissing ruth""}","<img src=""stim_listB/kiss1.gif""style=""height:400px;""></stim_listB>",is kissing,
null,"<div style=""font-size:60px;"">+</div>",,html-keyboard-response,50,329769,0.0-13.0-0.5,29046,List2B,white,woman,,,,null,,,,
null,"<img src=""stim_listB/argue5.gif""style=""height:400px;""></stim_listB>",,html-keyboard-response,51,331772,0.0-13.0-1.5,29046,List2B,white,woman,,,,null,,,,
null,is arguing with,,html-keyboard-response,52,333788,0.0-13.0-2.5,29046,List2B,white,woman,,,,null,,,,
6883,,,survey-text,53,340673,0.0-13.0-3.5,29046,List2B,white,woman,,,,,"{""Q0"":""fred is meeting dave""}","<img src=""stim_listB/argue5.gif""style=""height:400px;""></stim_listB>",is arguing with,
null,"<div style=""font-size:60px;"">+</div>",,html-keyboard-response,54,341181,0.0-13.0-0.6,29046,List2B,white,woman,,,,null,,,,
null,"<img src=""stim_listB/dance2.gif""style=""height:400px;""></stim_listB>",,html-keyboard-response,55,343185,0.0-13.0-1.6,29046,List2B,white,woman,,,,null,,,,
null,are dancing with each other,,html-keyboard-response,56,345191,0.0-13.0-2.6,29046,List2B,white,woman,,,,null,,,,
10027,,,survey-text,57,355221,0.0-13.0-3.6,29046,List2B,white,woman,,,,,"{""Q0"":""ruth and dave are dancing with each other""}","<img src=""stim_listB/dance2.gif""style=""height:400px;""></stim_listB>",are dancing with each other,
null,"<div style=""font-size:60px;"">+</div>",,html-keyboard-response,58,355729,0.0-13.0-0.7,29046,List2B,white,woman,,,,null,,,,
null,"<img src=""stim_listB/flirt8.gif""style=""height:400px;""></stim_listB>",,html-keyboard-response,59,357733,0.0-13.0-1.7,29046,List2B,white,woman,,,,null,,,,
null,are flirting with each other,,html-keyboard-response,60,359739,0.0-13.0-2.7,29046,List2B,white,woman,,,,null,,,,
19905,,,survey-text,61,379646,0.0-13.0-3.7,29046,List2B,white,woman,,,,,"{""Q0"":""kate and jane are flirting with each other""}","<img src=""stim_listB/flirt8.gif""style=""height:400px;""></stim_listB>",are flirting with each other,
null,"<div style=""font-size:60px;"">+</div>",,html-keyboard-response,62,380149,0.0-13.0-0.8,29046,List2B,white,woman,,,,null,,,,
null,"<img src=""stim_listB/fight1.gif""style=""height:400px;""></stim_listB>",,html-keyboard-response,63,382153,0.0-13.0-1.8,29046,List2B,white,woman,,,,null,,,,
null,is fighting,,html-keyboard-response,64,384155,0.0-13.0-2.8,29046,List2B,white,woman,,,,null,,,,
11437,,,survey-text,65,395594,0.0-13.0-3.8,29046,List2B,white,woman,,,,,"{""Q0"":""jane is fighting with dave""}","<img src=""stim_listB/fight1.gif""style=""height:400px;""></stim_listB>",is fighting,
null,"<div style=""font-size:60px;"">+</div>",,html-keyboard-response,66,396103,0.0-13.0-0.9,29046,List2B,white,woman,,,,null,,,,
null,"<img src=""stim_listB/play2.gif""style=""height:400px;""></stim_listB>",,html-keyboard-response,67,398108,0.0-13.0-1.9,29046,List2B,white,woman,,,,null,,,,
null,are playing with each other,,html-keyboard-response,68,400110,0.0-13.0-2.9,29046,List2B,white,woman,,,,null,,,,
7544,,,survey-text,69,407656,0.0-13.0-3.9,29046,List2B,white,woman,,,,,"{""Q0"":""luke and ruth are playing with eachother""}","<img src=""stim_listB/play2.gif""style=""height:400px;""></stim_listB>",are playing with each other,
null,"<div style=""font-size:60px;"">+</div>",,html-keyboard-response,70,408163,0.0-13.0-0.10,29046,List2B,white,woman,,,,null,,,,
null,"<img src=""stim_listB/argue2.gif""style=""height:400px;""></stim_listB>",,html-keyboard-response,71,410167,0.0-13.0-1.10,29046,List2B,white,woman,,,,null,,,,
null,are arguing with each other,,html-keyboard-response,72,412171,0.0-13.0-2.10,29046,List2B,white,woman,,,,null,,,,
12363,,,survey-text,73,424536,0.0-13.0-3.10,29046,List2B,white,woman,,,,,"{""Q0"":""luke and jane are arguing with each other""}","<img src=""stim_listB/argue2.gif""style=""height:400px;""></stim_listB>",are arguing with each other,
null,"<div style=""font-size:60px;"">+</div>",,html-keyboard-response,74,425045,0.0-13.0-0.11,29046,List2B,white,woman,,,,null,,,,
null,"<img src=""stim_listB/shout6.gif""style=""height:400px;""></stim_listB>",,html-keyboard-response,75,427048,0.0-13.0-1.11,29046,List2B,white,woman,,,,null,,,,
null,are shouting at each other,,html-keyboard-response,76,429054,0.0-13.0-2.11,29046,List2B,white,woman,,,,null,,,,
7890,,,survey-text,77,436946,0.0-13.0-3.11,29046,List2B,white,woman,,,,,"{""Q0"":""mike and dave are shouting at each other""}","<img src=""stim_listB/shout6.gif""style=""height:400px;""></stim_listB>",are shouting at each other,
null,"<div style=""font-size:60px;"">+</div>",,html-keyboard-response,78,437457,0.0-13.0-0.12,29046,List2B,white,woman,,,,null,,,,
null,"<img src=""stim_listB/touch8.gif""style=""height:400px;""></stim_listB>",,html-keyboard-response,79,439461,0.0-13.0-1.12,29046,List2B,white,woman,,,,null,,,,
null,are touching each other,,html-keyboard-response,80,441464,0.0-13.0-2.12,29046,List2B,white,woman,,,,null,,,,
9994,,,survey-text,81,451459,0.0-13.0-3.12,29046,List2B,white,woman,,,,,"{""Q0"":""ruth and beth are touching each other""}","<img src=""stim_listB/touch8.gif""style=""height:400px;""></stim_listB>",are touching each other,
null,"<div style=""font-size:60px;"">+</div>",,html-keyboard-response,82,451971,0.0-13.0-0.13,29046,List2B,white,woman,,,,null,,,,
null,"<img src=""stim_listB/play1.gif""style=""height:400px;""></stim_listB>",,html-keyboard-response,83,453975,0.0-13.0-1.13,29046,List2B,white,woman,,,,null,,,,
null,is playing with,,html-keyboard-response,84,455982,0.0-13.0-2.13,29046,List2B,white,woman,,,,null,,,,
5905,,,survey-text,85,461889,0.0-13.0-3.13,29046,List2B,white,woman,,,,,"{""Q0"":""jane is playing with dave""}","<img src=""stim_listB/play1.gif""style=""height:400px;""></stim_listB>",is playing with,
null,"<div style=""font-size:60px;"">+</div>",,html-keyboard-response,86,462401,0.0-13.0-0.14,29046,List2B,white,woman,,,,null,,,,
null,"<img src=""stim_listB/touch2.gif""style=""height:400px;""></stim_listB>",,html-keyboard-response,87,464404,0.0-13.0-1.14,29046,List2B,white,woman,,,,null,,,,
null,are touching each other,,html-keyboard-response,88,466411,0.0-13.0-2.14,29046,List2B,white,woman,,,,null,,,,
8047,,,survey-text,89,474460,0.0-13.0-3.14,29046,List2B,white,woman,,,,,"{""Q0"":""luke and ruth are touching each other""}","<img src=""stim_listB/touch2.gif""style=""height:400px;""></stim_listB>",are touching each other,
null,"<div style=""font-size:60px;"">+</div>",,html-keyboard-response,90,474968,0.0-13.0-0.15,29046,List2B,white,woman,,,,null,,,,
null,"<img src=""stim_listB/argue3.gif""style=""height:400px;""></stim_listB>",,html-keyboard-response,91,476971,0.0-13.0-1.15,29046,List2B,white,woman,,,,null,,,,
null,is arguing with,,html-keyboard-response,92,478978,0.0-13.0-2.15,29046,List2B,white,woman,,,,null,,,,
5460,,,survey-text,93,484440,0.0-13.0-3.15,29046,List2B,white,woman,,,,,"{""Q0"":""mike is arguing with beth""}","<img src=""stim_listB/argue3.gif""style=""height:400px;""></stim_listB>",is arguing with,
null,"<div style=""font-size:60px;"">+</div>",,html-keyboard-response,94,484950,0.0-13.0-0.16,29046,List2B,white,woman,,,,null,,,,
null,"<img src=""stim_listB/marry3.gif""style=""height:400px;""></stim_listB>",,html-keyboard-response,95,486953,0.0-13.0-1.16,29046,List2B,white,woman,,,,null,,,,
null,is marrying,,html-keyboard-response,96,488962,0.0-13.0-2.16,29046,List2B,white,woman,,,,null,,,,
6457,,,survey-text,97,495421,0.0-13.0-3.16,29046,List2B,white,woman,,,,,"{""Q0"":""mike is marrying beth""}","<img src=""stim_listB/marry3.gif""style=""height:400px;""></stim_listB>",is marrying,
null,"<div style=""font-size:60px;"">+</div>",,html-keyboard-response,98,495930,0.0-13.0-0.17,29046,List2B,white,woman,,,,null,,,,
null,"<img src=""stim_listB/play6.gif""style=""height:400px;""></stim_listB>",,html-keyboard-response,99,497932,0.0-13.0-1.17,29046,List2B,white,woman,,,,null,,,,
null,are playing with each other,,html-keyboard-response,100,499933,0.0-13.0-2.17,29046,List2B,white,woman,,,,null,,,,
7967,,,survey-text,101,507901,0.0-13.0-3.17,29046,List2B,white,woman,,,,,"{""Q0"":""fred and luke are playing with each other""}","<img src=""stim_listB/play6.gif""style=""height:400px;""></stim_listB>",are playing with each other,
null,"<div style=""font-size:60px;"">+</div>",,html-keyboard-response,102,508410,0.0-13.0-0.18,29046,List2B,white,woman,,,,null,,,,
null,"<img src=""stim_listB/argue6.gif""style=""height:400px;""></stim_listB>",,html-keyboard-response,103,510414,0.0-13.0-1.18,29046,List2B,white,woman,,,,null,,,,
null,are arguing with each other,,html-keyboard-response,104,512423,0.0-13.0-2.18,29046,List2B,white,woman,,,,null,,,,
8571,,,survey-text,105,520996,0.0-13.0-3.18,29046,List2B,white,woman,,,,,"{""Q0"":""mike and luke are arguing with each other""}","<img src=""stim_listB/argue6.gif""style=""height:400px;""></stim_listB>",are arguing with each other,
null,"<div style=""font-size:60px;"">+</div>",,html-keyboard-response,106,521499,0.0-13.0-0.19,29046,List2B,white,woman,,,,null,,,,
null,"<img src=""stim_listB/kiss6.gif""style=""height:400px;""></stim_listB>",,html-keyboard-response,107,523502,0.0-13.0-1.19,29046,List2B,white,woman,,,,null,,,,
null,are kissing each other,,html-keyboard-response,108,525504,0.0-13.0-2.19,29046,List2B,white,woman,,,,null,,,,
7075,,,survey-text,109,532580,0.0-13.0-3.19,29046,List2B,white,woman,,,,,"{""Q0"":""mike and dave are kissing each other""}","<img src=""stim_listB/kiss6.gif""style=""height:400px;""></stim_listB>",are kissing each other,
9879,"<img src='img/portrait_matrix_list2.jpg' style='width:900px;height:500px;''></img><p>If you have memorised all the portraits and names and are ready to start, press Continue.</p><p><strong>Please note: Your memory of these faces will be tested 4 times during this experiment.</strong></p>",0,html-button-response,110,542462,0.0-14.0-0.0,29046,List2B,white,woman,,,,,,,,
4020,"<img src=""portrait/BW1.jpg""style=""height:400px;""></img>",0,html-button-response,111,547494,0.0-14.0-1.0,29046,List2B,white,woman,,TRUE,0,,,,,
null,CORRECT,,html-keyboard-response,112,549021,0.0-14.0-2.0-0.0,29046,List2B,white,woman,,,,null,,,,
2287,"<img src=""portrait/WW1.jpg""style=""height:400px;""></img>",1,html-button-response,113,551311,0.0-14.0-4.0,29046,List2B,white,woman,,TRUE,1,,,,,
null,CORRECT,,html-keyboard-response,114,552814,0.0-14.0-5.0-0.0,29046,List2B,white,woman,,,,null,,,,
1694,"<img src=""portrait/WM2.jpg""style=""height:400px;""></img>",7,html-button-response,115,554510,0.0-14.0-7.0,29046,List2B,white,woman,,TRUE,7,,,,,
null,CORRECT,,html-keyboard-response,116,556037,0.0-14.0-8.0-0.0,29046,List2B,white,woman,,,,null,,,,
1568,"<img src=""portrait/WM1.jpg""style=""height:400px;""></img>",6,html-button-response,117,557609,0.0-14.0-10.0,29046,List2B,white,woman,,TRUE,6,,,,,
null,CORRECT,,html-keyboard-response,118,559127,0.0-14.0-11.0-0.0,29046,List2B,white,woman,,,,null,,,,
1329,"<img src=""portrait/BM2.jpg""style=""height:400px;""></img>",5,html-button-response,119,560459,0.0-14.0-13.0,29046,List2B,white,woman,,TRUE,5,,,,,
null,CORRECT,,html-keyboard-response,120,561985,0.0-14.0-14.0-0.0,29046,List2B,white,woman,,,,null,,,,
1860,"<img src=""portrait/BM1.jpg""style=""height:400px;""></img>",4,html-button-response,121,563848,0.0-14.0-16.0,29046,List2B,white,woman,,TRUE,4,,,,,
null,CORRECT,,html-keyboard-response,122,565369,0.0-14.0-17.0-0.0,29046,List2B,white,woman,,,,null,,,,
3250,"<img src=""portrait/BW2.jpg""style=""height:400px;""></img>",2,html-button-response,123,568622,0.0-14.0-19.0,29046,List2B,white,woman,,TRUE,2,,,,,
null,CORRECT,,html-keyboard-response,124,570132,0.0-14.0-20.0-0.0,29046,List2B,white,woman,,,,null,,,,
3782,"<img src=""portrait/WW2.jpg""style=""height:400px;""></img>",3,html-button-response,125,573919,0.0-14.0-22.0,29046,List2B,white,woman,,TRUE,3,,,,,
null,CORRECT,,html-keyboard-response,126,575434,0.0-14.0-23.0-0.0,29046,List2B,white,woman,,,,null,,,,
1682,<p>You got 8 out of 8 right first time. Press Continue.</p>,0,html-button-response,127,577119,0.0-14.0-25.0,29046,List2B,white,woman,,,,,,,,
null,"<div style=""font-size:60px;"">+</div>",,html-keyboard-response,128,578622,0.0-15.0-0.0,29046,List2B,white,woman,,,,null,,,,
null,"<img src=""stim_listB/kiss3.gif""style=""height:400px;""></stim_listB>",,html-keyboard-response,129,580626,0.0-15.0-1.0,29046,List2B,white,woman,,,,null,,,,
null,is kissing,,html-keyboard-response,130,582628,0.0-15.0-2.0,29046,List2B,white,woman,,,,null,,,,
6995,,,survey-text,131,589624,0.0-15.0-3.0,29046,List2B,white,woman,,,,,"{""Q0"":""beth is kissing fred""}","<img src=""stim_listB/kiss3.gif""style=""height:400px;""></stim_listB>",is kissing,
null,"<div style=""font-size:60px;"">+</div>",,html-keyboard-response,132,590136,0.0-15.0-0.1,29046,List2B,white,woman,,,,null,,,,
null,"<img src=""stim_listB/talk3.gif""style=""height:400px;""></stim_listB>",,html-keyboard-response,133,592139,0.0-15.0-1.1,29046,List2B,white,woman,,,,null,,,,
null,is talking to,,html-keyboard-response,134,594145,0.0-15.0-2.1,29046,List2B,white,woman,,,,null,,,,
6179,,,survey-text,135,600325,0.0-15.0-3.1,29046,List2B,white,woman,,,,,"{""Q0"":""fred is talking to kate""}","<img src=""stim_listB/talk3.gif""style=""height:400px;""></stim_listB>",is talking to,
null,"<div style=""font-size:60px;"">+</div>",,html-keyboard-response,136,600828,0.0-15.0-0.2,29046,List2B,white,woman,,,,null,,,,
null,"<img src=""stim_listB/talk4.gif""style=""height:400px;""></stim_listB>",,html-keyboard-response,137,602836,0.0-15.0-1.2,29046,List2B,white,woman,,,,null,,,,
null,are talking to each other,,html-keyboard-response,138,604840,0.0-15.0-2.2,29046,List2B,white,woman,,,,null,,,,
7761,,,survey-text,139,612603,0.0-15.0-3.2,29046,List2B,white,woman,,,,,"{""Q0"":""mike and beth are talking to each other""}","<img src=""stim_listB/talk4.gif""style=""height:400px;""></stim_listB>",are talking to each other,
null,"<div style=""font-size:60px;"">+</div>",,html-keyboard-response,140,613117,0.0-15.0-0.3,29046,List2B,white,woman,,,,null,,,,
null,"<img src=""stim_listB/talk6.gif""style=""height:400px;""></stim_listB>",,html-keyboard-response,141,615121,0.0-15.0-1.3,29046,List2B,white,woman,,,,null,,,,
null,are talking to each other,,html-keyboard-response,142,617124,0.0-15.0-2.3,29046,List2B,white,woman,,,,null,,,,
10722,,,survey-text,143,627848,0.0-15.0-3.3,29046,List2B,white,woman,,,,,"{""Q0"":""fred and dave are talking to each other""}","<img src=""stim_listB/talk6.gif""style=""height:400px;""></stim_listB>",are talking to each other,
null,"<div style=""font-size:60px;"">+</div>",,html-keyboard-response,144,628360,0.0-15.0-0.4,29046,List2B,white,woman,,,,null,,,,
null,"<img src=""stim_listB/fight2.gif""style=""height:400px;""></stim_listB>",,html-keyboard-response,145,630365,0.0-15.0-1.4,29046,List2B,white,woman,,,,null,,,,
null,are fighting each other,,html-keyboard-response,146,632372,0.0-15.0-2.4,29046,List2B,white,woman,,,,null,,,,
6906,,,survey-text,147,639280,0.0-15.0-3.4,29046,List2B,white,woman,,,,,"{""Q0"":""luke and ruth are fighting each other""}","<img src=""stim_listB/fight2.gif""style=""height:400px;""></stim_listB>",are fighting each other,
null,"<div style=""font-size:60px;"">+</div>",,html-keyboard-response,148,639790,0.0-15.0-0.5,29046,List2B,white,woman,,,,null,,,,
null,"<img src=""stim_listB/dance7.gif""style=""height:400px;""></stim_listB>",,html-keyboard-response,149,641793,0.0-15.0-1.5,29046,List2B,white,woman,,,,null,,,,
null,is dancing with,,html-keyboard-response,150,643802,0.0-15.0-2.5,29046,List2B,white,woman,,,,null,,,,
6743,,,survey-text,151,650547,0.0-15.0-3.5,29046,List2B,white,woman,,,,,"{""Q0"":""kate is dancing with ruth""}","<img src=""stim_listB/dance7.gif""style=""height:400px;""></stim_listB>",is dancing with,
null,"<div style=""font-size:60px;"">+</div>",,html-keyboard-response,152,651055,0.0-15.0-0.6,29046,List2B,white,woman,,,,null,,,,
null,"<img src=""stim_listB/shout5.gif""style=""height:400px;""></stim_listB>",,html-keyboard-response,153,653059,0.0-15.0-1.6,29046,List2B,white,woman,,,,null,,,,
null,is shouting at,,html-keyboard-response,154,655061,0.0-15.0-2.6,29046,List2B,white,woman,,,,null,,,,
8177,,,survey-text,155,663240,0.0-15.0-3.6,29046,List2B,white,woman,,,,,"{""Q0"":""luke is shouting at fred""}","<img src=""stim_listB/shout5.gif""style=""height:400px;""></stim_listB>",is shouting at,
null,"<div style=""font-size:60px;"">+</div>",,html-keyboard-response,156,663749,0.0-15.0-0.7,29046,List2B,white,woman,,,,null,,,,
null,"<img src=""stim_listB/kiss4.gif""style=""height:400px;""></stim_listB>",,html-keyboard-response,157,665753,0.0-15.0-1.7,29046,List2B,white,woman,,,,null,,,,
null,are kissing each other,,html-keyboard-response,158,667755,0.0-15.0-2.7,29046,List2B,white,woman,,,,null,,,,
6947,,,survey-text,159,674704,0.0-15.0-3.7,29046,List2B,white,woman,,,,,"{""Q0"":""kate and mike are kissing each other""}","<img src=""stim_listB/kiss4.gif""style=""height:400px;""></stim_listB>",are kissing each other,
null,"<div style=""font-size:60px;"">+</div>",,html-keyboard-response,160,675214,0.0-15.0-0.8,29046,List2B,white,woman,,,,null,,,,
null,"<img src=""stim_listB/shout3.gif""style=""height:400px;""></stim_listB>",,html-keyboard-response,161,677216,0.0-15.0-1.8,29046,List2B,white,woman,,,,null,,,,
null,is shouting at,,html-keyboard-response,162,679219,0.0-15.0-2.8,29046,List2B,white,woman,,,,null,,,,
5948,,,survey-text,163,685168,0.0-15.0-3.8,29046,List2B,white,woman,,,,,"{""Q0"":""beth is shouting at fred""}","<img src=""stim_listB/shout3.gif""style=""height:400px;""></stim_listB>",is shouting at,
null,"<div style=""font-size:60px;"">+</div>",,html-keyboard-response,164,685677,0.0-15.0-0.9,29046,List2B,white,woman,,,,null,,,,
null,"<img src=""stim_listB/argue1.gif""style=""height:400px;""></stim_listB>",,html-keyboard-response,165,687681,0.0-15.0-1.9,29046,List2B,white,woman,,,,null,,,,
null,is arguing with,,html-keyboard-response,166,689683,0.0-15.0-2.9,29046,List2B,white,woman,,,,null,,,,
5595,,,survey-text,167,695280,0.0-15.0-3.9,29046,List2B,white,woman,,,,,"{""Q0"":""ruth is arguing with dave""}","<img src=""stim_listB/argue1.gif""style=""height:400px;""></stim_listB>",is arguing with,
null,"<div style=""font-size:60px;"">+</div>",,html-keyboard-response,168,695791,0.0-15.0-0.10,29046,List2B,white,woman,,,,null,,,,
null,"<img src=""stim_listB/argue7.gif""style=""height:400px;""></stim_listB>",,html-keyboard-response,169,697794,0.0-15.0-1.10,29046,List2B,white,woman,,,,null,,,,
null,is arguing with,,html-keyboard-response,170,699802,0.0-15.0-2.10,29046,List2B,white,woman,,,,null,,,,
7473,,,survey-text,171,707276,0.0-15.0-3.10,29046,List2B,white,woman,,,,,"{""Q0"":""jane is arguing with beth""}","<img src=""stim_listB/argue7.gif""style=""height:400px;""></stim_listB>",is arguing with,
null,"<div style=""font-size:60px;"">+</div>",,html-keyboard-response,172,707790,0.0-15.0-0.11,29046,List2B,white,woman,,,,null,,,,
null,"<img src=""stim_listB/fight8.gif""style=""height:400px;""></stim_listB>",,html-keyboard-response,173,709794,0.0-15.0-1.11,29046,List2B,white,woman,,,,null,,,,
null,are fighting each other,,html-keyboard-response,174,711797,0.0-15.0-2.11,29046,List2B,white,woman,,,,null,,,,
7030,,,survey-text,175,718829,0.0-15.0-3.11,29046,List2B,white,woman,,,,,"{""Q0"":""beth and ruth are fighting each other""}","<img src=""stim_listB/fight8.gif""style=""height:400px;""></stim_listB>",are fighting each other,
null,"<div style=""font-size:60px;"">+</div>",,html-keyboard-response,176,719337,0.0-15.0-0.12,29046,List2B,white,woman,,,,null,,,,
null,"<img src=""stim_listB/flirt1.gif""style=""height:400px;""></stim_listB>",,html-keyboard-response,177,721340,0.0-15.0-1.12,29046,List2B,white,woman,,,,null,,,,
null,is flirting with,,html-keyboard-response,178,723342,0.0-15.0-2.12,29046,List2B,white,woman,,,,null,,,,
6564,,,survey-text,179,729908,0.0-15.0-3.12,29046,List2B,white,woman,,,,,"{""Q0"":""jane is flirting with luke""}","<img src=""stim_listB/flirt1.gif""style=""height:400px;""></stim_listB>",is flirting with,
null,"<div style=""font-size:60px;"">+</div>",,html-keyboard-response,180,730419,0.0-15.0-0.13,29046,List2B,white,woman,,,,null,,,,
null,"<img src=""stim_listB/talk1.gif""style=""height:400px;""></stim_listB>",,html-keyboard-response,181,732428,0.0-15.0-1.13,29046,List2B,white,woman,,,,null,,,,
null,is talking to,,html-keyboard-response,182,734430,0.0-15.0-2.13,29046,List2B,white,woman,,,,null,,,,
5606,,,survey-text,183,740038,0.0-15.0-3.13,29046,List2B,white,woman,,,,,"{""Q0"":""jane is talking to luke""}","<img src=""stim_listB/talk1.gif""style=""height:400px;""></stim_listB>",is talking to,
null,"<div style=""font-size:60px;"">+</div>",,html-keyboard-response,184,740550,0.0-15.0-0.14,29046,List2B,white,woman,,,,null,,,,
null,"<img src=""stim_listB/argue4.gif""style=""height:400px;""></stim_listB>",,html-keyboard-response,185,742554,0.0-15.0-1.14,29046,List2B,white,woman,,,,null,,,,
null,are arguing with each other,,html-keyboard-response,186,744561,0.0-15.0-2.14,29046,List2B,white,woman,,,,null,,,,
8841,,,survey-text,187,753404,0.0-15.0-3.14,29046,List2B,white,woman,,,,,"{""Q0"":""fred and kate are arguing with each other""}","<img src=""stim_listB/argue4.gif""style=""height:400px;""></stim_listB>",are arguing with each other,
null,"<div style=""font-size:60px;"">+</div>",,html-keyboard-response,188,753909,0.0-15.0-0.15,29046,List2B,white,woman,,,,null,,,,
null,"<img src=""stim_listB/marry1.gif""style=""height:400px;""></stim_listB>",,html-keyboard-response,189,755912,0.0-15.0-1.15,29046,List2B,white,woman,,,,null,,,,
null,is marrying,,html-keyboard-response,190,757926,0.0-15.0-2.15,29046,List2B,white,woman,,,,null,,,,
6106,,,survey-text,191,764033,0.0-15.0-3.15,29046,List2B,white,woman,,,,,"{""Q0"":""ruth is marrying dave""}","<img src=""stim_listB/marry1.gif""style=""height:400px;""></stim_listB>",is marrying,
null,"<div style=""font-size:60px;"">+</div>",,html-keyboard-response,192,764544,0.0-15.0-0.16,29046,List2B,white,woman,,,,null,,,,
null,"<img src=""stim_listB/fight7.gif""style=""height:400px;""></stim_listB>",,html-keyboard-response,193,766548,0.0-15.0-1.16,29046,List2B,white,woman,,,,null,,,,
null,is fighting,,html-keyboard-response,194,768550,0.0-15.0-2.16,29046,List2B,white,woman,,,,null,,,,
5030,,,survey-text,195,773582,0.0-15.0-3.16,29046,List2B,white,woman,,,,,"{""Q0"":""kate is fighting jane""}","<img src=""stim_listB/fight7.gif""style=""height:400px;""></stim_listB>",is fighting,
null,"<div style=""font-size:60px;"">+</div>",,html-keyboard-response,196,774091,0.0-15.0-0.17,29046,List2B,white,woman,,,,null,,,,
null,"<img src=""stim_listB/kiss7.gif""style=""height:400px;""></stim_listB>",,html-keyboard-response,197,776095,0.0-15.0-1.17,29046,List2B,white,woman,,,,null,,,,
null,is kissing,,html-keyboard-response,198,778103,0.0-15.0-2.17,29046,List2B,white,woman,,,,null,,,,
4326,,,survey-text,199,782431,0.0-15.0-3.17,29046,List2B,white,woman,,,,,"{""Q0"":""ruth is kissing beth""}","<img src=""stim_listB/kiss7.gif""style=""height:400px;""></stim_listB>",is kissing,
null,"<div style=""font-size:60px;"">+</div>",,html-keyboard-response,200,782940,0.0-15.0-0.18,29046,List2B,white,woman,,,,null,,,,
null,"<img src=""stim_listB/touch3.gif""style=""height:400px;""></stim_listB>",,html-keyboard-response,201,784943,0.0-15.0-1.18,29046,List2B,white,woman,,,,null,,,,
null,is touching,,html-keyboard-response,202,786951,0.0-15.0-2.18,29046,List2B,white,woman,,,,null,,,,
6722,,,survey-text,203,793675,0.0-15.0-3.18,29046,List2B,white,woman,,,,,"{""Q0"":""mike is touching kate""}","<img src=""stim_listB/touch3.gif""style=""height:400px;""></stim_listB>",is touching,
null,"<div style=""font-size:60px;"">+</div>",,html-keyboard-response,204,794177,0.0-15.0-0.19,29046,List2B,white,woman,,,,null,,,,
null,"<img src=""stim_listB/dance1.gif""style=""height:400px;""></stim_listB>",,html-keyboard-response,205,796178,0.0-15.0-1.19,29046,List2B,white,woman,,,,null,,,,
null,is dancing with,,html-keyboard-response,206,798179,0.0-15.0-2.19,29046,List2B,white,woman,,,,null,,,,
6975,,,survey-text,207,805155,0.0-15.0-3.19,29046,List2B,white,woman,,,,,"{""Q0"":""jane is dancing with luke""}","<img src=""stim_listB/dance1.gif""style=""height:400px;""></stim_listB>",is dancing with,
14161,"<img src='img/portrait_matrix_list2.jpg' style='width:900px;height:500px;''></img><p>If you have memorised all the portraits and names and are ready to start, press Continue.</p><p><strong>Please note: Your memory of these faces will be tested 4 times during this experiment.</strong></p>",0,html-button-response,208,819318,0.0-16.0-0.0,29046,List2B,white,woman,,,,,,,,
1528,"<img src=""portrait/BM2.jpg""style=""height:400px;""></img>",5,html-button-response,209,821853,0.0-16.0-1.0,29046,List2B,white,woman,,TRUE,5,,,,,
null,CORRECT,,html-keyboard-response,210,823366,0.0-16.0-2.0-0.0,29046,List2B,white,woman,,,,null,,,,
1434,"<img src=""portrait/WW2.jpg""style=""height:400px;""></img>",3,html-button-response,211,824802,0.0-16.0-4.0,29046,List2B,white,woman,,TRUE,3,,,,,
null,CORRECT,,html-keyboard-response,212,826318,0.0-16.0-5.0-0.0,29046,List2B,white,woman,,,,null,,,,
1652,"<img src=""portrait/WM2.jpg""style=""height:400px;""></img>",7,html-button-response,213,827972,0.0-16.0-7.0,29046,List2B,white,woman,,TRUE,7,,,,,
null,CORRECT,,html-keyboard-response,214,829494,0.0-16.0-8.0-0.0,29046,List2B,white,woman,,,,null,,,,
1356,"<img src=""portrait/BM1.jpg""style=""height:400px;""></img>",4,html-button-response,215,830853,0.0-16.0-10.0,29046,List2B,white,woman,,TRUE,4,,,,,
null,CORRECT,,html-keyboard-response,216,832364,0.0-16.0-11.0-0.0,29046,List2B,white,woman,,,,null,,,,
3367,"<img src=""portrait/BW1.jpg""style=""height:400px;""></img>",0,html-button-response,217,835734,0.0-16.0-13.0,29046,List2B,white,woman,,TRUE,0,,,,,
null,CORRECT,,html-keyboard-response,218,837245,0.0-16.0-14.0-0.0,29046,List2B,white,woman,,,,null,,,,
1636,"<img src=""portrait/WW1.jpg""style=""height:400px;""></img>",1,html-button-response,219,838884,0.0-16.0-16.0,29046,List2B,white,woman,,TRUE,1,,,,,
null,CORRECT,,html-keyboard-response,220,840396,0.0-16.0-17.0-0.0,29046,List2B,white,woman,,,,null,,,,
1566,"<img src=""portrait/BW2.jpg""style=""height:400px;""></img>",2,html-button-response,221,841964,0.0-16.0-19.0,29046,List2B,white,woman,,TRUE,2,,,,,
null,CORRECT,,html-keyboard-response,222,843490,0.0-16.0-20.0-0.0,29046,List2B,white,woman,,,,null,,,,
2375,"<img src=""portrait/WM1.jpg""style=""height:400px;""></img>",6,html-button-response,223,845868,0.0-16.0-22.0,29046,List2B,white,woman,,TRUE,6,,,,,
null,CORRECT,,html-keyboard-response,224,847374,0.0-16.0-23.0-0.0,29046,List2B,white,woman,,,,null,,,,
1571,<p>You got 8 out of 8 right first time. Press Continue.</p>,0,html-button-response,225,848947,0.0-16.0-25.0,29046,List2B,white,woman,,,,,,,,
null,"<div style=""font-size:60px;"">+</div>",,html-keyboard-response,226,850459,0.0-17.0-0.0,29046,List2B,white,woman,,,,null,,,,
null,"<img src=""stim_listB/kiss5.gif""style=""height:400px;""></stim_listB>",,html-keyboard-response,227,852463,0.0-17.0-1.0,29046,List2B,white,woman,,,,null,,,,
null,is kissing,,html-keyboard-response,228,854466,0.0-17.0-2.0,29046,List2B,white,woman,,,,null,,,,
5307,,,survey-text,229,859775,0.0-17.0-3.0,29046,List2B,white,woman,,,,,"{""Q0"":""fred is kissing luke""}","<img src=""stim_listB/kiss5.gif""style=""height:400px;""></stim_listB>",is kissing,
null,"<div style=""font-size:60px;"">+</div>",,html-keyboard-response,230,860286,0.0-17.0-0.1,29046,List2B,white,woman,,,,null,,,,
null,"<img src=""stim_listB/play3.gif""style=""height:400px;""></stim_listB>",,html-keyboard-response,231,862291,0.0-17.0-1.1,29046,List2B,white,woman,,,,null,,,,
null,is playing with,,html-keyboard-response,232,864298,0.0-17.0-2.1,29046,List2B,white,woman,,,,null,,,,
4807,,,survey-text,233,869107,0.0-17.0-3.1,29046,List2B,white,woman,,,,,"{""Q0"":""kate is playing with mike""}","<img src=""stim_listB/play3.gif""style=""height:400px;""></stim_listB>",is playing with,
null,"<div style=""font-size:60px;"">+</div>",,html-keyboard-response,234,869619,0.0-17.0-0.2,29046,List2B,white,woman,,,,null,,,,
null,"<img src=""stim_listB/touch1.gif""style=""height:400px;""></stim_listB>",,html-keyboard-response,235,871622,0.0-17.0-1.2,29046,List2B,white,woman,,,,null,,,,
null,is touching,,html-keyboard-response,236,873630,0.0-17.0-2.2,29046,List2B,white,woman,,,,null,,,,
5637,,,survey-text,237,879269,0.0-17.0-3.2,29046,List2B,white,woman,,,,,"{""Q0"":""jane is touching dave""}","<img src=""stim_listB/touch1.gif""style=""height:400px;""></stim_listB>",is touching,
null,"<div style=""font-size:60px;"">+</div>",,html-keyboard-response,238,879782,0.0-17.0-0.3,29046,List2B,white,woman,,,,null,,,,
null,"<img src=""stim_listB/marry5.gif""style=""height:400px;""></stim_listB>",,html-keyboard-response,239,881786,0.0-17.0-1.3,29046,List2B,white,woman,,,,null,,,,
null,is marrying,,html-keyboard-response,240,883795,0.0-17.0-2.3,29046,List2B,white,woman,,,,null,,,,
4904,,,survey-text,241,888701,0.0-17.0-3.3,29046,List2B,white,woman,,,,,"{""Q0"":""fred is marrying dave""}","<img src=""stim_listB/marry5.gif""style=""height:400px;""></stim_listB>",is marrying,
null,"<div style=""font-size:60px;"">+</div>",,html-keyboard-response,242,889211,0.0-17.0-0.4,29046,List2B,white,woman,,,,null,,,,
null,"<img src=""stim_listB/touch7.gif""style=""height:400px;""></stim_listB>",,html-keyboard-response,243,891219,0.0-17.0-1.4,29046,List2B,white,woman,,,,null,,,,
null,is touching,,html-keyboard-response,244,893224,0.0-17.0-2.4,29046,List2B,white,woman,,,,null,,,,
6206,,,survey-text,245,899433,0.0-17.0-3.4,29046,List2B,white,woman,,,,,"{""Q0"":""kate is touching jane""}","<img src=""stim_listB/touch7.gif""style=""height:400px;""></stim_listB>",is touching,
null,"<div style=""font-size:60px;"">+</div>",,html-keyboard-response,246,899941,0.0-17.0-0.5,29046,List2B,white,woman,,,,null,,,,
null,"<img src=""stim_listB/dance5.gif""style=""height:400px;""></stim_listB>",,html-keyboard-response,247,901943,0.0-17.0-1.5,29046,List2B,white,woman,,,,null,,,,
null,is dancing with,,html-keyboard-response,248,903950,0.0-17.0-2.5,29046,List2B,white,woman,,,,null,,,,
5984,,,survey-text,249,909936,0.0-17.0-3.5,29046,List2B,white,woman,,,,,"{""Q0"":""mike is dancing with luke""}","<img src=""stim_listB/dance5.gif""style=""height:400px;""></stim_listB>",is dancing with,
null,"<div style=""font-size:60px;"">+</div>",,html-keyboard-response,250,910443,0.0-17.0-0.6,29046,List2B,white,woman,,,,null,,,,
null,"<img src=""stim_listB/shout4.gif""style=""height:400px;""></stim_listB>",,html-keyboard-response,251,912446,0.0-17.0-1.6,29046,List2B,white,woman,,,,null,,,,
null,are shouting at each other,,html-keyboard-response,252,914451,0.0-17.0-2.6,29046,List2B,white,woman,,,,null,,,,
8591,,,survey-text,253,923044,0.0-17.0-3.6,29046,List2B,white,woman,,,,,"{""Q0"":""mike and kate are shouting at each other""}","<img src=""stim_listB/shout4.gif""style=""height:400px;""></stim_listB>",are shouting at each other,
null,"<div style=""font-size:60px;"">+</div>",,html-keyboard-response,254,923551,0.0-17.0-0.7,29046,List2B,white,woman,,,,null,,,,
null,"<img src=""stim_listB/marry8.gif""style=""height:400px;""></stim_listB>",,html-keyboard-response,255,925554,0.0-17.0-1.7,29046,List2B,white,woman,,,,null,,,,
null,are marrying each other,,html-keyboard-response,256,927568,0.0-17.0-2.7,29046,List2B,white,woman,,,,null,,,,
8846,,,survey-text,257,936415,0.0-17.0-3.7,29046,List2B,white,woman,,,,,"{""Q0"":""kate and ruth are marrying each other""}","<img src=""stim_listB/marry8.gif""style=""height:400px;""></stim_listB>",are marrying each other,
null,"<div style=""font-size:60px;"">+</div>",,html-keyboard-response,258,936918,0.0-17.0-0.8,29046,List2B,white,woman,,,,null,,,,
null,"<img src=""stim_listB/marry2.gif""style=""height:400px;""></stim_listB>",,html-keyboard-response,259,938921,0.0-17.0-1.8,29046,List2B,white,woman,,,,null,,,,
null,are marrying each other,,html-keyboard-response,260,940926,0.0-17.0-2.8,29046,List2B,white,woman,,,,null,,,,
7503,,,survey-text,261,948432,0.0-17.0-3.8,29046,List2B,white,woman,,,,,"{""Q0"":""jane and luke are marrying each other""}","<img src=""stim_listB/marry2.gif""style=""height:400px;""></stim_listB>",are marrying each other,
null,"<div style=""font-size:60px;"">+</div>",,html-keyboard-response,262,948946,0.0-17.0-0.9,29046,List2B,white,woman,,,,null,,,,
null,"<img src=""stim_listB/flirt6.gif""style=""height:400px;""></stim_listB>",,html-keyboard-response,263,950950,0.0-17.0-1.9,29046,List2B,white,woman,,,,null,,,,
null,are flirting with each other,,html-keyboard-response,264,952959,0.0-17.0-2.9,29046,List2B,white,woman,,,,null,,,,
9220,,,survey-text,265,962181,0.0-17.0-3.9,29046,List2B,white,woman,,,,,"{""Q0"":""dave and fred are flirting with each other""}","<img src=""stim_listB/flirt6.gif""style=""height:400px;""></stim_listB>",are flirting with each other,
null,"<div style=""font-size:60px;"">+</div>",,html-keyboard-response,266,962692,0.0-17.0-0.10,29046,List2B,white,woman,,,,null,,,,
null,"<img src=""stim_listB/dance4.gif""style=""height:400px;""></stim_listB>",,html-keyboard-response,267,964701,0.0-17.0-1.10,29046,List2B,white,woman,,,,null,,,,
null,are dancing with each other,,html-keyboard-response,268,966704,0.0-17.0-2.10,29046,List2B,white,woman,,,,null,,,,
7240,,,survey-text,269,973946,0.0-17.0-3.10,29046,List2B,white,woman,,,,,"{""Q0"":""mike and beth are dancing with each other""}","<img src=""stim_listB/dance4.gif""style=""height:400px;""></stim_listB>",are dancing with each other,
null,"<div style=""font-size:60px;"">+</div>",,html-keyboard-response,270,974451,0.0-17.0-0.11,29046,List2B,white,woman,,,,null,,,,
null,"<img src=""stim_listB/play4.gif""style=""height:400px;""></stim_listB>",,html-keyboard-response,271,976457,0.0-17.0-1.11,29046,List2B,white,woman,,,,null,,,,
null,are playing with each other,,html-keyboard-response,272,978459,0.0-17.0-2.11,29046,List2B,white,woman,,,,null,,,,
7514,,,survey-text,273,985975,0.0-17.0-3.11,29046,List2B,white,woman,,,,,"{""Q0"":""fred and beth are playing with each other""}","<img src=""stim_listB/play4.gif""style=""height:400px;""></stim_listB>",are playing with each other,
null,"<div style=""font-size:60px;"">+</div>",,html-keyboard-response,274,986487,0.0-17.0-0.12,29046,List2B,white,woman,,,,null,,,,
null,"<img src=""stim_listB/talk8.gif""style=""height:400px;""></stim_listB>",,html-keyboard-response,275,988490,0.0-17.0-1.12,29046,List2B,white,woman,,,,null,,,,
null,are talking to each other,,html-keyboard-response,276,990497,0.0-17.0-2.12,29046,List2B,white,woman,,,,null,,,,
6724,,,survey-text,277,997222,0.0-17.0-3.12,29046,List2B,white,woman,,,,,"{""Q0"":""beth and jane are talking to each other""}","<img src=""stim_listB/talk8.gif""style=""height:400px;""></stim_listB>",are talking to each other,
null,"<div style=""font-size:60px;"">+</div>",,html-keyboard-response,278,997734,0.0-17.0-0.13,29046,List2B,white,woman,,,,null,,,,
null,"<img src=""stim_listB/kiss8.gif""style=""height:400px;""></stim_listB>",,html-keyboard-response,279,999738,0.0-17.0-1.13,29046,List2B,white,woman,,,,null,,,,
null,are kissing each other,,html-keyboard-response,280,1001740,0.0-17.0-2.13,29046,List2B,white,woman,,,,null,,,,
6643,,,survey-text,281,1008385,0.0-17.0-3.13,29046,List2B,white,woman,,,,,"{""Q0"":""jane and kate are kissing each other""}","<img src=""stim_listB/kiss8.gif""style=""height:400px;""></stim_listB>",are kissing each other,
null,"<div style=""font-size:60px;"">+</div>",,html-keyboard-response,282,1008897,0.0-17.0-0.14,29046,List2B,white,woman,,,,null,,,,
null,"<img src=""stim_listB/play7.gif""style=""height:400px;""></stim_listB>",,html-keyboard-response,283,1010904,0.0-17.0-1.14,29046,List2B,white,woman,,,,null,,,,
null,is playing with,,html-keyboard-response,284,1012909,0.0-17.0-2.14,29046,List2B,white,woman,,,,null,,,,
4795,,,survey-text,285,1017706,0.0-17.0-3.14,29046,List2B,white,woman,,,,,"{""Q0"":""kate is playing with jane""}","<img src=""stim_listB/play7.gif""style=""height:400px;""></stim_listB>",is playing with,
null,"<div style=""font-size:60px;"">+</div>",,html-keyboard-response,286,1018216,0.0-17.0-0.15,29046,List2B,white,woman,,,,null,,,,
null,"<img src=""stim_listB/flirt3.gif""style=""height:400px;""></stim_listB>",,html-keyboard-response,287,1020226,0.0-17.0-1.15,29046,List2B,white,woman,,,,null,,,,
null,is flirting with,,html-keyboard-response,288,1022231,0.0-17.0-2.15,29046,List2B,white,woman,,,,null,,,,
5636,,,survey-text,289,1027868,0.0-17.0-3.15,29046,List2B,white,woman,,,,,"{""Q0"":""kate is flirting with fred""}","<img src=""stim_listB/flirt3.gif""style=""height:400px;""></stim_listB>",is flirting with,
null,"<div style=""font-size:60px;"">+</div>",,html-keyboard-response,290,1028380,0.0-17.0-0.16,29046,List2B,white,woman,,,,null,,,,
null,"<img src=""stim_listB/talk2.gif""style=""height:400px;""></stim_listB>",,html-keyboard-response,291,1030384,0.0-17.0-1.16,29046,List2B,white,woman,,,,null,,,,
null,are talking to each other,,html-keyboard-response,292,1032400,0.0-17.0-2.16,29046,List2B,white,woman,,,,null,,,,
6500,,,survey-text,293,1038902,0.0-17.0-3.16,29046,List2B,white,woman,,,,,"{""Q0"":""dave and ruth are talking to each other""}","<img src=""stim_listB/talk2.gif""style=""height:400px;""></stim_listB>",are talking to each other,
null,"<div style=""font-size:60px;"">+</div>",,html-keyboard-response,294,1039407,0.0-17.0-0.17,29046,List2B,white,woman,,,,null,,,,
null,"<img src=""stim_listB/flirt5.gif""style=""height:400px;""></stim_listB>",,html-keyboard-response,295,1041411,0.0-17.0-1.17,29046,List2B,white,woman,,,,null,,,,
null,is flirting with,,html-keyboard-response,296,1043413,0.0-17.0-2.17,29046,List2B,white,woman,,,,null,,,,
8764,,,survey-text,297,1052179,0.0-17.0-3.17,29046,List2B,white,woman,,,,,"{""Q0"":""luke is flirting with mike""}","<img src=""stim_listB/flirt5.gif""style=""height:400px;""></stim_listB>",is flirting with,
null,"<div style=""font-size:60px;"">+</div>",,html-keyboard-response,298,1052683,0.0-17.0-0.18,29046,List2B,white,woman,,,,null,,,,
null,"<img src=""stim_listB/shout7.gif""style=""height:400px;""></stim_listB>",,html-keyboard-response,299,1054687,0.0-17.0-1.18,29046,List2B,white,woman,,,,null,,,,
null,is shouting at,,html-keyboard-response,300,1056702,0.0-17.0-2.18,29046,List2B,white,woman,,,,null,,,,
6009,,,survey-text,301,1062713,0.0-17.0-3.18,29046,List2B,white,woman,,,,,"{""Q0"":""beth is shouting at ruth""}","<img src=""stim_listB/shout7.gif""style=""height:400px;""></stim_listB>",is shouting at,
null,"<div style=""font-size:60px;"">+</div>",,html-keyboard-response,302,1063222,0.0-17.0-0.19,29046,List2B,white,woman,,,,null,,,,
null,"<img src=""stim_listB/touch6.gif""style=""height:400px;""></stim_listB>",,html-keyboard-response,303,1065225,0.0-17.0-1.19,29046,List2B,white,woman,,,,null,,,,
null,are touching each other,,html-keyboard-response,304,1067228,0.0-17.0-2.19,29046,List2B,white,woman,,,,null,,,,
7280,,,survey-text,305,1074509,0.0-17.0-3.19,29046,List2B,white,woman,,,,,"{""Q0"":""luke and fred are touching each other""}","<img src=""stim_listB/touch6.gif""style=""height:400px;""></stim_listB>",are touching each other,
3595,"<img src='img/portrait_matrix_list2.jpg' style='width:900px;height:500px;''></img><p>If you have memorised all the portraits and names and are ready to start, press Continue.</p><p><strong>Please note: Your memory of these faces will be tested 4 times during this experiment.</strong></p>",0,html-button-response,306,1078105,0.0-18.0-0.0,29046,List2B,white,woman,,,,,,,,
1638,"<img src=""portrait/WM2.jpg""style=""height:400px;""></img>",7,html-button-response,307,1080756,0.0-18.0-1.0,29046,List2B,white,woman,,TRUE,7,,,,,
null,CORRECT,,html-keyboard-response,308,1082270,0.0-18.0-2.0-0.0,29046,List2B,white,woman,,,,null,,,,
2081,"<img src=""portrait/WW1.jpg""style=""height:400px;""></img>",1,html-button-response,309,1084354,0.0-18.0-4.0,29046,List2B,white,woman,,TRUE,1,,,,,
null,CORRECT,,html-keyboard-response,310,1085879,0.0-18.0-5.0-0.0,29046,List2B,white,woman,,,,null,,,,
2055,"<img src=""portrait/BW2.jpg""style=""height:400px;""></img>",2,html-button-response,311,1087935,0.0-18.0-7.0,29046,List2B,white,woman,,TRUE,2,,,,,
null,CORRECT,,html-keyboard-response,312,1089463,0.0-18.0-8.0-0.0,29046,List2B,white,woman,,,,null,,,,
1553,"<img src=""portrait/BM1.jpg""style=""height:400px;""></img>",4,html-button-response,313,1091020,0.0-18.0-10.0,29046,List2B,white,woman,,TRUE,4,,,,,
null,CORRECT,,html-keyboard-response,314,1092529,0.0-18.0-11.0-0.0,29046,List2B,white,woman,,,,null,,,,
1870,"<img src=""portrait/WM1.jpg""style=""height:400px;""></img>",6,html-button-response,315,1094401,0.0-18.0-13.0,29046,List2B,white,woman,,TRUE,6,,,,,
null,CORRECT,,html-keyboard-response,316,1095926,0.0-18.0-14.0-0.0,29046,List2B,white,woman,,,,null,,,,
2933,"<img src=""portrait/WW2.jpg""style=""height:400px;""></img>",3,html-button-response,317,1098862,0.0-18.0-16.0,29046,List2B,white,woman,,TRUE,3,,,,,
null,CORRECT,,html-keyboard-response,318,1100378,0.0-18.0-17.0-0.0,29046,List2B,white,woman,,,,null,,,,
1969,"<img src=""portrait/BM2.jpg""style=""height:400px;""></img>",5,html-button-response,319,1102349,0.0-18.0-19.0,29046,List2B,white,woman,,TRUE,5,,,,,
null,CORRECT,,html-keyboard-response,320,1103854,0.0-18.0-20.0-0.0,29046,List2B,white,woman,,,,null,,,,
1842,"<img src=""portrait/BW1.jpg""style=""height:400px;""></img>",0,html-button-response,321,1105698,0.0-18.0-22.0,29046,List2B,white,woman,,TRUE,0,,,,,
null,CORRECT,,html-keyboard-response,322,1107208,0.0-18.0-23.0-0.0,29046,List2B,white,woman,,,,null,,,,
1358,<p>You got 8 out of 8 right first time. Press Continue.</p>,0,html-button-response,323,1108569,0.0-18.0-25.0,29046,List2B,white,woman,,,,,,,,
null,"<div style=""font-size:60px;"">+</div>",,html-keyboard-response,324,1110081,0.0-19.0-0.0,29046,List2B,white,woman,,,,null,,,,
null,"<img src=""stim_listB/touch5.gif""style=""height:400px;""></stim_listB>",,html-keyboard-response,325,1112086,0.0-19.0-1.0,29046,List2B,white,woman,,,,null,,,,
null,is touching,,html-keyboard-response,326,1114088,0.0-19.0-2.0,29046,List2B,white,woman,,,,null,,,,
4840,,,survey-text,327,1118929,0.0-19.0-3.0,29046,List2B,white,woman,,,,,"{""Q0"":""mike is touching dave""}","<img src=""stim_listB/touch5.gif""style=""height:400px;""></stim_listB>",is touching,
null,"<div style=""font-size:60px;"">+</div>",,html-keyboard-response,328,1119433,0.0-19.0-0.1,29046,List2B,white,woman,,,,null,,,,
null,"<img src=""stim_listB/fight3.gif""style=""height:400px;""></stim_listB>",,html-keyboard-response,329,1121437,0.0-19.0-1.1,29046,List2B,white,woman,,,,null,,,,
null,is fighting,,html-keyboard-response,330,1123453,0.0-19.0-2.1,29046,List2B,white,woman,,,,null,,,,
5477,,,survey-text,331,1128931,0.0-19.0-3.1,29046,List2B,white,woman,,,,,"{""Q0"":""kate is fighting mike""}","<img src=""stim_listB/fight3.gif""style=""height:400px;""></stim_listB>",is fighting,
null,"<div style=""font-size:60px;"">+</div>",,html-keyboard-response,332,1129437,0.0-19.0-0.2,29046,List2B,white,woman,,,,null,,,,
null,"<img src=""stim_listB/shout8.gif""style=""height:400px;""></stim_listB>",,html-keyboard-response,333,1131443,0.0-19.0-1.2,29046,List2B,white,woman,,,,null,,,,
null,are shouting at each other,,html-keyboard-response,334,1133445,0.0-19.0-2.2,29046,List2B,white,woman,,,,null,,,,
7565,,,survey-text,335,1141012,0.0-19.0-3.2,29046,List2B,white,woman,,,,,"{""Q0"":""jane and kate are shouting at each other""}","<img src=""stim_listB/shout8.gif""style=""height:400px;""></stim_listB>",are shouting at each other,
null,"<div style=""font-size:60px;"">+</div>",,html-keyboard-response,336,1141518,0.0-19.0-0.3,29046,List2B,white,woman,,,,null,,,,
null,"<img src=""stim_listB/fight4.gif""style=""height:400px;""></stim_listB>",,html-keyboard-response,337,1143521,0.0-19.0-1.3,29046,List2B,white,woman,,,,null,,,,
null,are fighting each other,,html-keyboard-response,338,1145523,0.0-19.0-2.3,29046,List2B,white,woman,,,,null,,,,
6714,,,survey-text,339,1152240,0.0-19.0-3.3,29046,List2B,white,woman,,,,,"{""Q0"":""fred and beth are fighting each other""}","<img src=""stim_listB/fight4.gif""style=""height:400px;""></stim_listB>",are fighting each other,
null,"<div style=""font-size:60px;"">+</div>",,html-keyboard-response,340,1152747,0.0-19.0-0.4,29046,List2B,white,woman,,,,null,,,,
null,"<img src=""stim_listB/kiss2.gif""style=""height:400px;""></stim_listB>",,html-keyboard-response,341,1154751,0.0-19.0-1.4,29046,List2B,white,woman,,,,null,,,,
null,are kissing each other,,html-keyboard-response,342,1156761,0.0-19.0-2.4,29046,List2B,white,woman,,,,null,,,,
6656,,,survey-text,343,1163419,0.0-19.0-3.4,29046,List2B,white,woman,,,,,"{""Q0"":""dave and jane are kissing each other""}","<img src=""stim_listB/kiss2.gif""style=""height:400px;""></stim_listB>",are kissing each other,
null,"<div style=""font-size:60px;"">+</div>",,html-keyboard-response,344,1163929,0.0-19.0-0.5,29046,List2B,white,woman,,,,null,,,,
null,"<img src=""stim_listB/shout2.gif""style=""height:400px;""></stim_listB>",,html-keyboard-response,345,1165932,0.0-19.0-1.5,29046,List2B,white,woman,,,,null,,,,
null,are shouting at each other,,html-keyboard-response,346,1167935,0.0-19.0-2.5,29046,List2B,white,woman,,,,null,,,,
7066,,,survey-text,347,1175003,0.0-19.0-3.5,29046,List2B,white,woman,,,,,"{""Q0"":""dave and jane are shouting at each other""}","<img src=""stim_listB/shout2.gif""style=""height:400px;""></stim_listB>",are shouting at each other,
null,"<div style=""font-size:60px;"">+</div>",,html-keyboard-response,348,1175510,0.0-19.0-0.6,29046,List2B,white,woman,,,,null,,,,
null,"<img src=""stim_listB/talk5.gif""style=""height:400px;""></stim_listB>",,html-keyboard-response,349,1177514,0.0-19.0-1.6,29046,List2B,white,woman,,,,null,,,,
null,is talking to,,html-keyboard-response,350,1179517,0.0-19.0-2.6,29046,List2B,white,woman,,,,null,,,,
5128,,,survey-text,351,1184648,0.0-19.0-3.6,29046,List2B,white,woman,,,,,"{""Q0"":""mike is talking to luke""}","<img src=""stim_listB/talk5.gif""style=""height:400px;""></stim_listB>",is talking to,
null,"<div style=""font-size:60px;"">+</div>",,html-keyboard-response,352,1185150,0.0-19.0-0.7,29046,List2B,white,woman,,,,null,,,,
null,"<img src=""stim_listB/dance8.gif""style=""height:400px;""></stim_listB>",,html-keyboard-response,353,1187155,0.0-19.0-1.7,29046,List2B,white,woman,,,,null,,,,
null,are dancing with each other,,html-keyboard-response,354,1189161,0.0-19.0-2.7,29046,List2B,white,woman,,,,null,,,,
6961,,,survey-text,355,1196125,0.0-19.0-3.7,29046,List2B,white,woman,,,,,"{""Q0"":""jane and beth are dancing with each other""}","<img src=""stim_listB/dance8.gif""style=""height:400px;""></stim_listB>",are dancing with each other,
null,"<div style=""font-size:60px;"">+</div>",,html-keyboard-response,356,1196627,0.0-19.0-0.8,29046,List2B,white,woman,,,,null,,,,
null,"<img src=""stim_listB/touch4.gif""style=""height:400px;""></stim_listB>",,html-keyboard-response,357,1198630,0.0-19.0-1.8,29046,List2B,white,woman,,,,null,,,,
null,are touching each other,,html-keyboard-response,358,1200634,0.0-19.0-2.8,29046,List2B,white,woman,,,,null,,,,
6090,,,survey-text,359,1206726,0.0-19.0-3.8,29046,List2B,white,woman,,,,,"{""Q0"":""fred and beth are touching each other""}","<img src=""stim_listB/touch4.gif""style=""height:400px;""></stim_listB>",are touching each other,
null,"<div style=""font-size:60px;"">+</div>",,html-keyboard-response,360,1207234,0.0-19.0-0.9,29046,List2B,white,woman,,,,null,,,,
null,"<img src=""stim_listB/dance3.gif""style=""height:400px;""></stim_listB>",,html-keyboard-response,361,1209238,0.0-19.0-1.9,29046,List2B,white,woman,,,,null,,,,
null,is dancing with,,html-keyboard-response,362,1211239,0.0-19.0-2.9,29046,List2B,white,woman,,,,null,,,,
5017,,,survey-text,363,1216257,0.0-19.0-3.9,29046,List2B,white,woman,,,,,"{""Q0"":""fred is dancing with kate""}","<img src=""stim_listB/dance3.gif""style=""height:400px;""></stim_listB>",is dancing with,
null,"<div style=""font-size:60px;"">+</div>",,html-keyboard-response,364,1216766,0.0-19.0-0.10,29046,List2B,white,woman,,,,null,,,,
null,"<img src=""stim_listB/argue8.gif""style=""height:400px;""></stim_listB>",,html-keyboard-response,365,1218778,0.0-19.0-1.10,29046,List2B,white,woman,,,,null,,,,
null,are arguing with each other,,html-keyboard-response,366,1220780,0.0-19.0-2.10,29046,List2B,white,woman,,,,null,,,,
7455,,,survey-text,367,1228238,0.0-19.0-3.10,29046,List2B,white,woman,,,,,"{""Q0"":""ruth and kate are arguing with each other""}","<img src=""stim_listB/argue8.gif""style=""height:400px;""></stim_listB>",are arguing with each other,
null,"<div style=""font-size:60px;"">+</div>",,html-keyboard-response,368,1228748,0.0-19.0-0.11,29046,List2B,white,woman,,,,null,,,,
null,"<img src=""stim_listB/dance6.gif""style=""height:400px;""></stim_listB>",,html-keyboard-response,369,1230753,0.0-19.0-1.11,29046,List2B,white,woman,,,,null,,,,
null,are dancing with each other,,html-keyboard-response,370,1232766,0.0-19.0-2.11,29046,List2B,white,woman,,,,null,,,,
7984,,,survey-text,371,1240752,0.0-19.0-3.11,29046,List2B,white,woman,,,,,"{""Q0"":""dave and fred are dancing with each other""}","<img src=""stim_listB/dance6.gif""style=""height:400px;""></stim_listB>",are dancing with each other,
null,"<div style=""font-size:60px;"">+</div>",,html-keyboard-response,372,1241259,0.0-19.0-0.12,29046,List2B,white,woman,,,,null,,,,
null,"<img src=""stim_listB/marry7.gif""style=""height:400px;""></stim_listB>",,html-keyboard-response,373,1243262,0.0-19.0-1.12,29046,List2B,white,woman,,,,null,,,,
null,is marrying,,html-keyboard-response,374,1245264,0.0-19.0-2.12,29046,List2B,white,woman,,,,null,,,,
4347,,,survey-text,375,1249613,0.0-19.0-3.12,29046,List2B,white,woman,,,,,"{""Q0"":""beth is marrying jane""}","<img src=""stim_listB/marry7.gif""style=""height:400px;""></stim_listB>",is marrying,
null,"<div style=""font-size:60px;"">+</div>",,html-keyboard-response,376,1250117,0.0-19.0-0.13,29046,List2B,white,woman,,,,null,,,,
null,"<img src=""stim_listB/marry4.gif""style=""height:400px;""></stim_listB>",,html-keyboard-response,377,1252119,0.0-19.0-1.13,29046,List2B,white,woman,,,,null,,,,
null,are marrying each other,,html-keyboard-response,378,1254130,0.0-19.0-2.13,29046,List2B,white,woman,,,,null,,,,
6245,,,survey-text,379,1260377,0.0-19.0-3.13,29046,List2B,white,woman,,,,,"{""Q0"":""fred and kate are marrying each other""}","<img src=""stim_listB/marry4.gif""style=""height:400px;""></stim_listB>",are marrying each other,
null,"<div style=""font-size:60px;"">+</div>",,html-keyboard-response,380,1260889,0.0-19.0-0.14,29046,List2B,white,woman,,,,null,,,,
null,"<img src=""stim_listB/fight5.gif""style=""height:400px;""></stim_listB>",,html-keyboard-response,381,1262892,0.0-19.0-1.14,29046,List2B,white,woman,,,,null,,,,
null,is fighting,,html-keyboard-response,382,1264896,0.0-19.0-2.14,29046,List2B,white,woman,,,,null,,,,
4964,,,survey-text,383,1269862,0.0-19.0-3.14,29046,List2B,white,woman,,,,,"{""Q0"":""mike is fighting dave""}","<img src=""stim_listB/fight5.gif""style=""height:400px;""></stim_listB>",is fighting,
null,"<div style=""font-size:60px;"">+</div>",,html-keyboard-response,384,1270365,0.0-19.0-0.15,29046,List2B,white,woman,,,,null,,,,
null,"<img src=""stim_listB/fight6.gif""style=""height:400px;""></stim_listB>",,html-keyboard-response,385,1272372,0.0-19.0-1.15,29046,List2B,white,woman,,,,null,,,,
null,are fighting each other,,html-keyboard-response,386,1274382,0.0-19.0-2.15,29046,List2B,white,woman,,,,null,,,,
6690,,,survey-text,387,1281074,0.0-19.0-3.15,29046,List2B,white,woman,,,,,"{""Q0"":""luke and fred are fighting each other""}","<img src=""stim_listB/fight6.gif""style=""height:400px;""></stim_listB>",are fighting each other,
null,"<div style=""font-size:60px;"">+</div>",,html-keyboard-response,388,1281584,0.0-19.0-0.16,29046,List2B,white,woman,,,,null,,,,
null,"<img src=""stim_listB/flirt2.gif""style=""height:400px;""></stim_listB>",,html-keyboard-response,389,1283587,0.0-19.0-1.16,29046,List2B,white,woman,,,,null,,,,
null,are flirting with each other,,html-keyboard-response,390,1285589,0.0-19.0-2.16,29046,List2B,white,woman,,,,null,,,,
8283,,,survey-text,391,1293874,0.0-19.0-3.16,29046,List2B,white,woman,,,,,"{""Q0"":""dave and ruth are flirting with each other""}","<img src=""stim_listB/flirt2.gif""style=""height:400px;""></stim_listB>",are flirting with each other,
null,"<div style=""font-size:60px;"">+</div>",,html-keyboard-response,392,1294391,0.0-19.0-0.17,29046,List2B,white,woman,,,,null,,,,
null,"<img src=""stim_listB/talk7.gif""style=""height:400px;""></stim_listB>",,html-keyboard-response,393,1296398,0.0-19.0-1.17,29046,List2B,white,woman,,,,null,,,,
null,is talking to,,html-keyboard-response,394,1298400,0.0-19.0-2.17,29046,List2B,white,woman,,,,null,,,,
4835,,,survey-text,395,1303237,0.0-19.0-3.17,29046,List2B,white,woman,,,,,"{""Q0"":""kate is talking to ruth""}","<img src=""stim_listB/talk7.gif""style=""height:400px;""></stim_listB>",is talking to,
null,"<div style=""font-size:60px;"">+</div>",,html-keyboard-response,396,1303746,0.0-19.0-0.18,29046,List2B,white,woman,,,,null,,,,
null,"<img src=""stim_listB/flirt4.gif""style=""height:400px;""></stim_listB>",,html-keyboard-response,397,1305748,0.0-19.0-1.18,29046,List2B,white,woman,,,,null,,,,
null,are flirting with each other,,html-keyboard-response,398,1307750,0.0-19.0-2.18,29046,List2B,white,woman,,,,null,,,,
10310,,,survey-text,399,1318062,0.0-19.0-3.18,29046,List2B,white,woman,,,,,"{""Q0"":""mike and beth are flirting with each other""}","<img src=""stim_listB/flirt4.gif""style=""height:400px;""></stim_listB>",are flirting with each other,
null,"<div style=""font-size:60px;"">+</div>",,html-keyboard-response,400,1318572,0.0-19.0-0.19,29046,List2B,white,woman,,,,null,,,,
null,"<img src=""stim_listB/play8.gif""style=""height:400px;""></stim_listB>",,html-keyboard-response,401,1320576,0.0-19.0-1.19,29046,List2B,white,woman,,,,null,,,,
null,are playing with each other,,html-keyboard-response,402,1322579,0.0-19.0-2.19,29046,List2B,white,woman,,,,null,,,,
6930,,,survey-text,403,1329511,0.0-19.0-3.19,29046,List2B,white,woman,,,,,"{""Q0"":""ruth and beth are playing with each other""}","<img src=""stim_listB/play8.gif""style=""height:400px;""></stim_listB>",are playing with each other,
2112,<p>Thank you for completing that task.</p><p>The final part of this session is a short questionnaire.</p><p>Press Continue.</p>,0,html-button-response,404,1331626,0.0-20.0,29046,List2B,white,woman,,,,,,,,
25073,,,survey-text,405,1357703,0.0-21.0,29046,List2B,white,woman,,,,,"{""Q0"":""24"",""Q1"":""English"",""Q2"":""English"",""Q3"":""Canada"",""Q4"":""Caucasian"",""Q5"":""Female""}",,,demographics
5428,,,survey-likert,406,1363137,0.0-22.0,29046,List2B,white,woman,,,,,"{""Q0"":4}",,,likert_ESS
4579,,,survey-likert,407,1367720,0.0-23.0,29046,List2B,white,woman,,,,,"{""Q0"":4}",,,likert_NSSAL_Q1
2895,,,survey-likert,408,1370618,0.0-24.0,29046,List2B,white,woman,,,,,"{""Q0"":4}",,,likert_NSSAL_Q2
2928,,,survey-likert,409,1373550,0.0-25.0,29046,List2B,white,woman,,,,,"{""Q0"":4}",,,likert_CGRS_Q1
2214,,,survey-likert,410,1375768,0.0-26.0,29046,List2B,white,woman,,,,,"{""Q0"":4}",,,likert_CGRS_Q2
3059,,,survey-likert,411,1378830,0.0-27.0,29046,List2B,white,woman,,,,,"{""Q0"":4}",,,likert_CGRS_Q3
8096,,,survey-text,412,1386930,0.0-28.0,29046,List2B,white,woman,,,,,"{""Q0"":""ccc""}",,,worker_id
30646,,,external-html,413,1418005,0.0-29.0,29046,List2B,white,woman,debrief.html,,,,,,,
