rt,stimulus,button_pressed,trial_type,trial_index,time_elapsed,internal_node_id,subject,list,ppt_race,ppt_gender,url,first_guess,correct,key_press,responses,image_type,phrase_type,test_part
4440,Welcome to the experiment. Press Continue to begin.,0,html-button-response,0,4467,0.0-0.0,29709,List2B,black,woman,,,,,,,,
19573,,,external-html,1,25124,0.0-1.0,29709,List2B,black,woman,consent.html,,,,,,,
9534,"<p>On the next page, you will see portraits of 8 people and their names.</p><p>Your first task is to take a few minutes to memorise the names of these people.</p><p>You will have to recall their names during the rest of the experiment, so it is</p><p>essential that you try to memorise these people and their names as best as you can.</p><br><p><strong>You will then be tested on your memory of these names and portraits.</strong></p><br><p>The experiment will start after you have completed this memory test.</p><br><p>Ready?</p>",0,html-button-response,2,34669,0.0-2.0,29709,List2B,black,woman,,,,,,,,
51636,"<img src='img/portrait_matrix_list2.jpg' style='width:900px;height:500px;''></img><p>If you have memorised all the portraits and names and are ready to start, press Continue.</p><p><strong>Please note: Your memory of these faces will be tested 4 times during this experiment.</strong></p>",0,html-button-response,3,87310,0.0-3.0-0.0,29709,List2B,black,woman,,,,,,,,
4401,"<img src=""portrait/WM2.jpg""style=""height:400px;""></img>",7,html-button-response,4,92718,0.0-3.0-1.0,29709,List2B,black,woman,,TRUE,7,,,,,
null,CORRECT,,html-keyboard-response,5,94228,0.0-3.0-2.0-0.0,29709,List2B,black,woman,,,,null,,,,
2222,"<img src=""portrait/WM1.jpg""style=""height:400px;""></img>",6,html-button-response,6,96456,0.0-3.0-4.0,29709,List2B,black,woman,,TRUE,6,,,,,
null,CORRECT,,html-keyboard-response,7,97962,0.0-3.0-5.0-0.0,29709,List2B,black,woman,,,,null,,,,
1979,"<img src=""portrait/BW2.jpg""style=""height:400px;""></img>",2,html-button-response,8,99945,0.0-3.0-7.0,29709,List2B,black,woman,,TRUE,2,,,,,
null,CORRECT,,html-keyboard-response,9,101449,0.0-3.0-8.0-0.0,29709,List2B,black,woman,,,,null,,,,
1371,"<img src=""portrait/WW2.jpg""style=""height:400px;""></img>",3,html-button-response,10,102825,0.0-3.0-10.0,29709,List2B,black,woman,,TRUE,3,,,,,
null,CORRECT,,html-keyboard-response,11,104332,0.0-3.0-11.0-0.0,29709,List2B,black,woman,,,,null,,,,
1626,"<img src=""portrait/BM2.jpg""style=""height:400px;""></img>",5,html-button-response,12,105963,0.0-3.0-13.0,29709,List2B,black,woman,,TRUE,5,,,,,
null,CORRECT,,html-keyboard-response,13,107467,0.0-3.0-14.0-0.0,29709,List2B,black,woman,,,,null,,,,
4401,"<img src=""portrait/WW1.jpg""style=""height:400px;""></img>",3,html-button-response,14,111875,0.0-3.0-16.0,29709,List2B,black,woman,,TRUE,1,,,,,
4307,"<img src=""portrait/WW1.jpg""style=""height:400px;""></img>",1,html-button-response,15,117187,0.0-3.0-18.0-0.0,29709,List2B,black,woman,,FALSE,1,,,,,
null,CORRECT,,html-keyboard-response,16,118693,0.0-3.0-18.0-1.0-0.0,29709,List2B,black,woman,,,,null,,,,
4654,"<img src=""portrait/BW1.jpg""style=""height:400px;""></img>",3,html-button-response,17,123352,0.0-3.0-19.0,29709,List2B,black,woman,,TRUE,0,,,,,
2159,"<img src=""portrait/BW1.jpg""style=""height:400px;""></img>",0,html-button-response,18,126517,0.0-3.0-21.0-0.0,29709,List2B,black,woman,,FALSE,0,,,,,
null,CORRECT,,html-keyboard-response,19,128022,0.0-3.0-21.0-1.0-0.0,29709,List2B,black,woman,,,,null,,,,
4392,"<img src=""portrait/BM1.jpg""style=""height:400px;""></img>",4,html-button-response,20,132422,0.0-3.0-22.0,29709,List2B,black,woman,,TRUE,4,,,,,
null,CORRECT,,html-keyboard-response,21,133928,0.0-3.0-23.0-0.0,29709,List2B,black,woman,,,,null,,,,
1260,<p>You got 6 out of 8 right first time. Press Continue.</p>,0,html-button-response,22,135194,0.0-3.0-25.0,29709,List2B,black,woman,,,,,,,,
2624,"As you did not score 100%, the memory game will repeat. Press Continue.",0,html-button-response,23,138822,0.0-3.0-26.0-0.0,29709,List2B,black,woman,,,,,,,,
8587,"<img src='img/portrait_matrix_list2.jpg' style='width:900px;height:500px;''></img><p>If you have memorised all the portraits and names and are ready to start, press Continue.</p><p><strong>Please note: Your memory of these faces will be tested 4 times during this experiment.</strong></p>",0,html-button-response,24,148422,0.0-3.1-0.1,29709,List2B,black,woman,,,,,,,,
1323,"<img src=""portrait/WM2.jpg""style=""height:400px;""></img>",7,html-button-response,25,150757,0.0-3.1-1.1,29709,List2B,black,woman,,TRUE,7,,,,,
null,CORRECT,,html-keyboard-response,26,152261,0.0-3.1-2.1-0.1,29709,List2B,black,woman,,,,null,,,,
1755,"<img src=""portrait/WM1.jpg""style=""height:400px;""></img>",6,html-button-response,27,154022,0.0-3.1-4.1,29709,List2B,black,woman,,TRUE,6,,,,,
null,CORRECT,,html-keyboard-response,28,155527,0.0-3.1-5.1-0.1,29709,List2B,black,woman,,,,null,,,,
1457,"<img src=""portrait/BW2.jpg""style=""height:400px;""></img>",2,html-button-response,29,156989,0.0-3.1-7.1,29709,List2B,black,woman,,TRUE,2,,,,,
null,CORRECT,,html-keyboard-response,30,158494,0.0-3.1-8.1-0.1,29709,List2B,black,woman,,,,null,,,,
3325,"<img src=""portrait/WW2.jpg""style=""height:400px;""></img>",3,html-button-response,31,161826,0.0-3.1-10.1,29709,List2B,black,woman,,TRUE,3,,,,,
null,CORRECT,,html-keyboard-response,32,163330,0.0-3.1-11.1-0.1,29709,List2B,black,woman,,,,null,,,,
1354,"<img src=""portrait/BM2.jpg""style=""height:400px;""></img>",5,html-button-response,33,164687,0.0-3.1-13.1,29709,List2B,black,woman,,TRUE,5,,,,,
null,CORRECT,,html-keyboard-response,34,166192,0.0-3.1-14.1-0.1,29709,List2B,black,woman,,,,null,,,,
1128,"<img src=""portrait/WW1.jpg""style=""height:400px;""></img>",1,html-button-response,35,167323,0.0-3.1-16.1,29709,List2B,black,woman,,TRUE,1,,,,,
null,CORRECT,,html-keyboard-response,36,168829,0.0-3.1-17.1-0.1,29709,List2B,black,woman,,,,null,,,,
2587,"<img src=""portrait/BW1.jpg""style=""height:400px;""></img>",0,html-button-response,37,171419,0.0-3.1-19.1,29709,List2B,black,woman,,TRUE,0,,,,,
null,CORRECT,,html-keyboard-response,38,172926,0.0-3.1-20.1-0.1,29709,List2B,black,woman,,,,null,,,,
1891,"<img src=""portrait/BM1.jpg""style=""height:400px;""></img>",4,html-button-response,39,174822,0.0-3.1-22.1,29709,List2B,black,woman,,TRUE,4,,,,,
null,CORRECT,,html-keyboard-response,40,176326,0.0-3.1-23.1-0.1,29709,List2B,black,woman,,,,null,,,,
1133,<p>You got 8 out of 8 right first time. Press Continue.</p>,0,html-button-response,41,177462,0.0-3.1-25.1,29709,List2B,black,woman,,,,,,,,
50346,"<p>In this experiment, you will view photographs of the people from the memory game interacting.</p><p>By using the <strong>exact</strong> phrase given <i>after</i> the photograph appears and recalling the correct names of the people in the photographs, form a sentence describing the interaction. You do not need to capitalise names.</p><p>Type your answer in the space provided. Please complete every sentence before moving onto the next trial.</p><p>You will only have a few seconds to memorise each given photograph and phrase before you can respond, so try your best to focus.</p><p>An example is given below. Press 'Continue' when you are ready.</p><img src='img/speaking_example.jpg' style='width:800px;height:460px;''></img>",0,html-button-response,42,228816,0.0-4.0,29709,List2B,black,woman,,,,,,,,
1836,"<p>Before the experiment starts, you will watch two example trials. Press 'Continue'.</p>",0,html-button-response,43,231656,0.0-5.0,29709,List2B,black,woman,,,,,,,,
null,<img src='img/meet_eg.gif' style='height:400px;''></img>,,html-keyboard-response,44,234662,0.0-6.0,29709,List2B,black,woman,,,,null,,,,
null,<p>is meeting</p>,,html-keyboard-response,45,236668,0.0-7.0,29709,List2B,black,woman,,,,null,,,,
3330,<p><b>Answer:</b> jane is meeting ruth</p>,0,html-button-response,46,240001,0.0-8.0,29709,List2B,black,woman,,,,,,,,
null,<img src='img/look_eg.gif' style='height:400px;''></img>,,html-keyboard-response,47,243008,0.0-9.0,29709,List2B,black,woman,,,,null,,,,
null,<p>are looking at each other</p>,,html-keyboard-response,48,245011,0.0-10.0,29709,List2B,black,woman,,,,null,,,,
1970,<p><b>Answer:</b> fred and mike are looking at each other</p>,0,html-button-response,49,246983,0.0-11.0,29709,List2B,black,woman,,,,,,,,
8316,"<p>Ready to start the experiment?</p><br><p><strong>Remember to describe the picture using a full sentence,</strong></p><p><strong>that combines the names of the people with the <i>exact</i> phrase given.</strong></p><p><strong>To receive full payment you must do this correctly.</strong></p><p><strong> You do not need to capitalise names or use punctuation.</strong></p><br><p>Press 'Continue' to begin.</p>",0,html-button-response,50,256304,0.0-12.0,29709,List2B,black,woman,,,,,,,,
null,"<div style=""font-size:60px;"">+</div>",,html-keyboard-response,51,257808,0.0-13.0-0.0,29709,List2B,black,woman,,,,null,,,,
null,"<img src=""stim_listB/dance5.gif""style=""height:400px;""></stim_listB>",,html-keyboard-response,52,259815,0.0-13.0-1.0,29709,List2B,black,woman,,,,null,,,,
null,is dancing with,,html-keyboard-response,53,261820,0.0-13.0-2.0,29709,List2B,black,woman,,,,null,,,,
12017,,,survey-text,54,273843,0.0-13.0-3.0,29709,List2B,black,woman,,,,,"{""Q0"":""luke is dancing with mike""}","<img src=""stim_listB/dance5.gif""style=""height:400px;""></stim_listB>",is dancing with,
null,"<div style=""font-size:60px;"">+</div>",,html-keyboard-response,55,274351,0.0-13.0-0.1,29709,List2B,black,woman,,,,null,,,,
null,"<img src=""stim_listB/dance3.gif""style=""height:400px;""></stim_listB>",,html-keyboard-response,56,276360,0.0-13.0-1.1,29709,List2B,black,woman,,,,null,,,,
null,is dancing with,,html-keyboard-response,57,278369,0.0-13.0-2.1,29709,List2B,black,woman,,,,null,,,,
11611,,,survey-text,58,289988,0.0-13.0-3.1,29709,List2B,black,woman,,,,,"{""Q0"":""kate is dancing with fred""}","<img src=""stim_listB/dance3.gif""style=""height:400px;""></stim_listB>",is dancing with,
null,"<div style=""font-size:60px;"">+</div>",,html-keyboard-response,59,290492,0.0-13.0-0.2,29709,List2B,black,woman,,,,null,,,,
null,"<img src=""stim_listB/kiss7.gif""style=""height:400px;""></stim_listB>",,html-keyboard-response,60,292497,0.0-13.0-1.2,29709,List2B,black,woman,,,,null,,,,
null,is kissing,,html-keyboard-response,61,294511,0.0-13.0-2.2,29709,List2B,black,woman,,,,null,,,,
9844,,,survey-text,62,304360,0.0-13.0-3.2,29709,List2B,black,woman,,,,,"{""Q0"":""beth is kissing ruth""}","<img src=""stim_listB/kiss7.gif""style=""height:400px;""></stim_listB>",is kissing,
null,"<div style=""font-size:60px;"">+</div>",,html-keyboard-response,63,304864,0.0-13.0-0.3,29709,List2B,black,woman,,,,null,,,,
null,"<img src=""stim_listB/play8.gif""style=""height:400px;""></stim_listB>",,html-keyboard-response,64,306868,0.0-13.0-1.3,29709,List2B,black,woman,,,,null,,,,
null,are playing with each other,,html-keyboard-response,65,308870,0.0-13.0-2.3,29709,List2B,black,woman,,,,null,,,,
28395,,,survey-text,66,337268,0.0-13.0-3.3,29709,List2B,black,woman,,,,,"{""Q0"":""beth and ruth are playing each other""}","<img src=""stim_listB/play8.gif""style=""height:400px;""></stim_listB>",are playing with each other,
null,"<div style=""font-size:60px;"">+</div>",,html-keyboard-response,67,337772,0.0-13.0-0.4,29709,List2B,black,woman,,,,null,,,,
null,"<img src=""stim_listB/touch5.gif""style=""height:400px;""></stim_listB>",,html-keyboard-response,68,339777,0.0-13.0-1.4,29709,List2B,black,woman,,,,null,,,,
null,is touching,,html-keyboard-response,69,341780,0.0-13.0-2.4,29709,List2B,black,woman,,,,null,,,,
7798,,,survey-text,70,349582,0.0-13.0-3.4,29709,List2B,black,woman,,,,,"{""Q0"":""mike is touching dave""}","<img src=""stim_listB/touch5.gif""style=""height:400px;""></stim_listB>",is touching,
null,"<div style=""font-size:60px;"">+</div>",,html-keyboard-response,71,350085,0.0-13.0-0.5,29709,List2B,black,woman,,,,null,,,,
null,"<img src=""stim_listB/play5.gif""style=""height:400px;""></stim_listB>",,html-keyboard-response,72,352091,0.0-13.0-1.5,29709,List2B,black,woman,,,,null,,,,
null,is playing with,,html-keyboard-response,73,354109,0.0-13.0-2.5,29709,List2B,black,woman,,,,null,,,,
9771,,,survey-text,74,363893,0.0-13.0-3.5,29709,List2B,black,woman,,,,,"{""Q0"":""mike is playing with dave""}","<img src=""stim_listB/play5.gif""style=""height:400px;""></stim_listB>",is playing with,
null,"<div style=""font-size:60px;"">+</div>",,html-keyboard-response,75,364402,0.0-13.0-0.6,29709,List2B,black,woman,,,,null,,,,
null,"<img src=""stim_listB/play3.gif""style=""height:400px;""></stim_listB>",,html-keyboard-response,76,366406,0.0-13.0-1.6,29709,List2B,black,woman,,,,null,,,,
null,is playing with,,html-keyboard-response,77,368409,0.0-13.0-2.6,29709,List2B,black,woman,,,,null,,,,
11715,,,survey-text,78,380127,0.0-13.0-3.6,29709,List2B,black,woman,,,,,"{""Q0"":""mike is playing with kate""}","<img src=""stim_listB/play3.gif""style=""height:400px;""></stim_listB>",is playing with,
null,"<div style=""font-size:60px;"">+</div>",,html-keyboard-response,79,380630,0.0-13.0-0.7,29709,List2B,black,woman,,,,null,,,,
null,"<img src=""stim_listB/flirt7.gif""style=""height:400px;""></stim_listB>",,html-keyboard-response,80,382634,0.0-13.0-1.7,29709,List2B,black,woman,,,,null,,,,
null,is flirting with,,html-keyboard-response,81,384637,0.0-13.0-2.7,29709,List2B,black,woman,,,,null,,,,
12253,,,survey-text,82,396892,0.0-13.0-3.7,29709,List2B,black,woman,,,,,"{""Q0"":""ruth is flirting with kate""}","<img src=""stim_listB/flirt7.gif""style=""height:400px;""></stim_listB>",is flirting with,
null,"<div style=""font-size:60px;"">+</div>",,html-keyboard-response,83,397396,0.0-13.0-0.8,29709,List2B,black,woman,,,,null,,,,
null,"<img src=""stim_listB/shout1.gif""style=""height:400px;""></stim_listB>",,html-keyboard-response,84,399402,0.0-13.0-1.8,29709,List2B,black,woman,,,,null,,,,
null,is shouting at,,html-keyboard-response,85,401406,0.0-13.0-2.8,29709,List2B,black,woman,,,,null,,,,
8952,,,survey-text,86,410362,0.0-13.0-3.8,29709,List2B,black,woman,,,,,"{""Q0"":""ruth is shouting at luke""}","<img src=""stim_listB/shout1.gif""style=""height:400px;""></stim_listB>",is shouting at,
null,"<div style=""font-size:60px;"">+</div>",,html-keyboard-response,87,410867,0.0-13.0-0.9,29709,List2B,black,woman,,,,null,,,,
null,"<img src=""stim_listB/argue7.gif""style=""height:400px;""></stim_listB>",,html-keyboard-response,88,412872,0.0-13.0-1.9,29709,List2B,black,woman,,,,null,,,,
null,is arguing with,,html-keyboard-response,89,414875,0.0-13.0-2.9,29709,List2B,black,woman,,,,null,,,,
19604,,,survey-text,90,434483,0.0-13.0-3.9,29709,List2B,black,woman,,,,,"{""Q0"":""beth is arguing with jane""}","<img src=""stim_listB/argue7.gif""style=""height:400px;""></stim_listB>",is arguing with,
null,"<div style=""font-size:60px;"">+</div>",,html-keyboard-response,91,434986,0.0-13.0-0.10,29709,List2B,black,woman,,,,null,,,,
null,"<img src=""stim_listB/shout6.gif""style=""height:400px;""></stim_listB>",,html-keyboard-response,92,436989,0.0-13.0-1.10,29709,List2B,black,woman,,,,null,,,,
null,are shouting at each other,,html-keyboard-response,93,438993,0.0-13.0-2.10,29709,List2B,black,woman,,,,null,,,,
18518,,,survey-text,94,457514,0.0-13.0-3.10,29709,List2B,black,woman,,,,,"{""Q0"":""mike and dave are shouting at each other""}","<img src=""stim_listB/shout6.gif""style=""height:400px;""></stim_listB>",are shouting at each other,
null,"<div style=""font-size:60px;"">+</div>",,html-keyboard-response,95,458018,0.0-13.0-0.11,29709,List2B,black,woman,,,,null,,,,
null,"<img src=""stim_listB/talk5.gif""style=""height:400px;""></stim_listB>",,html-keyboard-response,96,460021,0.0-13.0-1.11,29709,List2B,black,woman,,,,null,,,,
null,is talking to,,html-keyboard-response,97,462024,0.0-13.0-2.11,29709,List2B,black,woman,,,,null,,,,
7498,,,survey-text,98,469525,0.0-13.0-3.11,29709,List2B,black,woman,,,,,"{""Q0"":""luke is talking to mike""}","<img src=""stim_listB/talk5.gif""style=""height:400px;""></stim_listB>",is talking to,
null,"<div style=""font-size:60px;"">+</div>",,html-keyboard-response,99,470028,0.0-13.0-0.12,29709,List2B,black,woman,,,,null,,,,
null,"<img src=""stim_listB/shout8.gif""style=""height:400px;""></stim_listB>",,html-keyboard-response,100,472032,0.0-13.0-1.12,29709,List2B,black,woman,,,,null,,,,
null,are shouting at each other,,html-keyboard-response,101,474036,0.0-13.0-2.12,29709,List2B,black,woman,,,,null,,,,
26683,,,survey-text,102,500722,0.0-13.0-3.12,29709,List2B,black,woman,,,,,"{""Q0"":""kate and jane are shouting at each other""}","<img src=""stim_listB/shout8.gif""style=""height:400px;""></stim_listB>",are shouting at each other,
null,"<div style=""font-size:60px;"">+</div>",,html-keyboard-response,103,501225,0.0-13.0-0.13,29709,List2B,black,woman,,,,null,,,,
null,"<img src=""stim_listB/kiss4.gif""style=""height:400px;""></stim_listB>",,html-keyboard-response,104,503229,0.0-13.0-1.13,29709,List2B,black,woman,,,,null,,,,
null,are kissing each other,,html-keyboard-response,105,505232,0.0-13.0-2.13,29709,List2B,black,woman,,,,null,,,,
31097,,,survey-text,106,536336,0.0-13.0-3.13,29709,List2B,black,woman,,,,,"{""Q0"":""kate is kissing mike""}","<img src=""stim_listB/kiss4.gif""style=""height:400px;""></stim_listB>",are kissing each other,
null,"<div style=""font-size:60px;"">+</div>",,html-keyboard-response,107,536842,0.0-13.0-0.14,29709,List2B,black,woman,,,,null,,,,
null,"<img src=""stim_listB/dance4.gif""style=""height:400px;""></stim_listB>",,html-keyboard-response,108,538846,0.0-13.0-1.14,29709,List2B,black,woman,,,,null,,,,
null,are dancing with each other,,html-keyboard-response,109,540849,0.0-13.0-2.14,29709,List2B,black,woman,,,,null,,,,
13740,,,survey-text,110,554593,0.0-13.0-3.14,29709,List2B,black,woman,,,,,"{""Q0"":""beth and mike are dancing with each other""}","<img src=""stim_listB/dance4.gif""style=""height:400px;""></stim_listB>",are dancing with each other,
null,"<div style=""font-size:60px;"">+</div>",,html-keyboard-response,111,555098,0.0-13.0-0.15,29709,List2B,black,woman,,,,null,,,,
null,"<img src=""stim_listB/argue6.gif""style=""height:400px;""></stim_listB>",,html-keyboard-response,112,557103,0.0-13.0-1.15,29709,List2B,black,woman,,,,null,,,,
null,are arguing with each other,,html-keyboard-response,113,559106,0.0-13.0-2.15,29709,List2B,black,woman,,,,null,,,,
19545,,,survey-text,114,578654,0.0-13.0-3.15,29709,List2B,black,woman,,,,,"{""Q0"":""luke and mike are arguing with each other""}","<img src=""stim_listB/argue6.gif""style=""height:400px;""></stim_listB>",are arguing with each other,
null,"<div style=""font-size:60px;"">+</div>",,html-keyboard-response,115,579158,0.0-13.0-0.16,29709,List2B,black,woman,,,,null,,,,
null,"<img src=""stim_listB/play2.gif""style=""height:400px;""></stim_listB>",,html-keyboard-response,116,581165,0.0-13.0-1.16,29709,List2B,black,woman,,,,null,,,,
null,are playing with each other,,html-keyboard-response,117,583167,0.0-13.0-2.16,29709,List2B,black,woman,,,,null,,,,
17068,,,survey-text,118,600238,0.0-13.0-3.16,29709,List2B,black,woman,,,,,"{""Q0"":""ruth and luke are playing with each other""}","<img src=""stim_listB/play2.gif""style=""height:400px;""></stim_listB>",are playing with each other,
null,"<div style=""font-size:60px;"">+</div>",,html-keyboard-response,119,600742,0.0-13.0-0.17,29709,List2B,black,woman,,,,null,,,,
null,"<img src=""stim_listB/fight4.gif""style=""height:400px;""></stim_listB>",,html-keyboard-response,120,602747,0.0-13.0-1.17,29709,List2B,black,woman,,,,null,,,,
null,are fighting each other,,html-keyboard-response,121,604750,0.0-13.0-2.17,29709,List2B,black,woman,,,,null,,,,
31076,,,survey-text,122,635828,0.0-13.0-3.17,29709,List2B,black,woman,,,,,"{""Q0"":""kate and mike are fighting with each other""}","<img src=""stim_listB/fight4.gif""style=""height:400px;""></stim_listB>",are fighting each other,
null,"<div style=""font-size:60px;"">+</div>",,html-keyboard-response,123,636332,0.0-13.0-0.18,29709,List2B,black,woman,,,,null,,,,
null,"<img src=""stim_listB/shout3.gif""style=""height:400px;""></stim_listB>",,html-keyboard-response,124,638339,0.0-13.0-1.18,29709,List2B,black,woman,,,,null,,,,
null,is shouting at,,html-keyboard-response,125,640342,0.0-13.0-2.18,29709,List2B,black,woman,,,,null,,,,
12527,,,survey-text,126,652873,0.0-13.0-3.18,29709,List2B,black,woman,,,,,"{""Q0"":""kate is shouting at fred""}","<img src=""stim_listB/shout3.gif""style=""height:400px;""></stim_listB>",is shouting at,
null,"<div style=""font-size:60px;"">+</div>",,html-keyboard-response,127,653379,0.0-13.0-0.19,29709,List2B,black,woman,,,,null,,,,
null,"<img src=""stim_listB/talk7.gif""style=""height:400px;""></stim_listB>",,html-keyboard-response,128,655384,0.0-13.0-1.19,29709,List2B,black,woman,,,,null,,,,
null,is talking to,,html-keyboard-response,129,657386,0.0-13.0-2.19,29709,List2B,black,woman,,,,null,,,,
8428,,,survey-text,130,665817,0.0-13.0-3.19,29709,List2B,black,woman,,,,,"{""Q0"":""kate is talking to ruth""}","<img src=""stim_listB/talk7.gif""style=""height:400px;""></stim_listB>",is talking to,
11847,"<img src='img/portrait_matrix_list2.jpg' style='width:900px;height:500px;''></img><p>If you have memorised all the portraits and names and are ready to start, press Continue.</p><p><strong>Please note: Your memory of these faces will be tested 4 times during this experiment.</strong></p>",0,html-button-response,131,677670,0.0-14.0-0.0,29709,List2B,black,woman,,,,,,,,
2396,"<img src=""portrait/WM1.jpg""style=""height:400px;""></img>",6,html-button-response,132,681074,0.0-14.0-1.0,29709,List2B,black,woman,,TRUE,6,,,,,
null,CORRECT,,html-keyboard-response,133,682580,0.0-14.0-2.0-0.0,29709,List2B,black,woman,,,,null,,,,
1387,"<img src=""portrait/BW2.jpg""style=""height:400px;""></img>",2,html-button-response,134,683970,0.0-14.0-4.0,29709,List2B,black,woman,,TRUE,2,,,,,
null,CORRECT,,html-keyboard-response,135,685475,0.0-14.0-5.0-0.0,29709,List2B,black,woman,,,,null,,,,
1447,"<img src=""portrait/WW1.jpg""style=""height:400px;""></img>",1,html-button-response,136,686927,0.0-14.0-7.0,29709,List2B,black,woman,,TRUE,1,,,,,
null,CORRECT,,html-keyboard-response,137,688433,0.0-14.0-8.0-0.0,29709,List2B,black,woman,,,,null,,,,
1301,"<img src=""portrait/BM2.jpg""style=""height:400px;""></img>",5,html-button-response,138,689737,0.0-14.0-10.0,29709,List2B,black,woman,,TRUE,5,,,,,
null,CORRECT,,html-keyboard-response,139,691240,0.0-14.0-11.0-0.0,29709,List2B,black,woman,,,,null,,,,
1480,"<img src=""portrait/WW2.jpg""style=""height:400px;""></img>",3,html-button-response,140,692724,0.0-14.0-13.0,29709,List2B,black,woman,,TRUE,3,,,,,
null,CORRECT,,html-keyboard-response,141,694229,0.0-14.0-14.0-0.0,29709,List2B,black,woman,,,,null,,,,
1410,"<img src=""portrait/BW1.jpg""style=""height:400px;""></img>",0,html-button-response,142,695643,0.0-14.0-16.0,29709,List2B,black,woman,,TRUE,0,,,,,
null,CORRECT,,html-keyboard-response,143,697147,0.0-14.0-17.0-0.0,29709,List2B,black,woman,,,,null,,,,
1443,"<img src=""portrait/BM1.jpg""style=""height:400px;""></img>",4,html-button-response,144,698595,0.0-14.0-19.0,29709,List2B,black,woman,,TRUE,4,,,,,
null,CORRECT,,html-keyboard-response,145,700101,0.0-14.0-20.0-0.0,29709,List2B,black,woman,,,,null,,,,
1959,"<img src=""portrait/WM2.jpg""style=""height:400px;""></img>",7,html-button-response,146,702067,0.0-14.0-22.0,29709,List2B,black,woman,,TRUE,7,,,,,
null,CORRECT,,html-keyboard-response,147,703577,0.0-14.0-23.0-0.0,29709,List2B,black,woman,,,,null,,,,
999,<p>You got 8 out of 8 right first time. Press Continue.</p>,0,html-button-response,148,704580,0.0-14.0-25.0,29709,List2B,black,woman,,,,,,,,
null,"<div style=""font-size:60px;"">+</div>",,html-keyboard-response,149,706094,0.0-15.0-0.0,29709,List2B,black,woman,,,,null,,,,
null,"<img src=""stim_listB/kiss1.gif""style=""height:400px;""></stim_listB>",,html-keyboard-response,150,708107,0.0-15.0-1.0,29709,List2B,black,woman,,,,null,,,,
null,is kissing,,html-keyboard-response,151,710111,0.0-15.0-2.0,29709,List2B,black,woman,,,,null,,,,
9579,,,survey-text,152,719692,0.0-15.0-3.0,29709,List2B,black,woman,,,,,"{""Q0"":""ruth is kissing luke""}","<img src=""stim_listB/kiss1.gif""style=""height:400px;""></stim_listB>",is kissing,
null,"<div style=""font-size:60px;"">+</div>",,html-keyboard-response,153,720197,0.0-15.0-0.1,29709,List2B,black,woman,,,,null,,,,
null,"<img src=""stim_listB/talk6.gif""style=""height:400px;""></stim_listB>",,html-keyboard-response,154,722204,0.0-15.0-1.1,29709,List2B,black,woman,,,,null,,,,
null,are talking to each other,,html-keyboard-response,155,724210,0.0-15.0-2.1,29709,List2B,black,woman,,,,null,,,,
13692,,,survey-text,156,737907,0.0-15.0-3.1,29709,List2B,black,woman,,,,,"{""Q0"":""fred and dave are talking to each other""}","<img src=""stim_listB/talk6.gif""style=""height:400px;""></stim_listB>",are talking to each other,
null,"<div style=""font-size:60px;"">+</div>",,html-keyboard-response,157,738410,0.0-15.0-0.2,29709,List2B,black,woman,,,,null,,,,
null,"<img src=""stim_listB/touch3.gif""style=""height:400px;""></stim_listB>",,html-keyboard-response,158,740414,0.0-15.0-1.2,29709,List2B,black,woman,,,,null,,,,
null,is touching,,html-keyboard-response,159,742416,0.0-15.0-2.2,29709,List2B,black,woman,,,,null,,,,
6948,,,survey-text,160,749367,0.0-15.0-3.2,29709,List2B,black,woman,,,,,"{""Q0"":""kate is touching mike""}","<img src=""stim_listB/touch3.gif""style=""height:400px;""></stim_listB>",is touching,
null,"<div style=""font-size:60px;"">+</div>",,html-keyboard-response,161,749870,0.0-15.0-0.3,29709,List2B,black,woman,,,,null,,,,
null,"<img src=""stim_listB/shout7.gif""style=""height:400px;""></stim_listB>",,html-keyboard-response,162,751876,0.0-15.0-1.3,29709,List2B,black,woman,,,,null,,,,
null,is shouting at,,html-keyboard-response,163,753878,0.0-15.0-2.3,29709,List2B,black,woman,,,,null,,,,
13440,,,survey-text,164,767321,0.0-15.0-3.3,29709,List2B,black,woman,,,,,"{""Q0"":""beth is shouting at ruth""}","<img src=""stim_listB/shout7.gif""style=""height:400px;""></stim_listB>",is shouting at,
null,"<div style=""font-size:60px;"">+</div>",,html-keyboard-response,165,767824,0.0-15.0-0.4,29709,List2B,black,woman,,,,null,,,,
null,"<img src=""stim_listB/kiss5.gif""style=""height:400px;""></stim_listB>",,html-keyboard-response,166,769830,0.0-15.0-1.4,29709,List2B,black,woman,,,,null,,,,
null,is kissing,,html-keyboard-response,167,771833,0.0-15.0-2.4,29709,List2B,black,woman,,,,null,,,,
8103,,,survey-text,168,779939,0.0-15.0-3.4,29709,List2B,black,woman,,,,,"{""Q0"":""fred is kissing luke""}","<img src=""stim_listB/kiss5.gif""style=""height:400px;""></stim_listB>",is kissing,
null,"<div style=""font-size:60px;"">+</div>",,html-keyboard-response,169,780441,0.0-15.0-0.5,29709,List2B,black,woman,,,,null,,,,
null,"<img src=""stim_listB/play7.gif""style=""height:400px;""></stim_listB>",,html-keyboard-response,170,782447,0.0-15.0-1.5,29709,List2B,black,woman,,,,null,,,,
null,is playing with,,html-keyboard-response,171,784450,0.0-15.0-2.5,29709,List2B,black,woman,,,,null,,,,
15154,,,survey-text,172,799607,0.0-15.0-3.5,29709,List2B,black,woman,,,,,"{""Q0"":""kate is playing with jane""}","<img src=""stim_listB/play7.gif""style=""height:400px;""></stim_listB>",is playing with,
null,"<div style=""font-size:60px;"">+</div>",,html-keyboard-response,173,800114,0.0-15.0-0.6,29709,List2B,black,woman,,,,null,,,,
null,"<img src=""stim_listB/talk3.gif""style=""height:400px;""></stim_listB>",,html-keyboard-response,174,802119,0.0-15.0-1.6,29709,List2B,black,woman,,,,null,,,,
null,is talking to,,html-keyboard-response,175,804122,0.0-15.0-2.6,29709,List2B,black,woman,,,,null,,,,
8236,,,survey-text,176,812361,0.0-15.0-3.6,29709,List2B,black,woman,,,,,"{""Q0"":""kate is talking to fred""}","<img src=""stim_listB/talk3.gif""style=""height:400px;""></stim_listB>",is talking to,
null,"<div style=""font-size:60px;"">+</div>",,html-keyboard-response,177,812864,0.0-15.0-0.7,29709,List2B,black,woman,,,,null,,,,
null,"<img src=""stim_listB/touch4.gif""style=""height:400px;""></stim_listB>",,html-keyboard-response,178,814870,0.0-15.0-1.7,29709,List2B,black,woman,,,,null,,,,
null,are touching each other,,html-keyboard-response,179,816873,0.0-15.0-2.7,29709,List2B,black,woman,,,,null,,,,
15302,,,survey-text,180,832179,0.0-15.0-3.7,29709,List2B,black,woman,,,,,"{""Q0"":""beth and fred are touching each other""}","<img src=""stim_listB/touch4.gif""style=""height:400px;""></stim_listB>",are touching each other,
null,"<div style=""font-size:60px;"">+</div>",,html-keyboard-response,181,832688,0.0-15.0-0.8,29709,List2B,black,woman,,,,null,,,,
null,"<img src=""stim_listB/marry4.gif""style=""height:400px;""></stim_listB>",,html-keyboard-response,182,834702,0.0-15.0-1.8,29709,List2B,black,woman,,,,null,,,,
null,are marrying each other,,html-keyboard-response,183,836712,0.0-15.0-2.8,29709,List2B,black,woman,,,,null,,,,
9883,,,survey-text,184,846598,0.0-15.0-3.8,29709,List2B,black,woman,,,,,"{""Q0"":""kate and fred are marrying each other""}","<img src=""stim_listB/marry4.gif""style=""height:400px;""></stim_listB>",are marrying each other,
null,"<div style=""font-size:60px;"">+</div>",,html-keyboard-response,185,847101,0.0-15.0-0.9,29709,List2B,black,woman,,,,null,,,,
null,"<img src=""stim_listB/argue3.gif""style=""height:400px;""></stim_listB>",,html-keyboard-response,186,849109,0.0-15.0-1.9,29709,List2B,black,woman,,,,null,,,,
null,is arguing with,,html-keyboard-response,187,851112,0.0-15.0-2.9,29709,List2B,black,woman,,,,null,,,,
8288,,,survey-text,188,859403,0.0-15.0-3.9,29709,List2B,black,woman,,,,,"{""Q0"":""beth is arguing with mike""}","<img src=""stim_listB/argue3.gif""style=""height:400px;""></stim_listB>",is arguing with,
null,"<div style=""font-size:60px;"">+</div>",,html-keyboard-response,189,859908,0.0-15.0-0.10,29709,List2B,black,woman,,,,null,,,,
null,"<img src=""stim_listB/flirt1.gif""style=""height:400px;""></stim_listB>",,html-keyboard-response,190,861913,0.0-15.0-1.10,29709,List2B,black,woman,,,,null,,,,
null,is flirting with,,html-keyboard-response,191,863916,0.0-15.0-2.10,29709,List2B,black,woman,,,,null,,,,
9129,,,survey-text,192,873048,0.0-15.0-3.10,29709,List2B,black,woman,,,,,"{""Q0"":""luke is flirting with jane""}","<img src=""stim_listB/flirt1.gif""style=""height:400px;""></stim_listB>",is flirting with,
null,"<div style=""font-size:60px;"">+</div>",,html-keyboard-response,193,873551,0.0-15.0-0.11,29709,List2B,black,woman,,,,null,,,,
null,"<img src=""stim_listB/shout2.gif""style=""height:400px;""></stim_listB>",,html-keyboard-response,194,875557,0.0-15.0-1.11,29709,List2B,black,woman,,,,null,,,,
null,are shouting at each other,,html-keyboard-response,195,877560,0.0-15.0-2.11,29709,List2B,black,woman,,,,null,,,,
10913,,,survey-text,196,888477,0.0-15.0-3.11,29709,List2B,black,woman,,,,,"{""Q0"":""jane and dave are shouting at each other""}","<img src=""stim_listB/shout2.gif""style=""height:400px;""></stim_listB>",are shouting at each other,
null,"<div style=""font-size:60px;"">+</div>",,html-keyboard-response,197,888982,0.0-15.0-0.12,29709,List2B,black,woman,,,,null,,,,
null,"<img src=""stim_listB/fight5.gif""style=""height:400px;""></stim_listB>",,html-keyboard-response,198,890987,0.0-15.0-1.12,29709,List2B,black,woman,,,,null,,,,
null,is fighting,,html-keyboard-response,199,892990,0.0-15.0-2.12,29709,List2B,black,woman,,,,null,,,,
10137,,,survey-text,200,903134,0.0-15.0-3.12,29709,List2B,black,woman,,,,,"{""Q0"":""mike is fighting with dave""}","<img src=""stim_listB/fight5.gif""style=""height:400px;""></stim_listB>",is fighting,
null,"<div style=""font-size:60px;"">+</div>",,html-keyboard-response,201,903640,0.0-15.0-0.13,29709,List2B,black,woman,,,,null,,,,
null,"<img src=""stim_listB/fight3.gif""style=""height:400px;""></stim_listB>",,html-keyboard-response,202,905649,0.0-15.0-1.13,29709,List2B,black,woman,,,,null,,,,
null,is fighting,,html-keyboard-response,203,907653,0.0-15.0-2.13,29709,List2B,black,woman,,,,null,,,,
8281,,,survey-text,204,915943,0.0-15.0-3.13,29709,List2B,black,woman,,,,,"{""Q0"":""kate is fighting mike""}","<img src=""stim_listB/fight3.gif""style=""height:400px;""></stim_listB>",is fighting,
null,"<div style=""font-size:60px;"">+</div>",,html-keyboard-response,205,916449,0.0-15.0-0.14,29709,List2B,black,woman,,,,null,,,,
null,"<img src=""stim_listB/marry6.gif""style=""height:400px;""></stim_listB>",,html-keyboard-response,206,918452,0.0-15.0-1.14,29709,List2B,black,woman,,,,null,,,,
null,are marrying each other,,html-keyboard-response,207,920455,0.0-15.0-2.14,29709,List2B,black,woman,,,,null,,,,
14989,,,survey-text,208,935448,0.0-15.0-3.14,29709,List2B,black,woman,,,,,"{""Q0"":""mike and luke are marrying each other""}","<img src=""stim_listB/marry6.gif""style=""height:400px;""></stim_listB>",are marrying each other,
null,"<div style=""font-size:60px;"">+</div>",,html-keyboard-response,209,935952,0.0-15.0-0.15,29709,List2B,black,woman,,,,null,,,,
null,"<img src=""stim_listB/fight1.gif""style=""height:400px;""></stim_listB>",,html-keyboard-response,210,937958,0.0-15.0-1.15,29709,List2B,black,woman,,,,null,,,,
null,is fighting,,html-keyboard-response,211,939962,0.0-15.0-2.15,29709,List2B,black,woman,,,,null,,,,
9226,,,survey-text,212,949195,0.0-15.0-3.15,29709,List2B,black,woman,,,,,"{""Q0"":""jane is fighting with dave""}","<img src=""stim_listB/fight1.gif""style=""height:400px;""></stim_listB>",is fighting,
null,"<div style=""font-size:60px;"">+</div>",,html-keyboard-response,213,949701,0.0-15.0-0.16,29709,List2B,black,woman,,,,null,,,,
null,"<img src=""stim_listB/play6.gif""style=""height:400px;""></stim_listB>",,html-keyboard-response,214,951707,0.0-15.0-1.16,29709,List2B,black,woman,,,,null,,,,
null,are playing with each other,,html-keyboard-response,215,953711,0.0-15.0-2.16,29709,List2B,black,woman,,,,null,,,,
17122,,,survey-text,216,970838,0.0-15.0-3.16,29709,List2B,black,woman,,,,,"{""Q0"":""luke and fred are playing with each other""}","<img src=""stim_listB/play6.gif""style=""height:400px;""></stim_listB>",are playing with each other,
null,"<div style=""font-size:60px;"">+</div>",,html-keyboard-response,217,971342,0.0-15.0-0.17,29709,List2B,black,woman,,,,null,,,,
null,"<img src=""stim_listB/talk8.gif""style=""height:400px;""></stim_listB>",,html-keyboard-response,218,973349,0.0-15.0-1.17,29709,List2B,black,woman,,,,null,,,,
null,are talking to each other,,html-keyboard-response,219,975352,0.0-15.0-2.17,29709,List2B,black,woman,,,,null,,,,
13226,,,survey-text,220,988581,0.0-15.0-3.17,29709,List2B,black,woman,,,,,"{""Q0"":""beth and jane are talking with each other""}","<img src=""stim_listB/talk8.gif""style=""height:400px;""></stim_listB>",are talking to each other,
null,"<div style=""font-size:60px;"">+</div>",,html-keyboard-response,221,989090,0.0-15.0-0.18,29709,List2B,black,woman,,,,null,,,,
null,"<img src=""stim_listB/argue5.gif""style=""height:400px;""></stim_listB>",,html-keyboard-response,222,991097,0.0-15.0-1.18,29709,List2B,black,woman,,,,null,,,,
null,is arguing with,,html-keyboard-response,223,993100,0.0-15.0-2.18,29709,List2B,black,woman,,,,null,,,,
8372,,,survey-text,224,1001475,0.0-15.0-3.18,29709,List2B,black,woman,,,,,"{""Q0"":""fred is arguing with dave""}","<img src=""stim_listB/argue5.gif""style=""height:400px;""></stim_listB>",is arguing with,
null,"<div style=""font-size:60px;"">+</div>",,html-keyboard-response,225,1001978,0.0-15.0-0.19,29709,List2B,black,woman,,,,null,,,,
null,"<img src=""stim_listB/play1.gif""style=""height:400px;""></stim_listB>",,html-keyboard-response,226,1003984,0.0-15.0-1.19,29709,List2B,black,woman,,,,null,,,,
null,is playing with,,html-keyboard-response,227,1005989,0.0-15.0-2.19,29709,List2B,black,woman,,,,null,,,,
9465,,,survey-text,228,1015457,0.0-15.0-3.19,29709,List2B,black,woman,,,,,"{""Q0"":""jane is playing with dave""}","<img src=""stim_listB/play1.gif""style=""height:400px;""></stim_listB>",is playing with,
8592,"<img src='img/portrait_matrix_list2.jpg' style='width:900px;height:500px;''></img><p>If you have memorised all the portraits and names and are ready to start, press Continue.</p><p><strong>Please note: Your memory of these faces will be tested 4 times during this experiment.</strong></p>",0,html-button-response,229,1024054,0.0-16.0-0.0,29709,List2B,black,woman,,,,,,,,
1977,"<img src=""portrait/WM1.jpg""style=""height:400px;""></img>",6,html-button-response,230,1027039,0.0-16.0-1.0,29709,List2B,black,woman,,TRUE,6,,,,,
null,CORRECT,,html-keyboard-response,231,1028544,0.0-16.0-2.0-0.0,29709,List2B,black,woman,,,,null,,,,
1480,"<img src=""portrait/WW1.jpg""style=""height:400px;""></img>",1,html-button-response,232,1030029,0.0-16.0-4.0,29709,List2B,black,woman,,TRUE,1,,,,,
null,CORRECT,,html-keyboard-response,233,1031532,0.0-16.0-5.0-0.0,29709,List2B,black,woman,,,,null,,,,
1452,"<img src=""portrait/BM1.jpg""style=""height:400px;""></img>",4,html-button-response,234,1032990,0.0-16.0-7.0,29709,List2B,black,woman,,TRUE,4,,,,,
null,CORRECT,,html-keyboard-response,235,1034494,0.0-16.0-8.0-0.0,29709,List2B,black,woman,,,,null,,,,
1102,"<img src=""portrait/WM2.jpg""style=""height:400px;""></img>",7,html-button-response,236,1035600,0.0-16.0-10.0,29709,List2B,black,woman,,TRUE,7,,,,,
null,CORRECT,,html-keyboard-response,237,1037109,0.0-16.0-11.0-0.0,29709,List2B,black,woman,,,,null,,,,
1180,"<img src=""portrait/BM2.jpg""style=""height:400px;""></img>",5,html-button-response,238,1038294,0.0-16.0-13.0,29709,List2B,black,woman,,TRUE,5,,,,,
null,CORRECT,,html-keyboard-response,239,1039798,0.0-16.0-14.0-0.0,29709,List2B,black,woman,,,,null,,,,
1252,"<img src=""portrait/BW1.jpg""style=""height:400px;""></img>",0,html-button-response,240,1041055,0.0-16.0-16.0,29709,List2B,black,woman,,TRUE,0,,,,,
null,CORRECT,,html-keyboard-response,241,1042560,0.0-16.0-17.0-0.0,29709,List2B,black,woman,,,,null,,,,
1114,"<img src=""portrait/WW2.jpg""style=""height:400px;""></img>",3,html-button-response,242,1043678,0.0-16.0-19.0,29709,List2B,black,woman,,TRUE,3,,,,,
null,CORRECT,,html-keyboard-response,243,1045182,0.0-16.0-20.0-0.0,29709,List2B,black,woman,,,,null,,,,
1544,"<img src=""portrait/BW2.jpg""style=""height:400px;""></img>",2,html-button-response,244,1046731,0.0-16.0-22.0,29709,List2B,black,woman,,TRUE,2,,,,,
null,CORRECT,,html-keyboard-response,245,1048235,0.0-16.0-23.0-0.0,29709,List2B,black,woman,,,,null,,,,
1103,<p>You got 8 out of 8 right first time. Press Continue.</p>,0,html-button-response,246,1049342,0.0-16.0-25.0,29709,List2B,black,woman,,,,,,,,
null,"<div style=""font-size:60px;"">+</div>",,html-keyboard-response,247,1050850,0.0-17.0-0.0,29709,List2B,black,woman,,,,null,,,,
null,"<img src=""stim_listB/touch7.gif""style=""height:400px;""></stim_listB>",,html-keyboard-response,248,1052856,0.0-17.0-1.0,29709,List2B,black,woman,,,,null,,,,
null,is touching,,html-keyboard-response,249,1054860,0.0-17.0-2.0,29709,List2B,black,woman,,,,null,,,,
8519,,,survey-text,250,1063382,0.0-17.0-3.0,29709,List2B,black,woman,,,,,"{""Q0"":""kate is touching jane""}","<img src=""stim_listB/touch7.gif""style=""height:400px;""></stim_listB>",is touching,
null,"<div style=""font-size:60px;"">+</div>",,html-keyboard-response,251,1063887,0.0-17.0-0.1,29709,List2B,black,woman,,,,null,,,,
null,"<img src=""stim_listB/kiss2.gif""style=""height:400px;""></stim_listB>",,html-keyboard-response,252,1065893,0.0-17.0-1.1,29709,List2B,black,woman,,,,null,,,,
null,are kissing each other,,html-keyboard-response,253,1067897,0.0-17.0-2.1,29709,List2B,black,woman,,,,null,,,,
9904,,,survey-text,254,1077804,0.0-17.0-3.1,29709,List2B,black,woman,,,,,"{""Q0"":""jane and dave are kissing each other""}","<img src=""stim_listB/kiss2.gif""style=""height:400px;""></stim_listB>",are kissing each other,
null,"<div style=""font-size:60px;"">+</div>",,html-keyboard-response,255,1078309,0.0-17.0-0.2,29709,List2B,black,woman,,,,null,,,,
null,"<img src=""stim_listB/marry5.gif""style=""height:400px;""></stim_listB>",,html-keyboard-response,256,1080315,0.0-17.0-1.2,29709,List2B,black,woman,,,,null,,,,
null,is marrying,,html-keyboard-response,257,1082319,0.0-17.0-2.2,29709,List2B,black,woman,,,,null,,,,
7561,,,survey-text,258,1089883,0.0-17.0-3.2,29709,List2B,black,woman,,,,,"{""Q0"":""dave is marrying fred""}","<img src=""stim_listB/marry5.gif""style=""height:400px;""></stim_listB>",is marrying,
null,"<div style=""font-size:60px;"">+</div>",,html-keyboard-response,259,1090386,0.0-17.0-0.3,29709,List2B,black,woman,,,,null,,,,
null,"<img src=""stim_listB/fight2.gif""style=""height:400px;""></stim_listB>",,html-keyboard-response,260,1092391,0.0-17.0-1.3,29709,List2B,black,woman,,,,null,,,,
null,are fighting each other,,html-keyboard-response,261,1094395,0.0-17.0-2.3,29709,List2B,black,woman,,,,null,,,,
15563,,,survey-text,262,1109960,0.0-17.0-3.3,29709,List2B,black,woman,,,,,"{""Q0"":""ruth and luke are fighting each other""}","<img src=""stim_listB/fight2.gif""style=""height:400px;""></stim_listB>",are fighting each other,
null,"<div style=""font-size:60px;"">+</div>",,html-keyboard-response,263,1110465,0.0-17.0-0.4,29709,List2B,black,woman,,,,null,,,,
null,"<img src=""stim_listB/marry3.gif""style=""height:400px;""></stim_listB>",,html-keyboard-response,264,1112470,0.0-17.0-1.4,29709,List2B,black,woman,,,,null,,,,
null,is marrying,,html-keyboard-response,265,1114473,0.0-17.0-2.4,29709,List2B,black,woman,,,,null,,,,
8693,,,survey-text,266,1123171,0.0-17.0-3.4,29709,List2B,black,woman,,,,,"{""Q0"":""beth is marrying mike""}","<img src=""stim_listB/marry3.gif""style=""height:400px;""></stim_listB>",is marrying,
null,"<div style=""font-size:60px;"">+</div>",,html-keyboard-response,267,1123678,0.0-17.0-0.5,29709,List2B,black,woman,,,,null,,,,
null,"<img src=""stim_listB/fight7.gif""style=""height:400px;""></stim_listB>",,html-keyboard-response,268,1125690,0.0-17.0-1.5,29709,List2B,black,woman,,,,null,,,,
null,is fighting,,html-keyboard-response,269,1127692,0.0-17.0-2.5,29709,List2B,black,woman,,,,null,,,,
7115,,,survey-text,270,1134810,0.0-17.0-3.5,29709,List2B,black,woman,,,,,"{""Q0"":""jane is fighting kate""}","<img src=""stim_listB/fight7.gif""style=""height:400px;""></stim_listB>",is fighting,
null,"<div style=""font-size:60px;"">+</div>",,html-keyboard-response,271,1135313,0.0-17.0-0.6,29709,List2B,black,woman,,,,null,,,,
null,"<img src=""stim_listB/fight8.gif""style=""height:400px;""></stim_listB>",,html-keyboard-response,272,1137319,0.0-17.0-1.6,29709,List2B,black,woman,,,,null,,,,
null,are fighting each other,,html-keyboard-response,273,1139322,0.0-17.0-2.6,29709,List2B,black,woman,,,,null,,,,
13789,,,survey-text,274,1153115,0.0-17.0-3.6,29709,List2B,black,woman,,,,,"{""Q0"":""ruth and beth are fighting each other""}","<img src=""stim_listB/fight8.gif""style=""height:400px;""></stim_listB>",are fighting each other,
null,"<div style=""font-size:60px;"">+</div>",,html-keyboard-response,275,1153619,0.0-17.0-0.7,29709,List2B,black,woman,,,,null,,,,
null,"<img src=""stim_listB/dance7.gif""style=""height:400px;""></stim_listB>",,html-keyboard-response,276,1155623,0.0-17.0-1.7,29709,List2B,black,woman,,,,null,,,,
null,is dancing with,,html-keyboard-response,277,1157625,0.0-17.0-2.7,29709,List2B,black,woman,,,,null,,,,
7464,,,survey-text,278,1165093,0.0-17.0-3.7,29709,List2B,black,woman,,,,,"{""Q0"":""ruth is dancing with kate""}","<img src=""stim_listB/dance7.gif""style=""height:400px;""></stim_listB>",is dancing with,
null,"<div style=""font-size:60px;"">+</div>",,html-keyboard-response,279,1165600,0.0-17.0-0.8,29709,List2B,black,woman,,,,null,,,,
null,"<img src=""stim_listB/kiss8.gif""style=""height:400px;""></stim_listB>",,html-keyboard-response,280,1167607,0.0-17.0-1.8,29709,List2B,black,woman,,,,null,,,,
null,are kissing each other,,html-keyboard-response,281,1169609,0.0-17.0-2.8,29709,List2B,black,woman,,,,null,,,,
10938,,,survey-text,282,1180550,0.0-17.0-3.8,29709,List2B,black,woman,,,,,"{""Q0"":""jane and kate are kissing each other""}","<img src=""stim_listB/kiss8.gif""style=""height:400px;""></stim_listB>",are kissing each other,
null,"<div style=""font-size:60px;"">+</div>",,html-keyboard-response,283,1181053,0.0-17.0-0.9,29709,List2B,black,woman,,,,null,,,,
null,"<img src=""stim_listB/marry1.gif""style=""height:400px;""></stim_listB>",,html-keyboard-response,284,1183056,0.0-17.0-1.9,29709,List2B,black,woman,,,,null,,,,
null,is marrying,,html-keyboard-response,285,1185061,0.0-17.0-2.9,29709,List2B,black,woman,,,,null,,,,
7829,,,survey-text,286,1192897,0.0-17.0-3.9,29709,List2B,black,woman,,,,,"{""Q0"":""ruth is marrying dave""}","<img src=""stim_listB/marry1.gif""style=""height:400px;""></stim_listB>",is marrying,
null,"<div style=""font-size:60px;"">+</div>",,html-keyboard-response,287,1193411,0.0-17.0-0.10,29709,List2B,black,woman,,,,null,,,,
null,"<img src=""stim_listB/flirt5.gif""style=""height:400px;""></stim_listB>",,html-keyboard-response,288,1195419,0.0-17.0-1.10,29709,List2B,black,woman,,,,null,,,,
null,is flirting with,,html-keyboard-response,289,1197421,0.0-17.0-2.10,29709,List2B,black,woman,,,,null,,,,
8069,,,survey-text,290,1205493,0.0-17.0-3.10,29709,List2B,black,woman,,,,,"{""Q0"":""luke is flirting with mike""}","<img src=""stim_listB/flirt5.gif""style=""height:400px;""></stim_listB>",is flirting with,
null,"<div style=""font-size:60px;"">+</div>",,html-keyboard-response,291,1206000,0.0-17.0-0.11,29709,List2B,black,woman,,,,null,,,,
null,"<img src=""stim_listB/flirt6.gif""style=""height:400px;""></stim_listB>",,html-keyboard-response,292,1208004,0.0-17.0-1.11,29709,List2B,black,woman,,,,null,,,,
null,are flirting with each other,,html-keyboard-response,293,1210007,0.0-17.0-2.11,29709,List2B,black,woman,,,,null,,,,
14927,,,survey-text,294,1224938,0.0-17.0-3.11,29709,List2B,black,woman,,,,,"{""Q0"":""dave and fred are flirting with each other""}","<img src=""stim_listB/flirt6.gif""style=""height:400px;""></stim_listB>",are flirting with each other,
null,"<div style=""font-size:60px;"">+</div>",,html-keyboard-response,295,1225444,0.0-17.0-0.12,29709,List2B,black,woman,,,,null,,,,
null,"<img src=""stim_listB/shout4.gif""style=""height:400px;""></stim_listB>",,html-keyboard-response,296,1227450,0.0-17.0-1.12,29709,List2B,black,woman,,,,null,,,,
null,are shouting at each other,,html-keyboard-response,297,1229452,0.0-17.0-2.12,29709,List2B,black,woman,,,,null,,,,
13144,,,survey-text,298,1242600,0.0-17.0-3.12,29709,List2B,black,woman,,,,,"{""Q0"":""mike and kate are shouting at each other""}","<img src=""stim_listB/shout4.gif""style=""height:400px;""></stim_listB>",are shouting at each other,
null,"<div style=""font-size:60px;"">+</div>",,html-keyboard-response,299,1243106,0.0-17.0-0.13,29709,List2B,black,woman,,,,null,,,,
null,"<img src=""stim_listB/talk2.gif""style=""height:400px;""></stim_listB>",,html-keyboard-response,300,1245111,0.0-17.0-1.13,29709,List2B,black,woman,,,,null,,,,
null,are talking to each other,,html-keyboard-response,301,1247114,0.0-17.0-2.13,29709,List2B,black,woman,,,,null,,,,
20997,,,survey-text,302,1268115,0.0-17.0-3.13,29709,List2B,black,woman,,,,,"{""Q0"":""ruth and dave are talking with each other""}","<img src=""stim_listB/talk2.gif""style=""height:400px;""></stim_listB>",are talking to each other,
null,"<div style=""font-size:60px;"">+</div>",,html-keyboard-response,303,1268621,0.0-17.0-0.14,29709,List2B,black,woman,,,,null,,,,
null,"<img src=""stim_listB/dance1.gif""style=""height:400px;""></stim_listB>",,html-keyboard-response,304,1270627,0.0-17.0-1.14,29709,List2B,black,woman,,,,null,,,,
null,is dancing with,,html-keyboard-response,305,1272629,0.0-17.0-2.14,29709,List2B,black,woman,,,,null,,,,
10324,,,survey-text,306,1282956,0.0-17.0-3.14,29709,List2B,black,woman,,,,,"{""Q0"":""luke is dancing with jane""}","<img src=""stim_listB/dance1.gif""style=""height:400px;""></stim_listB>",is dancing with,
null,"<div style=""font-size:60px;"">+</div>",,html-keyboard-response,307,1283461,0.0-17.0-0.15,29709,List2B,black,woman,,,,null,,,,
null,"<img src=""stim_listB/play4.gif""style=""height:400px;""></stim_listB>",,html-keyboard-response,308,1285464,0.0-17.0-1.15,29709,List2B,black,woman,,,,null,,,,
null,are playing with each other,,html-keyboard-response,309,1287466,0.0-17.0-2.15,29709,List2B,black,woman,,,,null,,,,
13896,,,survey-text,310,1301364,0.0-17.0-3.15,29709,List2B,black,woman,,,,,"{""Q0"":""beth and fred are playing with each other""}","<img src=""stim_listB/play4.gif""style=""height:400px;""></stim_listB>",are playing with each other,
null,"<div style=""font-size:60px;"">+</div>",,html-keyboard-response,311,1301873,0.0-17.0-0.16,29709,List2B,black,woman,,,,null,,,,
null,"<img src=""stim_listB/talk4.gif""style=""height:400px;""></stim_listB>",,html-keyboard-response,312,1303881,0.0-17.0-1.16,29709,List2B,black,woman,,,,null,,,,
null,are talking to each other,,html-keyboard-response,313,1305886,0.0-17.0-2.16,29709,List2B,black,woman,,,,null,,,,
11162,,,survey-text,314,1317051,0.0-17.0-3.16,29709,List2B,black,woman,,,,,"{""Q0"":""beth and mike are talking with each other""}","<img src=""stim_listB/talk4.gif""style=""height:400px;""></stim_listB>",are talking to each other,
null,"<div style=""font-size:60px;"">+</div>",,html-keyboard-response,315,1317558,0.0-17.0-0.17,29709,List2B,black,woman,,,,null,,,,
null,"<img src=""stim_listB/flirt8.gif""style=""height:400px;""></stim_listB>",,html-keyboard-response,316,1319564,0.0-17.0-1.17,29709,List2B,black,woman,,,,null,,,,
null,are flirting with each other,,html-keyboard-response,317,1321567,0.0-17.0-2.17,29709,List2B,black,woman,,,,null,,,,
15217,,,survey-text,318,1336791,0.0-17.0-3.17,29709,List2B,black,woman,,,,,"{""Q0"":""beth and jane are flirting with each other""}","<img src=""stim_listB/flirt8.gif""style=""height:400px;""></stim_listB>",are flirting with each other,
null,"<div style=""font-size:60px;"">+</div>",,html-keyboard-response,319,1337299,0.0-17.0-0.18,29709,List2B,black,woman,,,,null,,,,
null,"<img src=""stim_listB/touch6.gif""style=""height:400px;""></stim_listB>",,html-keyboard-response,320,1339307,0.0-17.0-1.18,29709,List2B,black,woman,,,,null,,,,
null,are touching each other,,html-keyboard-response,321,1341310,0.0-17.0-2.18,29709,List2B,black,woman,,,,null,,,,
8696,,,survey-text,322,1350009,0.0-17.0-3.18,29709,List2B,black,woman,,,,,"{""Q0"":""luke and fred are touching each other""}","<img src=""stim_listB/touch6.gif""style=""height:400px;""></stim_listB>",are touching each other,
null,"<div style=""font-size:60px;"">+</div>",,html-keyboard-response,323,1350514,0.0-17.0-0.19,29709,List2B,black,woman,,,,null,,,,
null,"<img src=""stim_listB/argue2.gif""style=""height:400px;""></stim_listB>",,html-keyboard-response,324,1352519,0.0-17.0-1.19,29709,List2B,black,woman,,,,null,,,,
null,are arguing with each other,,html-keyboard-response,325,1354522,0.0-17.0-2.19,29709,List2B,black,woman,,,,null,,,,
11985,,,survey-text,326,1366510,0.0-17.0-3.19,29709,List2B,black,woman,,,,,"{""Q0"":""jane and luke are arguing with each other""}","<img src=""stim_listB/argue2.gif""style=""height:400px;""></stim_listB>",are arguing with each other,
4101,"<img src='img/portrait_matrix_list2.jpg' style='width:900px;height:500px;''></img><p>If you have memorised all the portraits and names and are ready to start, press Continue.</p><p><strong>Please note: Your memory of these faces will be tested 4 times during this experiment.</strong></p>",0,html-button-response,327,1370615,0.0-18.0-0.0,29709,List2B,black,woman,,,,,,,,
1739,"<img src=""portrait/WW1.jpg""style=""height:400px;""></img>",1,html-button-response,328,1373360,0.0-18.0-1.0,29709,List2B,black,woman,,TRUE,1,,,,,
null,CORRECT,,html-keyboard-response,329,1374886,0.0-18.0-2.0-0.0,29709,List2B,black,woman,,,,null,,,,
1441,"<img src=""portrait/BM2.jpg""style=""height:400px;""></img>",5,html-button-response,330,1376333,0.0-18.0-4.0,29709,List2B,black,woman,,TRUE,5,,,,,
null,CORRECT,,html-keyboard-response,331,1377837,0.0-18.0-5.0-0.0,29709,List2B,black,woman,,,,null,,,,
1126,"<img src=""portrait/WM2.jpg""style=""height:400px;""></img>",7,html-button-response,332,1378968,0.0-18.0-7.0,29709,List2B,black,woman,,TRUE,7,,,,,
null,CORRECT,,html-keyboard-response,333,1380473,0.0-18.0-8.0-0.0,29709,List2B,black,woman,,,,null,,,,
1801,"<img src=""portrait/BW2.jpg""style=""height:400px;""></img>",2,html-button-response,334,1382278,0.0-18.0-10.0,29709,List2B,black,woman,,TRUE,2,,,,,
null,CORRECT,,html-keyboard-response,335,1383785,0.0-18.0-11.0-0.0,29709,List2B,black,woman,,,,null,,,,
1229,"<img src=""portrait/BW1.jpg""style=""height:400px;""></img>",0,html-button-response,336,1385017,0.0-18.0-13.0,29709,List2B,black,woman,,TRUE,0,,,,,
null,CORRECT,,html-keyboard-response,337,1386524,0.0-18.0-14.0-0.0,29709,List2B,black,woman,,,,null,,,,
1774,"<img src=""portrait/BM1.jpg""style=""height:400px;""></img>",4,html-button-response,338,1388302,0.0-18.0-16.0,29709,List2B,black,woman,,TRUE,4,,,,,
null,CORRECT,,html-keyboard-response,339,1389811,0.0-18.0-17.0-0.0,29709,List2B,black,woman,,,,null,,,,
1210,"<img src=""portrait/WW2.jpg""style=""height:400px;""></img>",3,html-button-response,340,1391027,0.0-18.0-19.0,29709,List2B,black,woman,,TRUE,3,,,,,
null,CORRECT,,html-keyboard-response,341,1392531,0.0-18.0-20.0-0.0,29709,List2B,black,woman,,,,null,,,,
3601,"<img src=""portrait/WM1.jpg""style=""height:400px;""></img>",6,html-button-response,342,1396136,0.0-18.0-22.0,29709,List2B,black,woman,,TRUE,6,,,,,
null,CORRECT,,html-keyboard-response,343,1397641,0.0-18.0-23.0-0.0,29709,List2B,black,woman,,,,null,,,,
1068,<p>You got 8 out of 8 right first time. Press Continue.</p>,0,html-button-response,344,1398714,0.0-18.0-25.0,29709,List2B,black,woman,,,,,,,,
null,"<div style=""font-size:60px;"">+</div>",,html-keyboard-response,345,1400219,0.0-19.0-0.0,29709,List2B,black,woman,,,,null,,,,
null,"<img src=""stim_listB/talk1.gif""style=""height:400px;""></stim_listB>",,html-keyboard-response,346,1402224,0.0-19.0-1.0,29709,List2B,black,woman,,,,null,,,,
null,is talking to,,html-keyboard-response,347,1404228,0.0-19.0-2.0,29709,List2B,black,woman,,,,null,,,,
11932,,,survey-text,348,1416165,0.0-19.0-3.0,29709,List2B,black,woman,,,,,"{""Q0"":""luke is talking to jane""}","<img src=""stim_listB/talk1.gif""style=""height:400px;""></stim_listB>",is talking to,
null,"<div style=""font-size:60px;"">+</div>",,html-keyboard-response,349,1416669,0.0-19.0-0.1,29709,List2B,black,woman,,,,null,,,,
null,"<img src=""stim_listB/kiss3.gif""style=""height:400px;""></stim_listB>",,html-keyboard-response,350,1418674,0.0-19.0-1.1,29709,List2B,black,woman,,,,null,,,,
null,is kissing,,html-keyboard-response,351,1420677,0.0-19.0-2.1,29709,List2B,black,woman,,,,null,,,,
12397,,,survey-text,352,1433083,0.0-19.0-3.1,29709,List2B,black,woman,,,,,"{""Q0"":""beth is kissing fred""}","<img src=""stim_listB/kiss3.gif""style=""height:400px;""></stim_listB>",is kissing,
null,"<div style=""font-size:60px;"">+</div>",,html-keyboard-response,353,1433591,0.0-19.0-0.2,29709,List2B,black,woman,,,,null,,,,
null,"<img src=""stim_listB/fight6.gif""style=""height:400px;""></stim_listB>",,html-keyboard-response,354,1435603,0.0-19.0-1.2,29709,List2B,black,woman,,,,null,,,,
null,are fighting each other,,html-keyboard-response,355,1437607,0.0-19.0-2.2,29709,List2B,black,woman,,,,null,,,,
10019,,,survey-text,356,1447631,0.0-19.0-3.2,29709,List2B,black,woman,,,,,"{""Q0"":""luke and fred are fighting each other""}","<img src=""stim_listB/fight6.gif""style=""height:400px;""></stim_listB>",are fighting each other,
null,"<div style=""font-size:60px;"">+</div>",,html-keyboard-response,357,1448137,0.0-19.0-0.3,29709,List2B,black,woman,,,,null,,,,
null,"<img src=""stim_listB/flirt3.gif""style=""height:400px;""></stim_listB>",,html-keyboard-response,358,1450144,0.0-19.0-1.3,29709,List2B,black,woman,,,,null,,,,
null,is flirting with,,html-keyboard-response,359,1452148,0.0-19.0-2.3,29709,List2B,black,woman,,,,null,,,,
10021,,,survey-text,360,1462175,0.0-19.0-3.3,29709,List2B,black,woman,,,,,"{""Q0"":""fred is flirting with kate""}","<img src=""stim_listB/flirt3.gif""style=""height:400px;""></stim_listB>",is flirting with,
null,"<div style=""font-size:60px;"">+</div>",,html-keyboard-response,361,1462679,0.0-19.0-0.4,29709,List2B,black,woman,,,,null,,,,
null,"<img src=""stim_listB/dance8.gif""style=""height:400px;""></stim_listB>",,html-keyboard-response,362,1464682,0.0-19.0-1.4,29709,List2B,black,woman,,,,null,,,,
null,are dancing with each other,,html-keyboard-response,363,1466686,0.0-19.0-2.4,29709,List2B,black,woman,,,,null,,,,
12834,,,survey-text,364,1479525,0.0-19.0-3.4,29709,List2B,black,woman,,,,,"{""Q0"":""beth and jane are dancing with each other""}","<img src=""stim_listB/dance8.gif""style=""height:400px;""></stim_listB>",are dancing with each other,
null,"<div style=""font-size:60px;"">+</div>",,html-keyboard-response,365,1480031,0.0-19.0-0.5,29709,List2B,black,woman,,,,null,,,,
null,"<img src=""stim_listB/touch2.gif""style=""height:400px;""></stim_listB>",,html-keyboard-response,366,1482036,0.0-19.0-1.5,29709,List2B,black,woman,,,,null,,,,
null,are touching each other,,html-keyboard-response,367,1484039,0.0-19.0-2.5,29709,List2B,black,woman,,,,null,,,,
10281,,,survey-text,368,1494334,0.0-19.0-3.5,29709,List2B,black,woman,,,,,"{""Q0"":""ruth and luke are touching each other""}","<img src=""stim_listB/touch2.gif""style=""height:400px;""></stim_listB>",are touching each other,
null,"<div style=""font-size:60px;"">+</div>",,html-keyboard-response,369,1494842,0.0-19.0-0.6,29709,List2B,black,woman,,,,null,,,,
null,"<img src=""stim_listB/marry2.gif""style=""height:400px;""></stim_listB>",,html-keyboard-response,370,1496851,0.0-19.0-1.6,29709,List2B,black,woman,,,,null,,,,
null,are marrying each other,,html-keyboard-response,371,1498853,0.0-19.0-2.6,29709,List2B,black,woman,,,,null,,,,
10969,,,survey-text,372,1509827,0.0-19.0-3.6,29709,List2B,black,woman,,,,,"{""Q0"":""luke and jane are marrying each other""}","<img src=""stim_listB/marry2.gif""style=""height:400px;""></stim_listB>",are marrying each other,
null,"<div style=""font-size:60px;"">+</div>",,html-keyboard-response,373,1510331,0.0-19.0-0.7,29709,List2B,black,woman,,,,null,,,,
null,"<img src=""stim_listB/dance2.gif""style=""height:400px;""></stim_listB>",,html-keyboard-response,374,1512335,0.0-19.0-1.7,29709,List2B,black,woman,,,,null,,,,
null,are dancing with each other,,html-keyboard-response,375,1514339,0.0-19.0-2.7,29709,List2B,black,woman,,,,null,,,,
12198,,,survey-text,376,1526539,0.0-19.0-3.7,29709,List2B,black,woman,,,,,"{""Q0"":""ruth and dave are dancing with each other""}","<img src=""stim_listB/dance2.gif""style=""height:400px;""></stim_listB>",are dancing with each other,
null,"<div style=""font-size:60px;"">+</div>",,html-keyboard-response,377,1527042,0.0-19.0-0.8,29709,List2B,black,woman,,,,null,,,,
null,"<img src=""stim_listB/marry7.gif""style=""height:400px;""></stim_listB>",,html-keyboard-response,378,1529049,0.0-19.0-1.8,29709,List2B,black,woman,,,,null,,,,
null,is marrying,,html-keyboard-response,379,1531052,0.0-19.0-2.8,29709,List2B,black,woman,,,,null,,,,
8864,,,survey-text,380,1539919,0.0-19.0-3.8,29709,List2B,black,woman,,,,,"{""Q0"":""beth is marrying jane""}","<img src=""stim_listB/marry7.gif""style=""height:400px;""></stim_listB>",is marrying,
null,"<div style=""font-size:60px;"">+</div>",,html-keyboard-response,381,1540423,0.0-19.0-0.9,29709,List2B,black,woman,,,,null,,,,
null,"<img src=""stim_listB/kiss6.gif""style=""height:400px;""></stim_listB>",,html-keyboard-response,382,1542427,0.0-19.0-1.9,29709,List2B,black,woman,,,,null,,,,
null,are kissing each other,,html-keyboard-response,383,1544430,0.0-19.0-2.9,29709,List2B,black,woman,,,,null,,,,
14342,,,survey-text,384,1558776,0.0-19.0-3.9,29709,List2B,black,woman,,,,,"{""Q0"":""mike and dave are kissing each other""}","<img src=""stim_listB/kiss6.gif""style=""height:400px;""></stim_listB>",are kissing each other,
null,"<div style=""font-size:60px;"">+</div>",,html-keyboard-response,385,1559280,0.0-19.0-0.10,29709,List2B,black,woman,,,,null,,,,
null,"<img src=""stim_listB/marry8.gif""style=""height:400px;""></stim_listB>",,html-keyboard-response,386,1561286,0.0-19.0-1.10,29709,List2B,black,woman,,,,null,,,,
null,are marrying each other,,html-keyboard-response,387,1563289,0.0-19.0-2.10,29709,List2B,black,woman,,,,null,,,,
15289,,,survey-text,388,1578580,0.0-19.0-3.10,29709,List2B,black,woman,,,,,"{""Q0"":""beth and kate are marrying each other""}","<img src=""stim_listB/marry8.gif""style=""height:400px;""></stim_listB>",are marrying each other,
null,"<div style=""font-size:60px;"">+</div>",,html-keyboard-response,389,1579089,0.0-19.0-0.11,29709,List2B,black,woman,,,,null,,,,
null,"<img src=""stim_listB/argue4.gif""style=""height:400px;""></stim_listB>",,html-keyboard-response,390,1581094,0.0-19.0-1.11,29709,List2B,black,woman,,,,null,,,,
null,are arguing with each other,,html-keyboard-response,391,1583097,0.0-19.0-2.11,29709,List2B,black,woman,,,,null,,,,
14545,,,survey-text,392,1597645,0.0-19.0-3.11,29709,List2B,black,woman,,,,,"{""Q0"":""kate and fred are arguing with each other""}","<img src=""stim_listB/argue4.gif""style=""height:400px;""></stim_listB>",are arguing with each other,
null,"<div style=""font-size:60px;"">+</div>",,html-keyboard-response,393,1598149,0.0-19.0-0.12,29709,List2B,black,woman,,,,null,,,,
null,"<img src=""stim_listB/touch8.gif""style=""height:400px;""></stim_listB>",,html-keyboard-response,394,1600154,0.0-19.0-1.12,29709,List2B,black,woman,,,,null,,,,
null,are touching each other,,html-keyboard-response,395,1602158,0.0-19.0-2.12,29709,List2B,black,woman,,,,null,,,,
11091,,,survey-text,396,1613251,0.0-19.0-3.12,29709,List2B,black,woman,,,,,"{""Q0"":""beth and ruth are touching each other""}","<img src=""stim_listB/touch8.gif""style=""height:400px;""></stim_listB>",are touching each other,
null,"<div style=""font-size:60px;"">+</div>",,html-keyboard-response,397,1613755,0.0-19.0-0.13,29709,List2B,black,woman,,,,null,,,,
null,"<img src=""stim_listB/flirt4.gif""style=""height:400px;""></stim_listB>",,html-keyboard-response,398,1615761,0.0-19.0-1.13,29709,List2B,black,woman,,,,null,,,,
null,are flirting with each other,,html-keyboard-response,399,1617763,0.0-19.0-2.13,29709,List2B,black,woman,,,,null,,,,
9336,,,survey-text,400,1627102,0.0-19.0-3.13,29709,List2B,black,woman,,,,,"{""Q0"":""mike and beth are flirting with each other""}","<img src=""stim_listB/flirt4.gif""style=""height:400px;""></stim_listB>",are flirting with each other,
null,"<div style=""font-size:60px;"">+</div>",,html-keyboard-response,401,1627607,0.0-19.0-0.14,29709,List2B,black,woman,,,,null,,,,
null,"<img src=""stim_listB/argue1.gif""style=""height:400px;""></stim_listB>",,html-keyboard-response,402,1629611,0.0-19.0-1.14,29709,List2B,black,woman,,,,null,,,,
null,is arguing with,,html-keyboard-response,403,1631616,0.0-19.0-2.14,29709,List2B,black,woman,,,,null,,,,
9091,,,survey-text,404,1640710,0.0-19.0-3.14,29709,List2B,black,woman,,,,,"{""Q0"":""ruth is arguing with dave""}","<img src=""stim_listB/argue1.gif""style=""height:400px;""></stim_listB>",is arguing with,
null,"<div style=""font-size:60px;"">+</div>",,html-keyboard-response,405,1641214,0.0-19.0-0.15,29709,List2B,black,woman,,,,null,,,,
null,"<img src=""stim_listB/argue8.gif""style=""height:400px;""></stim_listB>",,html-keyboard-response,406,1643220,0.0-19.0-1.15,29709,List2B,black,woman,,,,null,,,,
null,are arguing with each other,,html-keyboard-response,407,1645221,0.0-19.0-2.15,29709,List2B,black,woman,,,,null,,,,
16585,,,survey-text,408,1661808,0.0-19.0-3.15,29709,List2B,black,woman,,,,,"{""Q0"":""ruth and kate are aruging with each other""}","<img src=""stim_listB/argue8.gif""style=""height:400px;""></stim_listB>",are arguing with each other,
null,"<div style=""font-size:60px;"">+</div>",,html-keyboard-response,409,1662311,0.0-19.0-0.16,29709,List2B,black,woman,,,,null,,,,
null,"<img src=""stim_listB/touch1.gif""style=""height:400px;""></stim_listB>",,html-keyboard-response,410,1664318,0.0-19.0-1.16,29709,List2B,black,woman,,,,null,,,,
null,is touching,,html-keyboard-response,411,1666321,0.0-19.0-2.16,29709,List2B,black,woman,,,,null,,,,
10311,,,survey-text,412,1676637,0.0-19.0-3.16,29709,List2B,black,woman,,,,,"{""Q0"":""jane is touching dave""}","<img src=""stim_listB/touch1.gif""style=""height:400px;""></stim_listB>",is touching,
null,"<div style=""font-size:60px;"">+</div>",,html-keyboard-response,413,1677141,0.0-19.0-0.17,29709,List2B,black,woman,,,,null,,,,
null,"<img src=""stim_listB/flirt2.gif""style=""height:400px;""></stim_listB>",,html-keyboard-response,414,1679144,0.0-19.0-1.17,29709,List2B,black,woman,,,,null,,,,
null,are flirting with each other,,html-keyboard-response,415,1681148,0.0-19.0-2.17,29709,List2B,black,woman,,,,null,,,,
17737,,,survey-text,416,1698888,0.0-19.0-3.17,29709,List2B,black,woman,,,,,"{""Q0"":""ruth and dave are flirting with each other""}","<img src=""stim_listB/flirt2.gif""style=""height:400px;""></stim_listB>",are flirting with each other,
null,"<div style=""font-size:60px;"">+</div>",,html-keyboard-response,417,1699394,0.0-19.0-0.18,29709,List2B,black,woman,,,,null,,,,
null,"<img src=""stim_listB/shout5.gif""style=""height:400px;""></stim_listB>",,html-keyboard-response,418,1701410,0.0-19.0-1.18,29709,List2B,black,woman,,,,null,,,,
null,is shouting at,,html-keyboard-response,419,1703414,0.0-19.0-2.18,29709,List2B,black,woman,,,,null,,,,
7317,,,survey-text,420,1710735,0.0-19.0-3.18,29709,List2B,black,woman,,,,,"{""Q0"":""fred is shouting at luke""}","<img src=""stim_listB/shout5.gif""style=""height:400px;""></stim_listB>",is shouting at,
null,"<div style=""font-size:60px;"">+</div>",,html-keyboard-response,421,1711246,0.0-19.0-0.19,29709,List2B,black,woman,,,,null,,,,
null,"<img src=""stim_listB/dance6.gif""style=""height:400px;""></stim_listB>",,html-keyboard-response,422,1713250,0.0-19.0-1.19,29709,List2B,black,woman,,,,null,,,,
null,are dancing with each other,,html-keyboard-response,423,1715252,0.0-19.0-2.19,29709,List2B,black,woman,,,,null,,,,
9025,,,survey-text,424,1724280,0.0-19.0-3.19,29709,List2B,black,woman,,,,,"{""Q0"":""fred and dave are dancing with each other""}","<img src=""stim_listB/dance6.gif""style=""height:400px;""></stim_listB>",are dancing with each other,
1968,<p>Thank you for completing that task.</p><p>The final part of this session is a short questionnaire.</p><p>Press Continue.</p>,0,html-button-response,425,1726254,0.0-20.0,29709,List2B,black,woman,,,,,,,,
27637,,,survey-text,426,1754900,0.0-21.0,29709,List2B,black,woman,,,,,"{""Q0"":""39"",""Q1"":""english"",""Q2"":""english"",""Q3"":""UK"",""Q4"":""BRITISH"",""Q5"":""FEMALE""}",,,demographics
8207,,,survey-likert,427,1763121,0.0-22.0,29709,List2B,black,woman,,,,,"{""Q0"":4}",,,likert_ESS
7186,,,survey-likert,428,1770332,0.0-23.0,29709,List2B,black,woman,,,,,"{""Q0"":4}",,,likert_NSSAL_Q1
9314,,,survey-likert,429,1779671,0.0-24.0,29709,List2B,black,woman,,,,,"{""Q0"":4}",,,likert_NSSAL_Q2
4421,,,survey-likert,430,1784116,0.0-25.0,29709,List2B,black,woman,,,,,"{""Q0"":4}",,,likert_CGRS_Q1
3634,,,survey-likert,431,1787778,0.0-26.0,29709,List2B,black,woman,,,,,"{""Q0"":4}",,,likert_CGRS_Q2
3083,,,survey-likert,432,1790891,0.0-27.0,29709,List2B,black,woman,,,,,"{""Q0"":4}",,,likert_CGRS_Q3
7565,,,survey-text,433,1798480,0.0-28.0,29709,List2B,black,woman,,,,,"{""Q0"":""ccc""}",,,worker_id
36914,,,external-html,434,1835666,0.0-29.0,29709,List2B,black,woman,debrief.html,,,,,,,
