rt,stimulus,button_pressed,trial_type,trial_index,time_elapsed,internal_node_id,subject,list,ppt_race,ppt_gender,url,first_guess,correct,key_press,responses,image_type,phrase_type,test_part
2288,Welcome to the experiment. Press Continue to begin.,0,html-button-response,0,2294,0.0-0.0,30209,List2B,white,woman,,,,,,,,
34497,,,external-html,1,37848,0.0-1.0,30209,List2B,white,woman,consent.html,,,,,,,
14191,"<p>On the next page, you will see portraits of 8 people and their names.</p><p>Your first task is to take a few minutes to memorise the names of these people.</p><p>You will have to recall their names during the rest of the experiment, so it is</p><p>essential that you try to memorise these people and their names as best as you can.</p><br><p><strong>You will then be tested on your memory of these names and portraits.</strong></p><br><p>The experiment will start after you have completed this memory test.</p><br><p>Ready?</p>",0,html-button-response,2,52041,0.0-2.0,30209,List2B,white,woman,,,,,,,,
76564,"<img src='img/portrait_matrix_list2.jpg' style='width:900px;height:500px;''></img><p>If you have memorised all the portraits and names and are ready to start, press Continue.</p><p><strong>Please note: Your memory of these faces will be tested 4 times during this experiment.</strong></p>",0,html-button-response,3,129609,0.0-3.0-0.0,30209,List2B,white,woman,,,,,,,,
4246,"<img src=""portrait/WM2.jpg""style=""height:400px;""></img>",7,html-button-response,4,134859,0.0-3.0-1.0,30209,List2B,white,woman,,TRUE,7,,,,,
null,CORRECT,,html-keyboard-response,5,136364,0.0-3.0-2.0-0.0,30209,List2B,white,woman,,,,null,,,,
3491,"<img src=""portrait/BM2.jpg""style=""height:400px;""></img>",5,html-button-response,6,139858,0.0-3.0-4.0,30209,List2B,white,woman,,TRUE,5,,,,,
null,CORRECT,,html-keyboard-response,7,141362,0.0-3.0-5.0-0.0,30209,List2B,white,woman,,,,null,,,,
3764,"<img src=""portrait/WM1.jpg""style=""height:400px;""></img>",6,html-button-response,8,145129,0.0-3.0-7.0,30209,List2B,white,woman,,TRUE,6,,,,,
null,CORRECT,,html-keyboard-response,9,146632,0.0-3.0-8.0-0.0,30209,List2B,white,woman,,,,null,,,,
2235,"<img src=""portrait/WW2.jpg""style=""height:400px;""></img>",3,html-button-response,10,148870,0.0-3.0-10.0,30209,List2B,white,woman,,TRUE,3,,,,,
null,CORRECT,,html-keyboard-response,11,150374,0.0-3.0-11.0-0.0,30209,List2B,white,woman,,,,null,,,,
3119,"<img src=""portrait/BW2.jpg""style=""height:400px;""></img>",2,html-button-response,12,153495,0.0-3.0-13.0,30209,List2B,white,woman,,TRUE,2,,,,,
null,CORRECT,,html-keyboard-response,13,154999,0.0-3.0-14.0-0.0,30209,List2B,white,woman,,,,null,,,,
2146,"<img src=""portrait/WW1.jpg""style=""height:400px;""></img>",1,html-button-response,14,157148,0.0-3.0-16.0,30209,List2B,white,woman,,TRUE,1,,,,,
null,CORRECT,,html-keyboard-response,15,158652,0.0-3.0-17.0-0.0,30209,List2B,white,woman,,,,null,,,,
3069,"<img src=""portrait/BM1.jpg""style=""height:400px;""></img>",4,html-button-response,16,161723,0.0-3.0-19.0,30209,List2B,white,woman,,TRUE,4,,,,,
null,CORRECT,,html-keyboard-response,17,163227,0.0-3.0-20.0-0.0,30209,List2B,white,woman,,,,null,,,,
4529,"<img src=""portrait/BW1.jpg""style=""height:400px;""></img>",0,html-button-response,18,167758,0.0-3.0-22.0,30209,List2B,white,woman,,TRUE,0,,,,,
null,CORRECT,,html-keyboard-response,19,169262,0.0-3.0-23.0-0.0,30209,List2B,white,woman,,,,null,,,,
2403,<p>You got 8 out of 8 right first time. Press Continue.</p>,0,html-button-response,20,171667,0.0-3.0-25.0,30209,List2B,white,woman,,,,,,,,
31095,"<p>In this experiment, you will view photographs of the people from the memory game interacting.</p><p>By using the <strong>exact</strong> phrase given <i>after</i> the photograph appears and recalling the correct names of the people in the photographs, form a sentence describing the interaction. You do not need to capitalise names.</p><p>Type your answer in the space provided. Please complete every sentence before moving onto the next trial.</p><p>You will only have a few seconds to memorise each given photograph and phrase before you can respond, so try your best to focus.</p><p>An example is given below. Press 'Continue' when you are ready.</p><img src='img/speaking_example.jpg' style='width:800px;height:460px;''></img>",0,html-button-response,21,203766,0.0-4.0,30209,List2B,white,woman,,,,,,,,
6081,"<p>Before the experiment starts, you will watch two example trials. Press 'Continue'.</p>",0,html-button-response,22,210850,0.0-5.0,30209,List2B,white,woman,,,,,,,,
null,<img src='img/meet_eg.gif' style='height:400px;''></img>,,html-keyboard-response,23,213854,0.0-6.0,30209,List2B,white,woman,,,,null,,,,
null,<p>is meeting</p>,,html-keyboard-response,24,215857,0.0-7.0,30209,List2B,white,woman,,,,null,,,,
3550,<p><b>Answer:</b> jane is meeting ruth</p>,0,html-button-response,25,219409,0.0-8.0,30209,List2B,white,woman,,,,,,,,
null,<img src='img/look_eg.gif' style='height:400px;''></img>,,html-keyboard-response,26,222413,0.0-9.0,30209,List2B,white,woman,,,,null,,,,
null,<p>are looking at each other</p>,,html-keyboard-response,27,224416,0.0-10.0,30209,List2B,white,woman,,,,null,,,,
4717,<p><b>Answer:</b> fred and mike are looking at each other</p>,0,html-button-response,28,229134,0.0-11.0,30209,List2B,white,woman,,,,,,,,
5651,"<p>Ready to start the experiment?</p><br><p><strong>Remember to describe the picture using a full sentence,</strong></p><p><strong>that combines the names of the people with the <i>exact</i> phrase given.</strong></p><p><strong>To receive full payment you must do this correctly.</strong></p><p><strong> You do not need to capitalise names or use punctuation.</strong></p><br><p>Press 'Continue' to begin.</p>",0,html-button-response,29,235787,0.0-12.0,30209,List2B,white,woman,,,,,,,,
null,"<div style=""font-size:60px;"">+</div>",,html-keyboard-response,30,237291,0.0-13.0-0.0,30209,List2B,white,woman,,,,null,,,,
null,"<img src=""stim_listB/fight2.gif""style=""height:400px;""></stim_listB>",,html-keyboard-response,31,239295,0.0-13.0-1.0,30209,List2B,white,woman,,,,null,,,,
null,are fighting each other,,html-keyboard-response,32,241298,0.0-13.0-2.0,30209,List2B,white,woman,,,,null,,,,
9995,,,survey-text,33,251295,0.0-13.0-3.0,30209,List2B,white,woman,,,,,"{""Q0"":""Luke and ruth are fighting each other""}","<img src=""stim_listB/fight2.gif""style=""height:400px;""></stim_listB>",are fighting each other,
null,"<div style=""font-size:60px;"">+</div>",,html-keyboard-response,34,251799,0.0-13.0-0.1,30209,List2B,white,woman,,,,null,,,,
null,"<img src=""stim_listB/fight5.gif""style=""height:400px;""></stim_listB>",,html-keyboard-response,35,253802,0.0-13.0-1.1,30209,List2B,white,woman,,,,null,,,,
null,is fighting,,html-keyboard-response,36,255805,0.0-13.0-2.1,30209,List2B,white,woman,,,,null,,,,
7825,,,survey-text,37,263631,0.0-13.0-3.1,30209,List2B,white,woman,,,,,"{""Q0"":""mike is fighting Dave""}","<img src=""stim_listB/fight5.gif""style=""height:400px;""></stim_listB>",is fighting,
null,"<div style=""font-size:60px;"">+</div>",,html-keyboard-response,38,264133,0.0-13.0-0.2,30209,List2B,white,woman,,,,null,,,,
null,"<img src=""stim_listB/marry7.gif""style=""height:400px;""></stim_listB>",,html-keyboard-response,39,266137,0.0-13.0-1.2,30209,List2B,white,woman,,,,null,,,,
null,is marrying,,html-keyboard-response,40,268140,0.0-13.0-2.2,30209,List2B,white,woman,,,,null,,,,
6129,,,survey-text,41,274270,0.0-13.0-3.2,30209,List2B,white,woman,,,,,"{""Q0"":""Beth is marrying Jane""}","<img src=""stim_listB/marry7.gif""style=""height:400px;""></stim_listB>",is marrying,
null,"<div style=""font-size:60px;"">+</div>",,html-keyboard-response,42,274773,0.0-13.0-0.3,30209,List2B,white,woman,,,,null,,,,
null,"<img src=""stim_listB/flirt4.gif""style=""height:400px;""></stim_listB>",,html-keyboard-response,43,276776,0.0-13.0-1.3,30209,List2B,white,woman,,,,null,,,,
null,are flirting with each other,,html-keyboard-response,44,278780,0.0-13.0-2.3,30209,List2B,white,woman,,,,null,,,,
13887,,,survey-text,45,292668,0.0-13.0-3.3,30209,List2B,white,woman,,,,,"{""Q0"":""mike Beth""}","<img src=""stim_listB/flirt4.gif""style=""height:400px;""></stim_listB>",are flirting with each other,
null,"<div style=""font-size:60px;"">+</div>",,html-keyboard-response,46,293171,0.0-13.0-0.4,30209,List2B,white,woman,,,,null,,,,
null,"<img src=""stim_listB/kiss4.gif""style=""height:400px;""></stim_listB>",,html-keyboard-response,47,295175,0.0-13.0-1.4,30209,List2B,white,woman,,,,null,,,,
null,are kissing each other,,html-keyboard-response,48,297178,0.0-13.0-2.4,30209,List2B,white,woman,,,,null,,,,
10770,,,survey-text,49,307949,0.0-13.0-3.4,30209,List2B,white,woman,,,,,"{""Q0"":""mike and Kate are kissing each other""}","<img src=""stim_listB/kiss4.gif""style=""height:400px;""></stim_listB>",are kissing each other,
null,"<div style=""font-size:60px;"">+</div>",,html-keyboard-response,50,308452,0.0-13.0-0.5,30209,List2B,white,woman,,,,null,,,,
null,"<img src=""stim_listB/shout6.gif""style=""height:400px;""></stim_listB>",,html-keyboard-response,51,310456,0.0-13.0-1.5,30209,List2B,white,woman,,,,null,,,,
null,are shouting at each other,,html-keyboard-response,52,312459,0.0-13.0-2.5,30209,List2B,white,woman,,,,null,,,,
8641,,,survey-text,53,321101,0.0-13.0-3.5,30209,List2B,white,woman,,,,,"{""Q0"":""mike and Dave are shouting at each other""}","<img src=""stim_listB/shout6.gif""style=""height:400px;""></stim_listB>",are shouting at each other,
null,"<div style=""font-size:60px;"">+</div>",,html-keyboard-response,54,321604,0.0-13.0-0.6,30209,List2B,white,woman,,,,null,,,,
null,"<img src=""stim_listB/marry2.gif""style=""height:400px;""></stim_listB>",,html-keyboard-response,55,323608,0.0-13.0-1.6,30209,List2B,white,woman,,,,null,,,,
null,are marrying each other,,html-keyboard-response,56,325611,0.0-13.0-2.6,30209,List2B,white,woman,,,,null,,,,
9850,,,survey-text,57,335462,0.0-13.0-3.6,30209,List2B,white,woman,,,,,"{""Q0"":""Luke and Jane are marrying each other""}","<img src=""stim_listB/marry2.gif""style=""height:400px;""></stim_listB>",are marrying each other,
null,"<div style=""font-size:60px;"">+</div>",,html-keyboard-response,58,335965,0.0-13.0-0.7,30209,List2B,white,woman,,,,null,,,,
null,"<img src=""stim_listB/touch5.gif""style=""height:400px;""></stim_listB>",,html-keyboard-response,59,337968,0.0-13.0-1.7,30209,List2B,white,woman,,,,null,,,,
null,is touching,,html-keyboard-response,60,339972,0.0-13.0-2.7,30209,List2B,white,woman,,,,null,,,,
5915,,,survey-text,61,345887,0.0-13.0-3.7,30209,List2B,white,woman,,,,,"{""Q0"":""mike is touching Dave""}","<img src=""stim_listB/touch5.gif""style=""height:400px;""></stim_listB>",is touching,
null,"<div style=""font-size:60px;"">+</div>",,html-keyboard-response,62,346390,0.0-13.0-0.8,30209,List2B,white,woman,,,,null,,,,
null,"<img src=""stim_listB/argue3.gif""style=""height:400px;""></stim_listB>",,html-keyboard-response,63,348394,0.0-13.0-1.8,30209,List2B,white,woman,,,,null,,,,
null,is arguing with,,html-keyboard-response,64,350397,0.0-13.0-2.8,30209,List2B,white,woman,,,,null,,,,
8026,,,survey-text,65,358424,0.0-13.0-3.8,30209,List2B,white,woman,,,,,"{""Q0"":""mike is arguing with Kate""}","<img src=""stim_listB/argue3.gif""style=""height:400px;""></stim_listB>",is arguing with,
null,"<div style=""font-size:60px;"">+</div>",,html-keyboard-response,66,358927,0.0-13.0-0.9,30209,List2B,white,woman,,,,null,,,,
null,"<img src=""stim_listB/play7.gif""style=""height:400px;""></stim_listB>",,html-keyboard-response,67,360930,0.0-13.0-1.9,30209,List2B,white,woman,,,,null,,,,
null,is playing with,,html-keyboard-response,68,362933,0.0-13.0-2.9,30209,List2B,white,woman,,,,null,,,,
5760,,,survey-text,69,368694,0.0-13.0-3.9,30209,List2B,white,woman,,,,,"{""Q0"":""Jane is playing with Kate""}","<img src=""stim_listB/play7.gif""style=""height:400px;""></stim_listB>",is playing with,
null,"<div style=""font-size:60px;"">+</div>",,html-keyboard-response,70,369197,0.0-13.0-0.10,30209,List2B,white,woman,,,,null,,,,
null,"<img src=""stim_listB/touch1.gif""style=""height:400px;""></stim_listB>",,html-keyboard-response,71,371201,0.0-13.0-1.10,30209,List2B,white,woman,,,,null,,,,
null,is touching,,html-keyboard-response,72,373204,0.0-13.0-2.10,30209,List2B,white,woman,,,,null,,,,
7271,,,survey-text,73,380475,0.0-13.0-3.10,30209,List2B,white,woman,,,,,"{""Q0"":""Jane is touching Dave""}","<img src=""stim_listB/touch1.gif""style=""height:400px;""></stim_listB>",is touching,
null,"<div style=""font-size:60px;"">+</div>",,html-keyboard-response,74,380978,0.0-13.0-0.11,30209,List2B,white,woman,,,,null,,,,
null,"<img src=""stim_listB/argue7.gif""style=""height:400px;""></stim_listB>",,html-keyboard-response,75,382982,0.0-13.0-1.11,30209,List2B,white,woman,,,,null,,,,
null,is arguing with,,html-keyboard-response,76,384985,0.0-13.0-2.11,30209,List2B,white,woman,,,,null,,,,
7054,,,survey-text,77,392040,0.0-13.0-3.11,30209,List2B,white,woman,,,,,"{""Q0"":""Jane is arguing with Beth""}","<img src=""stim_listB/argue7.gif""style=""height:400px;""></stim_listB>",is arguing with,
null,"<div style=""font-size:60px;"">+</div>",,html-keyboard-response,78,392543,0.0-13.0-0.12,30209,List2B,white,woman,,,,null,,,,
null,"<img src=""stim_listB/flirt7.gif""style=""height:400px;""></stim_listB>",,html-keyboard-response,79,394547,0.0-13.0-1.12,30209,List2B,white,woman,,,,null,,,,
null,is flirting with,,html-keyboard-response,80,396550,0.0-13.0-2.12,30209,List2B,white,woman,,,,null,,,,
5722,,,survey-text,81,402273,0.0-13.0-3.12,30209,List2B,white,woman,,,,,"{""Q0"":""Kate is flirting with ruth""}","<img src=""stim_listB/flirt7.gif""style=""height:400px;""></stim_listB>",is flirting with,
null,"<div style=""font-size:60px;"">+</div>",,html-keyboard-response,82,402776,0.0-13.0-0.13,30209,List2B,white,woman,,,,null,,,,
null,"<img src=""stim_listB/talk2.gif""style=""height:400px;""></stim_listB>",,html-keyboard-response,83,404779,0.0-13.0-1.13,30209,List2B,white,woman,,,,null,,,,
null,are talking to each other,,html-keyboard-response,84,406782,0.0-13.0-2.13,30209,List2B,white,woman,,,,null,,,,
8366,,,survey-text,85,415149,0.0-13.0-3.13,30209,List2B,white,woman,,,,,"{""Q0"":""Dave and ruth are talking with each other""}","<img src=""stim_listB/talk2.gif""style=""height:400px;""></stim_listB>",are talking to each other,
null,"<div style=""font-size:60px;"">+</div>",,html-keyboard-response,86,415652,0.0-13.0-0.14,30209,List2B,white,woman,,,,null,,,,
null,"<img src=""stim_listB/play2.gif""style=""height:400px;""></stim_listB>",,html-keyboard-response,87,417655,0.0-13.0-1.14,30209,List2B,white,woman,,,,null,,,,
null,are playing with each other,,html-keyboard-response,88,419658,0.0-13.0-2.14,30209,List2B,white,woman,,,,null,,,,
7983,,,survey-text,89,427642,0.0-13.0-3.14,30209,List2B,white,woman,,,,,"{""Q0"":""ruth and Luke are playing with each other""}","<img src=""stim_listB/play2.gif""style=""height:400px;""></stim_listB>",are playing with each other,
null,"<div style=""font-size:60px;"">+</div>",,html-keyboard-response,90,428146,0.0-13.0-0.15,30209,List2B,white,woman,,,,null,,,,
null,"<img src=""stim_listB/argue8.gif""style=""height:400px;""></stim_listB>",,html-keyboard-response,91,430149,0.0-13.0-1.15,30209,List2B,white,woman,,,,null,,,,
null,are arguing with each other,,html-keyboard-response,92,432152,0.0-13.0-2.15,30209,List2B,white,woman,,,,null,,,,
8229,,,survey-text,93,440382,0.0-13.0-3.15,30209,List2B,white,woman,,,,,"{""Q0"":""ruth and Kate are arguing with each other""}","<img src=""stim_listB/argue8.gif""style=""height:400px;""></stim_listB>",are arguing with each other,
null,"<div style=""font-size:60px;"">+</div>",,html-keyboard-response,94,440885,0.0-13.0-0.16,30209,List2B,white,woman,,,,null,,,,
null,"<img src=""stim_listB/dance1.gif""style=""height:400px;""></stim_listB>",,html-keyboard-response,95,442888,0.0-13.0-1.16,30209,List2B,white,woman,,,,null,,,,
null,is dancing with,,html-keyboard-response,96,444891,0.0-13.0-2.16,30209,List2B,white,woman,,,,null,,,,
7650,,,survey-text,97,452542,0.0-13.0-3.16,30209,List2B,white,woman,,,,,"{""Q0"":""Jane is dancing with Luke""}","<img src=""stim_listB/dance1.gif""style=""height:400px;""></stim_listB>",is dancing with,
null,"<div style=""font-size:60px;"">+</div>",,html-keyboard-response,98,453045,0.0-13.0-0.17,30209,List2B,white,woman,,,,null,,,,
null,"<img src=""stim_listB/fight6.gif""style=""height:400px;""></stim_listB>",,html-keyboard-response,99,455049,0.0-13.0-1.17,30209,List2B,white,woman,,,,null,,,,
null,are fighting each other,,html-keyboard-response,100,457052,0.0-13.0-2.17,30209,List2B,white,woman,,,,null,,,,
8560,,,survey-text,101,465612,0.0-13.0-3.17,30209,List2B,white,woman,,,,,"{""Q0"":""Luke and Fred are fighting each other""}","<img src=""stim_listB/fight6.gif""style=""height:400px;""></stim_listB>",are fighting each other,
null,"<div style=""font-size:60px;"">+</div>",,html-keyboard-response,102,466115,0.0-13.0-0.18,30209,List2B,white,woman,,,,null,,,,
null,"<img src=""stim_listB/touch4.gif""style=""height:400px;""></stim_listB>",,html-keyboard-response,103,468118,0.0-13.0-1.18,30209,List2B,white,woman,,,,null,,,,
null,are touching each other,,html-keyboard-response,104,470121,0.0-13.0-2.18,30209,List2B,white,woman,,,,null,,,,
9839,,,survey-text,105,479961,0.0-13.0-3.18,30209,List2B,white,woman,,,,,"{""Q0"":""fred and Beth are touching each other""}","<img src=""stim_listB/touch4.gif""style=""height:400px;""></stim_listB>",are touching each other,
null,"<div style=""font-size:60px;"">+</div>",,html-keyboard-response,106,480464,0.0-13.0-0.19,30209,List2B,white,woman,,,,null,,,,
null,"<img src=""stim_listB/flirt1.gif""style=""height:400px;""></stim_listB>",,html-keyboard-response,107,482468,0.0-13.0-1.19,30209,List2B,white,woman,,,,null,,,,
null,is flirting with,,html-keyboard-response,108,484470,0.0-13.0-2.19,30209,List2B,white,woman,,,,null,,,,
5684,,,survey-text,109,490155,0.0-13.0-3.19,30209,List2B,white,woman,,,,,"{""Q0"":""Jane is flirting with Luke""}","<img src=""stim_listB/flirt1.gif""style=""height:400px;""></stim_listB>",is flirting with,
8805,"<img src='img/portrait_matrix_list2.jpg' style='width:900px;height:500px;''></img><p>If you have memorised all the portraits and names and are ready to start, press Continue.</p><p><strong>Please note: Your memory of these faces will be tested 4 times during this experiment.</strong></p>",0,html-button-response,110,498963,0.0-14.0-0.0,30209,List2B,white,woman,,,,,,,,
3035,"<img src=""portrait/WM1.jpg""style=""height:400px;""></img>",6,html-button-response,111,503001,0.0-14.0-1.0,30209,List2B,white,woman,,TRUE,6,,,,,
null,CORRECT,,html-keyboard-response,112,504505,0.0-14.0-2.0-0.0,30209,List2B,white,woman,,,,null,,,,
2250,"<img src=""portrait/WW1.jpg""style=""height:400px;""></img>",1,html-button-response,113,506758,0.0-14.0-4.0,30209,List2B,white,woman,,TRUE,1,,,,,
null,CORRECT,,html-keyboard-response,114,508261,0.0-14.0-5.0-0.0,30209,List2B,white,woman,,,,null,,,,
2196,"<img src=""portrait/WM2.jpg""style=""height:400px;""></img>",7,html-button-response,115,510460,0.0-14.0-7.0,30209,List2B,white,woman,,TRUE,7,,,,,
null,CORRECT,,html-keyboard-response,116,511964,0.0-14.0-8.0-0.0,30209,List2B,white,woman,,,,null,,,,
2495,"<img src=""portrait/BM1.jpg""style=""height:400px;""></img>",4,html-button-response,117,514462,0.0-14.0-10.0,30209,List2B,white,woman,,TRUE,4,,,,,
null,CORRECT,,html-keyboard-response,118,515964,0.0-14.0-11.0-0.0,30209,List2B,white,woman,,,,null,,,,
1900,"<img src=""portrait/WW2.jpg""style=""height:400px;""></img>",3,html-button-response,119,517867,0.0-14.0-13.0,30209,List2B,white,woman,,TRUE,3,,,,,
null,CORRECT,,html-keyboard-response,120,519370,0.0-14.0-14.0-0.0,30209,List2B,white,woman,,,,null,,,,
3579,"<img src=""portrait/BW1.jpg""style=""height:400px;""></img>",0,html-button-response,121,522951,0.0-14.0-16.0,30209,List2B,white,woman,,TRUE,0,,,,,
null,CORRECT,,html-keyboard-response,122,524454,0.0-14.0-17.0-0.0,30209,List2B,white,woman,,,,null,,,,
2325,"<img src=""portrait/BW2.jpg""style=""height:400px;""></img>",2,html-button-response,123,526781,0.0-14.0-19.0,30209,List2B,white,woman,,TRUE,2,,,,,
null,CORRECT,,html-keyboard-response,124,528285,0.0-14.0-20.0-0.0,30209,List2B,white,woman,,,,null,,,,
2437,"<img src=""portrait/BM2.jpg""style=""height:400px;""></img>",5,html-button-response,125,530725,0.0-14.0-22.0,30209,List2B,white,woman,,TRUE,5,,,,,
null,CORRECT,,html-keyboard-response,126,532229,0.0-14.0-23.0-0.0,30209,List2B,white,woman,,,,null,,,,
1777,<p>You got 8 out of 8 right first time. Press Continue.</p>,0,html-button-response,127,534009,0.0-14.0-25.0,30209,List2B,white,woman,,,,,,,,
null,"<div style=""font-size:60px;"">+</div>",,html-keyboard-response,128,535514,0.0-15.0-0.0,30209,List2B,white,woman,,,,null,,,,
null,"<img src=""stim_listB/fight7.gif""style=""height:400px;""></stim_listB>",,html-keyboard-response,129,537517,0.0-15.0-1.0,30209,List2B,white,woman,,,,null,,,,
null,is fighting,,html-keyboard-response,130,539521,0.0-15.0-2.0,30209,List2B,white,woman,,,,null,,,,
5395,,,survey-text,131,544918,0.0-15.0-3.0,30209,List2B,white,woman,,,,,"{""Q0"":""Jane is fighting Kate""}","<img src=""stim_listB/fight7.gif""style=""height:400px;""></stim_listB>",is fighting,
null,"<div style=""font-size:60px;"">+</div>",,html-keyboard-response,132,545420,0.0-15.0-0.1,30209,List2B,white,woman,,,,null,,,,
null,"<img src=""stim_listB/dance5.gif""style=""height:400px;""></stim_listB>",,html-keyboard-response,133,547424,0.0-15.0-1.1,30209,List2B,white,woman,,,,null,,,,
null,is dancing with,,html-keyboard-response,134,549427,0.0-15.0-2.1,30209,List2B,white,woman,,,,null,,,,
5945,,,survey-text,135,555373,0.0-15.0-3.1,30209,List2B,white,woman,,,,,"{""Q0"":""mike is dancing with Luke""}","<img src=""stim_listB/dance5.gif""style=""height:400px;""></stim_listB>",is dancing with,
null,"<div style=""font-size:60px;"">+</div>",,html-keyboard-response,136,555876,0.0-15.0-0.2,30209,List2B,white,woman,,,,null,,,,
null,"<img src=""stim_listB/play1.gif""style=""height:400px;""></stim_listB>",,html-keyboard-response,137,557879,0.0-15.0-1.2,30209,List2B,white,woman,,,,null,,,,
null,is playing with,,html-keyboard-response,138,559883,0.0-15.0-2.2,30209,List2B,white,woman,,,,null,,,,
5484,,,survey-text,139,565367,0.0-15.0-3.2,30209,List2B,white,woman,,,,,"{""Q0"":""Jane is playing with Dave""}","<img src=""stim_listB/play1.gif""style=""height:400px;""></stim_listB>",is playing with,
null,"<div style=""font-size:60px;"">+</div>",,html-keyboard-response,140,565870,0.0-15.0-0.3,30209,List2B,white,woman,,,,null,,,,
null,"<img src=""stim_listB/shout8.gif""style=""height:400px;""></stim_listB>",,html-keyboard-response,141,567873,0.0-15.0-1.3,30209,List2B,white,woman,,,,null,,,,
null,are shouting at each other,,html-keyboard-response,142,569877,0.0-15.0-2.3,30209,List2B,white,woman,,,,null,,,,
8056,,,survey-text,143,577934,0.0-15.0-3.3,30209,List2B,white,woman,,,,,"{""Q0"":""Jane and Kate are shouting at each other""}","<img src=""stim_listB/shout8.gif""style=""height:400px;""></stim_listB>",are shouting at each other,
null,"<div style=""font-size:60px;"">+</div>",,html-keyboard-response,144,578438,0.0-15.0-0.4,30209,List2B,white,woman,,,,null,,,,
null,"<img src=""stim_listB/kiss2.gif""style=""height:400px;""></stim_listB>",,html-keyboard-response,145,580441,0.0-15.0-1.4,30209,List2B,white,woman,,,,null,,,,
null,are kissing each other,,html-keyboard-response,146,582445,0.0-15.0-2.4,30209,List2B,white,woman,,,,null,,,,
6218,,,survey-text,147,588664,0.0-15.0-3.4,30209,List2B,white,woman,,,,,"{""Q0"":""Jane and Dave are kissing each other""}","<img src=""stim_listB/kiss2.gif""style=""height:400px;""></stim_listB>",are kissing each other,
null,"<div style=""font-size:60px;"">+</div>",,html-keyboard-response,148,589167,0.0-15.0-0.5,30209,List2B,white,woman,,,,null,,,,
null,"<img src=""stim_listB/argue5.gif""style=""height:400px;""></stim_listB>",,html-keyboard-response,149,591170,0.0-15.0-1.5,30209,List2B,white,woman,,,,null,,,,
null,is arguing with,,html-keyboard-response,150,593174,0.0-15.0-2.5,30209,List2B,white,woman,,,,null,,,,
6261,,,survey-text,151,599435,0.0-15.0-3.5,30209,List2B,white,woman,,,,,"{""Q0"":""Dave is arguing with Fred""}","<img src=""stim_listB/argue5.gif""style=""height:400px;""></stim_listB>",is arguing with,
null,"<div style=""font-size:60px;"">+</div>",,html-keyboard-response,152,599938,0.0-15.0-0.6,30209,List2B,white,woman,,,,null,,,,
null,"<img src=""stim_listB/play6.gif""style=""height:400px;""></stim_listB>",,html-keyboard-response,153,601941,0.0-15.0-1.6,30209,List2B,white,woman,,,,null,,,,
null,are playing with each other,,html-keyboard-response,154,603944,0.0-15.0-2.6,30209,List2B,white,woman,,,,null,,,,
7361,,,survey-text,155,611307,0.0-15.0-3.6,30209,List2B,white,woman,,,,,"{""Q0"":""fred and Luke are playing with each other""}","<img src=""stim_listB/play6.gif""style=""height:400px;""></stim_listB>",are playing with each other,
null,"<div style=""font-size:60px;"">+</div>",,html-keyboard-response,156,611810,0.0-15.0-0.7,30209,List2B,white,woman,,,,null,,,,
null,"<img src=""stim_listB/dance2.gif""style=""height:400px;""></stim_listB>",,html-keyboard-response,157,613813,0.0-15.0-1.7,30209,List2B,white,woman,,,,null,,,,
null,are dancing with each other,,html-keyboard-response,158,615816,0.0-15.0-2.7,30209,List2B,white,woman,,,,null,,,,
7987,,,survey-text,159,623805,0.0-15.0-3.7,30209,List2B,white,woman,,,,,"{""Q0"":""Dave and ruth are dancing with each other""}","<img src=""stim_listB/dance2.gif""style=""height:400px;""></stim_listB>",are dancing with each other,
null,"<div style=""font-size:60px;"">+</div>",,html-keyboard-response,160,624308,0.0-15.0-0.8,30209,List2B,white,woman,,,,null,,,,
null,"<img src=""stim_listB/play8.gif""style=""height:400px;""></stim_listB>",,html-keyboard-response,161,626311,0.0-15.0-1.8,30209,List2B,white,woman,,,,null,,,,
null,are playing with each other,,html-keyboard-response,162,628314,0.0-15.0-2.8,30209,List2B,white,woman,,,,null,,,,
9345,,,survey-text,163,637660,0.0-15.0-3.8,30209,List2B,white,woman,,,,,"{""Q0"":""ruth and Beth are playing with each other""}","<img src=""stim_listB/play8.gif""style=""height:400px;""></stim_listB>",are playing with each other,
null,"<div style=""font-size:60px;"">+</div>",,html-keyboard-response,164,638164,0.0-15.0-0.9,30209,List2B,white,woman,,,,null,,,,
null,"<img src=""stim_listB/dance6.gif""style=""height:400px;""></stim_listB>",,html-keyboard-response,165,640167,0.0-15.0-1.9,30209,List2B,white,woman,,,,null,,,,
null,are dancing with each other,,html-keyboard-response,166,642170,0.0-15.0-2.9,30209,List2B,white,woman,,,,null,,,,
9861,,,survey-text,167,652033,0.0-15.0-3.9,30209,List2B,white,woman,,,,,"{""Q0"":""fred and Dave are dancing with each other""}","<img src=""stim_listB/dance6.gif""style=""height:400px;""></stim_listB>",are dancing with each other,
null,"<div style=""font-size:60px;"">+</div>",,html-keyboard-response,168,652536,0.0-15.0-0.10,30209,List2B,white,woman,,,,null,,,,
null,"<img src=""stim_listB/shout3.gif""style=""height:400px;""></stim_listB>",,html-keyboard-response,169,654539,0.0-15.0-1.10,30209,List2B,white,woman,,,,null,,,,
null,is shouting at,,html-keyboard-response,170,656542,0.0-15.0-2.10,30209,List2B,white,woman,,,,null,,,,
6082,,,survey-text,171,662625,0.0-15.0-3.10,30209,List2B,white,woman,,,,,"{""Q0"":""fred is shouting at Beth""}","<img src=""stim_listB/shout3.gif""style=""height:400px;""></stim_listB>",is shouting at,
null,"<div style=""font-size:60px;"">+</div>",,html-keyboard-response,172,663128,0.0-15.0-0.11,30209,List2B,white,woman,,,,null,,,,
null,"<img src=""stim_listB/dance8.gif""style=""height:400px;""></stim_listB>",,html-keyboard-response,173,665131,0.0-15.0-1.11,30209,List2B,white,woman,,,,null,,,,
null,are dancing with each other,,html-keyboard-response,174,667135,0.0-15.0-2.11,30209,List2B,white,woman,,,,null,,,,
8652,,,survey-text,175,675787,0.0-15.0-3.11,30209,List2B,white,woman,,,,,"{""Q0"":""Beth and Jane are dancing with each other""}","<img src=""stim_listB/dance8.gif""style=""height:400px;""></stim_listB>",are dancing with each other,
null,"<div style=""font-size:60px;"">+</div>",,html-keyboard-response,176,676290,0.0-15.0-0.12,30209,List2B,white,woman,,,,null,,,,
null,"<img src=""stim_listB/argue4.gif""style=""height:400px;""></stim_listB>",,html-keyboard-response,177,678293,0.0-15.0-1.12,30209,List2B,white,woman,,,,null,,,,
null,are arguing with each other,,html-keyboard-response,178,680296,0.0-15.0-2.12,30209,List2B,white,woman,,,,null,,,,
8190,,,survey-text,179,688488,0.0-15.0-3.12,30209,List2B,white,woman,,,,,"{""Q0"":""fred and Kate are arguing with each other""}","<img src=""stim_listB/argue4.gif""style=""height:400px;""></stim_listB>",are arguing with each other,
null,"<div style=""font-size:60px;"">+</div>",,html-keyboard-response,180,688991,0.0-15.0-0.13,30209,List2B,white,woman,,,,null,,,,
null,"<img src=""stim_listB/play3.gif""style=""height:400px;""></stim_listB>",,html-keyboard-response,181,690994,0.0-15.0-1.13,30209,List2B,white,woman,,,,null,,,,
null,is playing with,,html-keyboard-response,182,692997,0.0-15.0-2.13,30209,List2B,white,woman,,,,null,,,,
6291,,,survey-text,183,699290,0.0-15.0-3.13,30209,List2B,white,woman,,,,,"{""Q0"":""Kate is playing with mike""}","<img src=""stim_listB/play3.gif""style=""height:400px;""></stim_listB>",is playing with,
null,"<div style=""font-size:60px;"">+</div>",,html-keyboard-response,184,699793,0.0-15.0-0.14,30209,List2B,white,woman,,,,null,,,,
null,"<img src=""stim_listB/dance4.gif""style=""height:400px;""></stim_listB>",,html-keyboard-response,185,701797,0.0-15.0-1.14,30209,List2B,white,woman,,,,null,,,,
null,are dancing with each other,,html-keyboard-response,186,703800,0.0-15.0-2.14,30209,List2B,white,woman,,,,null,,,,
10174,,,survey-text,187,713975,0.0-15.0-3.14,30209,List2B,white,woman,,,,,"{""Q0"":""mike and Kate are dancing with each other""}","<img src=""stim_listB/dance4.gif""style=""height:400px;""></stim_listB>",are dancing with each other,
null,"<div style=""font-size:60px;"">+</div>",,html-keyboard-response,188,714477,0.0-15.0-0.15,30209,List2B,white,woman,,,,null,,,,
null,"<img src=""stim_listB/flirt8.gif""style=""height:400px;""></stim_listB>",,html-keyboard-response,189,716481,0.0-15.0-1.15,30209,List2B,white,woman,,,,null,,,,
null,are flirting with each other,,html-keyboard-response,190,718484,0.0-15.0-2.15,30209,List2B,white,woman,,,,null,,,,
9861,,,survey-text,191,728345,0.0-15.0-3.15,30209,List2B,white,woman,,,,,"{""Q0"":""beth and Jane are flirting with each other""}","<img src=""stim_listB/flirt8.gif""style=""height:400px;""></stim_listB>",are flirting with each other,
null,"<div style=""font-size:60px;"">+</div>",,html-keyboard-response,192,728847,0.0-15.0-0.16,30209,List2B,white,woman,,,,null,,,,
null,"<img src=""stim_listB/shout5.gif""style=""height:400px;""></stim_listB>",,html-keyboard-response,193,730851,0.0-15.0-1.16,30209,List2B,white,woman,,,,null,,,,
null,is shouting at,,html-keyboard-response,194,732854,0.0-15.0-2.16,30209,List2B,white,woman,,,,null,,,,
5898,,,survey-text,195,738752,0.0-15.0-3.16,30209,List2B,white,woman,,,,,"{""Q0"":""Luke is shouting at fred""}","<img src=""stim_listB/shout5.gif""style=""height:400px;""></stim_listB>",is shouting at,
null,"<div style=""font-size:60px;"">+</div>",,html-keyboard-response,196,739255,0.0-15.0-0.17,30209,List2B,white,woman,,,,null,,,,
null,"<img src=""stim_listB/shout2.gif""style=""height:400px;""></stim_listB>",,html-keyboard-response,197,741258,0.0-15.0-1.17,30209,List2B,white,woman,,,,null,,,,
null,are shouting at each other,,html-keyboard-response,198,743261,0.0-15.0-2.17,30209,List2B,white,woman,,,,null,,,,
7875,,,survey-text,199,751137,0.0-15.0-3.17,30209,List2B,white,woman,,,,,"{""Q0"":""Jane and Dave are shouting at each other""}","<img src=""stim_listB/shout2.gif""style=""height:400px;""></stim_listB>",are shouting at each other,
null,"<div style=""font-size:60px;"">+</div>",,html-keyboard-response,200,751639,0.0-15.0-0.18,30209,List2B,white,woman,,,,null,,,,
null,"<img src=""stim_listB/talk5.gif""style=""height:400px;""></stim_listB>",,html-keyboard-response,201,753641,0.0-15.0-1.18,30209,List2B,white,woman,,,,null,,,,
null,is talking to,,html-keyboard-response,202,755643,0.0-15.0-2.18,30209,List2B,white,woman,,,,null,,,,
5245,,,survey-text,203,760890,0.0-15.0-3.18,30209,List2B,white,woman,,,,,"{""Q0"":""mike is talking to Luke""}","<img src=""stim_listB/talk5.gif""style=""height:400px;""></stim_listB>",is talking to,
null,"<div style=""font-size:60px;"">+</div>",,html-keyboard-response,204,761392,0.0-15.0-0.19,30209,List2B,white,woman,,,,null,,,,
null,"<img src=""stim_listB/talk1.gif""style=""height:400px;""></stim_listB>",,html-keyboard-response,205,763395,0.0-15.0-1.19,30209,List2B,white,woman,,,,null,,,,
null,is talking to,,html-keyboard-response,206,765398,0.0-15.0-2.19,30209,List2B,white,woman,,,,null,,,,
5661,,,survey-text,207,771060,0.0-15.0-3.19,30209,List2B,white,woman,,,,,"{""Q0"":""Jane is talking to Luke""}","<img src=""stim_listB/talk1.gif""style=""height:400px;""></stim_listB>",is talking to,
4755,"<img src='img/portrait_matrix_list2.jpg' style='width:900px;height:500px;''></img><p>If you have memorised all the portraits and names and are ready to start, press Continue.</p><p><strong>Please note: Your memory of these faces will be tested 4 times during this experiment.</strong></p>",0,html-button-response,208,775818,0.0-16.0-0.0,30209,List2B,white,woman,,,,,,,,
2673,"<img src=""portrait/WM1.jpg""style=""height:400px;""></img>",6,html-button-response,209,779494,0.0-16.0-1.0,30209,List2B,white,woman,,TRUE,6,,,,,
null,CORRECT,,html-keyboard-response,210,780998,0.0-16.0-2.0-0.0,30209,List2B,white,woman,,,,null,,,,
2009,"<img src=""portrait/WM2.jpg""style=""height:400px;""></img>",7,html-button-response,211,783010,0.0-16.0-4.0,30209,List2B,white,woman,,TRUE,7,,,,,
null,CORRECT,,html-keyboard-response,212,784514,0.0-16.0-5.0-0.0,30209,List2B,white,woman,,,,null,,,,
3449,"<img src=""portrait/BM1.jpg""style=""height:400px;""></img>",4,html-button-response,213,787966,0.0-16.0-7.0,30209,List2B,white,woman,,TRUE,4,,,,,
null,CORRECT,,html-keyboard-response,214,789469,0.0-16.0-8.0-0.0,30209,List2B,white,woman,,,,null,,,,
1497,"<img src=""portrait/WW2.jpg""style=""height:400px;""></img>",3,html-button-response,215,790968,0.0-16.0-10.0,30209,List2B,white,woman,,TRUE,3,,,,,
null,CORRECT,,html-keyboard-response,216,792472,0.0-16.0-11.0-0.0,30209,List2B,white,woman,,,,null,,,,
1778,"<img src=""portrait/WW1.jpg""style=""height:400px;""></img>",1,html-button-response,217,794252,0.0-16.0-13.0,30209,List2B,white,woman,,TRUE,1,,,,,
null,CORRECT,,html-keyboard-response,218,795756,0.0-16.0-14.0-0.0,30209,List2B,white,woman,,,,null,,,,
2941,"<img src=""portrait/BW1.jpg""style=""height:400px;""></img>",0,html-button-response,219,798700,0.0-16.0-16.0,30209,List2B,white,woman,,TRUE,0,,,,,
null,CORRECT,,html-keyboard-response,220,800203,0.0-16.0-17.0-0.0,30209,List2B,white,woman,,,,null,,,,
1769,"<img src=""portrait/BW2.jpg""style=""height:400px;""></img>",2,html-button-response,221,801974,0.0-16.0-19.0,30209,List2B,white,woman,,TRUE,2,,,,,
null,CORRECT,,html-keyboard-response,222,803478,0.0-16.0-20.0-0.0,30209,List2B,white,woman,,,,null,,,,
1729,"<img src=""portrait/BM2.jpg""style=""height:400px;""></img>",5,html-button-response,223,805210,0.0-16.0-22.0,30209,List2B,white,woman,,TRUE,5,,,,,
null,CORRECT,,html-keyboard-response,224,806715,0.0-16.0-23.0-0.0,30209,List2B,white,woman,,,,null,,,,
1747,<p>You got 8 out of 8 right first time. Press Continue.</p>,0,html-button-response,225,808464,0.0-16.0-25.0,30209,List2B,white,woman,,,,,,,,
null,"<div style=""font-size:60px;"">+</div>",,html-keyboard-response,226,809969,0.0-17.0-0.0,30209,List2B,white,woman,,,,null,,,,
null,"<img src=""stim_listB/talk7.gif""style=""height:400px;""></stim_listB>",,html-keyboard-response,227,811973,0.0-17.0-1.0,30209,List2B,white,woman,,,,null,,,,
null,is talking to,,html-keyboard-response,228,813976,0.0-17.0-2.0,30209,List2B,white,woman,,,,null,,,,
6488,,,survey-text,229,820465,0.0-17.0-3.0,30209,List2B,white,woman,,,,,"{""Q0"":""ruth is talking to Kate""}","<img src=""stim_listB/talk7.gif""style=""height:400px;""></stim_listB>",is talking to,
null,"<div style=""font-size:60px;"">+</div>",,html-keyboard-response,230,820968,0.0-17.0-0.1,30209,List2B,white,woman,,,,null,,,,
null,"<img src=""stim_listB/flirt2.gif""style=""height:400px;""></stim_listB>",,html-keyboard-response,231,822971,0.0-17.0-1.1,30209,List2B,white,woman,,,,null,,,,
null,are flirting with each other,,html-keyboard-response,232,824975,0.0-17.0-2.1,30209,List2B,white,woman,,,,null,,,,
6813,,,survey-text,233,831789,0.0-17.0-3.1,30209,List2B,white,woman,,,,,"{""Q0"":""ruth and Dave are flirting with each other""}","<img src=""stim_listB/flirt2.gif""style=""height:400px;""></stim_listB>",are flirting with each other,
null,"<div style=""font-size:60px;"">+</div>",,html-keyboard-response,234,832292,0.0-17.0-0.2,30209,List2B,white,woman,,,,null,,,,
null,"<img src=""stim_listB/argue1.gif""style=""height:400px;""></stim_listB>",,html-keyboard-response,235,834295,0.0-17.0-1.2,30209,List2B,white,woman,,,,null,,,,
null,is arguing with,,html-keyboard-response,236,836298,0.0-17.0-2.2,30209,List2B,white,woman,,,,null,,,,
5102,,,survey-text,237,841401,0.0-17.0-3.2,30209,List2B,white,woman,,,,,"{""Q0"":""ruth is arguing with Dave""}","<img src=""stim_listB/argue1.gif""style=""height:400px;""></stim_listB>",is arguing with,
null,"<div style=""font-size:60px;"">+</div>",,html-keyboard-response,238,841904,0.0-17.0-0.3,30209,List2B,white,woman,,,,null,,,,
null,"<img src=""stim_listB/talk3.gif""style=""height:400px;""></stim_listB>",,html-keyboard-response,239,843907,0.0-17.0-1.3,30209,List2B,white,woman,,,,null,,,,
null,is talking to,,html-keyboard-response,240,845910,0.0-17.0-2.3,30209,List2B,white,woman,,,,null,,,,
4949,,,survey-text,241,850861,0.0-17.0-3.3,30209,List2B,white,woman,,,,,"{""Q0"":""Kate is talking to fred""}","<img src=""stim_listB/talk3.gif""style=""height:400px;""></stim_listB>",is talking to,
null,"<div style=""font-size:60px;"">+</div>",,html-keyboard-response,242,851364,0.0-17.0-0.4,30209,List2B,white,woman,,,,null,,,,
null,"<img src=""stim_listB/kiss8.gif""style=""height:400px;""></stim_listB>",,html-keyboard-response,243,853367,0.0-17.0-1.4,30209,List2B,white,woman,,,,null,,,,
null,are kissing each other,,html-keyboard-response,244,855370,0.0-17.0-2.4,30209,List2B,white,woman,,,,null,,,,
7404,,,survey-text,245,862775,0.0-17.0-3.4,30209,List2B,white,woman,,,,,"{""Q0"":""Kate and Jane are kissing each other""}","<img src=""stim_listB/kiss8.gif""style=""height:400px;""></stim_listB>",are kissing each other,
null,"<div style=""font-size:60px;"">+</div>",,html-keyboard-response,246,863278,0.0-17.0-0.5,30209,List2B,white,woman,,,,null,,,,
null,"<img src=""stim_listB/talk6.gif""style=""height:400px;""></stim_listB>",,html-keyboard-response,247,865282,0.0-17.0-1.5,30209,List2B,white,woman,,,,null,,,,
null,are talking to each other,,html-keyboard-response,248,867285,0.0-17.0-2.5,30209,List2B,white,woman,,,,null,,,,
9401,,,survey-text,249,876687,0.0-17.0-3.5,30209,List2B,white,woman,,,,,"{""Q0"":""Dave and fred are talking to each other""}","<img src=""stim_listB/talk6.gif""style=""height:400px;""></stim_listB>",are talking to each other,
null,"<div style=""font-size:60px;"">+</div>",,html-keyboard-response,250,877190,0.0-17.0-0.6,30209,List2B,white,woman,,,,null,,,,
null,"<img src=""stim_listB/kiss7.gif""style=""height:400px;""></stim_listB>",,html-keyboard-response,251,879193,0.0-17.0-1.6,30209,List2B,white,woman,,,,null,,,,
null,is kissing,,html-keyboard-response,252,881196,0.0-17.0-2.6,30209,List2B,white,woman,,,,null,,,,
4923,,,survey-text,253,886121,0.0-17.0-3.6,30209,List2B,white,woman,,,,,"{""Q0"":""ruth is kissing Beth""}","<img src=""stim_listB/kiss7.gif""style=""height:400px;""></stim_listB>",is kissing,
null,"<div style=""font-size:60px;"">+</div>",,html-keyboard-response,254,886622,0.0-17.0-0.7,30209,List2B,white,woman,,,,null,,,,
null,"<img src=""stim_listB/play5.gif""style=""height:400px;""></stim_listB>",,html-keyboard-response,255,888626,0.0-17.0-1.7,30209,List2B,white,woman,,,,null,,,,
null,is playing with,,html-keyboard-response,256,890629,0.0-17.0-2.7,30209,List2B,white,woman,,,,null,,,,
5051,,,survey-text,257,895681,0.0-17.0-3.7,30209,List2B,white,woman,,,,,"{""Q0"":""mike is playing with Dave""}","<img src=""stim_listB/play5.gif""style=""height:400px;""></stim_listB>",is playing with,
null,"<div style=""font-size:60px;"">+</div>",,html-keyboard-response,258,896184,0.0-17.0-0.8,30209,List2B,white,woman,,,,null,,,,
null,"<img src=""stim_listB/touch7.gif""style=""height:400px;""></stim_listB>",,html-keyboard-response,259,898187,0.0-17.0-1.8,30209,List2B,white,woman,,,,null,,,,
null,is touching,,html-keyboard-response,260,900195,0.0-17.0-2.8,30209,List2B,white,woman,,,,null,,,,
5152,,,survey-text,261,905347,0.0-17.0-3.8,30209,List2B,white,woman,,,,,"{""Q0"":""Kate is touching Jane""}","<img src=""stim_listB/touch7.gif""style=""height:400px;""></stim_listB>",is touching,
null,"<div style=""font-size:60px;"">+</div>",,html-keyboard-response,262,905851,0.0-17.0-0.9,30209,List2B,white,woman,,,,null,,,,
null,"<img src=""stim_listB/dance7.gif""style=""height:400px;""></stim_listB>",,html-keyboard-response,263,907857,0.0-17.0-1.9,30209,List2B,white,woman,,,,null,,,,
null,is dancing with,,html-keyboard-response,264,909862,0.0-17.0-2.9,30209,List2B,white,woman,,,,null,,,,
5168,,,survey-text,265,915032,0.0-17.0-3.9,30209,List2B,white,woman,,,,,"{""Q0"":""Kate is dancing with ruth""}","<img src=""stim_listB/dance7.gif""style=""height:400px;""></stim_listB>",is dancing with,
null,"<div style=""font-size:60px;"">+</div>",,html-keyboard-response,266,915535,0.0-17.0-0.10,30209,List2B,white,woman,,,,null,,,,
null,"<img src=""stim_listB/argue6.gif""style=""height:400px;""></stim_listB>",,html-keyboard-response,267,917539,0.0-17.0-1.10,30209,List2B,white,woman,,,,null,,,,
null,are arguing with each other,,html-keyboard-response,268,919543,0.0-17.0-2.10,30209,List2B,white,woman,,,,null,,,,
7099,,,survey-text,269,926648,0.0-17.0-3.10,30209,List2B,white,woman,,,,,"{""Q0"":""Luke and mike are arguing with each other""}","<img src=""stim_listB/argue6.gif""style=""height:400px;""></stim_listB>",are arguing with each other,
null,"<div style=""font-size:60px;"">+</div>",,html-keyboard-response,270,927152,0.0-17.0-0.11,30209,List2B,white,woman,,,,null,,,,
null,"<img src=""stim_listB/marry4.gif""style=""height:400px;""></stim_listB>",,html-keyboard-response,271,929156,0.0-17.0-1.11,30209,List2B,white,woman,,,,null,,,,
null,are marrying each other,,html-keyboard-response,272,931160,0.0-17.0-2.11,30209,List2B,white,woman,,,,null,,,,
6576,,,survey-text,273,937737,0.0-17.0-3.11,30209,List2B,white,woman,,,,,"{""Q0"":""fred and Kate are marrying each other""}","<img src=""stim_listB/marry4.gif""style=""height:400px;""></stim_listB>",are marrying each other,
null,"<div style=""font-size:60px;"">+</div>",,html-keyboard-response,274,938240,0.0-17.0-0.12,30209,List2B,white,woman,,,,null,,,,
null,"<img src=""stim_listB/marry5.gif""style=""height:400px;""></stim_listB>",,html-keyboard-response,275,940246,0.0-17.0-1.12,30209,List2B,white,woman,,,,null,,,,
null,is marrying,,html-keyboard-response,276,942250,0.0-17.0-2.12,30209,List2B,white,woman,,,,null,,,,
4250,,,survey-text,277,946501,0.0-17.0-3.12,30209,List2B,white,woman,,,,,"{""Q0"":""fred is marrying Dave""}","<img src=""stim_listB/marry5.gif""style=""height:400px;""></stim_listB>",is marrying,
null,"<div style=""font-size:60px;"">+</div>",,html-keyboard-response,278,947005,0.0-17.0-0.13,30209,List2B,white,woman,,,,null,,,,
null,"<img src=""stim_listB/fight1.gif""style=""height:400px;""></stim_listB>",,html-keyboard-response,279,949008,0.0-17.0-1.13,30209,List2B,white,woman,,,,null,,,,
null,is fighting,,html-keyboard-response,280,951011,0.0-17.0-2.13,30209,List2B,white,woman,,,,null,,,,
5015,,,survey-text,281,956027,0.0-17.0-3.13,30209,List2B,white,woman,,,,,"{""Q0"":""Dave is fighting Jane""}","<img src=""stim_listB/fight1.gif""style=""height:400px;""></stim_listB>",is fighting,
null,"<div style=""font-size:60px;"">+</div>",,html-keyboard-response,282,956530,0.0-17.0-0.14,30209,List2B,white,woman,,,,null,,,,
null,"<img src=""stim_listB/flirt6.gif""style=""height:400px;""></stim_listB>",,html-keyboard-response,283,958534,0.0-17.0-1.14,30209,List2B,white,woman,,,,null,,,,
null,are flirting with each other,,html-keyboard-response,284,960537,0.0-17.0-2.14,30209,List2B,white,woman,,,,null,,,,
8000,,,survey-text,285,968538,0.0-17.0-3.14,30209,List2B,white,woman,,,,,"{""Q0"":""Dave and fred are flirting with each other""}","<img src=""stim_listB/flirt6.gif""style=""height:400px;""></stim_listB>",are flirting with each other,
null,"<div style=""font-size:60px;"">+</div>",,html-keyboard-response,286,969041,0.0-17.0-0.15,30209,List2B,white,woman,,,,null,,,,
null,"<img src=""stim_listB/flirt5.gif""style=""height:400px;""></stim_listB>",,html-keyboard-response,287,971045,0.0-17.0-1.15,30209,List2B,white,woman,,,,null,,,,
null,is flirting with,,html-keyboard-response,288,973048,0.0-17.0-2.15,30209,List2B,white,woman,,,,null,,,,
5235,,,survey-text,289,978285,0.0-17.0-3.15,30209,List2B,white,woman,,,,,"{""Q0"":""mike is flirting with ruth""}","<img src=""stim_listB/flirt5.gif""style=""height:400px;""></stim_listB>",is flirting with,
null,"<div style=""font-size:60px;"">+</div>",,html-keyboard-response,290,978789,0.0-17.0-0.16,30209,List2B,white,woman,,,,null,,,,
null,"<img src=""stim_listB/kiss5.gif""style=""height:400px;""></stim_listB>",,html-keyboard-response,291,980792,0.0-17.0-1.16,30209,List2B,white,woman,,,,null,,,,
null,is kissing,,html-keyboard-response,292,982795,0.0-17.0-2.16,30209,List2B,white,woman,,,,null,,,,
8343,,,survey-text,293,991140,0.0-17.0-3.16,30209,List2B,white,woman,,,,,"{""Q0"":""fred is kissing luke""}","<img src=""stim_listB/kiss5.gif""style=""height:400px;""></stim_listB>",is kissing,
null,"<div style=""font-size:60px;"">+</div>",,html-keyboard-response,294,991643,0.0-17.0-0.17,30209,List2B,white,woman,,,,null,,,,
null,"<img src=""stim_listB/argue2.gif""style=""height:400px;""></stim_listB>",,html-keyboard-response,295,993646,0.0-17.0-1.17,30209,List2B,white,woman,,,,null,,,,
null,are arguing with each other,,html-keyboard-response,296,995653,0.0-17.0-2.17,30209,List2B,white,woman,,,,null,,,,
7395,,,survey-text,297,1003048,0.0-17.0-3.17,30209,List2B,white,woman,,,,,"{""Q0"":""Luke and Jane are arguing with each other""}","<img src=""stim_listB/argue2.gif""style=""height:400px;""></stim_listB>",are arguing with each other,
null,"<div style=""font-size:60px;"">+</div>",,html-keyboard-response,298,1003551,0.0-17.0-0.18,30209,List2B,white,woman,,,,null,,,,
null,"<img src=""stim_listB/play4.gif""style=""height:400px;""></stim_listB>",,html-keyboard-response,299,1005555,0.0-17.0-1.18,30209,List2B,white,woman,,,,null,,,,
null,are playing with each other,,html-keyboard-response,300,1007558,0.0-17.0-2.18,30209,List2B,white,woman,,,,null,,,,
6977,,,survey-text,301,1014536,0.0-17.0-3.18,30209,List2B,white,woman,,,,,"{""Q0"":""fred and Beth are playing with each other""}","<img src=""stim_listB/play4.gif""style=""height:400px;""></stim_listB>",are playing with each other,
null,"<div style=""font-size:60px;"">+</div>",,html-keyboard-response,302,1015039,0.0-17.0-0.19,30209,List2B,white,woman,,,,null,,,,
null,"<img src=""stim_listB/fight3.gif""style=""height:400px;""></stim_listB>",,html-keyboard-response,303,1017044,0.0-17.0-1.19,30209,List2B,white,woman,,,,null,,,,
null,is fighting,,html-keyboard-response,304,1019048,0.0-17.0-2.19,30209,List2B,white,woman,,,,null,,,,
8773,,,survey-text,305,1027822,0.0-17.0-3.19,30209,List2B,white,woman,,,,,"{""Q0"":""mike is fighting Kate""}","<img src=""stim_listB/fight3.gif""style=""height:400px;""></stim_listB>",is fighting,
2832,"<img src='img/portrait_matrix_list2.jpg' style='width:900px;height:500px;''></img><p>If you have memorised all the portraits and names and are ready to start, press Continue.</p><p><strong>Please note: Your memory of these faces will be tested 4 times during this experiment.</strong></p>",0,html-button-response,306,1030656,0.0-18.0-0.0,30209,List2B,white,woman,,,,,,,,
2466,"<img src=""portrait/BM1.jpg""style=""height:400px;""></img>",4,html-button-response,307,1034126,0.0-18.0-1.0,30209,List2B,white,woman,,TRUE,4,,,,,
null,CORRECT,,html-keyboard-response,308,1035630,0.0-18.0-2.0-0.0,30209,List2B,white,woman,,,,null,,,,
2053,"<img src=""portrait/WM1.jpg""style=""height:400px;""></img>",6,html-button-response,309,1037685,0.0-18.0-4.0,30209,List2B,white,woman,,TRUE,6,,,,,
null,CORRECT,,html-keyboard-response,310,1039189,0.0-18.0-5.0-0.0,30209,List2B,white,woman,,,,null,,,,
1484,"<img src=""portrait/BM2.jpg""style=""height:400px;""></img>",5,html-button-response,311,1040679,0.0-18.0-7.0,30209,List2B,white,woman,,TRUE,5,,,,,
null,CORRECT,,html-keyboard-response,312,1042183,0.0-18.0-8.0-0.0,30209,List2B,white,woman,,,,null,,,,
1617,"<img src=""portrait/WM2.jpg""style=""height:400px;""></img>",7,html-button-response,313,1043803,0.0-18.0-10.0,30209,List2B,white,woman,,TRUE,7,,,,,
null,CORRECT,,html-keyboard-response,314,1045307,0.0-18.0-11.0-0.0,30209,List2B,white,woman,,,,null,,,,
4116,"<img src=""portrait/BW1.jpg""style=""height:400px;""></img>",0,html-button-response,315,1049425,0.0-18.0-13.0,30209,List2B,white,woman,,TRUE,0,,,,,
null,CORRECT,,html-keyboard-response,316,1050929,0.0-18.0-14.0-0.0,30209,List2B,white,woman,,,,null,,,,
1326,"<img src=""portrait/WW1.jpg""style=""height:400px;""></img>",1,html-button-response,317,1052258,0.0-18.0-16.0,30209,List2B,white,woman,,TRUE,1,,,,,
null,CORRECT,,html-keyboard-response,318,1053763,0.0-18.0-17.0-0.0,30209,List2B,white,woman,,,,null,,,,
1583,"<img src=""portrait/WW2.jpg""style=""height:400px;""></img>",3,html-button-response,319,1055348,0.0-18.0-19.0,30209,List2B,white,woman,,TRUE,3,,,,,
null,CORRECT,,html-keyboard-response,320,1056852,0.0-18.0-20.0-0.0,30209,List2B,white,woman,,,,null,,,,
1764,"<img src=""portrait/BW2.jpg""style=""height:400px;""></img>",2,html-button-response,321,1058621,0.0-18.0-22.0,30209,List2B,white,woman,,TRUE,2,,,,,
null,CORRECT,,html-keyboard-response,322,1060125,0.0-18.0-23.0-0.0,30209,List2B,white,woman,,,,null,,,,
1594,<p>You got 8 out of 8 right first time. Press Continue.</p>,0,html-button-response,323,1061722,0.0-18.0-25.0,30209,List2B,white,woman,,,,,,,,
null,"<div style=""font-size:60px;"">+</div>",,html-keyboard-response,324,1063227,0.0-19.0-0.0,30209,List2B,white,woman,,,,null,,,,
null,"<img src=""stim_listB/marry1.gif""style=""height:400px;""></stim_listB>",,html-keyboard-response,325,1065231,0.0-19.0-1.0,30209,List2B,white,woman,,,,null,,,,
null,is marrying,,html-keyboard-response,326,1067233,0.0-19.0-2.0,30209,List2B,white,woman,,,,null,,,,
4491,,,survey-text,327,1071725,0.0-19.0-3.0,30209,List2B,white,woman,,,,,"{""Q0"":""ruth is marrying Dave""}","<img src=""stim_listB/marry1.gif""style=""height:400px;""></stim_listB>",is marrying,
null,"<div style=""font-size:60px;"">+</div>",,html-keyboard-response,328,1072228,0.0-19.0-0.1,30209,List2B,white,woman,,,,null,,,,
null,"<img src=""stim_listB/kiss6.gif""style=""height:400px;""></stim_listB>",,html-keyboard-response,329,1074232,0.0-19.0-1.1,30209,List2B,white,woman,,,,null,,,,
null,are kissing each other,,html-keyboard-response,330,1076235,0.0-19.0-2.1,30209,List2B,white,woman,,,,null,,,,
8328,,,survey-text,331,1084566,0.0-19.0-3.1,30209,List2B,white,woman,,,,,"{""Q0"":""Dave and mike are kissing each other""}","<img src=""stim_listB/kiss6.gif""style=""height:400px;""></stim_listB>",are kissing each other,
null,"<div style=""font-size:60px;"">+</div>",,html-keyboard-response,332,1085069,0.0-19.0-0.2,30209,List2B,white,woman,,,,null,,,,
null,"<img src=""stim_listB/kiss3.gif""style=""height:400px;""></stim_listB>",,html-keyboard-response,333,1087073,0.0-19.0-1.2,30209,List2B,white,woman,,,,null,,,,
null,is kissing,,html-keyboard-response,334,1089076,0.0-19.0-2.2,30209,List2B,white,woman,,,,null,,,,
6149,,,survey-text,335,1095229,0.0-19.0-3.2,30209,List2B,white,woman,,,,,"{""Q0"":""Beth is kissing fred""}","<img src=""stim_listB/kiss3.gif""style=""height:400px;""></stim_listB>",is kissing,
null,"<div style=""font-size:60px;"">+</div>",,html-keyboard-response,336,1095732,0.0-19.0-0.3,30209,List2B,white,woman,,,,null,,,,
null,"<img src=""stim_listB/shout1.gif""style=""height:400px;""></stim_listB>",,html-keyboard-response,337,1097735,0.0-19.0-1.3,30209,List2B,white,woman,,,,null,,,,
null,is shouting at,,html-keyboard-response,338,1099738,0.0-19.0-2.3,30209,List2B,white,woman,,,,null,,,,
5131,,,survey-text,339,1104870,0.0-19.0-3.3,30209,List2B,white,woman,,,,,"{""Q0"":""Luke is shouting at ruth""}","<img src=""stim_listB/shout1.gif""style=""height:400px;""></stim_listB>",is shouting at,
null,"<div style=""font-size:60px;"">+</div>",,html-keyboard-response,340,1105373,0.0-19.0-0.4,30209,List2B,white,woman,,,,null,,,,
null,"<img src=""stim_listB/shout7.gif""style=""height:400px;""></stim_listB>",,html-keyboard-response,341,1107377,0.0-19.0-1.4,30209,List2B,white,woman,,,,null,,,,
null,is shouting at,,html-keyboard-response,342,1109382,0.0-19.0-2.4,30209,List2B,white,woman,,,,null,,,,
5099,,,survey-text,343,1114483,0.0-19.0-3.4,30209,List2B,white,woman,,,,,"{""Q0"":""ruth is shouting at Beth""}","<img src=""stim_listB/shout7.gif""style=""height:400px;""></stim_listB>",is shouting at,
null,"<div style=""font-size:60px;"">+</div>",,html-keyboard-response,344,1114986,0.0-19.0-0.5,30209,List2B,white,woman,,,,null,,,,
null,"<img src=""stim_listB/marry3.gif""style=""height:400px;""></stim_listB>",,html-keyboard-response,345,1116989,0.0-19.0-1.5,30209,List2B,white,woman,,,,null,,,,
null,is marrying,,html-keyboard-response,346,1118992,0.0-19.0-2.5,30209,List2B,white,woman,,,,null,,,,
4709,,,survey-text,347,1123705,0.0-19.0-3.5,30209,List2B,white,woman,,,,,"{""Q0"":""Beth is marrying mike""}","<img src=""stim_listB/marry3.gif""style=""height:400px;""></stim_listB>",is marrying,
null,"<div style=""font-size:60px;"">+</div>",,html-keyboard-response,348,1124208,0.0-19.0-0.6,30209,List2B,white,woman,,,,null,,,,
null,"<img src=""stim_listB/talk4.gif""style=""height:400px;""></stim_listB>",,html-keyboard-response,349,1126212,0.0-19.0-1.6,30209,List2B,white,woman,,,,null,,,,
null,are talking to each other,,html-keyboard-response,350,1128215,0.0-19.0-2.6,30209,List2B,white,woman,,,,null,,,,
8929,,,survey-text,351,1137145,0.0-19.0-3.6,30209,List2B,white,woman,,,,,"{""Q0"":""Beth and mike are talking to each other""}","<img src=""stim_listB/talk4.gif""style=""height:400px;""></stim_listB>",are talking to each other,
null,"<div style=""font-size:60px;"">+</div>",,html-keyboard-response,352,1137648,0.0-19.0-0.7,30209,List2B,white,woman,,,,null,,,,
null,"<img src=""stim_listB/talk8.gif""style=""height:400px;""></stim_listB>",,html-keyboard-response,353,1139652,0.0-19.0-1.7,30209,List2B,white,woman,,,,null,,,,
null,are talking to each other,,html-keyboard-response,354,1141655,0.0-19.0-2.7,30209,List2B,white,woman,,,,null,,,,
7361,,,survey-text,355,1149016,0.0-19.0-3.7,30209,List2B,white,woman,,,,,"{""Q0"":""Beth and Jane are talking to each other""}","<img src=""stim_listB/talk8.gif""style=""height:400px;""></stim_listB>",are talking to each other,
null,"<div style=""font-size:60px;"">+</div>",,html-keyboard-response,356,1149520,0.0-19.0-0.8,30209,List2B,white,woman,,,,null,,,,
null,"<img src=""stim_listB/fight4.gif""style=""height:400px;""></stim_listB>",,html-keyboard-response,357,1151523,0.0-19.0-1.8,30209,List2B,white,woman,,,,null,,,,
null,are fighting each other,,html-keyboard-response,358,1153526,0.0-19.0-2.8,30209,List2B,white,woman,,,,null,,,,
7520,,,survey-text,359,1161047,0.0-19.0-3.8,30209,List2B,white,woman,,,,,"{""Q0"":""Beth and fred are fighting each other""}","<img src=""stim_listB/fight4.gif""style=""height:400px;""></stim_listB>",are fighting each other,
null,"<div style=""font-size:60px;"">+</div>",,html-keyboard-response,360,1161550,0.0-19.0-0.9,30209,List2B,white,woman,,,,null,,,,
null,"<img src=""stim_listB/flirt3.gif""style=""height:400px;""></stim_listB>",,html-keyboard-response,361,1163553,0.0-19.0-1.9,30209,List2B,white,woman,,,,null,,,,
null,is flirting with,,html-keyboard-response,362,1165556,0.0-19.0-2.9,30209,List2B,white,woman,,,,null,,,,
5286,,,survey-text,363,1170843,0.0-19.0-3.9,30209,List2B,white,woman,,,,,"{""Q0"":""fred is flirting with Kate""}","<img src=""stim_listB/flirt3.gif""style=""height:400px;""></stim_listB>",is flirting with,
null,"<div style=""font-size:60px;"">+</div>",,html-keyboard-response,364,1171346,0.0-19.0-0.10,30209,List2B,white,woman,,,,null,,,,
null,"<img src=""stim_listB/touch6.gif""style=""height:400px;""></stim_listB>",,html-keyboard-response,365,1173350,0.0-19.0-1.10,30209,List2B,white,woman,,,,null,,,,
null,are touching each other,,html-keyboard-response,366,1175356,0.0-19.0-2.10,30209,List2B,white,woman,,,,null,,,,
7949,,,survey-text,367,1183306,0.0-19.0-3.10,30209,List2B,white,woman,,,,,"{""Q0"":""fred and Luke are touching each other""}","<img src=""stim_listB/touch6.gif""style=""height:400px;""></stim_listB>",are touching each other,
null,"<div style=""font-size:60px;"">+</div>",,html-keyboard-response,368,1183809,0.0-19.0-0.11,30209,List2B,white,woman,,,,null,,,,
null,"<img src=""stim_listB/shout4.gif""style=""height:400px;""></stim_listB>",,html-keyboard-response,369,1185813,0.0-19.0-1.11,30209,List2B,white,woman,,,,null,,,,
null,are shouting at each other,,html-keyboard-response,370,1187816,0.0-19.0-2.11,30209,List2B,white,woman,,,,null,,,,
8834,,,survey-text,371,1196652,0.0-19.0-3.11,30209,List2B,white,woman,,,,,"{""Q0"":""mike and Kate are shouting at each other""}","<img src=""stim_listB/shout4.gif""style=""height:400px;""></stim_listB>",are shouting at each other,
null,"<div style=""font-size:60px;"">+</div>",,html-keyboard-response,372,1197155,0.0-19.0-0.12,30209,List2B,white,woman,,,,null,,,,
null,"<img src=""stim_listB/touch3.gif""style=""height:400px;""></stim_listB>",,html-keyboard-response,373,1199158,0.0-19.0-1.12,30209,List2B,white,woman,,,,null,,,,
null,is touching,,html-keyboard-response,374,1201162,0.0-19.0-2.12,30209,List2B,white,woman,,,,null,,,,
5234,,,survey-text,375,1206398,0.0-19.0-3.12,30209,List2B,white,woman,,,,,"{""Q0"":""mike is touching Kate""}","<img src=""stim_listB/touch3.gif""style=""height:400px;""></stim_listB>",is touching,
null,"<div style=""font-size:60px;"">+</div>",,html-keyboard-response,376,1206901,0.0-19.0-0.13,30209,List2B,white,woman,,,,null,,,,
null,"<img src=""stim_listB/touch2.gif""style=""height:400px;""></stim_listB>",,html-keyboard-response,377,1208904,0.0-19.0-1.13,30209,List2B,white,woman,,,,null,,,,
null,are touching each other,,html-keyboard-response,378,1210907,0.0-19.0-2.13,30209,List2B,white,woman,,,,null,,,,
8385,,,survey-text,379,1219294,0.0-19.0-3.13,30209,List2B,white,woman,,,,,"{""Q0"":""ruth and Luke are touching each other""}","<img src=""stim_listB/touch2.gif""style=""height:400px;""></stim_listB>",are touching each other,
null,"<div style=""font-size:60px;"">+</div>",,html-keyboard-response,380,1219796,0.0-19.0-0.14,30209,List2B,white,woman,,,,null,,,,
null,"<img src=""stim_listB/kiss1.gif""style=""height:400px;""></stim_listB>",,html-keyboard-response,381,1221799,0.0-19.0-1.14,30209,List2B,white,woman,,,,null,,,,
null,is kissing,,html-keyboard-response,382,1223802,0.0-19.0-2.14,30209,List2B,white,woman,,,,null,,,,
4675,,,survey-text,383,1228478,0.0-19.0-3.14,30209,List2B,white,woman,,,,,"{""Q0"":""ruth is kissing Luke""}","<img src=""stim_listB/kiss1.gif""style=""height:400px;""></stim_listB>",is kissing,
null,"<div style=""font-size:60px;"">+</div>",,html-keyboard-response,384,1228981,0.0-19.0-0.15,30209,List2B,white,woman,,,,null,,,,
null,"<img src=""stim_listB/touch8.gif""style=""height:400px;""></stim_listB>",,html-keyboard-response,385,1230984,0.0-19.0-1.15,30209,List2B,white,woman,,,,null,,,,
null,are touching each other,,html-keyboard-response,386,1232988,0.0-19.0-2.15,30209,List2B,white,woman,,,,null,,,,
7648,,,survey-text,387,1240637,0.0-19.0-3.15,30209,List2B,white,woman,,,,,"{""Q0"":""ruth and Beth are touching each other""}","<img src=""stim_listB/touch8.gif""style=""height:400px;""></stim_listB>",are touching each other,
null,"<div style=""font-size:60px;"">+</div>",,html-keyboard-response,388,1241142,0.0-19.0-0.16,30209,List2B,white,woman,,,,null,,,,
null,"<img src=""stim_listB/dance3.gif""style=""height:400px;""></stim_listB>",,html-keyboard-response,389,1243148,0.0-19.0-1.16,30209,List2B,white,woman,,,,null,,,,
null,is dancing with,,html-keyboard-response,390,1245152,0.0-19.0-2.16,30209,List2B,white,woman,,,,null,,,,
6342,,,survey-text,391,1251496,0.0-19.0-3.16,30209,List2B,white,woman,,,,,"{""Q0"":""fred is dancing with Kate""}","<img src=""stim_listB/dance3.gif""style=""height:400px;""></stim_listB>",is dancing with,
null,"<div style=""font-size:60px;"">+</div>",,html-keyboard-response,392,1251999,0.0-19.0-0.17,30209,List2B,white,woman,,,,null,,,,
null,"<img src=""stim_listB/marry6.gif""style=""height:400px;""></stim_listB>",,html-keyboard-response,393,1254002,0.0-19.0-1.17,30209,List2B,white,woman,,,,null,,,,
null,are marrying each other,,html-keyboard-response,394,1256005,0.0-19.0-2.17,30209,List2B,white,woman,,,,null,,,,
6460,,,survey-text,395,1262466,0.0-19.0-3.17,30209,List2B,white,woman,,,,,"{""Q0"":""Luke and mike are marrying each other""}","<img src=""stim_listB/marry6.gif""style=""height:400px;""></stim_listB>",are marrying each other,
null,"<div style=""font-size:60px;"">+</div>",,html-keyboard-response,396,1262970,0.0-19.0-0.18,30209,List2B,white,woman,,,,null,,,,
null,"<img src=""stim_listB/marry8.gif""style=""height:400px;""></stim_listB>",,html-keyboard-response,397,1264973,0.0-19.0-1.18,30209,List2B,white,woman,,,,null,,,,
null,are marrying each other,,html-keyboard-response,398,1266975,0.0-19.0-2.18,30209,List2B,white,woman,,,,null,,,,
7709,,,survey-text,399,1274685,0.0-19.0-3.18,30209,List2B,white,woman,,,,,"{""Q0"":""ruth and Kate are marrying each other""}","<img src=""stim_listB/marry8.gif""style=""height:400px;""></stim_listB>",are marrying each other,
null,"<div style=""font-size:60px;"">+</div>",,html-keyboard-response,400,1275188,0.0-19.0-0.19,30209,List2B,white,woman,,,,null,,,,
null,"<img src=""stim_listB/fight8.gif""style=""height:400px;""></stim_listB>",,html-keyboard-response,401,1277191,0.0-19.0-1.19,30209,List2B,white,woman,,,,null,,,,
null,are fighting each other,,html-keyboard-response,402,1279195,0.0-19.0-2.19,30209,List2B,white,woman,,,,null,,,,
7631,,,survey-text,403,1286827,0.0-19.0-3.19,30209,List2B,white,woman,,,,,"{""Q0"":""ruth and Beth are fighting each other""}","<img src=""stim_listB/fight8.gif""style=""height:400px;""></stim_listB>",are fighting each other,
1742,<p>Thank you for completing that task.</p><p>The final part of this session is a short questionnaire.</p><p>Press Continue.</p>,0,html-button-response,404,1288570,0.0-20.0,30209,List2B,white,woman,,,,,,,,
19378,,,survey-text,405,1308950,0.0-21.0,30209,List2B,white,woman,,,,,"{""Q0"":""47"",""Q1"":""English"",""Q2"":""English"",""Q3"":""UK"",""Q4"":""White British"",""Q5"":""Female""}",,,demographics
7581,,,survey-likert,406,1316535,0.0-22.0,30209,List2B,white,woman,,,,,"{""Q0"":3}",,,likert_ESS
6379,,,survey-likert,407,1322920,0.0-23.0,30209,List2B,white,woman,,,,,"{""Q0"":4}",,,likert_NSSAL_Q1
3782,,,survey-likert,408,1326706,0.0-24.0,30209,List2B,white,woman,,,,,"{""Q0"":4}",,,likert_NSSAL_Q2
4772,,,survey-likert,409,1331483,0.0-25.0,30209,List2B,white,woman,,,,,"{""Q0"":4}",,,likert_CGRS_Q1
3723,,,survey-likert,410,1335212,0.0-26.0,30209,List2B,white,woman,,,,,"{""Q0"":4}",,,likert_CGRS_Q2
2996,,,survey-likert,411,1338214,0.0-27.0,30209,List2B,white,woman,,,,,"{""Q0"":4}",,,likert_CGRS_Q3
6204,,,survey-text,412,1344424,0.0-28.0,30209,List2B,white,woman,,,,,"{""Q0"":""ccc""}",,,worker_id
12417,,,external-html,413,1356920,0.0-29.0,30209,List2B,white,woman,debrief.html,,,,,,,
