rt,stimulus,button_pressed,trial_type,trial_index,time_elapsed,internal_node_id,subject,list,ppt_race,ppt_gender,url,first_guess,correct,key_press,responses,image_type,phrase_type,test_part
1468,Welcome to the experiment. Press Continue to begin.,0,html-button-response,0,1475,0.0-0.0,31579,List2B,black,woman,,,,,,,,
6789,,,external-html,1,9378,0.0-1.0,31579,List2B,black,woman,consent.html,,,,,,,
9720,"<p>On the next page, you will see portraits of 8 people and their names.</p><p>Your first task is to take a few minutes to memorise the names of these people.</p><p>You will have to recall their names during the rest of the experiment, so it is</p><p>essential that you try to memorise these people and their names as best as you can.</p><br><p><strong>You will then be tested on your memory of these names and portraits.</strong></p><br><p>The experiment will start after you have completed this memory test.</p><br><p>Ready?</p>",0,html-button-response,2,19101,0.0-2.0,31579,List2B,black,woman,,,,,,,,
100737,"<img src='img/portrait_matrix_list2.jpg' style='width:900px;height:500px;''></img><p>If you have memorised all the portraits and names and are ready to start, press Continue.</p><p><strong>Please note: Your memory of these faces will be tested 4 times during this experiment.</strong></p>",0,html-button-response,3,120844,0.0-3.0-0.0,31579,List2B,black,woman,,,,,,,,
2312,"<img src=""portrait/WW2.jpg""style=""height:400px;""></img>",3,html-button-response,4,124162,0.0-3.0-1.0,31579,List2B,black,woman,,TRUE,3,,,,,
null,CORRECT,,html-keyboard-response,5,125667,0.0-3.0-2.0-0.0,31579,List2B,black,woman,,,,null,,,,
2770,"<img src=""portrait/WW1.jpg""style=""height:400px;""></img>",1,html-button-response,6,128441,0.0-3.0-4.0,31579,List2B,black,woman,,TRUE,1,,,,,
null,CORRECT,,html-keyboard-response,7,129949,0.0-3.0-5.0-0.0,31579,List2B,black,woman,,,,null,,,,
3693,"<img src=""portrait/BM2.jpg""style=""height:400px;""></img>",5,html-button-response,8,133646,0.0-3.0-7.0,31579,List2B,black,woman,,TRUE,5,,,,,
null,CORRECT,,html-keyboard-response,9,135151,0.0-3.0-8.0-0.0,31579,List2B,black,woman,,,,null,,,,
2216,"<img src=""portrait/WM2.jpg""style=""height:400px;""></img>",7,html-button-response,10,137370,0.0-3.0-10.0,31579,List2B,black,woman,,TRUE,7,,,,,
null,CORRECT,,html-keyboard-response,11,138877,0.0-3.0-11.0-0.0,31579,List2B,black,woman,,,,null,,,,
2626,"<img src=""portrait/BM1.jpg""style=""height:400px;""></img>",4,html-button-response,12,141506,0.0-3.0-13.0,31579,List2B,black,woman,,TRUE,4,,,,,
null,CORRECT,,html-keyboard-response,13,143013,0.0-3.0-14.0-0.0,31579,List2B,black,woman,,,,null,,,,
1878,"<img src=""portrait/BW2.jpg""style=""height:400px;""></img>",2,html-button-response,14,144894,0.0-3.0-16.0,31579,List2B,black,woman,,TRUE,2,,,,,
null,CORRECT,,html-keyboard-response,15,146398,0.0-3.0-17.0-0.0,31579,List2B,black,woman,,,,null,,,,
2686,"<img src=""portrait/BW1.jpg""style=""height:400px;""></img>",0,html-button-response,16,149086,0.0-3.0-19.0,31579,List2B,black,woman,,TRUE,0,,,,,
null,CORRECT,,html-keyboard-response,17,150590,0.0-3.0-20.0-0.0,31579,List2B,black,woman,,,,null,,,,
5079,"<img src=""portrait/WM1.jpg""style=""height:400px;""></img>",6,html-button-response,18,155671,0.0-3.0-22.0,31579,List2B,black,woman,,TRUE,6,,,,,
null,CORRECT,,html-keyboard-response,19,157177,0.0-3.0-23.0-0.0,31579,List2B,black,woman,,,,null,,,,
1900,<p>You got 8 out of 8 right first time. Press Continue.</p>,0,html-button-response,20,159081,0.0-3.0-25.0,31579,List2B,black,woman,,,,,,,,
27313,"<p>In this experiment, you will view photographs of the people from the memory game interacting.</p><p>By using the <strong>exact</strong> phrase given <i>after</i> the photograph appears and recalling the correct names of the people in the photographs, form a sentence describing the interaction. You do not need to capitalise names.</p><p>Type your answer in the space provided. Please complete every sentence before moving onto the next trial.</p><p>You will only have a few seconds to memorise each given photograph and phrase before you can respond, so try your best to focus.</p><p>An example is given below. Press 'Continue' when you are ready.</p><img src='img/speaking_example.jpg' style='width:800px;height:460px;''></img>",0,html-button-response,21,187400,0.0-4.0,31579,List2B,black,woman,,,,,,,,
2729,"<p>Before the experiment starts, you will watch two example trials. Press 'Continue'.</p>",0,html-button-response,22,191131,0.0-5.0,31579,List2B,black,woman,,,,,,,,
null,<img src='img/meet_eg.gif' style='height:400px;''></img>,,html-keyboard-response,23,194136,0.0-6.0,31579,List2B,black,woman,,,,null,,,,
null,<p>is meeting</p>,,html-keyboard-response,24,196139,0.0-7.0,31579,List2B,black,woman,,,,null,,,,
9490,<p><b>Answer:</b> jane is meeting ruth</p>,0,html-button-response,25,205631,0.0-8.0,31579,List2B,black,woman,,,,,,,,
null,<img src='img/look_eg.gif' style='height:400px;''></img>,,html-keyboard-response,26,208636,0.0-9.0,31579,List2B,black,woman,,,,null,,,,
null,<p>are looking at each other</p>,,html-keyboard-response,27,210638,0.0-10.0,31579,List2B,black,woman,,,,null,,,,
2493,<p><b>Answer:</b> fred and mike are looking at each other</p>,0,html-button-response,28,213133,0.0-11.0,31579,List2B,black,woman,,,,,,,,
8645,"<p>Ready to start the experiment?</p><br><p><strong>Remember to describe the picture using a full sentence,</strong></p><p><strong>that combines the names of the people with the <i>exact</i> phrase given.</strong></p><p><strong>To receive full payment you must do this correctly.</strong></p><p><strong> You do not need to capitalise names or use punctuation.</strong></p><br><p>Press 'Continue' to begin.</p>",0,html-button-response,29,222781,0.0-12.0,31579,List2B,black,woman,,,,,,,,
null,"<div style=""font-size:60px;"">+</div>",,html-keyboard-response,30,224289,0.0-13.0-0.0,31579,List2B,black,woman,,,,null,,,,
null,"<img src=""stim_listB/touch8.gif""style=""height:400px;""></stim_listB>",,html-keyboard-response,31,226293,0.0-13.0-1.0,31579,List2B,black,woman,,,,null,,,,
null,are touching each other,,html-keyboard-response,32,228301,0.0-13.0-2.0,31579,List2B,black,woman,,,,null,,,,
11151,,,survey-text,33,239455,0.0-13.0-3.0,31579,List2B,black,woman,,,,,"{""Q0"":""ruth and beth are touching each other.""}","<img src=""stim_listB/touch8.gif""style=""height:400px;""></stim_listB>",are touching each other,
null,"<div style=""font-size:60px;"">+</div>",,html-keyboard-response,34,239959,0.0-13.0-0.1,31579,List2B,black,woman,,,,null,,,,
null,"<img src=""stim_listB/dance4.gif""style=""height:400px;""></stim_listB>",,html-keyboard-response,35,241961,0.0-13.0-1.1,31579,List2B,black,woman,,,,null,,,,
null,are dancing with each other,,html-keyboard-response,36,243963,0.0-13.0-2.1,31579,List2B,black,woman,,,,null,,,,
9084,,,survey-text,37,253049,0.0-13.0-3.1,31579,List2B,black,woman,,,,,"{""Q0"":""mike and beth are dancing with each other""}","<img src=""stim_listB/dance4.gif""style=""height:400px;""></stim_listB>",are dancing with each other,
null,"<div style=""font-size:60px;"">+</div>",,html-keyboard-response,38,253551,0.0-13.0-0.2,31579,List2B,black,woman,,,,null,,,,
null,"<img src=""stim_listB/play4.gif""style=""height:400px;""></stim_listB>",,html-keyboard-response,39,255557,0.0-13.0-1.2,31579,List2B,black,woman,,,,null,,,,
null,are playing with each other,,html-keyboard-response,40,257563,0.0-13.0-2.2,31579,List2B,black,woman,,,,null,,,,
11157,,,survey-text,41,268722,0.0-13.0-3.2,31579,List2B,black,woman,,,,,"{""Q0"":""fred and beth are playing with each other.""}","<img src=""stim_listB/play4.gif""style=""height:400px;""></stim_listB>",are playing with each other,
null,"<div style=""font-size:60px;"">+</div>",,html-keyboard-response,42,269224,0.0-13.0-0.3,31579,List2B,black,woman,,,,null,,,,
null,"<img src=""stim_listB/shout1.gif""style=""height:400px;""></stim_listB>",,html-keyboard-response,43,271232,0.0-13.0-1.3,31579,List2B,black,woman,,,,null,,,,
null,is shouting at,,html-keyboard-response,44,273234,0.0-13.0-2.3,31579,List2B,black,woman,,,,null,,,,
13717,,,survey-text,45,286953,0.0-13.0-3.3,31579,List2B,black,woman,,,,,"{""Q0"":""ruth is shouting at luke""}","<img src=""stim_listB/shout1.gif""style=""height:400px;""></stim_listB>",is shouting at,
null,"<div style=""font-size:60px;"">+</div>",,html-keyboard-response,46,287456,0.0-13.0-0.4,31579,List2B,black,woman,,,,null,,,,
null,"<img src=""stim_listB/flirt8.gif""style=""height:400px;""></stim_listB>",,html-keyboard-response,47,289463,0.0-13.0-1.4,31579,List2B,black,woman,,,,null,,,,
null,are flirting with each other,,html-keyboard-response,48,291465,0.0-13.0-2.4,31579,List2B,black,woman,,,,null,,,,
16426,,,survey-text,49,307893,0.0-13.0-3.4,31579,List2B,black,woman,,,,,"{""Q0"":""beth and jane are flirting with each other""}","<img src=""stim_listB/flirt8.gif""style=""height:400px;""></stim_listB>",are flirting with each other,
null,"<div style=""font-size:60px;"">+</div>",,html-keyboard-response,50,308398,0.0-13.0-0.5,31579,List2B,black,woman,,,,null,,,,
null,"<img src=""stim_listB/kiss1.gif""style=""height:400px;""></stim_listB>",,html-keyboard-response,51,310402,0.0-13.0-1.5,31579,List2B,black,woman,,,,null,,,,
null,is kissing,,html-keyboard-response,52,312408,0.0-13.0-2.5,31579,List2B,black,woman,,,,null,,,,
6552,,,survey-text,53,318962,0.0-13.0-3.5,31579,List2B,black,woman,,,,,"{""Q0"":""luke is kissing ruth""}","<img src=""stim_listB/kiss1.gif""style=""height:400px;""></stim_listB>",is kissing,
null,"<div style=""font-size:60px;"">+</div>",,html-keyboard-response,54,319467,0.0-13.0-0.6,31579,List2B,black,woman,,,,null,,,,
null,"<img src=""stim_listB/fight5.gif""style=""height:400px;""></stim_listB>",,html-keyboard-response,55,321473,0.0-13.0-1.6,31579,List2B,black,woman,,,,null,,,,
null,is fighting,,html-keyboard-response,56,323475,0.0-13.0-2.6,31579,List2B,black,woman,,,,null,,,,
5985,,,survey-text,57,329461,0.0-13.0-3.6,31579,List2B,black,woman,,,,,"{""Q0"":""mike is fighting dave""}","<img src=""stim_listB/fight5.gif""style=""height:400px;""></stim_listB>",is fighting,
null,"<div style=""font-size:60px;"">+</div>",,html-keyboard-response,58,329964,0.0-13.0-0.7,31579,List2B,black,woman,,,,null,,,,
null,"<img src=""stim_listB/play6.gif""style=""height:400px;""></stim_listB>",,html-keyboard-response,59,331970,0.0-13.0-1.7,31579,List2B,black,woman,,,,null,,,,
null,are playing with each other,,html-keyboard-response,60,333974,0.0-13.0-2.7,31579,List2B,black,woman,,,,null,,,,
17345,,,survey-text,61,351322,0.0-13.0-3.7,31579,List2B,black,woman,,,,,"{""Q0"":""mike and fred are playing with each other""}","<img src=""stim_listB/play6.gif""style=""height:400px;""></stim_listB>",are playing with each other,
null,"<div style=""font-size:60px;"">+</div>",,html-keyboard-response,62,351826,0.0-13.0-0.8,31579,List2B,black,woman,,,,null,,,,
null,"<img src=""stim_listB/touch7.gif""style=""height:400px;""></stim_listB>",,html-keyboard-response,63,353830,0.0-13.0-1.8,31579,List2B,black,woman,,,,null,,,,
null,is touching,,html-keyboard-response,64,355833,0.0-13.0-2.8,31579,List2B,black,woman,,,,null,,,,
7843,,,survey-text,65,363678,0.0-13.0-3.8,31579,List2B,black,woman,,,,,"{""Q0"":""kate is touching jane""}","<img src=""stim_listB/touch7.gif""style=""height:400px;""></stim_listB>",is touching,
null,"<div style=""font-size:60px;"">+</div>",,html-keyboard-response,66,364185,0.0-13.0-0.9,31579,List2B,black,woman,,,,null,,,,
null,"<img src=""stim_listB/shout7.gif""style=""height:400px;""></stim_listB>",,html-keyboard-response,67,366191,0.0-13.0-1.9,31579,List2B,black,woman,,,,null,,,,
null,is shouting at,,html-keyboard-response,68,368194,0.0-13.0-2.9,31579,List2B,black,woman,,,,null,,,,
8254,,,survey-text,69,376450,0.0-13.0-3.9,31579,List2B,black,woman,,,,,"{""Q0"":""beth is shouting at ruth""}","<img src=""stim_listB/shout7.gif""style=""height:400px;""></stim_listB>",is shouting at,
null,"<div style=""font-size:60px;"">+</div>",,html-keyboard-response,70,376953,0.0-13.0-0.10,31579,List2B,black,woman,,,,null,,,,
null,"<img src=""stim_listB/fight6.gif""style=""height:400px;""></stim_listB>",,html-keyboard-response,71,378960,0.0-13.0-1.10,31579,List2B,black,woman,,,,null,,,,
null,are fighting each other,,html-keyboard-response,72,380966,0.0-13.0-2.10,31579,List2B,black,woman,,,,null,,,,
15248,,,survey-text,73,396215,0.0-13.0-3.10,31579,List2B,black,woman,,,,,"{""Q0"":""fred and luke are fighting each other""}","<img src=""stim_listB/fight6.gif""style=""height:400px;""></stim_listB>",are fighting each other,
null,"<div style=""font-size:60px;"">+</div>",,html-keyboard-response,74,396720,0.0-13.0-0.11,31579,List2B,black,woman,,,,null,,,,
null,"<img src=""stim_listB/dance7.gif""style=""height:400px;""></stim_listB>",,html-keyboard-response,75,398723,0.0-13.0-1.11,31579,List2B,black,woman,,,,null,,,,
null,is dancing with,,html-keyboard-response,76,400726,0.0-13.0-2.11,31579,List2B,black,woman,,,,null,,,,
7466,,,survey-text,77,408194,0.0-13.0-3.11,31579,List2B,black,woman,,,,,"{""Q0"":""jane is dancing with ruth""}","<img src=""stim_listB/dance7.gif""style=""height:400px;""></stim_listB>",is dancing with,
null,"<div style=""font-size:60px;"">+</div>",,html-keyboard-response,78,408697,0.0-13.0-0.12,31579,List2B,black,woman,,,,null,,,,
null,"<img src=""stim_listB/dance5.gif""style=""height:400px;""></stim_listB>",,html-keyboard-response,79,410701,0.0-13.0-1.12,31579,List2B,black,woman,,,,null,,,,
null,is dancing with,,html-keyboard-response,80,412708,0.0-13.0-2.12,31579,List2B,black,woman,,,,null,,,,
6034,,,survey-text,81,418744,0.0-13.0-3.12,31579,List2B,black,woman,,,,,"{""Q0"":""mike is dancing with luke""}","<img src=""stim_listB/dance5.gif""style=""height:400px;""></stim_listB>",is dancing with,
null,"<div style=""font-size:60px;"">+</div>",,html-keyboard-response,82,419248,0.0-13.0-0.13,31579,List2B,black,woman,,,,null,,,,
null,"<img src=""stim_listB/marry7.gif""style=""height:400px;""></stim_listB>",,html-keyboard-response,83,421251,0.0-13.0-1.13,31579,List2B,black,woman,,,,null,,,,
null,is marrying,,html-keyboard-response,84,423255,0.0-13.0-2.13,31579,List2B,black,woman,,,,null,,,,
7614,,,survey-text,85,430871,0.0-13.0-3.13,31579,List2B,black,woman,,,,,"{""Q0"":""beth is marrying jane""}","<img src=""stim_listB/marry7.gif""style=""height:400px;""></stim_listB>",is marrying,
null,"<div style=""font-size:60px;"">+</div>",,html-keyboard-response,86,431373,0.0-13.0-0.14,31579,List2B,black,woman,,,,null,,,,
null,"<img src=""stim_listB/kiss7.gif""style=""height:400px;""></stim_listB>",,html-keyboard-response,87,433376,0.0-13.0-1.14,31579,List2B,black,woman,,,,null,,,,
null,is kissing,,html-keyboard-response,88,435381,0.0-13.0-2.14,31579,List2B,black,woman,,,,null,,,,
4889,,,survey-text,89,440272,0.0-13.0-3.14,31579,List2B,black,woman,,,,,"{""Q0"":""beth is kissing ruth""}","<img src=""stim_listB/kiss7.gif""style=""height:400px;""></stim_listB>",is kissing,
null,"<div style=""font-size:60px;"">+</div>",,html-keyboard-response,90,440774,0.0-13.0-0.15,31579,List2B,black,woman,,,,null,,,,
null,"<img src=""stim_listB/marry4.gif""style=""height:400px;""></stim_listB>",,html-keyboard-response,91,442776,0.0-13.0-1.15,31579,List2B,black,woman,,,,null,,,,
null,are marrying each other,,html-keyboard-response,92,444778,0.0-13.0-2.15,31579,List2B,black,woman,,,,null,,,,
9456,,,survey-text,93,454236,0.0-13.0-3.15,31579,List2B,black,woman,,,,,"{""Q0"":""jane and luke are marrying each other""}","<img src=""stim_listB/marry4.gif""style=""height:400px;""></stim_listB>",are marrying each other,
null,"<div style=""font-size:60px;"">+</div>",,html-keyboard-response,94,454742,0.0-13.0-0.16,31579,List2B,black,woman,,,,null,,,,
null,"<img src=""stim_listB/flirt2.gif""style=""height:400px;""></stim_listB>",,html-keyboard-response,95,456747,0.0-13.0-1.16,31579,List2B,black,woman,,,,null,,,,
null,are flirting with each other,,html-keyboard-response,96,458749,0.0-13.0-2.16,31579,List2B,black,woman,,,,null,,,,
9843,,,survey-text,97,468594,0.0-13.0-3.16,31579,List2B,black,woman,,,,,"{""Q0"":""dave and ruth are flirting with each other""}","<img src=""stim_listB/flirt2.gif""style=""height:400px;""></stim_listB>",are flirting with each other,
null,"<div style=""font-size:60px;"">+</div>",,html-keyboard-response,98,469096,0.0-13.0-0.17,31579,List2B,black,woman,,,,null,,,,
null,"<img src=""stim_listB/argue5.gif""style=""height:400px;""></stim_listB>",,html-keyboard-response,99,471100,0.0-13.0-1.17,31579,List2B,black,woman,,,,null,,,,
null,is arguing with,,html-keyboard-response,100,473101,0.0-13.0-2.17,31579,List2B,black,woman,,,,null,,,,
8238,,,survey-text,101,481342,0.0-13.0-3.17,31579,List2B,black,woman,,,,,"{""Q0"":""dave is arguing with luke""}","<img src=""stim_listB/argue5.gif""style=""height:400px;""></stim_listB>",is arguing with,
null,"<div style=""font-size:60px;"">+</div>",,html-keyboard-response,102,481843,0.0-13.0-0.18,31579,List2B,black,woman,,,,null,,,,
null,"<img src=""stim_listB/shout4.gif""style=""height:400px;""></stim_listB>",,html-keyboard-response,103,483850,0.0-13.0-1.18,31579,List2B,black,woman,,,,null,,,,
null,are shouting at each other,,html-keyboard-response,104,485851,0.0-13.0-2.18,31579,List2B,black,woman,,,,null,,,,
10323,,,survey-text,105,496176,0.0-13.0-3.18,31579,List2B,black,woman,,,,,"{""Q0"":""mike and jane are shouting at each other""}","<img src=""stim_listB/shout4.gif""style=""height:400px;""></stim_listB>",are shouting at each other,
null,"<div style=""font-size:60px;"">+</div>",,html-keyboard-response,106,496679,0.0-13.0-0.19,31579,List2B,black,woman,,,,null,,,,
null,"<img src=""stim_listB/talk7.gif""style=""height:400px;""></stim_listB>",,html-keyboard-response,107,498688,0.0-13.0-1.19,31579,List2B,black,woman,,,,null,,,,
null,is talking to,,html-keyboard-response,108,500690,0.0-13.0-2.19,31579,List2B,black,woman,,,,null,,,,
6330,,,survey-text,109,507022,0.0-13.0-3.19,31579,List2B,black,woman,,,,,"{""Q0"":""jane is talking to ruth""}","<img src=""stim_listB/talk7.gif""style=""height:400px;""></stim_listB>",is talking to,
23008,"<img src='img/portrait_matrix_list2.jpg' style='width:900px;height:500px;''></img><p>If you have memorised all the portraits and names and are ready to start, press Continue.</p><p><strong>Please note: Your memory of these faces will be tested 4 times during this experiment.</strong></p>",0,html-button-response,110,530033,0.0-14.0-0.0,31579,List2B,black,woman,,,,,,,,
3233,"<img src=""portrait/WM1.jpg""style=""height:400px;""></img>",6,html-button-response,111,534273,0.0-14.0-1.0,31579,List2B,black,woman,,TRUE,6,,,,,
null,CORRECT,,html-keyboard-response,112,535783,0.0-14.0-2.0-0.0,31579,List2B,black,woman,,,,null,,,,
1229,"<img src=""portrait/BM2.jpg""style=""height:400px;""></img>",5,html-button-response,113,537016,0.0-14.0-4.0,31579,List2B,black,woman,,TRUE,5,,,,,
null,CORRECT,,html-keyboard-response,114,538520,0.0-14.0-5.0-0.0,31579,List2B,black,woman,,,,null,,,,
1238,"<img src=""portrait/BM1.jpg""style=""height:400px;""></img>",4,html-button-response,115,539760,0.0-14.0-7.0,31579,List2B,black,woman,,TRUE,4,,,,,
null,CORRECT,,html-keyboard-response,116,541268,0.0-14.0-8.0-0.0,31579,List2B,black,woman,,,,null,,,,
1725,"<img src=""portrait/WW2.jpg""style=""height:400px;""></img>",3,html-button-response,117,542996,0.0-14.0-10.0,31579,List2B,black,woman,,TRUE,3,,,,,
null,CORRECT,,html-keyboard-response,118,544507,0.0-14.0-11.0-0.0,31579,List2B,black,woman,,,,null,,,,
4595,"<img src=""portrait/BW1.jpg""style=""height:400px;""></img>",0,html-button-response,119,549106,0.0-14.0-13.0,31579,List2B,black,woman,,TRUE,0,,,,,
null,CORRECT,,html-keyboard-response,120,550612,0.0-14.0-14.0-0.0,31579,List2B,black,woman,,,,null,,,,
2422,"<img src=""portrait/BW2.jpg""style=""height:400px;""></img>",2,html-button-response,121,553036,0.0-14.0-16.0,31579,List2B,black,woman,,TRUE,2,,,,,
null,CORRECT,,html-keyboard-response,122,554544,0.0-14.0-17.0-0.0,31579,List2B,black,woman,,,,null,,,,
6157,"<img src=""portrait/WW1.jpg""style=""height:400px;""></img>",1,html-button-response,123,560704,0.0-14.0-19.0,31579,List2B,black,woman,,TRUE,1,,,,,
null,CORRECT,,html-keyboard-response,124,562208,0.0-14.0-20.0-0.0,31579,List2B,black,woman,,,,null,,,,
29018,"<img src=""portrait/WM2.jpg""style=""height:400px;""></img>",7,html-button-response,125,591230,0.0-14.0-22.0,31579,List2B,black,woman,,TRUE,7,,,,,
null,CORRECT,,html-keyboard-response,126,592737,0.0-14.0-23.0-0.0,31579,List2B,black,woman,,,,null,,,,
1455,<p>You got 8 out of 8 right first time. Press Continue.</p>,0,html-button-response,127,594196,0.0-14.0-25.0,31579,List2B,black,woman,,,,,,,,
null,"<div style=""font-size:60px;"">+</div>",,html-keyboard-response,128,595704,0.0-15.0-0.0,31579,List2B,black,woman,,,,null,,,,
null,"<img src=""stim_listB/talk1.gif""style=""height:400px;""></stim_listB>",,html-keyboard-response,129,597709,0.0-15.0-1.0,31579,List2B,black,woman,,,,null,,,,
null,is talking to,,html-keyboard-response,130,599717,0.0-15.0-2.0,31579,List2B,black,woman,,,,null,,,,
5584,,,survey-text,131,605303,0.0-15.0-3.0,31579,List2B,black,woman,,,,,"{""Q0"":""luke is talking to jane""}","<img src=""stim_listB/talk1.gif""style=""height:400px;""></stim_listB>",is talking to,
null,"<div style=""font-size:60px;"">+</div>",,html-keyboard-response,132,605808,0.0-15.0-0.1,31579,List2B,black,woman,,,,null,,,,
null,"<img src=""stim_listB/flirt4.gif""style=""height:400px;""></stim_listB>",,html-keyboard-response,133,607811,0.0-15.0-1.1,31579,List2B,black,woman,,,,null,,,,
null,are flirting with each other,,html-keyboard-response,134,609816,0.0-15.0-2.1,31579,List2B,black,woman,,,,null,,,,
7092,,,survey-text,135,616909,0.0-15.0-3.1,31579,List2B,black,woman,,,,,"{""Q0"":""mike and beth are flirting with each other""}","<img src=""stim_listB/flirt4.gif""style=""height:400px;""></stim_listB>",are flirting with each other,
null,"<div style=""font-size:60px;"">+</div>",,html-keyboard-response,136,617410,0.0-15.0-0.2,31579,List2B,black,woman,,,,null,,,,
null,"<img src=""stim_listB/kiss8.gif""style=""height:400px;""></stim_listB>",,html-keyboard-response,137,619419,0.0-15.0-1.2,31579,List2B,black,woman,,,,null,,,,
null,are kissing each other,,html-keyboard-response,138,621422,0.0-15.0-2.2,31579,List2B,black,woman,,,,null,,,,
11528,,,survey-text,139,632951,0.0-15.0-3.2,31579,List2B,black,woman,,,,,"{""Q0"":""kate and jane are kissing each other""}","<img src=""stim_listB/kiss8.gif""style=""height:400px;""></stim_listB>",are kissing each other,
null,"<div style=""font-size:60px;"">+</div>",,html-keyboard-response,140,633457,0.0-15.0-0.3,31579,List2B,black,woman,,,,null,,,,
null,"<img src=""stim_listB/argue4.gif""style=""height:400px;""></stim_listB>",,html-keyboard-response,141,635462,0.0-15.0-1.3,31579,List2B,black,woman,,,,null,,,,
null,are arguing with each other,,html-keyboard-response,142,637467,0.0-15.0-2.3,31579,List2B,black,woman,,,,null,,,,
9977,,,survey-text,143,647445,0.0-15.0-3.3,31579,List2B,black,woman,,,,,"{""Q0"":""mike and kate are arguing with each other""}","<img src=""stim_listB/argue4.gif""style=""height:400px;""></stim_listB>",are arguing with each other,
null,"<div style=""font-size:60px;"">+</div>",,html-keyboard-response,144,647951,0.0-15.0-0.4,31579,List2B,black,woman,,,,null,,,,
null,"<img src=""stim_listB/play5.gif""style=""height:400px;""></stim_listB>",,html-keyboard-response,145,649957,0.0-15.0-1.4,31579,List2B,black,woman,,,,null,,,,
null,is playing with,,html-keyboard-response,146,651958,0.0-15.0-2.4,31579,List2B,black,woman,,,,null,,,,
9025,,,survey-text,147,660984,0.0-15.0-3.4,31579,List2B,black,woman,,,,,"{""Q0"":""mike is playing with dave""}","<img src=""stim_listB/play5.gif""style=""height:400px;""></stim_listB>",is playing with,
null,"<div style=""font-size:60px;"">+</div>",,html-keyboard-response,148,661489,0.0-15.0-0.5,31579,List2B,black,woman,,,,null,,,,
null,"<img src=""stim_listB/talk4.gif""style=""height:400px;""></stim_listB>",,html-keyboard-response,149,663496,0.0-15.0-1.5,31579,List2B,black,woman,,,,null,,,,
null,are talking to each other,,html-keyboard-response,150,665501,0.0-15.0-2.5,31579,List2B,black,woman,,,,null,,,,
8104,,,survey-text,151,673606,0.0-15.0-3.5,31579,List2B,black,woman,,,,,"{""Q0"":""mike and beth are talking to each other""}","<img src=""stim_listB/talk4.gif""style=""height:400px;""></stim_listB>",are talking to each other,
null,"<div style=""font-size:60px;"">+</div>",,html-keyboard-response,152,674111,0.0-15.0-0.6,31579,List2B,black,woman,,,,null,,,,
null,"<img src=""stim_listB/argue7.gif""style=""height:400px;""></stim_listB>",,html-keyboard-response,153,676118,0.0-15.0-1.6,31579,List2B,black,woman,,,,null,,,,
null,is arguing with,,html-keyboard-response,154,678120,0.0-15.0-2.6,31579,List2B,black,woman,,,,null,,,,
6655,,,survey-text,155,684776,0.0-15.0-3.6,31579,List2B,black,woman,,,,,"{""Q0"":""beth is arguing with jane""}","<img src=""stim_listB/argue7.gif""style=""height:400px;""></stim_listB>",is arguing with,
null,"<div style=""font-size:60px;"">+</div>",,html-keyboard-response,156,685278,0.0-15.0-0.7,31579,List2B,black,woman,,,,null,,,,
null,"<img src=""stim_listB/kiss6.gif""style=""height:400px;""></stim_listB>",,html-keyboard-response,157,687285,0.0-15.0-1.7,31579,List2B,black,woman,,,,null,,,,
null,are kissing each other,,html-keyboard-response,158,689289,0.0-15.0-2.7,31579,List2B,black,woman,,,,null,,,,
10254,,,survey-text,159,699545,0.0-15.0-3.7,31579,List2B,black,woman,,,,,"{""Q0"":""dave and mike are kissing each other""}","<img src=""stim_listB/kiss6.gif""style=""height:400px;""></stim_listB>",are kissing each other,
null,"<div style=""font-size:60px;"">+</div>",,html-keyboard-response,160,700048,0.0-15.0-0.8,31579,List2B,black,woman,,,,null,,,,
null,"<img src=""stim_listB/argue1.gif""style=""height:400px;""></stim_listB>",,html-keyboard-response,161,702054,0.0-15.0-1.8,31579,List2B,black,woman,,,,null,,,,
null,is arguing with,,html-keyboard-response,162,704058,0.0-15.0-2.8,31579,List2B,black,woman,,,,null,,,,
9321,,,survey-text,163,713380,0.0-15.0-3.8,31579,List2B,black,woman,,,,,"{""Q0"":""ruth is arguing with dave""}","<img src=""stim_listB/argue1.gif""style=""height:400px;""></stim_listB>",is arguing with,
null,"<div style=""font-size:60px;"">+</div>",,html-keyboard-response,164,713885,0.0-15.0-0.9,31579,List2B,black,woman,,,,null,,,,
null,"<img src=""stim_listB/fight1.gif""style=""height:400px;""></stim_listB>",,html-keyboard-response,165,715893,0.0-15.0-1.9,31579,List2B,black,woman,,,,null,,,,
null,is fighting,,html-keyboard-response,166,717898,0.0-15.0-2.9,31579,List2B,black,woman,,,,null,,,,
6675,,,survey-text,167,724575,0.0-15.0-3.9,31579,List2B,black,woman,,,,,"{""Q0"":""jane is fighting with dave""}","<img src=""stim_listB/fight1.gif""style=""height:400px;""></stim_listB>",is fighting,
null,"<div style=""font-size:60px;"">+</div>",,html-keyboard-response,168,725080,0.0-15.0-0.10,31579,List2B,black,woman,,,,null,,,,
null,"<img src=""stim_listB/touch6.gif""style=""height:400px;""></stim_listB>",,html-keyboard-response,169,727084,0.0-15.0-1.10,31579,List2B,black,woman,,,,null,,,,
null,are touching each other,,html-keyboard-response,170,729089,0.0-15.0-2.10,31579,List2B,black,woman,,,,null,,,,
9381,,,survey-text,171,738471,0.0-15.0-3.10,31579,List2B,black,woman,,,,,"{""Q0"":""luke and fred are touching each other""}","<img src=""stim_listB/touch6.gif""style=""height:400px;""></stim_listB>",are touching each other,
null,"<div style=""font-size:60px;"">+</div>",,html-keyboard-response,172,738976,0.0-15.0-0.11,31579,List2B,black,woman,,,,null,,,,
null,"<img src=""stim_listB/shout2.gif""style=""height:400px;""></stim_listB>",,html-keyboard-response,173,740981,0.0-15.0-1.11,31579,List2B,black,woman,,,,null,,,,
null,are shouting at each other,,html-keyboard-response,174,742987,0.0-15.0-2.11,31579,List2B,black,woman,,,,null,,,,
7588,,,survey-text,175,750577,0.0-15.0-3.11,31579,List2B,black,woman,,,,,"{""Q0"":""dave and jane are shouting at each other""}","<img src=""stim_listB/shout2.gif""style=""height:400px;""></stim_listB>",are shouting at each other,
null,"<div style=""font-size:60px;"">+</div>",,html-keyboard-response,176,751082,0.0-15.0-0.12,31579,List2B,black,woman,,,,null,,,,
null,"<img src=""stim_listB/shout3.gif""style=""height:400px;""></stim_listB>",,html-keyboard-response,177,753089,0.0-15.0-1.12,31579,List2B,black,woman,,,,null,,,,
null,is shouting at,,html-keyboard-response,178,755091,0.0-15.0-2.12,31579,List2B,black,woman,,,,null,,,,
6802,,,survey-text,179,761895,0.0-15.0-3.12,31579,List2B,black,woman,,,,,"{""Q0"":""beth is shouting at fred""}","<img src=""stim_listB/shout3.gif""style=""height:400px;""></stim_listB>",is shouting at,
null,"<div style=""font-size:60px;"">+</div>",,html-keyboard-response,180,762400,0.0-15.0-0.13,31579,List2B,black,woman,,,,null,,,,
null,"<img src=""stim_listB/dance1.gif""style=""height:400px;""></stim_listB>",,html-keyboard-response,181,764406,0.0-15.0-1.13,31579,List2B,black,woman,,,,null,,,,
null,is dancing with,,html-keyboard-response,182,766411,0.0-15.0-2.13,31579,List2B,black,woman,,,,null,,,,
7254,,,survey-text,183,773666,0.0-15.0-3.13,31579,List2B,black,woman,,,,,"{""Q0"":""jane is dancing with luke""}","<img src=""stim_listB/dance1.gif""style=""height:400px;""></stim_listB>",is dancing with,
null,"<div style=""font-size:60px;"">+</div>",,html-keyboard-response,184,774171,0.0-15.0-0.14,31579,List2B,black,woman,,,,null,,,,
null,"<img src=""stim_listB/dance8.gif""style=""height:400px;""></stim_listB>",,html-keyboard-response,185,776179,0.0-15.0-1.14,31579,List2B,black,woman,,,,null,,,,
null,are dancing with each other,,html-keyboard-response,186,778184,0.0-15.0-2.14,31579,List2B,black,woman,,,,null,,,,
8323,,,survey-text,187,786509,0.0-15.0-3.14,31579,List2B,black,woman,,,,,"{""Q0"":""jane and beth are dancing with each other""}","<img src=""stim_listB/dance8.gif""style=""height:400px;""></stim_listB>",are dancing with each other,
null,"<div style=""font-size:60px;"">+</div>",,html-keyboard-response,188,787011,0.0-15.0-0.15,31579,List2B,black,woman,,,,null,,,,
null,"<img src=""stim_listB/flirt6.gif""style=""height:400px;""></stim_listB>",,html-keyboard-response,189,789014,0.0-15.0-1.15,31579,List2B,black,woman,,,,null,,,,
null,are flirting with each other,,html-keyboard-response,190,791019,0.0-15.0-2.15,31579,List2B,black,woman,,,,null,,,,
7503,,,survey-text,191,798524,0.0-15.0-3.15,31579,List2B,black,woman,,,,,"{""Q0"":""dave and fred are flirting with each other""}","<img src=""stim_listB/flirt6.gif""style=""height:400px;""></stim_listB>",are flirting with each other,
null,"<div style=""font-size:60px;"">+</div>",,html-keyboard-response,192,799029,0.0-15.0-0.16,31579,List2B,black,woman,,,,null,,,,
null,"<img src=""stim_listB/kiss2.gif""style=""height:400px;""></stim_listB>",,html-keyboard-response,193,801033,0.0-15.0-1.16,31579,List2B,black,woman,,,,null,,,,
null,are kissing each other,,html-keyboard-response,194,803038,0.0-15.0-2.16,31579,List2B,black,woman,,,,null,,,,
9635,,,survey-text,195,812675,0.0-15.0-3.16,31579,List2B,black,woman,,,,,"{""Q0"":""dave and jane are kissing each other""}","<img src=""stim_listB/kiss2.gif""style=""height:400px;""></stim_listB>",are kissing each other,
null,"<div style=""font-size:60px;"">+</div>",,html-keyboard-response,196,813177,0.0-15.0-0.17,31579,List2B,black,woman,,,,null,,,,
null,"<img src=""stim_listB/dance6.gif""style=""height:400px;""></stim_listB>",,html-keyboard-response,197,815181,0.0-15.0-1.17,31579,List2B,black,woman,,,,null,,,,
null,are dancing with each other,,html-keyboard-response,198,817186,0.0-15.0-2.17,31579,List2B,black,woman,,,,null,,,,
10603,,,survey-text,199,827791,0.0-15.0-3.17,31579,List2B,black,woman,,,,,"{""Q0"":""dave and luke are dancing with each other""}","<img src=""stim_listB/dance6.gif""style=""height:400px;""></stim_listB>",are dancing with each other,
null,"<div style=""font-size:60px;"">+</div>",,html-keyboard-response,200,828294,0.0-15.0-0.18,31579,List2B,black,woman,,,,null,,,,
null,"<img src=""stim_listB/argue8.gif""style=""height:400px;""></stim_listB>",,html-keyboard-response,201,830300,0.0-15.0-1.18,31579,List2B,black,woman,,,,null,,,,
null,are arguing with each other,,html-keyboard-response,202,832303,0.0-15.0-2.18,31579,List2B,black,woman,,,,null,,,,
8625,,,survey-text,203,840929,0.0-15.0-3.18,31579,List2B,black,woman,,,,,"{""Q0"":""kate and ruth are arguing with each other""}","<img src=""stim_listB/argue8.gif""style=""height:400px;""></stim_listB>",are arguing with each other,
null,"<div style=""font-size:60px;"">+</div>",,html-keyboard-response,204,841434,0.0-15.0-0.19,31579,List2B,black,woman,,,,null,,,,
null,"<img src=""stim_listB/marry2.gif""style=""height:400px;""></stim_listB>",,html-keyboard-response,205,843441,0.0-15.0-1.19,31579,List2B,black,woman,,,,null,,,,
null,are marrying each other,,html-keyboard-response,206,845443,0.0-15.0-2.19,31579,List2B,black,woman,,,,null,,,,
7537,,,survey-text,207,852982,0.0-15.0-3.19,31579,List2B,black,woman,,,,,"{""Q0"":""luke and jane are marrying each other""}","<img src=""stim_listB/marry2.gif""style=""height:400px;""></stim_listB>",are marrying each other,
6717,"<img src='img/portrait_matrix_list2.jpg' style='width:900px;height:500px;''></img><p>If you have memorised all the portraits and names and are ready to start, press Continue.</p><p><strong>Please note: Your memory of these faces will be tested 4 times during this experiment.</strong></p>",0,html-button-response,208,859701,0.0-16.0-0.0,31579,List2B,black,woman,,,,,,,,
2227,"<img src=""portrait/BW2.jpg""style=""height:400px;""></img>",2,html-button-response,209,862932,0.0-16.0-1.0,31579,List2B,black,woman,,TRUE,2,,,,,
null,CORRECT,,html-keyboard-response,210,864438,0.0-16.0-2.0-0.0,31579,List2B,black,woman,,,,null,,,,
1601,"<img src=""portrait/BW1.jpg""style=""height:400px;""></img>",0,html-button-response,211,866042,0.0-16.0-4.0,31579,List2B,black,woman,,TRUE,0,,,,,
null,CORRECT,,html-keyboard-response,212,867548,0.0-16.0-5.0-0.0,31579,List2B,black,woman,,,,null,,,,
1379,"<img src=""portrait/BM1.jpg""style=""height:400px;""></img>",4,html-button-response,213,868929,0.0-16.0-7.0,31579,List2B,black,woman,,TRUE,4,,,,,
null,CORRECT,,html-keyboard-response,214,870440,0.0-16.0-8.0-0.0,31579,List2B,black,woman,,,,null,,,,
2613,"<img src=""portrait/BM2.jpg""style=""height:400px;""></img>",5,html-button-response,215,873056,0.0-16.0-10.0,31579,List2B,black,woman,,TRUE,5,,,,,
null,CORRECT,,html-keyboard-response,216,874563,0.0-16.0-11.0-0.0,31579,List2B,black,woman,,,,null,,,,
1548,"<img src=""portrait/WW2.jpg""style=""height:400px;""></img>",3,html-button-response,217,876114,0.0-16.0-13.0,31579,List2B,black,woman,,TRUE,3,,,,,
null,CORRECT,,html-keyboard-response,218,877620,0.0-16.0-14.0-0.0,31579,List2B,black,woman,,,,null,,,,
2338,"<img src=""portrait/WM1.jpg""style=""height:400px;""></img>",6,html-button-response,219,879961,0.0-16.0-16.0,31579,List2B,black,woman,,TRUE,6,,,,,
null,CORRECT,,html-keyboard-response,220,881467,0.0-16.0-17.0-0.0,31579,List2B,black,woman,,,,null,,,,
2057,"<img src=""portrait/WW1.jpg""style=""height:400px;""></img>",1,html-button-response,221,883526,0.0-16.0-19.0,31579,List2B,black,woman,,TRUE,1,,,,,
null,CORRECT,,html-keyboard-response,222,885032,0.0-16.0-20.0-0.0,31579,List2B,black,woman,,,,null,,,,
1406,"<img src=""portrait/WM2.jpg""style=""height:400px;""></img>",7,html-button-response,223,886441,0.0-16.0-22.0,31579,List2B,black,woman,,TRUE,7,,,,,
null,CORRECT,,html-keyboard-response,224,887944,0.0-16.0-23.0-0.0,31579,List2B,black,woman,,,,null,,,,
1048,<p>You got 8 out of 8 right first time. Press Continue.</p>,0,html-button-response,225,888994,0.0-16.0-25.0,31579,List2B,black,woman,,,,,,,,
null,"<div style=""font-size:60px;"">+</div>",,html-keyboard-response,226,890501,0.0-17.0-0.0,31579,List2B,black,woman,,,,null,,,,
null,"<img src=""stim_listB/shout8.gif""style=""height:400px;""></stim_listB>",,html-keyboard-response,227,892508,0.0-17.0-1.0,31579,List2B,black,woman,,,,null,,,,
null,are shouting at each other,,html-keyboard-response,228,894510,0.0-17.0-2.0,31579,List2B,black,woman,,,,null,,,,
12397,,,survey-text,229,906908,0.0-17.0-3.0,31579,List2B,black,woman,,,,,"{""Q0"":""jane and kate are shouting at each other""}","<img src=""stim_listB/shout8.gif""style=""height:400px;""></stim_listB>",are shouting at each other,
null,"<div style=""font-size:60px;"">+</div>",,html-keyboard-response,230,907410,0.0-17.0-0.1,31579,List2B,black,woman,,,,null,,,,
null,"<img src=""stim_listB/flirt5.gif""style=""height:400px;""></stim_listB>",,html-keyboard-response,231,909412,0.0-17.0-1.1,31579,List2B,black,woman,,,,null,,,,
null,is flirting with,,html-keyboard-response,232,911416,0.0-17.0-2.1,31579,List2B,black,woman,,,,null,,,,
6675,,,survey-text,233,918092,0.0-17.0-3.1,31579,List2B,black,woman,,,,,"{""Q0"":""mike is flirting with luke""}","<img src=""stim_listB/flirt5.gif""style=""height:400px;""></stim_listB>",is flirting with,
null,"<div style=""font-size:60px;"">+</div>",,html-keyboard-response,234,918598,0.0-17.0-0.2,31579,List2B,black,woman,,,,null,,,,
null,"<img src=""stim_listB/shout6.gif""style=""height:400px;""></stim_listB>",,html-keyboard-response,235,920604,0.0-17.0-1.2,31579,List2B,black,woman,,,,null,,,,
null,are shouting at each other,,html-keyboard-response,236,922606,0.0-17.0-2.2,31579,List2B,black,woman,,,,null,,,,
7684,,,survey-text,237,930291,0.0-17.0-3.2,31579,List2B,black,woman,,,,,"{""Q0"":""dave and mike are shouting at each other""}","<img src=""stim_listB/shout6.gif""style=""height:400px;""></stim_listB>",are shouting at each other,
null,"<div style=""font-size:60px;"">+</div>",,html-keyboard-response,238,930797,0.0-17.0-0.3,31579,List2B,black,woman,,,,null,,,,
null,"<img src=""stim_listB/argue3.gif""style=""height:400px;""></stim_listB>",,html-keyboard-response,239,932803,0.0-17.0-1.3,31579,List2B,black,woman,,,,null,,,,
null,is arguing with,,html-keyboard-response,240,934805,0.0-17.0-2.3,31579,List2B,black,woman,,,,null,,,,
5233,,,survey-text,241,940039,0.0-17.0-3.3,31579,List2B,black,woman,,,,,"{""Q0"":""beth is arguing with mike""}","<img src=""stim_listB/argue3.gif""style=""height:400px;""></stim_listB>",is arguing with,
null,"<div style=""font-size:60px;"">+</div>",,html-keyboard-response,242,940544,0.0-17.0-0.4,31579,List2B,black,woman,,,,null,,,,
null,"<img src=""stim_listB/touch2.gif""style=""height:400px;""></stim_listB>",,html-keyboard-response,243,942550,0.0-17.0-1.4,31579,List2B,black,woman,,,,null,,,,
null,are touching each other,,html-keyboard-response,244,944551,0.0-17.0-2.4,31579,List2B,black,woman,,,,null,,,,
7694,,,survey-text,245,952247,0.0-17.0-3.4,31579,List2B,black,woman,,,,,"{""Q0"":""luke and ruth are touching each other""}","<img src=""stim_listB/touch2.gif""style=""height:400px;""></stim_listB>",are touching each other,
null,"<div style=""font-size:60px;"">+</div>",,html-keyboard-response,246,952754,0.0-17.0-0.5,31579,List2B,black,woman,,,,null,,,,
null,"<img src=""stim_listB/touch1.gif""style=""height:400px;""></stim_listB>",,html-keyboard-response,247,954757,0.0-17.0-1.5,31579,List2B,black,woman,,,,null,,,,
null,is touching,,html-keyboard-response,248,956761,0.0-17.0-2.5,31579,List2B,black,woman,,,,null,,,,
5334,,,survey-text,249,962097,0.0-17.0-3.5,31579,List2B,black,woman,,,,,"{""Q0"":""jane is touching dave""}","<img src=""stim_listB/touch1.gif""style=""height:400px;""></stim_listB>",is touching,
null,"<div style=""font-size:60px;"">+</div>",,html-keyboard-response,250,962602,0.0-17.0-0.6,31579,List2B,black,woman,,,,null,,,,
null,"<img src=""stim_listB/fight2.gif""style=""height:400px;""></stim_listB>",,html-keyboard-response,251,964609,0.0-17.0-1.6,31579,List2B,black,woman,,,,null,,,,
null,are fighting each other,,html-keyboard-response,252,966613,0.0-17.0-2.6,31579,List2B,black,woman,,,,null,,,,
9101,,,survey-text,253,975717,0.0-17.0-3.6,31579,List2B,black,woman,,,,,"{""Q0"":""luke and ruth are fighting each other""}","<img src=""stim_listB/fight2.gif""style=""height:400px;""></stim_listB>",are fighting each other,
null,"<div style=""font-size:60px;"">+</div>",,html-keyboard-response,254,976221,0.0-17.0-0.7,31579,List2B,black,woman,,,,null,,,,
null,"<img src=""stim_listB/talk3.gif""style=""height:400px;""></stim_listB>",,html-keyboard-response,255,978228,0.0-17.0-1.7,31579,List2B,black,woman,,,,null,,,,
null,is talking to,,html-keyboard-response,256,980230,0.0-17.0-2.7,31579,List2B,black,woman,,,,null,,,,
6586,,,survey-text,257,986817,0.0-17.0-3.7,31579,List2B,black,woman,,,,,"{""Q0"":""jane is talking to fred""}","<img src=""stim_listB/talk3.gif""style=""height:400px;""></stim_listB>",is talking to,
null,"<div style=""font-size:60px;"">+</div>",,html-keyboard-response,258,987322,0.0-17.0-0.8,31579,List2B,black,woman,,,,null,,,,
null,"<img src=""stim_listB/play7.gif""style=""height:400px;""></stim_listB>",,html-keyboard-response,259,989331,0.0-17.0-1.8,31579,List2B,black,woman,,,,null,,,,
null,is playing with,,html-keyboard-response,260,991333,0.0-17.0-2.8,31579,List2B,black,woman,,,,null,,,,
7746,,,survey-text,261,999081,0.0-17.0-3.8,31579,List2B,black,woman,,,,,"{""Q0"":""jane is playing with kate""}","<img src=""stim_listB/play7.gif""style=""height:400px;""></stim_listB>",is playing with,
null,"<div style=""font-size:60px;"">+</div>",,html-keyboard-response,262,999583,0.0-17.0-0.9,31579,List2B,black,woman,,,,null,,,,
null,"<img src=""stim_listB/talk5.gif""style=""height:400px;""></stim_listB>",,html-keyboard-response,263,1001591,0.0-17.0-1.9,31579,List2B,black,woman,,,,null,,,,
null,is talking to,,html-keyboard-response,264,1003596,0.0-17.0-2.9,31579,List2B,black,woman,,,,null,,,,
4492,,,survey-text,265,1008089,0.0-17.0-3.9,31579,List2B,black,woman,,,,,"{""Q0"":""mike is talking to luke""}","<img src=""stim_listB/talk5.gif""style=""height:400px;""></stim_listB>",is talking to,
null,"<div style=""font-size:60px;"">+</div>",,html-keyboard-response,266,1008594,0.0-17.0-0.10,31579,List2B,black,woman,,,,null,,,,
null,"<img src=""stim_listB/dance2.gif""style=""height:400px;""></stim_listB>",,html-keyboard-response,267,1010598,0.0-17.0-1.10,31579,List2B,black,woman,,,,null,,,,
null,are dancing with each other,,html-keyboard-response,268,1012599,0.0-17.0-2.10,31579,List2B,black,woman,,,,null,,,,
10026,,,survey-text,269,1022626,0.0-17.0-3.10,31579,List2B,black,woman,,,,,"{""Q0"":""dave and ruth are dancing with each other""}","<img src=""stim_listB/dance2.gif""style=""height:400px;""></stim_listB>",are dancing with each other,
null,"<div style=""font-size:60px;"">+</div>",,html-keyboard-response,270,1023132,0.0-17.0-0.11,31579,List2B,black,woman,,,,null,,,,
null,"<img src=""stim_listB/fight7.gif""style=""height:400px;""></stim_listB>",,html-keyboard-response,271,1025135,0.0-17.0-1.11,31579,List2B,black,woman,,,,null,,,,
null,is fighting,,html-keyboard-response,272,1027140,0.0-17.0-2.11,31579,List2B,black,woman,,,,null,,,,
4743,,,survey-text,273,1031884,0.0-17.0-3.11,31579,List2B,black,woman,,,,,"{""Q0"":""kate is fighting jane""}","<img src=""stim_listB/fight7.gif""style=""height:400px;""></stim_listB>",is fighting,
null,"<div style=""font-size:60px;"">+</div>",,html-keyboard-response,274,1032387,0.0-17.0-0.12,31579,List2B,black,woman,,,,null,,,,
null,"<img src=""stim_listB/marry6.gif""style=""height:400px;""></stim_listB>",,html-keyboard-response,275,1034394,0.0-17.0-1.12,31579,List2B,black,woman,,,,null,,,,
null,are marrying each other,,html-keyboard-response,276,1036396,0.0-17.0-2.12,31579,List2B,black,woman,,,,null,,,,
6523,,,survey-text,277,1042921,0.0-17.0-3.12,31579,List2B,black,woman,,,,,"{""Q0"":""luke and mike are marrying each other""}","<img src=""stim_listB/marry6.gif""style=""height:400px;""></stim_listB>",are marrying each other,
null,"<div style=""font-size:60px;"">+</div>",,html-keyboard-response,278,1043426,0.0-17.0-0.13,31579,List2B,black,woman,,,,null,,,,
null,"<img src=""stim_listB/argue2.gif""style=""height:400px;""></stim_listB>",,html-keyboard-response,279,1045430,0.0-17.0-1.13,31579,List2B,black,woman,,,,null,,,,
null,are arguing with each other,,html-keyboard-response,280,1047433,0.0-17.0-2.13,31579,List2B,black,woman,,,,null,,,,
9341,,,survey-text,281,1056776,0.0-17.0-3.13,31579,List2B,black,woman,,,,,"{""Q0"":""jane and luke are fighting each other""}","<img src=""stim_listB/argue2.gif""style=""height:400px;""></stim_listB>",are arguing with each other,
null,"<div style=""font-size:60px;"">+</div>",,html-keyboard-response,282,1057281,0.0-17.0-0.14,31579,List2B,black,woman,,,,null,,,,
null,"<img src=""stim_listB/talk8.gif""style=""height:400px;""></stim_listB>",,html-keyboard-response,283,1059283,0.0-17.0-1.14,31579,List2B,black,woman,,,,null,,,,
null,are talking to each other,,html-keyboard-response,284,1061287,0.0-17.0-2.14,31579,List2B,black,woman,,,,null,,,,
7696,,,survey-text,285,1068984,0.0-17.0-3.14,31579,List2B,black,woman,,,,,"{""Q0"":""jane and beth are talking to each other""}","<img src=""stim_listB/talk8.gif""style=""height:400px;""></stim_listB>",are talking to each other,
null,"<div style=""font-size:60px;"">+</div>",,html-keyboard-response,286,1069489,0.0-17.0-0.15,31579,List2B,black,woman,,,,null,,,,
null,"<img src=""stim_listB/kiss5.gif""style=""height:400px;""></stim_listB>",,html-keyboard-response,287,1071493,0.0-17.0-1.15,31579,List2B,black,woman,,,,null,,,,
null,is kissing,,html-keyboard-response,288,1073498,0.0-17.0-2.15,31579,List2B,black,woman,,,,null,,,,
5797,,,survey-text,289,1079297,0.0-17.0-3.15,31579,List2B,black,woman,,,,,"{""Q0"":""luke is kissing fred""}","<img src=""stim_listB/kiss5.gif""style=""height:400px;""></stim_listB>",is kissing,
null,"<div style=""font-size:60px;"">+</div>",,html-keyboard-response,290,1079802,0.0-17.0-0.16,31579,List2B,black,woman,,,,null,,,,
null,"<img src=""stim_listB/play1.gif""style=""height:400px;""></stim_listB>",,html-keyboard-response,291,1081810,0.0-17.0-1.16,31579,List2B,black,woman,,,,null,,,,
null,is playing with,,html-keyboard-response,292,1083815,0.0-17.0-2.16,31579,List2B,black,woman,,,,null,,,,
6060,,,survey-text,293,1089877,0.0-17.0-3.16,31579,List2B,black,woman,,,,,"{""Q0"":""jane is playing with dave""}","<img src=""stim_listB/play1.gif""style=""height:400px;""></stim_listB>",is playing with,
null,"<div style=""font-size:60px;"">+</div>",,html-keyboard-response,294,1090382,0.0-17.0-0.17,31579,List2B,black,woman,,,,null,,,,
null,"<img src=""stim_listB/kiss3.gif""style=""height:400px;""></stim_listB>",,html-keyboard-response,295,1092389,0.0-17.0-1.17,31579,List2B,black,woman,,,,null,,,,
null,is kissing,,html-keyboard-response,296,1094395,0.0-17.0-2.17,31579,List2B,black,woman,,,,null,,,,
4543,,,survey-text,297,1098940,0.0-17.0-3.17,31579,List2B,black,woman,,,,,"{""Q0"":""beth is kissing luke""}","<img src=""stim_listB/kiss3.gif""style=""height:400px;""></stim_listB>",is kissing,
null,"<div style=""font-size:60px;"">+</div>",,html-keyboard-response,298,1099443,0.0-17.0-0.18,31579,List2B,black,woman,,,,null,,,,
null,"<img src=""stim_listB/marry5.gif""style=""height:400px;""></stim_listB>",,html-keyboard-response,299,1101450,0.0-17.0-1.18,31579,List2B,black,woman,,,,null,,,,
null,is marrying,,html-keyboard-response,300,1103452,0.0-17.0-2.18,31579,List2B,black,woman,,,,null,,,,
4572,,,survey-text,301,1108025,0.0-17.0-3.18,31579,List2B,black,woman,,,,,"{""Q0"":""luke is marrying dave""}","<img src=""stim_listB/marry5.gif""style=""height:400px;""></stim_listB>",is marrying,
null,"<div style=""font-size:60px;"">+</div>",,html-keyboard-response,302,1108531,0.0-17.0-0.19,31579,List2B,black,woman,,,,null,,,,
null,"<img src=""stim_listB/touch5.gif""style=""height:400px;""></stim_listB>",,html-keyboard-response,303,1110534,0.0-17.0-1.19,31579,List2B,black,woman,,,,null,,,,
null,is touching,,html-keyboard-response,304,1112538,0.0-17.0-2.19,31579,List2B,black,woman,,,,null,,,,
4497,,,survey-text,305,1117036,0.0-17.0-3.19,31579,List2B,black,woman,,,,,"{""Q0"":""mike is touching dave""}","<img src=""stim_listB/touch5.gif""style=""height:400px;""></stim_listB>",is touching,
14359,"<img src='img/portrait_matrix_list2.jpg' style='width:900px;height:500px;''></img><p>If you have memorised all the portraits and names and are ready to start, press Continue.</p><p><strong>Please note: Your memory of these faces will be tested 4 times during this experiment.</strong></p>",0,html-button-response,306,1131397,0.0-18.0-0.0,31579,List2B,black,woman,,,,,,,,
1863,"<img src=""portrait/WW1.jpg""style=""height:400px;""></img>",1,html-button-response,307,1134266,0.0-18.0-1.0,31579,List2B,black,woman,,TRUE,1,,,,,
null,CORRECT,,html-keyboard-response,308,1135776,0.0-18.0-2.0-0.0,31579,List2B,black,woman,,,,null,,,,
1398,"<img src=""portrait/WW2.jpg""style=""height:400px;""></img>",3,html-button-response,309,1137176,0.0-18.0-4.0,31579,List2B,black,woman,,TRUE,3,,,,,
null,CORRECT,,html-keyboard-response,310,1138682,0.0-18.0-5.0-0.0,31579,List2B,black,woman,,,,null,,,,
1616,"<img src=""portrait/WM2.jpg""style=""height:400px;""></img>",7,html-button-response,311,1140301,0.0-18.0-7.0,31579,List2B,black,woman,,TRUE,7,,,,,
null,CORRECT,,html-keyboard-response,312,1141804,0.0-18.0-8.0-0.0,31579,List2B,black,woman,,,,null,,,,
2434,"<img src=""portrait/BM1.jpg""style=""height:400px;""></img>",4,html-button-response,313,1144241,0.0-18.0-10.0,31579,List2B,black,woman,,TRUE,4,,,,,
null,CORRECT,,html-keyboard-response,314,1145748,0.0-18.0-11.0-0.0,31579,List2B,black,woman,,,,null,,,,
2582,"<img src=""portrait/BW1.jpg""style=""height:400px;""></img>",0,html-button-response,315,1148333,0.0-18.0-13.0,31579,List2B,black,woman,,TRUE,0,,,,,
null,CORRECT,,html-keyboard-response,316,1149840,0.0-18.0-14.0-0.0,31579,List2B,black,woman,,,,null,,,,
1823,"<img src=""portrait/WM1.jpg""style=""height:400px;""></img>",6,html-button-response,317,1151666,0.0-18.0-16.0,31579,List2B,black,woman,,TRUE,6,,,,,
null,CORRECT,,html-keyboard-response,318,1153173,0.0-18.0-17.0-0.0,31579,List2B,black,woman,,,,null,,,,
1415,"<img src=""portrait/BM2.jpg""style=""height:400px;""></img>",5,html-button-response,319,1154591,0.0-18.0-19.0,31579,List2B,black,woman,,TRUE,5,,,,,
null,CORRECT,,html-keyboard-response,320,1156098,0.0-18.0-20.0-0.0,31579,List2B,black,woman,,,,null,,,,
2660,"<img src=""portrait/BW2.jpg""style=""height:400px;""></img>",2,html-button-response,321,1158760,0.0-18.0-22.0,31579,List2B,black,woman,,TRUE,2,,,,,
null,CORRECT,,html-keyboard-response,322,1160265,0.0-18.0-23.0-0.0,31579,List2B,black,woman,,,,null,,,,
873,<p>You got 8 out of 8 right first time. Press Continue.</p>,0,html-button-response,323,1161141,0.0-18.0-25.0,31579,List2B,black,woman,,,,,,,,
null,"<div style=""font-size:60px;"">+</div>",,html-keyboard-response,324,1162647,0.0-19.0-0.0,31579,List2B,black,woman,,,,null,,,,
null,"<img src=""stim_listB/marry1.gif""style=""height:400px;""></stim_listB>",,html-keyboard-response,325,1164650,0.0-19.0-1.0,31579,List2B,black,woman,,,,null,,,,
null,is marrying,,html-keyboard-response,326,1166652,0.0-19.0-2.0,31579,List2B,black,woman,,,,null,,,,
6329,,,survey-text,327,1172983,0.0-19.0-3.0,31579,List2B,black,woman,,,,,"{""Q0"":""dave is marrying ruth""}","<img src=""stim_listB/marry1.gif""style=""height:400px;""></stim_listB>",is marrying,
null,"<div style=""font-size:60px;"">+</div>",,html-keyboard-response,328,1173488,0.0-19.0-0.1,31579,List2B,black,woman,,,,null,,,,
null,"<img src=""stim_listB/fight3.gif""style=""height:400px;""></stim_listB>",,html-keyboard-response,329,1175491,0.0-19.0-1.1,31579,List2B,black,woman,,,,null,,,,
null,is fighting,,html-keyboard-response,330,1177496,0.0-19.0-2.1,31579,List2B,black,woman,,,,null,,,,
4665,,,survey-text,331,1182163,0.0-19.0-3.1,31579,List2B,black,woman,,,,,"{""Q0"":""kate is fighting mike""}","<img src=""stim_listB/fight3.gif""style=""height:400px;""></stim_listB>",is fighting,
null,"<div style=""font-size:60px;"">+</div>",,html-keyboard-response,332,1182668,0.0-19.0-0.2,31579,List2B,black,woman,,,,null,,,,
null,"<img src=""stim_listB/talk2.gif""style=""height:400px;""></stim_listB>",,html-keyboard-response,333,1184672,0.0-19.0-1.2,31579,List2B,black,woman,,,,null,,,,
null,are talking to each other,,html-keyboard-response,334,1186674,0.0-19.0-2.2,31579,List2B,black,woman,,,,null,,,,
7115,,,survey-text,335,1193790,0.0-19.0-3.2,31579,List2B,black,woman,,,,,"{""Q0"":""dave and ruth are talking to each other""}","<img src=""stim_listB/talk2.gif""style=""height:400px;""></stim_listB>",are talking to each other,
null,"<div style=""font-size:60px;"">+</div>",,html-keyboard-response,336,1194295,0.0-19.0-0.3,31579,List2B,black,woman,,,,null,,,,
null,"<img src=""stim_listB/shout5.gif""style=""height:400px;""></stim_listB>",,html-keyboard-response,337,1196299,0.0-19.0-1.3,31579,List2B,black,woman,,,,null,,,,
null,is shouting at,,html-keyboard-response,338,1198302,0.0-19.0-2.3,31579,List2B,black,woman,,,,null,,,,
7860,,,survey-text,339,1206164,0.0-19.0-3.3,31579,List2B,black,woman,,,,,"{""Q0"":""luke is shouting at fred""}","<img src=""stim_listB/shout5.gif""style=""height:400px;""></stim_listB>",is shouting at,
null,"<div style=""font-size:60px;"">+</div>",,html-keyboard-response,340,1206666,0.0-19.0-0.4,31579,List2B,black,woman,,,,null,,,,
null,"<img src=""stim_listB/flirt3.gif""style=""height:400px;""></stim_listB>",,html-keyboard-response,341,1208669,0.0-19.0-1.4,31579,List2B,black,woman,,,,null,,,,
null,is flirting with,,html-keyboard-response,342,1210673,0.0-19.0-2.4,31579,List2B,black,woman,,,,null,,,,
8719,,,survey-text,343,1219393,0.0-19.0-3.4,31579,List2B,black,woman,,,,,"{""Q0"":""fred is flirting with kate""}","<img src=""stim_listB/flirt3.gif""style=""height:400px;""></stim_listB>",is flirting with,
null,"<div style=""font-size:60px;"">+</div>",,html-keyboard-response,344,1219898,0.0-19.0-0.5,31579,List2B,black,woman,,,,null,,,,
null,"<img src=""stim_listB/talk6.gif""style=""height:400px;""></stim_listB>",,html-keyboard-response,345,1221903,0.0-19.0-1.5,31579,List2B,black,woman,,,,null,,,,
null,are talking to each other,,html-keyboard-response,346,1223909,0.0-19.0-2.5,31579,List2B,black,woman,,,,null,,,,
8943,,,survey-text,347,1232854,0.0-19.0-3.5,31579,List2B,black,woman,,,,,"{""Q0"":""dave and fred are talking to each other""}","<img src=""stim_listB/talk6.gif""style=""height:400px;""></stim_listB>",are talking to each other,
null,"<div style=""font-size:60px;"">+</div>",,html-keyboard-response,348,1233356,0.0-19.0-0.6,31579,List2B,black,woman,,,,null,,,,
null,"<img src=""stim_listB/argue6.gif""style=""height:400px;""></stim_listB>",,html-keyboard-response,349,1235362,0.0-19.0-1.6,31579,List2B,black,woman,,,,null,,,,
null,are arguing with each other,,html-keyboard-response,350,1237364,0.0-19.0-2.6,31579,List2B,black,woman,,,,null,,,,
8163,,,survey-text,351,1245530,0.0-19.0-3.6,31579,List2B,black,woman,,,,,"{""Q0"":""luke and mike are arguing with each other""}","<img src=""stim_listB/argue6.gif""style=""height:400px;""></stim_listB>",are arguing with each other,
null,"<div style=""font-size:60px;"">+</div>",,html-keyboard-response,352,1246032,0.0-19.0-0.7,31579,List2B,black,woman,,,,null,,,,
null,"<img src=""stim_listB/marry3.gif""style=""height:400px;""></stim_listB>",,html-keyboard-response,353,1248038,0.0-19.0-1.7,31579,List2B,black,woman,,,,null,,,,
null,is marrying,,html-keyboard-response,354,1250044,0.0-19.0-2.7,31579,List2B,black,woman,,,,null,,,,
5692,,,survey-text,355,1255738,0.0-19.0-3.7,31579,List2B,black,woman,,,,,"{""Q0"":""beth is marrying mike""}","<img src=""stim_listB/marry3.gif""style=""height:400px;""></stim_listB>",is marrying,
null,"<div style=""font-size:60px;"">+</div>",,html-keyboard-response,356,1256243,0.0-19.0-0.8,31579,List2B,black,woman,,,,null,,,,
null,"<img src=""stim_listB/play2.gif""style=""height:400px;""></stim_listB>",,html-keyboard-response,357,1258249,0.0-19.0-1.8,31579,List2B,black,woman,,,,null,,,,
null,are playing with each other,,html-keyboard-response,358,1260252,0.0-19.0-2.8,31579,List2B,black,woman,,,,null,,,,
10038,,,survey-text,359,1270291,0.0-19.0-3.8,31579,List2B,black,woman,,,,,"{""Q0"":""ruth and luke are playing with each other""}","<img src=""stim_listB/play2.gif""style=""height:400px;""></stim_listB>",are playing with each other,
null,"<div style=""font-size:60px;"">+</div>",,html-keyboard-response,360,1270793,0.0-19.0-0.9,31579,List2B,black,woman,,,,null,,,,
null,"<img src=""stim_listB/flirt1.gif""style=""height:400px;""></stim_listB>",,html-keyboard-response,361,1272801,0.0-19.0-1.9,31579,List2B,black,woman,,,,null,,,,
null,is flirting with,,html-keyboard-response,362,1274806,0.0-19.0-2.9,31579,List2B,black,woman,,,,null,,,,
12201,,,survey-text,363,1287008,0.0-19.0-3.9,31579,List2B,black,woman,,,,,"{""Q0"":""jane is flirting with luke""}","<img src=""stim_listB/flirt1.gif""style=""height:400px;""></stim_listB>",is flirting with,
null,"<div style=""font-size:60px;"">+</div>",,html-keyboard-response,364,1287513,0.0-19.0-0.10,31579,List2B,black,woman,,,,null,,,,
null,"<img src=""stim_listB/dance3.gif""style=""height:400px;""></stim_listB>",,html-keyboard-response,365,1289518,0.0-19.0-1.10,31579,List2B,black,woman,,,,null,,,,
null,is dancing with,,html-keyboard-response,366,1291525,0.0-19.0-2.10,31579,List2B,black,woman,,,,null,,,,
7091,,,survey-text,367,1298618,0.0-19.0-3.10,31579,List2B,black,woman,,,,,"{""Q0"":""kate is dancing with fred""}","<img src=""stim_listB/dance3.gif""style=""height:400px;""></stim_listB>",is dancing with,
null,"<div style=""font-size:60px;"">+</div>",,html-keyboard-response,368,1299123,0.0-19.0-0.11,31579,List2B,black,woman,,,,null,,,,
null,"<img src=""stim_listB/flirt7.gif""style=""height:400px;""></stim_listB>",,html-keyboard-response,369,1301126,0.0-19.0-1.11,31579,List2B,black,woman,,,,null,,,,
null,is flirting with,,html-keyboard-response,370,1303131,0.0-19.0-2.11,31579,List2B,black,woman,,,,null,,,,
4938,,,survey-text,371,1308071,0.0-19.0-3.11,31579,List2B,black,woman,,,,,"{""Q0"":""kate is flirting with ruth""}","<img src=""stim_listB/flirt7.gif""style=""height:400px;""></stim_listB>",is flirting with,
null,"<div style=""font-size:60px;"">+</div>",,html-keyboard-response,372,1308576,0.0-19.0-0.12,31579,List2B,black,woman,,,,null,,,,
null,"<img src=""stim_listB/marry8.gif""style=""height:400px;""></stim_listB>",,html-keyboard-response,373,1310582,0.0-19.0-1.12,31579,List2B,black,woman,,,,null,,,,
null,are marrying each other,,html-keyboard-response,374,1312587,0.0-19.0-2.12,31579,List2B,black,woman,,,,null,,,,
9176,,,survey-text,375,1321764,0.0-19.0-3.12,31579,List2B,black,woman,,,,,"{""Q0"":""ruth and kate are marrying each other""}","<img src=""stim_listB/marry8.gif""style=""height:400px;""></stim_listB>",are marrying each other,
null,"<div style=""font-size:60px;"">+</div>",,html-keyboard-response,376,1322269,0.0-19.0-0.13,31579,List2B,black,woman,,,,null,,,,
null,"<img src=""stim_listB/play3.gif""style=""height:400px;""></stim_listB>",,html-keyboard-response,377,1324274,0.0-19.0-1.13,31579,List2B,black,woman,,,,null,,,,
null,is playing with,,html-keyboard-response,378,1326278,0.0-19.0-2.13,31579,List2B,black,woman,,,,null,,,,
4619,,,survey-text,379,1330899,0.0-19.0-3.13,31579,List2B,black,woman,,,,,"{""Q0"":""kate is playing with mike""}","<img src=""stim_listB/play3.gif""style=""height:400px;""></stim_listB>",is playing with,
null,"<div style=""font-size:60px;"">+</div>",,html-keyboard-response,380,1331404,0.0-19.0-0.14,31579,List2B,black,woman,,,,null,,,,
null,"<img src=""stim_listB/fight4.gif""style=""height:400px;""></stim_listB>",,html-keyboard-response,381,1333409,0.0-19.0-1.14,31579,List2B,black,woman,,,,null,,,,
null,are fighting each other,,html-keyboard-response,382,1335417,0.0-19.0-2.14,31579,List2B,black,woman,,,,null,,,,
8443,,,survey-text,383,1343862,0.0-19.0-3.14,31579,List2B,black,woman,,,,,"{""Q0"":""fred and beth are fighting each other""}","<img src=""stim_listB/fight4.gif""style=""height:400px;""></stim_listB>",are fighting each other,
null,"<div style=""font-size:60px;"">+</div>",,html-keyboard-response,384,1344366,0.0-19.0-0.15,31579,List2B,black,woman,,,,null,,,,
null,"<img src=""stim_listB/kiss4.gif""style=""height:400px;""></stim_listB>",,html-keyboard-response,385,1346373,0.0-19.0-1.15,31579,List2B,black,woman,,,,null,,,,
null,are kissing each other,,html-keyboard-response,386,1348377,0.0-19.0-2.15,31579,List2B,black,woman,,,,null,,,,
7915,,,survey-text,387,1356294,0.0-19.0-3.15,31579,List2B,black,woman,,,,,"{""Q0"":""kate and mike are kissing each other""}","<img src=""stim_listB/kiss4.gif""style=""height:400px;""></stim_listB>",are kissing each other,
null,"<div style=""font-size:60px;"">+</div>",,html-keyboard-response,388,1356799,0.0-19.0-0.16,31579,List2B,black,woman,,,,null,,,,
null,"<img src=""stim_listB/fight8.gif""style=""height:400px;""></stim_listB>",,html-keyboard-response,389,1358806,0.0-19.0-1.16,31579,List2B,black,woman,,,,null,,,,
null,are fighting each other,,html-keyboard-response,390,1360808,0.0-19.0-2.16,31579,List2B,black,woman,,,,null,,,,
7814,,,survey-text,391,1368623,0.0-19.0-3.16,31579,List2B,black,woman,,,,,"{""Q0"":""beth and ruth are fighting each other""}","<img src=""stim_listB/fight8.gif""style=""height:400px;""></stim_listB>",are fighting each other,
null,"<div style=""font-size:60px;"">+</div>",,html-keyboard-response,392,1369129,0.0-19.0-0.17,31579,List2B,black,woman,,,,null,,,,
null,"<img src=""stim_listB/touch3.gif""style=""height:400px;""></stim_listB>",,html-keyboard-response,393,1371131,0.0-19.0-1.17,31579,List2B,black,woman,,,,null,,,,
null,is touching,,html-keyboard-response,394,1373136,0.0-19.0-2.17,31579,List2B,black,woman,,,,null,,,,
4829,,,survey-text,395,1377967,0.0-19.0-3.17,31579,List2B,black,woman,,,,,"{""Q0"":""kate is touching mike""}","<img src=""stim_listB/touch3.gif""style=""height:400px;""></stim_listB>",is touching,
null,"<div style=""font-size:60px;"">+</div>",,html-keyboard-response,396,1378471,0.0-19.0-0.18,31579,List2B,black,woman,,,,null,,,,
null,"<img src=""stim_listB/touch4.gif""style=""height:400px;""></stim_listB>",,html-keyboard-response,397,1380475,0.0-19.0-1.18,31579,List2B,black,woman,,,,null,,,,
null,are touching each other,,html-keyboard-response,398,1382480,0.0-19.0-2.18,31579,List2B,black,woman,,,,null,,,,
9124,,,survey-text,399,1391606,0.0-19.0-3.18,31579,List2B,black,woman,,,,,"{""Q0"":""beth and fred are touching each other""}","<img src=""stim_listB/touch4.gif""style=""height:400px;""></stim_listB>",are touching each other,
null,"<div style=""font-size:60px;"">+</div>",,html-keyboard-response,400,1392111,0.0-19.0-0.19,31579,List2B,black,woman,,,,null,,,,
null,"<img src=""stim_listB/play8.gif""style=""height:400px;""></stim_listB>",,html-keyboard-response,401,1394114,0.0-19.0-1.19,31579,List2B,black,woman,,,,null,,,,
null,are playing with each other,,html-keyboard-response,402,1396119,0.0-19.0-2.19,31579,List2B,black,woman,,,,null,,,,
8207,,,survey-text,403,1404328,0.0-19.0-3.19,31579,List2B,black,woman,,,,,"{""Q0"":""beth and ruth are playing with each other""}","<img src=""stim_listB/play8.gif""style=""height:400px;""></stim_listB>",are playing with each other,
2429,<p>Thank you for completing that task.</p><p>The final part of this session is a short questionnaire.</p><p>Press Continue.</p>,0,html-button-response,404,1406759,0.0-20.0,31579,List2B,black,woman,,,,,,,,
33023,,,survey-text,405,1440788,0.0-21.0,31579,List2B,black,woman,,,,,"{""Q0"":""20"",""Q1"":""English"",""Q2"":""English"",""Q3"":""United States of America"",""Q4"":""African American"",""Q5"":""Female""}",,,demographics
10834,,,survey-likert,406,1451628,0.0-22.0,31579,List2B,black,woman,,,,,"{""Q0"":4}",,,likert_ESS
9544,,,survey-likert,407,1461212,0.0-23.0,31579,List2B,black,woman,,,,,"{""Q0"":4}",,,likert_NSSAL_Q1
3414,,,survey-likert,408,1464645,0.0-24.0,31579,List2B,black,woman,,,,,"{""Q0"":4}",,,likert_NSSAL_Q2
3564,,,survey-likert,409,1468251,0.0-25.0,31579,List2B,black,woman,,,,,"{""Q0"":4}",,,likert_CGRS_Q1
2661,,,survey-likert,410,1470933,0.0-26.0,31579,List2B,black,woman,,,,,"{""Q0"":4}",,,likert_CGRS_Q2
3042,,,survey-likert,411,1474016,0.0-27.0,31579,List2B,black,woman,,,,,"{""Q0"":4}",,,likert_CGRS_Q3
10413,,,survey-text,412,1484448,0.0-28.0,31579,List2B,black,woman,,,,,"{""Q0"":""ccc""}",,,worker_id
2841,,,external-html,413,1487500,0.0-29.0,31579,List2B,black,woman,debrief.html,,,,,,,
