rt,stimulus,button_pressed,trial_type,trial_index,time_elapsed,internal_node_id,subject,list,ppt_race,ppt_gender,url,first_guess,correct,key_press,responses,image_type,phrase_type,test_part
2087,Welcome to the experiment. Press Continue to begin.,0,html-button-response,0,2093,0.0-0.0,32083,List2B,black,woman,,,,,,,,
18712,,,external-html,1,22020,0.0-1.0,32083,List2B,black,woman,consent.html,,,,,,,
9453,"<p>On the next page, you will see portraits of 8 people and their names.</p><p>Your first task is to take a few minutes to memorise the names of these people.</p><p>You will have to recall their names during the rest of the experiment, so it is</p><p>essential that you try to memorise these people and their names as best as you can.</p><br><p><strong>You will then be tested on your memory of these names and portraits.</strong></p><br><p>The experiment will start after you have completed this memory test.</p><br><p>Ready?</p>",0,html-button-response,2,31475,0.0-2.0,32083,List2B,black,woman,,,,,,,,
37909,"<img src='img/portrait_matrix_list2.jpg' style='width:900px;height:500px;''></img><p>If you have memorised all the portraits and names and are ready to start, press Continue.</p><p><strong>Please note: Your memory of these faces will be tested 4 times during this experiment.</strong></p>",0,html-button-response,3,70390,0.0-3.0-0.0,32083,List2B,black,woman,,,,,,,,
12608,"<img src=""portrait/WM2.jpg""style=""height:400px;""></img>",7,html-button-response,4,84013,0.0-3.0-1.0,32083,List2B,black,woman,,TRUE,7,,,,,
null,CORRECT,,html-keyboard-response,5,85535,0.0-3.0-2.0-0.0,32083,List2B,black,woman,,,,null,,,,
7947,"<img src=""portrait/BW1.jpg""style=""height:400px;""></img>",0,html-button-response,6,93485,0.0-3.0-4.0,32083,List2B,black,woman,,TRUE,0,,,,,
null,CORRECT,,html-keyboard-response,7,95010,0.0-3.0-5.0-0.0,32083,List2B,black,woman,,,,null,,,,
3338,"<img src=""portrait/BW2.jpg""style=""height:400px;""></img>",2,html-button-response,8,98349,0.0-3.0-7.0,32083,List2B,black,woman,,TRUE,2,,,,,
null,CORRECT,,html-keyboard-response,9,99872,0.0-3.0-8.0-0.0,32083,List2B,black,woman,,,,null,,,,
2355,"<img src=""portrait/WW1.jpg""style=""height:400px;""></img>",1,html-button-response,10,102229,0.0-3.0-10.0,32083,List2B,black,woman,,TRUE,1,,,,,
null,CORRECT,,html-keyboard-response,11,103740,0.0-3.0-11.0-0.0,32083,List2B,black,woman,,,,null,,,,
3626,"<img src=""portrait/BM1.jpg""style=""height:400px;""></img>",4,html-button-response,12,107367,0.0-3.0-13.0,32083,List2B,black,woman,,TRUE,4,,,,,
null,CORRECT,,html-keyboard-response,13,108889,0.0-3.0-14.0-0.0,32083,List2B,black,woman,,,,null,,,,
5199,"<img src=""portrait/WW2.jpg""style=""height:400px;""></img>",3,html-button-response,14,114090,0.0-3.0-16.0,32083,List2B,black,woman,,TRUE,3,,,,,
null,CORRECT,,html-keyboard-response,15,115620,0.0-3.0-17.0-0.0,32083,List2B,black,woman,,,,null,,,,
5210,"<img src=""portrait/WM1.jpg""style=""height:400px;""></img>",5,html-button-response,16,120832,0.0-3.0-19.0,32083,List2B,black,woman,,TRUE,6,,,,,
2552,"<img src=""portrait/WM1.jpg""style=""height:400px;""></img>",6,html-button-response,17,124393,0.0-3.0-21.0-0.0,32083,List2B,black,woman,,FALSE,6,,,,,
null,CORRECT,,html-keyboard-response,18,125901,0.0-3.0-21.0-1.0-0.0,32083,List2B,black,woman,,,,null,,,,
9779,"<img src=""portrait/BM2.jpg""style=""height:400px;""></img>",5,html-button-response,19,135682,0.0-3.0-22.0,32083,List2B,black,woman,,TRUE,5,,,,,
null,CORRECT,,html-keyboard-response,20,137202,0.0-3.0-23.0-0.0,32083,List2B,black,woman,,,,null,,,,
1487,<p>You got 7 out of 8 right first time. Press Continue.</p>,0,html-button-response,21,138692,0.0-3.0-25.0,32083,List2B,black,woman,,,,,,,,
2357,"As you did not score 100%, the memory game will repeat. Press Continue.",0,html-button-response,22,142058,0.0-3.0-26.0-0.0,32083,List2B,black,woman,,,,,,,,
1847,"<img src='img/portrait_matrix_list2.jpg' style='width:900px;height:500px;''></img><p>If you have memorised all the portraits and names and are ready to start, press Continue.</p><p><strong>Please note: Your memory of these faces will be tested 4 times during this experiment.</strong></p>",0,html-button-response,23,144913,0.0-3.1-0.1,32083,List2B,black,woman,,,,,,,,
4752,"<img src=""portrait/WM2.jpg""style=""height:400px;""></img>",7,html-button-response,24,150683,0.0-3.1-1.1,32083,List2B,black,woman,,TRUE,7,,,,,
null,CORRECT,,html-keyboard-response,25,152206,0.0-3.1-2.1-0.1,32083,List2B,black,woman,,,,null,,,,
3786,"<img src=""portrait/BW1.jpg""style=""height:400px;""></img>",0,html-button-response,26,155993,0.0-3.1-4.1,32083,List2B,black,woman,,TRUE,0,,,,,
null,CORRECT,,html-keyboard-response,27,157513,0.0-3.1-5.1-0.1,32083,List2B,black,woman,,,,null,,,,
1524,"<img src=""portrait/BW2.jpg""style=""height:400px;""></img>",2,html-button-response,28,159040,0.0-3.1-7.1,32083,List2B,black,woman,,TRUE,2,,,,,
null,CORRECT,,html-keyboard-response,29,160574,0.0-3.1-8.1-0.1,32083,List2B,black,woman,,,,null,,,,
2182,"<img src=""portrait/WW1.jpg""style=""height:400px;""></img>",1,html-button-response,30,162759,0.0-3.1-10.1,32083,List2B,black,woman,,TRUE,1,,,,,
null,CORRECT,,html-keyboard-response,31,164284,0.0-3.1-11.1-0.1,32083,List2B,black,woman,,,,null,,,,
2895,"<img src=""portrait/BM1.jpg""style=""height:400px;""></img>",4,html-button-response,32,167181,0.0-3.1-13.1,32083,List2B,black,woman,,TRUE,4,,,,,
null,CORRECT,,html-keyboard-response,33,168698,0.0-3.1-14.1-0.1,32083,List2B,black,woman,,,,null,,,,
3093,"<img src=""portrait/WW2.jpg""style=""height:400px;""></img>",3,html-button-response,34,171794,0.0-3.1-16.1,32083,List2B,black,woman,,TRUE,3,,,,,
null,CORRECT,,html-keyboard-response,35,173318,0.0-3.1-17.1-0.1,32083,List2B,black,woman,,,,null,,,,
3756,"<img src=""portrait/WM1.jpg""style=""height:400px;""></img>",6,html-button-response,36,177077,0.0-3.1-19.1,32083,List2B,black,woman,,TRUE,6,,,,,
null,CORRECT,,html-keyboard-response,37,178586,0.0-3.1-20.1-0.1,32083,List2B,black,woman,,,,null,,,,
3231,"<img src=""portrait/BM2.jpg""style=""height:400px;""></img>",5,html-button-response,38,181819,0.0-3.1-22.1,32083,List2B,black,woman,,TRUE,5,,,,,
null,CORRECT,,html-keyboard-response,39,183344,0.0-3.1-23.1-0.1,32083,List2B,black,woman,,,,null,,,,
1480,<p>You got 8 out of 8 right first time. Press Continue.</p>,0,html-button-response,40,184827,0.0-3.1-25.1,32083,List2B,black,woman,,,,,,,,
25292,"<p>In this experiment, you will view photographs of the people from the memory game interacting.</p><p>By using the <strong>exact</strong> phrase given <i>after</i> the photograph appears and recalling the correct names of the people in the photographs, form a sentence describing the interaction. You do not need to capitalise names.</p><p>Type your answer in the space provided. Please complete every sentence before moving onto the next trial.</p><p>You will only have a few seconds to memorise each given photograph and phrase before you can respond, so try your best to focus.</p><p>An example is given below. Press 'Continue' when you are ready.</p><img src='img/speaking_example.jpg' style='width:800px;height:460px;''></img>",0,html-button-response,41,211130,0.0-4.0,32083,List2B,black,woman,,,,,,,,
2016,"<p>Before the experiment starts, you will watch two example trials. Press 'Continue'.</p>",0,html-button-response,42,214159,0.0-5.0,32083,List2B,black,woman,,,,,,,,
null,<img src='img/meet_eg.gif' style='height:400px;''></img>,,html-keyboard-response,43,217179,0.0-6.0,32083,List2B,black,woman,,,,null,,,,
null,<p>is meeting</p>,,html-keyboard-response,44,219196,0.0-7.0,32083,List2B,black,woman,,,,null,,,,
1764,<p><b>Answer:</b> jane is meeting ruth</p>,0,html-button-response,45,220962,0.0-8.0,32083,List2B,black,woman,,,,,,,,
null,<img src='img/look_eg.gif' style='height:400px;''></img>,,html-keyboard-response,46,223968,0.0-9.0,32083,List2B,black,woman,,,,null,,,,
null,<p>are looking at each other</p>,,html-keyboard-response,47,225985,0.0-10.0,32083,List2B,black,woman,,,,null,,,,
1105,<p><b>Answer:</b> fred and mike are looking at each other</p>,0,html-button-response,48,227092,0.0-11.0,32083,List2B,black,woman,,,,,,,,
5755,"<p>Ready to start the experiment?</p><br><p><strong>Remember to describe the picture using a full sentence,</strong></p><p><strong>that combines the names of the people with the <i>exact</i> phrase given.</strong></p><p><strong>To receive full payment you must do this correctly.</strong></p><p><strong> You do not need to capitalise names or use punctuation.</strong></p><br><p>Press 'Continue' to begin.</p>",0,html-button-response,49,233852,0.0-12.0,32083,List2B,black,woman,,,,,,,,
null,"<div style=""font-size:60px;"">+</div>",,html-keyboard-response,50,235378,0.0-13.0-0.0,32083,List2B,black,woman,,,,null,,,,
null,"<img src=""stim_listB/shout1.gif""style=""height:400px;""></stim_listB>",,html-keyboard-response,51,237390,0.0-13.0-1.0,32083,List2B,black,woman,,,,null,,,,
null,is shouting at,,html-keyboard-response,52,239395,0.0-13.0-2.0,32083,List2B,black,woman,,,,null,,,,
12993,,,survey-text,53,252391,0.0-13.0-3.0,32083,List2B,black,woman,,,,,"{""Q0"":""Luke is shouting at Ruth""}","<img src=""stim_listB/shout1.gif""style=""height:400px;""></stim_listB>",is shouting at,
null,"<div style=""font-size:60px;"">+</div>",,html-keyboard-response,54,252906,0.0-13.0-0.1,32083,List2B,black,woman,,,,null,,,,
null,"<img src=""stim_listB/dance3.gif""style=""height:400px;""></stim_listB>",,html-keyboard-response,55,254922,0.0-13.0-1.1,32083,List2B,black,woman,,,,null,,,,
null,is dancing with,,html-keyboard-response,56,256926,0.0-13.0-2.1,32083,List2B,black,woman,,,,null,,,,
7293,,,survey-text,57,264221,0.0-13.0-3.1,32083,List2B,black,woman,,,,,"{""Q0"":""Fred is dancing with KAte""}","<img src=""stim_listB/dance3.gif""style=""height:400px;""></stim_listB>",is dancing with,
null,"<div style=""font-size:60px;"">+</div>",,html-keyboard-response,58,264734,0.0-13.0-0.2,32083,List2B,black,woman,,,,null,,,,
null,"<img src=""stim_listB/talk2.gif""style=""height:400px;""></stim_listB>",,html-keyboard-response,59,266753,0.0-13.0-1.2,32083,List2B,black,woman,,,,null,,,,
null,are talking to each other,,html-keyboard-response,60,268756,0.0-13.0-2.2,32083,List2B,black,woman,,,,null,,,,
10792,,,survey-text,61,279549,0.0-13.0-3.2,32083,List2B,black,woman,,,,,"{""Q0"":""Ruth and DAve are talking to each other""}","<img src=""stim_listB/talk2.gif""style=""height:400px;""></stim_listB>",are talking to each other,
null,"<div style=""font-size:60px;"">+</div>",,html-keyboard-response,62,280051,0.0-13.0-0.3,32083,List2B,black,woman,,,,null,,,,
null,"<img src=""stim_listB/play6.gif""style=""height:400px;""></stim_listB>",,html-keyboard-response,63,282060,0.0-13.0-1.3,32083,List2B,black,woman,,,,null,,,,
null,are playing with each other,,html-keyboard-response,64,284076,0.0-13.0-2.3,32083,List2B,black,woman,,,,null,,,,
13381,,,survey-text,65,297458,0.0-13.0-3.3,32083,List2B,black,woman,,,,,"{""Q0"":""Fred and Luke are playing with each other""}","<img src=""stim_listB/play6.gif""style=""height:400px;""></stim_listB>",are playing with each other,
null,"<div style=""font-size:60px;"">+</div>",,html-keyboard-response,66,297964,0.0-13.0-0.4,32083,List2B,black,woman,,,,null,,,,
null,"<img src=""stim_listB/kiss8.gif""style=""height:400px;""></stim_listB>",,html-keyboard-response,67,299974,0.0-13.0-1.4,32083,List2B,black,woman,,,,null,,,,
null,are kissing each other,,html-keyboard-response,68,301981,0.0-13.0-2.4,32083,List2B,black,woman,,,,null,,,,
9652,,,survey-text,69,311635,0.0-13.0-3.4,32083,List2B,black,woman,,,,,"{""Q0"":""Jane and KAte are kissing each other""}","<img src=""stim_listB/kiss8.gif""style=""height:400px;""></stim_listB>",are kissing each other,
null,"<div style=""font-size:60px;"">+</div>",,html-keyboard-response,70,312139,0.0-13.0-0.5,32083,List2B,black,woman,,,,null,,,,
null,"<img src=""stim_listB/shout6.gif""style=""height:400px;""></stim_listB>",,html-keyboard-response,71,314156,0.0-13.0-1.5,32083,List2B,black,woman,,,,null,,,,
null,are shouting at each other,,html-keyboard-response,72,316173,0.0-13.0-2.5,32083,List2B,black,woman,,,,null,,,,
8366,,,survey-text,73,324540,0.0-13.0-3.5,32083,List2B,black,woman,,,,,"{""Q0"":""Fred and Mike are shouting at each other""}","<img src=""stim_listB/shout6.gif""style=""height:400px;""></stim_listB>",are shouting at each other,
null,"<div style=""font-size:60px;"">+</div>",,html-keyboard-response,74,325047,0.0-13.0-0.6,32083,List2B,black,woman,,,,null,,,,
null,"<img src=""stim_listB/marry3.gif""style=""height:400px;""></stim_listB>",,html-keyboard-response,75,327051,0.0-13.0-1.6,32083,List2B,black,woman,,,,null,,,,
null,is marrying,,html-keyboard-response,76,329067,0.0-13.0-2.6,32083,List2B,black,woman,,,,null,,,,
8532,,,survey-text,77,337601,0.0-13.0-3.6,32083,List2B,black,woman,,,,,"{""Q0"":""Beth is marrying Mike""}","<img src=""stim_listB/marry3.gif""style=""height:400px;""></stim_listB>",is marrying,
null,"<div style=""font-size:60px;"">+</div>",,html-keyboard-response,78,338105,0.0-13.0-0.7,32083,List2B,black,woman,,,,null,,,,
null,"<img src=""stim_listB/play2.gif""style=""height:400px;""></stim_listB>",,html-keyboard-response,79,340112,0.0-13.0-1.7,32083,List2B,black,woman,,,,null,,,,
null,are playing with each other,,html-keyboard-response,80,342129,0.0-13.0-2.7,32083,List2B,black,woman,,,,null,,,,
10618,,,survey-text,81,352748,0.0-13.0-3.7,32083,List2B,black,woman,,,,,"{""Q0"":""Ruth and Luke are playing with each other""}","<img src=""stim_listB/play2.gif""style=""height:400px;""></stim_listB>",are playing with each other,
null,"<div style=""font-size:60px;"">+</div>",,html-keyboard-response,82,353261,0.0-13.0-0.8,32083,List2B,black,woman,,,,null,,,,
null,"<img src=""stim_listB/marry1.gif""style=""height:400px;""></stim_listB>",,html-keyboard-response,83,355274,0.0-13.0-1.8,32083,List2B,black,woman,,,,null,,,,
null,is marrying,,html-keyboard-response,84,357280,0.0-13.0-2.8,32083,List2B,black,woman,,,,null,,,,
5962,,,survey-text,85,363243,0.0-13.0-3.8,32083,List2B,black,woman,,,,,"{""Q0"":""Fred is marrying Ruth""}","<img src=""stim_listB/marry1.gif""style=""height:400px;""></stim_listB>",is marrying,
null,"<div style=""font-size:60px;"">+</div>",,html-keyboard-response,86,363764,0.0-13.0-0.9,32083,List2B,black,woman,,,,null,,,,
null,"<img src=""stim_listB/dance5.gif""style=""height:400px;""></stim_listB>",,html-keyboard-response,87,365768,0.0-13.0-1.9,32083,List2B,black,woman,,,,null,,,,
null,is dancing with,,html-keyboard-response,88,367782,0.0-13.0-2.9,32083,List2B,black,woman,,,,null,,,,
11779,,,survey-text,89,379563,0.0-13.0-3.9,32083,List2B,black,woman,,,,,"{""Q0"":""Mike is dancing with Luke""}","<img src=""stim_listB/dance5.gif""style=""height:400px;""></stim_listB>",is dancing with,
null,"<div style=""font-size:60px;"">+</div>",,html-keyboard-response,90,380065,0.0-13.0-0.10,32083,List2B,black,woman,,,,null,,,,
null,"<img src=""stim_listB/play5.gif""style=""height:400px;""></stim_listB>",,html-keyboard-response,91,382070,0.0-13.0-1.10,32083,List2B,black,woman,,,,null,,,,
null,is playing with,,html-keyboard-response,92,384088,0.0-13.0-2.10,32083,List2B,black,woman,,,,null,,,,
9014,,,survey-text,93,393104,0.0-13.0-3.10,32083,List2B,black,woman,,,,,"{""Q0"":""Mike is playing with Dave""}","<img src=""stim_listB/play5.gif""style=""height:400px;""></stim_listB>",is playing with,
null,"<div style=""font-size:60px;"">+</div>",,html-keyboard-response,94,393610,0.0-13.0-0.11,32083,List2B,black,woman,,,,null,,,,
null,"<img src=""stim_listB/argue4.gif""style=""height:400px;""></stim_listB>",,html-keyboard-response,95,395617,0.0-13.0-1.11,32083,List2B,black,woman,,,,null,,,,
null,are arguing with each other,,html-keyboard-response,96,397620,0.0-13.0-2.11,32083,List2B,black,woman,,,,null,,,,
21038,,,survey-text,97,418660,0.0-13.0-3.11,32083,List2B,black,woman,,,,,"{""Q0"":""KAte and Fred are arguing with each other""}","<img src=""stim_listB/argue4.gif""style=""height:400px;""></stim_listB>",are arguing with each other,
null,"<div style=""font-size:60px;"">+</div>",,html-keyboard-response,98,419174,0.0-13.0-0.12,32083,List2B,black,woman,,,,null,,,,
null,"<img src=""stim_listB/flirt8.gif""style=""height:400px;""></stim_listB>",,html-keyboard-response,99,421178,0.0-13.0-1.12,32083,List2B,black,woman,,,,null,,,,
null,are flirting with each other,,html-keyboard-response,100,423191,0.0-13.0-2.12,32083,List2B,black,woman,,,,null,,,,
11772,,,survey-text,101,434965,0.0-13.0-3.12,32083,List2B,black,woman,,,,,"{""Q0"":""Beth and JAne are flirting with each other""}","<img src=""stim_listB/flirt8.gif""style=""height:400px;""></stim_listB>",are flirting with each other,
null,"<div style=""font-size:60px;"">+</div>",,html-keyboard-response,102,435472,0.0-13.0-0.13,32083,List2B,black,woman,,,,null,,,,
null,"<img src=""stim_listB/touch2.gif""style=""height:400px;""></stim_listB>",,html-keyboard-response,103,437478,0.0-13.0-1.13,32083,List2B,black,woman,,,,null,,,,
null,are touching each other,,html-keyboard-response,104,439481,0.0-13.0-2.13,32083,List2B,black,woman,,,,null,,,,
8705,,,survey-text,105,448188,0.0-13.0-3.13,32083,List2B,black,woman,,,,,"{""Q0"":""Ruth and Luke are touching each other""}","<img src=""stim_listB/touch2.gif""style=""height:400px;""></stim_listB>",are touching each other,
null,"<div style=""font-size:60px;"">+</div>",,html-keyboard-response,106,448690,0.0-13.0-0.14,32083,List2B,black,woman,,,,null,,,,
null,"<img src=""stim_listB/play4.gif""style=""height:400px;""></stim_listB>",,html-keyboard-response,107,450700,0.0-13.0-1.14,32083,List2B,black,woman,,,,null,,,,
null,are playing with each other,,html-keyboard-response,108,452717,0.0-13.0-2.14,32083,List2B,black,woman,,,,null,,,,
9835,,,survey-text,109,462554,0.0-13.0-3.14,32083,List2B,black,woman,,,,,"{""Q0"":""Beth and Fred are playing with each other""}","<img src=""stim_listB/play4.gif""style=""height:400px;""></stim_listB>",are playing with each other,
null,"<div style=""font-size:60px;"">+</div>",,html-keyboard-response,110,463063,0.0-13.0-0.15,32083,List2B,black,woman,,,,null,,,,
null,"<img src=""stim_listB/fight4.gif""style=""height:400px;""></stim_listB>",,html-keyboard-response,111,465067,0.0-13.0-1.15,32083,List2B,black,woman,,,,null,,,,
null,are fighting each other,,html-keyboard-response,112,467081,0.0-13.0-2.15,32083,List2B,black,woman,,,,null,,,,
8405,,,survey-text,113,475487,0.0-13.0-3.15,32083,List2B,black,woman,,,,,"{""Q0"":""Beth and Fred are fighting each other""}","<img src=""stim_listB/fight4.gif""style=""height:400px;""></stim_listB>",are fighting each other,
null,"<div style=""font-size:60px;"">+</div>",,html-keyboard-response,114,475992,0.0-13.0-0.16,32083,List2B,black,woman,,,,null,,,,
null,"<img src=""stim_listB/kiss2.gif""style=""height:400px;""></stim_listB>",,html-keyboard-response,115,477999,0.0-13.0-1.16,32083,List2B,black,woman,,,,null,,,,
null,are kissing each other,,html-keyboard-response,116,480007,0.0-13.0-2.16,32083,List2B,black,woman,,,,null,,,,
8730,,,survey-text,117,488738,0.0-13.0-3.16,32083,List2B,black,woman,,,,,"{""Q0"":""Jane and DAve are kissing each other""}","<img src=""stim_listB/kiss2.gif""style=""height:400px;""></stim_listB>",are kissing each other,
null,"<div style=""font-size:60px;"">+</div>",,html-keyboard-response,118,489249,0.0-13.0-0.17,32083,List2B,black,woman,,,,null,,,,
null,"<img src=""stim_listB/argue6.gif""style=""height:400px;""></stim_listB>",,html-keyboard-response,119,491259,0.0-13.0-1.17,32083,List2B,black,woman,,,,null,,,,
null,are arguing with each other,,html-keyboard-response,120,493271,0.0-13.0-2.17,32083,List2B,black,woman,,,,null,,,,
9156,,,survey-text,121,502429,0.0-13.0-3.17,32083,List2B,black,woman,,,,,"{""Q0"":""Mike and Luke are aruging with each other""}","<img src=""stim_listB/argue6.gif""style=""height:400px;""></stim_listB>",are arguing with each other,
null,"<div style=""font-size:60px;"">+</div>",,html-keyboard-response,122,502944,0.0-13.0-0.18,32083,List2B,black,woman,,,,null,,,,
null,"<img src=""stim_listB/talk1.gif""style=""height:400px;""></stim_listB>",,html-keyboard-response,123,504953,0.0-13.0-1.18,32083,List2B,black,woman,,,,null,,,,
null,is talking to,,html-keyboard-response,124,506960,0.0-13.0-2.18,32083,List2B,black,woman,,,,null,,,,
6935,,,survey-text,125,513897,0.0-13.0-3.18,32083,List2B,black,woman,,,,,"{""Q0"":""Jane is talking to Luke""}","<img src=""stim_listB/talk1.gif""style=""height:400px;""></stim_listB>",is talking to,
null,"<div style=""font-size:60px;"">+</div>",,html-keyboard-response,126,514410,0.0-13.0-0.19,32083,List2B,black,woman,,,,null,,,,
null,"<img src=""stim_listB/argue5.gif""style=""height:400px;""></stim_listB>",,html-keyboard-response,127,516415,0.0-13.0-1.19,32083,List2B,black,woman,,,,null,,,,
null,is arguing with,,html-keyboard-response,128,518436,0.0-13.0-2.19,32083,List2B,black,woman,,,,null,,,,
11213,,,survey-text,129,529650,0.0-13.0-3.19,32083,List2B,black,woman,,,,,"{""Q0"":""Dave is arguing with Fred""}","<img src=""stim_listB/argue5.gif""style=""height:400px;""></stim_listB>",is arguing with,
3443,"<img src='img/portrait_matrix_list2.jpg' style='width:900px;height:500px;''></img><p>If you have memorised all the portraits and names and are ready to start, press Continue.</p><p><strong>Please note: Your memory of these faces will be tested 4 times during this experiment.</strong></p>",0,html-button-response,130,533095,0.0-14.0-0.0,32083,List2B,black,woman,,,,,,,,
2116,"<img src=""portrait/BW1.jpg""style=""height:400px;""></img>",0,html-button-response,131,536219,0.0-14.0-1.0,32083,List2B,black,woman,,TRUE,0,,,,,
null,CORRECT,,html-keyboard-response,132,537739,0.0-14.0-2.0-0.0,32083,List2B,black,woman,,,,null,,,,
1442,"<img src=""portrait/WW2.jpg""style=""height:400px;""></img>",3,html-button-response,133,539183,0.0-14.0-4.0,32083,List2B,black,woman,,TRUE,3,,,,,
null,CORRECT,,html-keyboard-response,134,540704,0.0-14.0-5.0-0.0,32083,List2B,black,woman,,,,null,,,,
5522,"<img src=""portrait/WM2.jpg""style=""height:400px;""></img>",7,html-button-response,135,546229,0.0-14.0-7.0,32083,List2B,black,woman,,TRUE,7,,,,,
null,CORRECT,,html-keyboard-response,136,547758,0.0-14.0-8.0-0.0,32083,List2B,black,woman,,,,null,,,,
1937,"<img src=""portrait/BW2.jpg""style=""height:400px;""></img>",2,html-button-response,137,549698,0.0-14.0-10.0,32083,List2B,black,woman,,TRUE,2,,,,,
null,CORRECT,,html-keyboard-response,138,551212,0.0-14.0-11.0-0.0,32083,List2B,black,woman,,,,null,,,,
1788,"<img src=""portrait/WW1.jpg""style=""height:400px;""></img>",1,html-button-response,139,553003,0.0-14.0-13.0,32083,List2B,black,woman,,TRUE,1,,,,,
null,CORRECT,,html-keyboard-response,140,554508,0.0-14.0-14.0-0.0,32083,List2B,black,woman,,,,null,,,,
1874,"<img src=""portrait/BM1.jpg""style=""height:400px;""></img>",4,html-button-response,141,556384,0.0-14.0-16.0,32083,List2B,black,woman,,TRUE,4,,,,,
null,CORRECT,,html-keyboard-response,142,557899,0.0-14.0-17.0-0.0,32083,List2B,black,woman,,,,null,,,,
1588,"<img src=""portrait/BM2.jpg""style=""height:400px;""></img>",5,html-button-response,143,559489,0.0-14.0-19.0,32083,List2B,black,woman,,TRUE,5,,,,,
null,CORRECT,,html-keyboard-response,144,561009,0.0-14.0-20.0-0.0,32083,List2B,black,woman,,,,null,,,,
3349,"<img src=""portrait/WM1.jpg""style=""height:400px;""></img>",6,html-button-response,145,564360,0.0-14.0-22.0,32083,List2B,black,woman,,TRUE,6,,,,,
null,CORRECT,,html-keyboard-response,146,565896,0.0-14.0-23.0-0.0,32083,List2B,black,woman,,,,null,,,,
1813,<p>You got 8 out of 8 right first time. Press Continue.</p>,0,html-button-response,147,567712,0.0-14.0-25.0,32083,List2B,black,woman,,,,,,,,
null,"<div style=""font-size:60px;"">+</div>",,html-keyboard-response,148,569241,0.0-15.0-0.0,32083,List2B,black,woman,,,,null,,,,
null,"<img src=""stim_listB/dance4.gif""style=""height:400px;""></stim_listB>",,html-keyboard-response,149,571247,0.0-15.0-1.0,32083,List2B,black,woman,,,,null,,,,
null,are dancing with each other,,html-keyboard-response,150,573260,0.0-15.0-2.0,32083,List2B,black,woman,,,,null,,,,
10298,,,survey-text,151,583560,0.0-15.0-3.0,32083,List2B,black,woman,,,,,"{""Q0"":""Beth and Mike are dancing with each other""}","<img src=""stim_listB/dance4.gif""style=""height:400px;""></stim_listB>",are dancing with each other,
null,"<div style=""font-size:60px;"">+</div>",,html-keyboard-response,152,584062,0.0-15.0-0.1,32083,List2B,black,woman,,,,null,,,,
null,"<img src=""stim_listB/marry8.gif""style=""height:400px;""></stim_listB>",,html-keyboard-response,153,586072,0.0-15.0-1.1,32083,List2B,black,woman,,,,null,,,,
null,are marrying each other,,html-keyboard-response,154,588423,0.0-15.0-2.1,32083,List2B,black,woman,,,,null,,,,
10764,,,survey-text,155,599190,0.0-15.0-3.1,32083,List2B,black,woman,,,,,"{""Q0"":""Kate and Ruth are marrying each other""}","<img src=""stim_listB/marry8.gif""style=""height:400px;""></stim_listB>",are marrying each other,
null,"<div style=""font-size:60px;"">+</div>",,html-keyboard-response,156,599693,0.0-15.0-0.2,32083,List2B,black,woman,,,,null,,,,
null,"<img src=""stim_listB/touch5.gif""style=""height:400px;""></stim_listB>",,html-keyboard-response,157,601702,0.0-15.0-1.2,32083,List2B,black,woman,,,,null,,,,
null,is touching,,html-keyboard-response,158,603721,0.0-15.0-2.2,32083,List2B,black,woman,,,,null,,,,
7357,,,survey-text,159,611079,0.0-15.0-3.2,32083,List2B,black,woman,,,,,"{""Q0"":""Mike is touching Dave""}","<img src=""stim_listB/touch5.gif""style=""height:400px;""></stim_listB>",is touching,
null,"<div style=""font-size:60px;"">+</div>",,html-keyboard-response,160,611596,0.0-15.0-0.3,32083,List2B,black,woman,,,,null,,,,
null,"<img src=""stim_listB/fight8.gif""style=""height:400px;""></stim_listB>",,html-keyboard-response,161,613602,0.0-15.0-1.3,32083,List2B,black,woman,,,,null,,,,
null,are fighting each other,,html-keyboard-response,162,615617,0.0-15.0-2.3,32083,List2B,black,woman,,,,null,,,,
13668,,,survey-text,163,629286,0.0-15.0-3.3,32083,List2B,black,woman,,,,,"{""Q0"":""Beth and Ruth are fighting each other""}","<img src=""stim_listB/fight8.gif""style=""height:400px;""></stim_listB>",are fighting each other,
null,"<div style=""font-size:60px;"">+</div>",,html-keyboard-response,164,629789,0.0-15.0-0.4,32083,List2B,black,woman,,,,null,,,,
null,"<img src=""stim_listB/touch8.gif""style=""height:400px;""></stim_listB>",,html-keyboard-response,165,631805,0.0-15.0-1.4,32083,List2B,black,woman,,,,null,,,,
null,are touching each other,,html-keyboard-response,166,633810,0.0-15.0-2.4,32083,List2B,black,woman,,,,null,,,,
20114,,,survey-text,167,653925,0.0-15.0-3.4,32083,List2B,black,woman,,,,,"{""Q0"":""Beth and Ruth are touching each other""}","<img src=""stim_listB/touch8.gif""style=""height:400px;""></stim_listB>",are touching each other,
null,"<div style=""font-size:60px;"">+</div>",,html-keyboard-response,168,654446,0.0-15.0-0.5,32083,List2B,black,woman,,,,null,,,,
null,"<img src=""stim_listB/shout2.gif""style=""height:400px;""></stim_listB>",,html-keyboard-response,169,656454,0.0-15.0-1.5,32083,List2B,black,woman,,,,null,,,,
null,are shouting at each other,,html-keyboard-response,170,658459,0.0-15.0-2.5,32083,List2B,black,woman,,,,null,,,,
9001,,,survey-text,171,667461,0.0-15.0-3.5,32083,List2B,black,woman,,,,,"{""Q0"":""Jane and DAve are fighting each other""}","<img src=""stim_listB/shout2.gif""style=""height:400px;""></stim_listB>",are shouting at each other,
null,"<div style=""font-size:60px;"">+</div>",,html-keyboard-response,172,667965,0.0-15.0-0.6,32083,List2B,black,woman,,,,null,,,,
null,"<img src=""stim_listB/talk3.gif""style=""height:400px;""></stim_listB>",,html-keyboard-response,173,669971,0.0-15.0-1.6,32083,List2B,black,woman,,,,null,,,,
null,is talking to,,html-keyboard-response,174,671973,0.0-15.0-2.6,32083,List2B,black,woman,,,,null,,,,
6173,,,survey-text,175,678148,0.0-15.0-3.6,32083,List2B,black,woman,,,,,"{""Q0"":""Kate is talking to Fred""}","<img src=""stim_listB/talk3.gif""style=""height:400px;""></stim_listB>",is talking to,
null,"<div style=""font-size:60px;"">+</div>",,html-keyboard-response,176,678650,0.0-15.0-0.7,32083,List2B,black,woman,,,,null,,,,
null,"<img src=""stim_listB/play7.gif""style=""height:400px;""></stim_listB>",,html-keyboard-response,177,680671,0.0-15.0-1.7,32083,List2B,black,woman,,,,null,,,,
null,is playing with,,html-keyboard-response,178,682680,0.0-15.0-2.7,32083,List2B,black,woman,,,,null,,,,
7273,,,survey-text,179,689954,0.0-15.0-3.7,32083,List2B,black,woman,,,,,"{""Q0"":""KAte is playing with Jane""}","<img src=""stim_listB/play7.gif""style=""height:400px;""></stim_listB>",is playing with,
null,"<div style=""font-size:60px;"">+</div>",,html-keyboard-response,180,690459,0.0-15.0-0.8,32083,List2B,black,woman,,,,null,,,,
null,"<img src=""stim_listB/touch6.gif""style=""height:400px;""></stim_listB>",,html-keyboard-response,181,692468,0.0-15.0-1.8,32083,List2B,black,woman,,,,null,,,,
null,are touching each other,,html-keyboard-response,182,694474,0.0-15.0-2.8,32083,List2B,black,woman,,,,null,,,,
8825,,,survey-text,183,703300,0.0-15.0-3.8,32083,List2B,black,woman,,,,,"{""Q0"":""Fed and Luke are touching each other""}","<img src=""stim_listB/touch6.gif""style=""height:400px;""></stim_listB>",are touching each other,
null,"<div style=""font-size:60px;"">+</div>",,html-keyboard-response,184,703810,0.0-15.0-0.9,32083,List2B,black,woman,,,,null,,,,
null,"<img src=""stim_listB/kiss1.gif""style=""height:400px;""></stim_listB>",,html-keyboard-response,185,705823,0.0-15.0-1.9,32083,List2B,black,woman,,,,null,,,,
null,is kissing,,html-keyboard-response,186,707830,0.0-15.0-2.9,32083,List2B,black,woman,,,,null,,,,
7575,,,survey-text,187,715407,0.0-15.0-3.9,32083,List2B,black,woman,,,,,"{""Q0"":""ruth is kissing luke""}","<img src=""stim_listB/kiss1.gif""style=""height:400px;""></stim_listB>",is kissing,
null,"<div style=""font-size:60px;"">+</div>",,html-keyboard-response,188,715913,0.0-15.0-0.10,32083,List2B,black,woman,,,,null,,,,
null,"<img src=""stim_listB/shout8.gif""style=""height:400px;""></stim_listB>",,html-keyboard-response,189,717921,0.0-15.0-1.10,32083,List2B,black,woman,,,,null,,,,
null,are shouting at each other,,html-keyboard-response,190,719927,0.0-15.0-2.10,32083,List2B,black,woman,,,,null,,,,
10617,,,survey-text,191,730546,0.0-15.0-3.10,32083,List2B,black,woman,,,,,"{""Q0"":""jane and kate are shouting at each other""}","<img src=""stim_listB/shout8.gif""style=""height:400px;""></stim_listB>",are shouting at each other,
null,"<div style=""font-size:60px;"">+</div>",,html-keyboard-response,192,731058,0.0-15.0-0.11,32083,List2B,black,woman,,,,null,,,,
null,"<img src=""stim_listB/play3.gif""style=""height:400px;""></stim_listB>",,html-keyboard-response,193,733062,0.0-15.0-1.11,32083,List2B,black,woman,,,,null,,,,
null,is playing with,,html-keyboard-response,194,735070,0.0-15.0-2.11,32083,List2B,black,woman,,,,null,,,,
12768,,,survey-text,195,747840,0.0-15.0-3.11,32083,List2B,black,woman,,,,,"{""Q0"":""KAte is playing with mike""}","<img src=""stim_listB/play3.gif""style=""height:400px;""></stim_listB>",is playing with,
null,"<div style=""font-size:60px;"">+</div>",,html-keyboard-response,196,748350,0.0-15.0-0.12,32083,List2B,black,woman,,,,null,,,,
null,"<img src=""stim_listB/talk8.gif""style=""height:400px;""></stim_listB>",,html-keyboard-response,197,750362,0.0-15.0-1.12,32083,List2B,black,woman,,,,null,,,,
null,are talking to each other,,html-keyboard-response,198,752373,0.0-15.0-2.12,32083,List2B,black,woman,,,,null,,,,
9320,,,survey-text,199,761694,0.0-15.0-3.12,32083,List2B,black,woman,,,,,"{""Q0"":""beth and jane are talking to each other""}","<img src=""stim_listB/talk8.gif""style=""height:400px;""></stim_listB>",are talking to each other,
null,"<div style=""font-size:60px;"">+</div>",,html-keyboard-response,200,762198,0.0-15.0-0.13,32083,List2B,black,woman,,,,null,,,,
null,"<img src=""stim_listB/shout3.gif""style=""height:400px;""></stim_listB>",,html-keyboard-response,201,764203,0.0-15.0-1.13,32083,List2B,black,woman,,,,null,,,,
null,is shouting at,,html-keyboard-response,202,766217,0.0-15.0-2.13,32083,List2B,black,woman,,,,null,,,,
11339,,,survey-text,203,777556,0.0-15.0-3.13,32083,List2B,black,woman,,,,,"{""Q0"":""beth is shouting at fred""}","<img src=""stim_listB/shout3.gif""style=""height:400px;""></stim_listB>",is shouting at,
null,"<div style=""font-size:60px;"">+</div>",,html-keyboard-response,204,778062,0.0-15.0-0.14,32083,List2B,black,woman,,,,null,,,,
null,"<img src=""stim_listB/touch1.gif""style=""height:400px;""></stim_listB>",,html-keyboard-response,205,780081,0.0-15.0-1.14,32083,List2B,black,woman,,,,null,,,,
null,is touching,,html-keyboard-response,206,782084,0.0-15.0-2.14,32083,List2B,black,woman,,,,null,,,,
11725,,,survey-text,207,793811,0.0-15.0-3.14,32083,List2B,black,woman,,,,,"{""Q0"":""jane is touching dave""}","<img src=""stim_listB/touch1.gif""style=""height:400px;""></stim_listB>",is touching,
null,"<div style=""font-size:60px;"">+</div>",,html-keyboard-response,208,794324,0.0-15.0-0.15,32083,List2B,black,woman,,,,null,,,,
null,"<img src=""stim_listB/play1.gif""style=""height:400px;""></stim_listB>",,html-keyboard-response,209,796341,0.0-15.0-1.15,32083,List2B,black,woman,,,,null,,,,
null,is playing with,,html-keyboard-response,210,798347,0.0-15.0-2.15,32083,List2B,black,woman,,,,null,,,,
7394,,,survey-text,211,805742,0.0-15.0-3.15,32083,List2B,black,woman,,,,,"{""Q0"":""jane is playing with dave""}","<img src=""stim_listB/play1.gif""style=""height:400px;""></stim_listB>",is playing with,
null,"<div style=""font-size:60px;"">+</div>",,html-keyboard-response,212,806250,0.0-15.0-0.16,32083,List2B,black,woman,,,,null,,,,
null,"<img src=""stim_listB/kiss5.gif""style=""height:400px;""></stim_listB>",,html-keyboard-response,213,808259,0.0-15.0-1.16,32083,List2B,black,woman,,,,null,,,,
null,is kissing,,html-keyboard-response,214,810268,0.0-15.0-2.16,32083,List2B,black,woman,,,,null,,,,
14950,,,survey-text,215,825220,0.0-15.0-3.16,32083,List2B,black,woman,,,,,"{""Q0"":""fred is kissing luke""}","<img src=""stim_listB/kiss5.gif""style=""height:400px;""></stim_listB>",is kissing,
null,"<div style=""font-size:60px;"">+</div>",,html-keyboard-response,216,825734,0.0-15.0-0.17,32083,List2B,black,woman,,,,null,,,,
null,"<img src=""stim_listB/flirt7.gif""style=""height:400px;""></stim_listB>",,html-keyboard-response,217,827741,0.0-15.0-1.17,32083,List2B,black,woman,,,,null,,,,
null,is flirting with,,html-keyboard-response,218,829758,0.0-15.0-2.17,32083,List2B,black,woman,,,,null,,,,
8183,,,survey-text,219,837943,0.0-15.0-3.17,32083,List2B,black,woman,,,,,"{""Q0"":""kate is flirting with ruth""}","<img src=""stim_listB/flirt7.gif""style=""height:400px;""></stim_listB>",is flirting with,
null,"<div style=""font-size:60px;"">+</div>",,html-keyboard-response,220,838464,0.0-15.0-0.18,32083,List2B,black,woman,,,,null,,,,
null,"<img src=""stim_listB/argue1.gif""style=""height:400px;""></stim_listB>",,html-keyboard-response,221,840471,0.0-15.0-1.18,32083,List2B,black,woman,,,,null,,,,
null,is arguing with,,html-keyboard-response,222,842489,0.0-15.0-2.18,32083,List2B,black,woman,,,,null,,,,
10754,,,survey-text,223,853245,0.0-15.0-3.18,32083,List2B,black,woman,,,,,"{""Q0"":""ruth is aruging with dave""}","<img src=""stim_listB/argue1.gif""style=""height:400px;""></stim_listB>",is arguing with,
null,"<div style=""font-size:60px;"">+</div>",,html-keyboard-response,224,853749,0.0-15.0-0.19,32083,List2B,black,woman,,,,null,,,,
null,"<img src=""stim_listB/argue2.gif""style=""height:400px;""></stim_listB>",,html-keyboard-response,225,855757,0.0-15.0-1.19,32083,List2B,black,woman,,,,null,,,,
null,are arguing with each other,,html-keyboard-response,226,857770,0.0-15.0-2.19,32083,List2B,black,woman,,,,null,,,,
22715,,,survey-text,227,880487,0.0-15.0-3.19,32083,List2B,black,woman,,,,,"{""Q0"":""jane and luke are arguing with each other""}","<img src=""stim_listB/argue2.gif""style=""height:400px;""></stim_listB>",are arguing with each other,
2341,"<img src='img/portrait_matrix_list2.jpg' style='width:900px;height:500px;''></img><p>If you have memorised all the portraits and names and are ready to start, press Continue.</p><p><strong>Please note: Your memory of these faces will be tested 4 times during this experiment.</strong></p>",0,html-button-response,228,882829,0.0-16.0-0.0,32083,List2B,black,woman,,,,,,,,
1633,"<img src=""portrait/BW2.jpg""style=""height:400px;""></img>",2,html-button-response,229,885475,0.0-16.0-1.0,32083,List2B,black,woman,,TRUE,2,,,,,
null,CORRECT,,html-keyboard-response,230,886981,0.0-16.0-2.0-0.0,32083,List2B,black,woman,,,,null,,,,
5468,"<img src=""portrait/WM1.jpg""style=""height:400px;""></img>",6,html-button-response,231,892452,0.0-16.0-4.0,32083,List2B,black,woman,,TRUE,6,,,,,
null,CORRECT,,html-keyboard-response,232,893964,0.0-16.0-5.0-0.0,32083,List2B,black,woman,,,,null,,,,
2937,"<img src=""portrait/WM2.jpg""style=""height:400px;""></img>",7,html-button-response,233,896903,0.0-16.0-7.0,32083,List2B,black,woman,,TRUE,7,,,,,
null,CORRECT,,html-keyboard-response,234,898418,0.0-16.0-8.0-0.0,32083,List2B,black,woman,,,,null,,,,
3821,"<img src=""portrait/WW2.jpg""style=""height:400px;""></img>",3,html-button-response,235,902241,0.0-16.0-10.0,32083,List2B,black,woman,,TRUE,3,,,,,
null,CORRECT,,html-keyboard-response,236,903757,0.0-16.0-11.0-0.0,32083,List2B,black,woman,,,,null,,,,
2064,"<img src=""portrait/BM1.jpg""style=""height:400px;""></img>",4,html-button-response,237,905823,0.0-16.0-13.0,32083,List2B,black,woman,,TRUE,4,,,,,
null,CORRECT,,html-keyboard-response,238,907357,0.0-16.0-14.0-0.0,32083,List2B,black,woman,,,,null,,,,
2055,"<img src=""portrait/BM2.jpg""style=""height:400px;""></img>",5,html-button-response,239,909414,0.0-16.0-16.0,32083,List2B,black,woman,,TRUE,5,,,,,
null,CORRECT,,html-keyboard-response,240,910922,0.0-16.0-17.0-0.0,32083,List2B,black,woman,,,,null,,,,
1647,"<img src=""portrait/WW1.jpg""style=""height:400px;""></img>",1,html-button-response,241,912572,0.0-16.0-19.0,32083,List2B,black,woman,,TRUE,1,,,,,
null,CORRECT,,html-keyboard-response,242,914097,0.0-16.0-20.0-0.0,32083,List2B,black,woman,,,,null,,,,
2381,"<img src=""portrait/BW1.jpg""style=""height:400px;""></img>",0,html-button-response,243,916480,0.0-16.0-22.0,32083,List2B,black,woman,,TRUE,0,,,,,
null,CORRECT,,html-keyboard-response,244,918006,0.0-16.0-23.0-0.0,32083,List2B,black,woman,,,,null,,,,
2119,<p>You got 8 out of 8 right first time. Press Continue.</p>,0,html-button-response,245,920127,0.0-16.0-25.0,32083,List2B,black,woman,,,,,,,,
null,"<div style=""font-size:60px;"">+</div>",,html-keyboard-response,246,921643,0.0-17.0-0.0,32083,List2B,black,woman,,,,null,,,,
null,"<img src=""stim_listB/kiss3.gif""style=""height:400px;""></stim_listB>",,html-keyboard-response,247,923648,0.0-17.0-1.0,32083,List2B,black,woman,,,,null,,,,
null,is kissing,,html-keyboard-response,248,925665,0.0-17.0-2.0,32083,List2B,black,woman,,,,null,,,,
5886,,,survey-text,249,931552,0.0-17.0-3.0,32083,List2B,black,woman,,,,,"{""Q0"":""beth is kissing fred""}","<img src=""stim_listB/kiss3.gif""style=""height:400px;""></stim_listB>",is kissing,
null,"<div style=""font-size:60px;"">+</div>",,html-keyboard-response,250,932063,0.0-17.0-0.1,32083,List2B,black,woman,,,,null,,,,
null,"<img src=""stim_listB/argue8.gif""style=""height:400px;""></stim_listB>",,html-keyboard-response,251,934082,0.0-17.0-1.1,32083,List2B,black,woman,,,,null,,,,
null,are arguing with each other,,html-keyboard-response,252,936086,0.0-17.0-2.1,32083,List2B,black,woman,,,,null,,,,
13590,,,survey-text,253,949678,0.0-17.0-3.1,32083,List2B,black,woman,,,,,"{""Q0"":""kate and ruth are arguing with each other""}","<img src=""stim_listB/argue8.gif""style=""height:400px;""></stim_listB>",are arguing with each other,
null,"<div style=""font-size:60px;"">+</div>",,html-keyboard-response,254,950194,0.0-17.0-0.2,32083,List2B,black,woman,,,,null,,,,
null,"<img src=""stim_listB/marry7.gif""style=""height:400px;""></stim_listB>",,html-keyboard-response,255,952198,0.0-17.0-1.2,32083,List2B,black,woman,,,,null,,,,
null,is marrying,,html-keyboard-response,256,954204,0.0-17.0-2.2,32083,List2B,black,woman,,,,null,,,,
6399,,,survey-text,257,960607,0.0-17.0-3.2,32083,List2B,black,woman,,,,,"{""Q0"":""beth is marrying jane""}","<img src=""stim_listB/marry7.gif""style=""height:400px;""></stim_listB>",is marrying,
null,"<div style=""font-size:60px;"">+</div>",,html-keyboard-response,258,961110,0.0-17.0-0.3,32083,List2B,black,woman,,,,null,,,,
null,"<img src=""stim_listB/fight3.gif""style=""height:400px;""></stim_listB>",,html-keyboard-response,259,963125,0.0-17.0-1.3,32083,List2B,black,woman,,,,null,,,,
null,is fighting,,html-keyboard-response,260,965141,0.0-17.0-2.3,32083,List2B,black,woman,,,,null,,,,
10348,,,survey-text,261,975491,0.0-17.0-3.3,32083,List2B,black,woman,,,,,"{""Q0"":""mike is fighting kate""}","<img src=""stim_listB/fight3.gif""style=""height:400px;""></stim_listB>",is fighting,
null,"<div style=""font-size:60px;"">+</div>",,html-keyboard-response,262,976004,0.0-17.0-0.4,32083,List2B,black,woman,,,,null,,,,
null,"<img src=""stim_listB/dance7.gif""style=""height:400px;""></stim_listB>",,html-keyboard-response,263,978012,0.0-17.0-1.4,32083,List2B,black,woman,,,,null,,,,
null,is dancing with,,html-keyboard-response,264,980014,0.0-17.0-2.4,32083,List2B,black,woman,,,,null,,,,
8313,,,survey-text,265,988329,0.0-17.0-3.4,32083,List2B,black,woman,,,,,"{""Q0"":""kate is dancing with ruth""}","<img src=""stim_listB/dance7.gif""style=""height:400px;""></stim_listB>",is dancing with,
null,"<div style=""font-size:60px;"">+</div>",,html-keyboard-response,266,988838,0.0-17.0-0.5,32083,List2B,black,woman,,,,null,,,,
null,"<img src=""stim_listB/marry6.gif""style=""height:400px;""></stim_listB>",,html-keyboard-response,267,990850,0.0-17.0-1.5,32083,List2B,black,woman,,,,null,,,,
null,are marrying each other,,html-keyboard-response,268,992854,0.0-17.0-2.5,32083,List2B,black,woman,,,,null,,,,
10888,,,survey-text,269,1003743,0.0-17.0-3.5,32083,List2B,black,woman,,,,,"{""Q0"":""mike is marrying luke""}","<img src=""stim_listB/marry6.gif""style=""height:400px;""></stim_listB>",are marrying each other,
null,"<div style=""font-size:60px;"">+</div>",,html-keyboard-response,270,1004245,0.0-17.0-0.6,32083,List2B,black,woman,,,,null,,,,
null,"<img src=""stim_listB/flirt6.gif""style=""height:400px;""></stim_listB>",,html-keyboard-response,271,1006259,0.0-17.0-1.6,32083,List2B,black,woman,,,,null,,,,
null,are flirting with each other,,html-keyboard-response,272,1008414,0.0-17.0-2.6,32083,List2B,black,woman,,,,null,,,,
14137,,,survey-text,273,1022552,0.0-17.0-3.6,32083,List2B,black,woman,,,,,"{""Q0"":""dave and fred are flirting with each other""}","<img src=""stim_listB/flirt6.gif""style=""height:400px;""></stim_listB>",are flirting with each other,
null,"<div style=""font-size:60px;"">+</div>",,html-keyboard-response,274,1023056,0.0-17.0-0.7,32083,List2B,black,woman,,,,null,,,,
null,"<img src=""stim_listB/dance1.gif""style=""height:400px;""></stim_listB>",,html-keyboard-response,275,1025063,0.0-17.0-1.7,32083,List2B,black,woman,,,,null,,,,
null,is dancing with,,html-keyboard-response,276,1027067,0.0-17.0-2.7,32083,List2B,black,woman,,,,null,,,,
6994,,,survey-text,277,1034063,0.0-17.0-3.7,32083,List2B,black,woman,,,,,"{""Q0"":""luke is dancing with jane""}","<img src=""stim_listB/dance1.gif""style=""height:400px;""></stim_listB>",is dancing with,
null,"<div style=""font-size:60px;"">+</div>",,html-keyboard-response,278,1034566,0.0-17.0-0.8,32083,List2B,black,woman,,,,null,,,,
null,"<img src=""stim_listB/flirt2.gif""style=""height:400px;""></stim_listB>",,html-keyboard-response,279,1036570,0.0-17.0-1.8,32083,List2B,black,woman,,,,null,,,,
null,are flirting with each other,,html-keyboard-response,280,1038580,0.0-17.0-2.8,32083,List2B,black,woman,,,,null,,,,
10930,,,survey-text,281,1049513,0.0-17.0-3.8,32083,List2B,black,woman,,,,,"{""Q0"":""ruth and dave are flirting with each other""}","<img src=""stim_listB/flirt2.gif""style=""height:400px;""></stim_listB>",are flirting with each other,
null,"<div style=""font-size:60px;"">+</div>",,html-keyboard-response,282,1050027,0.0-17.0-0.9,32083,List2B,black,woman,,,,null,,,,
null,"<img src=""stim_listB/talk4.gif""style=""height:400px;""></stim_listB>",,html-keyboard-response,283,1052030,0.0-17.0-1.9,32083,List2B,black,woman,,,,null,,,,
null,are talking to each other,,html-keyboard-response,284,1054036,0.0-17.0-2.9,32083,List2B,black,woman,,,,null,,,,
8785,,,survey-text,285,1062824,0.0-17.0-3.9,32083,List2B,black,woman,,,,,"{""Q0"":""beth and mike are talking to each other""}","<img src=""stim_listB/talk4.gif""style=""height:400px;""></stim_listB>",are talking to each other,
null,"<div style=""font-size:60px;"">+</div>",,html-keyboard-response,286,1063335,0.0-17.0-0.10,32083,List2B,black,woman,,,,null,,,,
null,"<img src=""stim_listB/shout5.gif""style=""height:400px;""></stim_listB>",,html-keyboard-response,287,1065339,0.0-17.0-1.10,32083,List2B,black,woman,,,,null,,,,
null,is shouting at,,html-keyboard-response,288,1067352,0.0-17.0-2.10,32083,List2B,black,woman,,,,null,,,,
7784,,,survey-text,289,1075137,0.0-17.0-3.10,32083,List2B,black,woman,,,,,"{""Q0"":""luke is shouting at fred""}","<img src=""stim_listB/shout5.gif""style=""height:400px;""></stim_listB>",is shouting at,
null,"<div style=""font-size:60px;"">+</div>",,html-keyboard-response,290,1075655,0.0-17.0-0.11,32083,List2B,black,woman,,,,null,,,,
null,"<img src=""stim_listB/fight1.gif""style=""height:400px;""></stim_listB>",,html-keyboard-response,291,1077659,0.0-17.0-1.11,32083,List2B,black,woman,,,,null,,,,
null,is fighting,,html-keyboard-response,292,1079673,0.0-17.0-2.11,32083,List2B,black,woman,,,,null,,,,
6774,,,survey-text,293,1086448,0.0-17.0-3.11,32083,List2B,black,woman,,,,,"{""Q0"":""jane is fighting dave""}","<img src=""stim_listB/fight1.gif""style=""height:400px;""></stim_listB>",is fighting,
null,"<div style=""font-size:60px;"">+</div>",,html-keyboard-response,294,1086961,0.0-17.0-0.12,32083,List2B,black,woman,,,,null,,,,
null,"<img src=""stim_listB/marry4.gif""style=""height:400px;""></stim_listB>",,html-keyboard-response,295,1088968,0.0-17.0-1.12,32083,List2B,black,woman,,,,null,,,,
null,are marrying each other,,html-keyboard-response,296,1090980,0.0-17.0-2.12,32083,List2B,black,woman,,,,null,,,,
7538,,,survey-text,297,1098520,0.0-17.0-3.12,32083,List2B,black,woman,,,,,"{""Q0"":""kate is marrying fred""}","<img src=""stim_listB/marry4.gif""style=""height:400px;""></stim_listB>",are marrying each other,
null,"<div style=""font-size:60px;"">+</div>",,html-keyboard-response,298,1099024,0.0-17.0-0.13,32083,List2B,black,woman,,,,null,,,,
null,"<img src=""stim_listB/marry2.gif""style=""height:400px;""></stim_listB>",,html-keyboard-response,299,1101033,0.0-17.0-1.13,32083,List2B,black,woman,,,,null,,,,
null,are marrying each other,,html-keyboard-response,300,1103054,0.0-17.0-2.13,32083,List2B,black,woman,,,,null,,,,
8295,,,survey-text,301,1111350,0.0-17.0-3.13,32083,List2B,black,woman,,,,,"{""Q0"":""jane and luke are marrying each other""}","<img src=""stim_listB/marry2.gif""style=""height:400px;""></stim_listB>",are marrying each other,
null,"<div style=""font-size:60px;"">+</div>",,html-keyboard-response,302,1111868,0.0-17.0-0.14,32083,List2B,black,woman,,,,null,,,,
null,"<img src=""stim_listB/kiss7.gif""style=""height:400px;""></stim_listB>",,html-keyboard-response,303,1113872,0.0-17.0-1.14,32083,List2B,black,woman,,,,null,,,,
null,is kissing,,html-keyboard-response,304,1115875,0.0-17.0-2.14,32083,List2B,black,woman,,,,null,,,,
5913,,,survey-text,305,1121789,0.0-17.0-3.14,32083,List2B,black,woman,,,,,"{""Q0"":""beth is kissing jane""}","<img src=""stim_listB/kiss7.gif""style=""height:400px;""></stim_listB>",is kissing,
null,"<div style=""font-size:60px;"">+</div>",,html-keyboard-response,306,1122304,0.0-17.0-0.15,32083,List2B,black,woman,,,,null,,,,
null,"<img src=""stim_listB/flirt4.gif""style=""height:400px;""></stim_listB>",,html-keyboard-response,307,1124312,0.0-17.0-1.15,32083,List2B,black,woman,,,,null,,,,
null,are flirting with each other,,html-keyboard-response,308,1126317,0.0-17.0-2.15,32083,List2B,black,woman,,,,null,,,,
10439,,,survey-text,309,1136757,0.0-17.0-3.15,32083,List2B,black,woman,,,,,"{""Q0"":""beth and mike are flirting with each other""}","<img src=""stim_listB/flirt4.gif""style=""height:400px;""></stim_listB>",are flirting with each other,
null,"<div style=""font-size:60px;"">+</div>",,html-keyboard-response,310,1137259,0.0-17.0-0.16,32083,List2B,black,woman,,,,null,,,,
null,"<img src=""stim_listB/touch3.gif""style=""height:400px;""></stim_listB>",,html-keyboard-response,311,1139267,0.0-17.0-1.16,32083,List2B,black,woman,,,,null,,,,
null,is touching,,html-keyboard-response,312,1141280,0.0-17.0-2.16,32083,List2B,black,woman,,,,null,,,,
4804,,,survey-text,313,1146085,0.0-17.0-3.16,32083,List2B,black,woman,,,,,"{""Q0"":""mike is touching kate""}","<img src=""stim_listB/touch3.gif""style=""height:400px;""></stim_listB>",is touching,
null,"<div style=""font-size:60px;"">+</div>",,html-keyboard-response,314,1146588,0.0-17.0-0.17,32083,List2B,black,woman,,,,null,,,,
null,"<img src=""stim_listB/flirt1.gif""style=""height:400px;""></stim_listB>",,html-keyboard-response,315,1148595,0.0-17.0-1.17,32083,List2B,black,woman,,,,null,,,,
null,is flirting with,,html-keyboard-response,316,1150599,0.0-17.0-2.17,32083,List2B,black,woman,,,,null,,,,
6287,,,survey-text,317,1156888,0.0-17.0-3.17,32083,List2B,black,woman,,,,,"{""Q0"":""jane is flirting with luke""}","<img src=""stim_listB/flirt1.gif""style=""height:400px;""></stim_listB>",is flirting with,
null,"<div style=""font-size:60px;"">+</div>",,html-keyboard-response,318,1157400,0.0-17.0-0.18,32083,List2B,black,woman,,,,null,,,,
null,"<img src=""stim_listB/marry5.gif""style=""height:400px;""></stim_listB>",,html-keyboard-response,319,1159406,0.0-17.0-1.18,32083,List2B,black,woman,,,,null,,,,
null,is marrying,,html-keyboard-response,320,1161420,0.0-17.0-2.18,32083,List2B,black,woman,,,,null,,,,
7451,,,survey-text,321,1168873,0.0-17.0-3.18,32083,List2B,black,woman,,,,,"{""Q0"":""fred is marrying dave""}","<img src=""stim_listB/marry5.gif""style=""height:400px;""></stim_listB>",is marrying,
null,"<div style=""font-size:60px;"">+</div>",,html-keyboard-response,322,1169382,0.0-17.0-0.19,32083,List2B,black,woman,,,,null,,,,
null,"<img src=""stim_listB/shout4.gif""style=""height:400px;""></stim_listB>",,html-keyboard-response,323,1171389,0.0-17.0-1.19,32083,List2B,black,woman,,,,null,,,,
null,are shouting at each other,,html-keyboard-response,324,1173398,0.0-17.0-2.19,32083,List2B,black,woman,,,,null,,,,
7874,,,survey-text,325,1181274,0.0-17.0-3.19,32083,List2B,black,woman,,,,,"{""Q0"":""kate and mike are shouting at each other""}","<img src=""stim_listB/shout4.gif""style=""height:400px;""></stim_listB>",are shouting at each other,
2395,"<img src='img/portrait_matrix_list2.jpg' style='width:900px;height:500px;''></img><p>If you have memorised all the portraits and names and are ready to start, press Continue.</p><p><strong>Please note: Your memory of these faces will be tested 4 times during this experiment.</strong></p>",0,html-button-response,326,1183669,0.0-18.0-0.0,32083,List2B,black,woman,,,,,,,,
2085,"<img src=""portrait/BM1.jpg""style=""height:400px;""></img>",4,html-button-response,327,1186779,0.0-18.0-1.0,32083,List2B,black,woman,,TRUE,4,,,,,
null,CORRECT,,html-keyboard-response,328,1188300,0.0-18.0-2.0-0.0,32083,List2B,black,woman,,,,null,,,,
1413,"<img src=""portrait/WW2.jpg""style=""height:400px;""></img>",3,html-button-response,329,1189716,0.0-18.0-4.0,32083,List2B,black,woman,,TRUE,3,,,,,
null,CORRECT,,html-keyboard-response,330,1191248,0.0-18.0-5.0-0.0,32083,List2B,black,woman,,,,null,,,,
2467,"<img src=""portrait/WM1.jpg""style=""height:400px;""></img>",6,html-button-response,331,1193717,0.0-18.0-7.0,32083,List2B,black,woman,,TRUE,6,,,,,
null,CORRECT,,html-keyboard-response,332,1195235,0.0-18.0-8.0-0.0,32083,List2B,black,woman,,,,null,,,,
1403,"<img src=""portrait/BM2.jpg""style=""height:400px;""></img>",5,html-button-response,333,1196640,0.0-18.0-10.0,32083,List2B,black,woman,,TRUE,5,,,,,
null,CORRECT,,html-keyboard-response,334,1198175,0.0-18.0-11.0-0.0,32083,List2B,black,woman,,,,null,,,,
1739,"<img src=""portrait/WW1.jpg""style=""height:400px;""></img>",1,html-button-response,335,1199917,0.0-18.0-13.0,32083,List2B,black,woman,,TRUE,1,,,,,
null,CORRECT,,html-keyboard-response,336,1201442,0.0-18.0-14.0-0.0,32083,List2B,black,woman,,,,null,,,,
3886,"<img src=""portrait/WM2.jpg""style=""height:400px;""></img>",7,html-button-response,337,1205331,0.0-18.0-16.0,32083,List2B,black,woman,,TRUE,7,,,,,
null,CORRECT,,html-keyboard-response,338,1206844,0.0-18.0-17.0-0.0,32083,List2B,black,woman,,,,null,,,,
1793,"<img src=""portrait/BW2.jpg""style=""height:400px;""></img>",2,html-button-response,339,1208639,0.0-18.0-19.0,32083,List2B,black,woman,,TRUE,2,,,,,
null,CORRECT,,html-keyboard-response,340,1210150,0.0-18.0-20.0-0.0,32083,List2B,black,woman,,,,null,,,,
2193,"<img src=""portrait/BW1.jpg""style=""height:400px;""></img>",0,html-button-response,341,1212345,0.0-18.0-22.0,32083,List2B,black,woman,,TRUE,0,,,,,
null,CORRECT,,html-keyboard-response,342,1213861,0.0-18.0-23.0-0.0,32083,List2B,black,woman,,,,null,,,,
2333,<p>You got 8 out of 8 right first time. Press Continue.</p>,0,html-button-response,343,1216195,0.0-18.0-25.0,32083,List2B,black,woman,,,,,,,,
null,"<div style=""font-size:60px;"">+</div>",,html-keyboard-response,344,1217705,0.0-19.0-0.0,32083,List2B,black,woman,,,,null,,,,
null,"<img src=""stim_listB/flirt5.gif""style=""height:400px;""></stim_listB>",,html-keyboard-response,345,1219715,0.0-19.0-1.0,32083,List2B,black,woman,,,,null,,,,
null,is flirting with,,html-keyboard-response,346,1221729,0.0-19.0-2.0,32083,List2B,black,woman,,,,null,,,,
7785,,,survey-text,347,1229516,0.0-19.0-3.0,32083,List2B,black,woman,,,,,"{""Q0"":""luke is flirting with mike""}","<img src=""stim_listB/flirt5.gif""style=""height:400px;""></stim_listB>",is flirting with,
null,"<div style=""font-size:60px;"">+</div>",,html-keyboard-response,348,1230027,0.0-19.0-0.1,32083,List2B,black,woman,,,,null,,,,
null,"<img src=""stim_listB/touch4.gif""style=""height:400px;""></stim_listB>",,html-keyboard-response,349,1232032,0.0-19.0-1.1,32083,List2B,black,woman,,,,null,,,,
null,are touching each other,,html-keyboard-response,350,1234038,0.0-19.0-2.1,32083,List2B,black,woman,,,,null,,,,
8519,,,survey-text,351,1242560,0.0-19.0-3.1,32083,List2B,black,woman,,,,,"{""Q0"":""beth and fred are touching each other""}","<img src=""stim_listB/touch4.gif""style=""height:400px;""></stim_listB>",are touching each other,
null,"<div style=""font-size:60px;"">+</div>",,html-keyboard-response,352,1243071,0.0-19.0-0.2,32083,List2B,black,woman,,,,null,,,,
null,"<img src=""stim_listB/fight7.gif""style=""height:400px;""></stim_listB>",,html-keyboard-response,353,1245078,0.0-19.0-1.2,32083,List2B,black,woman,,,,null,,,,
null,is fighting,,html-keyboard-response,354,1247093,0.0-19.0-2.2,32083,List2B,black,woman,,,,null,,,,
4769,,,survey-text,355,1251864,0.0-19.0-3.2,32083,List2B,black,woman,,,,,"{""Q0"":""jane is fighitng kate""}","<img src=""stim_listB/fight7.gif""style=""height:400px;""></stim_listB>",is fighting,
null,"<div style=""font-size:60px;"">+</div>",,html-keyboard-response,356,1252367,0.0-19.0-0.3,32083,List2B,black,woman,,,,null,,,,
null,"<img src=""stim_listB/flirt3.gif""style=""height:400px;""></stim_listB>",,html-keyboard-response,357,1254374,0.0-19.0-1.3,32083,List2B,black,woman,,,,null,,,,
null,is flirting with,,html-keyboard-response,358,1256375,0.0-19.0-2.3,32083,List2B,black,woman,,,,null,,,,
15775,,,survey-text,359,1272154,0.0-19.0-3.3,32083,List2B,black,woman,,,,,"{""Q0"":""kate is flirting with fred""}","<img src=""stim_listB/flirt3.gif""style=""height:400px;""></stim_listB>",is flirting with,
null,"<div style=""font-size:60px;"">+</div>",,html-keyboard-response,360,1272661,0.0-19.0-0.4,32083,List2B,black,woman,,,,null,,,,
null,"<img src=""stim_listB/fight6.gif""style=""height:400px;""></stim_listB>",,html-keyboard-response,361,1274669,0.0-19.0-1.4,32083,List2B,black,woman,,,,null,,,,
null,are fighting each other,,html-keyboard-response,362,1276694,0.0-19.0-2.4,32083,List2B,black,woman,,,,null,,,,
17390,,,survey-text,363,1294086,0.0-19.0-3.4,32083,List2B,black,woman,,,,,"{""Q0"":""mike and fred are fighting each other""}","<img src=""stim_listB/fight6.gif""style=""height:400px;""></stim_listB>",are fighting each other,
null,"<div style=""font-size:60px;"">+</div>",,html-keyboard-response,364,1294590,0.0-19.0-0.5,32083,List2B,black,woman,,,,null,,,,
null,"<img src=""stim_listB/kiss6.gif""style=""height:400px;""></stim_listB>",,html-keyboard-response,365,1296604,0.0-19.0-1.5,32083,List2B,black,woman,,,,null,,,,
null,are kissing each other,,html-keyboard-response,366,1298621,0.0-19.0-2.5,32083,List2B,black,woman,,,,null,,,,
7551,,,survey-text,367,1306174,0.0-19.0-3.5,32083,List2B,black,woman,,,,,"{""Q0"":""mike and fred are kissing each other""}","<img src=""stim_listB/kiss6.gif""style=""height:400px;""></stim_listB>",are kissing each other,
null,"<div style=""font-size:60px;"">+</div>",,html-keyboard-response,368,1306696,0.0-19.0-0.6,32083,List2B,black,woman,,,,null,,,,
null,"<img src=""stim_listB/touch7.gif""style=""height:400px;""></stim_listB>",,html-keyboard-response,369,1308702,0.0-19.0-1.6,32083,List2B,black,woman,,,,null,,,,
null,is touching,,html-keyboard-response,370,1310719,0.0-19.0-2.6,32083,List2B,black,woman,,,,null,,,,
4866,,,survey-text,371,1315586,0.0-19.0-3.6,32083,List2B,black,woman,,,,,"{""Q0"":""kate is touching jane""}","<img src=""stim_listB/touch7.gif""style=""height:400px;""></stim_listB>",is touching,
null,"<div style=""font-size:60px;"">+</div>",,html-keyboard-response,372,1316105,0.0-19.0-0.7,32083,List2B,black,woman,,,,null,,,,
null,"<img src=""stim_listB/kiss4.gif""style=""height:400px;""></stim_listB>",,html-keyboard-response,373,1318111,0.0-19.0-1.7,32083,List2B,black,woman,,,,null,,,,
null,are kissing each other,,html-keyboard-response,374,1320130,0.0-19.0-2.7,32083,List2B,black,woman,,,,null,,,,
7041,,,survey-text,375,1327172,0.0-19.0-3.7,32083,List2B,black,woman,,,,,"{""Q0"":""mike and kate are kissing each other""}","<img src=""stim_listB/kiss4.gif""style=""height:400px;""></stim_listB>",are kissing each other,
null,"<div style=""font-size:60px;"">+</div>",,html-keyboard-response,376,1327678,0.0-19.0-0.8,32083,List2B,black,woman,,,,null,,,,
null,"<img src=""stim_listB/fight5.gif""style=""height:400px;""></stim_listB>",,html-keyboard-response,377,1329691,0.0-19.0-1.8,32083,List2B,black,woman,,,,null,,,,
null,is fighting,,html-keyboard-response,378,1331704,0.0-19.0-2.8,32083,List2B,black,woman,,,,null,,,,
6866,,,survey-text,379,1338571,0.0-19.0-3.8,32083,List2B,black,woman,,,,,"{""Q0"":""mike is fighting fred""}","<img src=""stim_listB/fight5.gif""style=""height:400px;""></stim_listB>",is fighting,
null,"<div style=""font-size:60px;"">+</div>",,html-keyboard-response,380,1339086,0.0-19.0-0.9,32083,List2B,black,woman,,,,null,,,,
null,"<img src=""stim_listB/dance8.gif""style=""height:400px;""></stim_listB>",,html-keyboard-response,381,1341090,0.0-19.0-1.9,32083,List2B,black,woman,,,,null,,,,
null,are dancing with each other,,html-keyboard-response,382,1343104,0.0-19.0-2.9,32083,List2B,black,woman,,,,null,,,,
7152,,,survey-text,383,1350257,0.0-19.0-3.9,32083,List2B,black,woman,,,,,"{""Q0"":""beth and jane are dancing with each other""}","<img src=""stim_listB/dance8.gif""style=""height:400px;""></stim_listB>",are dancing with each other,
null,"<div style=""font-size:60px;"">+</div>",,html-keyboard-response,384,1350761,0.0-19.0-0.10,32083,List2B,black,woman,,,,null,,,,
null,"<img src=""stim_listB/talk6.gif""style=""height:400px;""></stim_listB>",,html-keyboard-response,385,1352766,0.0-19.0-1.10,32083,List2B,black,woman,,,,null,,,,
null,are talking to each other,,html-keyboard-response,386,1354777,0.0-19.0-2.10,32083,List2B,black,woman,,,,null,,,,
10007,,,survey-text,387,1364787,0.0-19.0-3.10,32083,List2B,black,woman,,,,,"{""Q0"":""fred and dave are talking to each other""}","<img src=""stim_listB/talk6.gif""style=""height:400px;""></stim_listB>",are talking to each other,
null,"<div style=""font-size:60px;"">+</div>",,html-keyboard-response,388,1365313,0.0-19.0-0.11,32083,List2B,black,woman,,,,null,,,,
null,"<img src=""stim_listB/fight2.gif""style=""height:400px;""></stim_listB>",,html-keyboard-response,389,1367316,0.0-19.0-1.11,32083,List2B,black,woman,,,,null,,,,
null,are fighting each other,,html-keyboard-response,390,1369320,0.0-19.0-2.11,32083,List2B,black,woman,,,,null,,,,
11175,,,survey-text,391,1380496,0.0-19.0-3.11,32083,List2B,black,woman,,,,,"{""Q0"":""ruth and luke are fighting with each other""}","<img src=""stim_listB/fight2.gif""style=""height:400px;""></stim_listB>",are fighting each other,
null,"<div style=""font-size:60px;"">+</div>",,html-keyboard-response,392,1381005,0.0-19.0-0.12,32083,List2B,black,woman,,,,null,,,,
null,"<img src=""stim_listB/argue7.gif""style=""height:400px;""></stim_listB>",,html-keyboard-response,393,1383008,0.0-19.0-1.12,32083,List2B,black,woman,,,,null,,,,
null,is arguing with,,html-keyboard-response,394,1385020,0.0-19.0-2.12,32083,List2B,black,woman,,,,null,,,,
39982,,,survey-text,395,1425003,0.0-19.0-3.12,32083,List2B,black,woman,,,,,"{""Q0"":""beth is flirting with fred""}","<img src=""stim_listB/argue7.gif""style=""height:400px;""></stim_listB>",is arguing with,
null,"<div style=""font-size:60px;"">+</div>",,html-keyboard-response,396,1425517,0.0-19.0-0.13,32083,List2B,black,woman,,,,null,,,,
null,"<img src=""stim_listB/dance6.gif""style=""height:400px;""></stim_listB>",,html-keyboard-response,397,1427521,0.0-19.0-1.13,32083,List2B,black,woman,,,,null,,,,
null,are dancing with each other,,html-keyboard-response,398,1429537,0.0-19.0-2.13,32083,List2B,black,woman,,,,null,,,,
8383,,,survey-text,399,1437922,0.0-19.0-3.13,32083,List2B,black,woman,,,,,"{""Q0"":""fred and dave are dancing with each other""}","<img src=""stim_listB/dance6.gif""style=""height:400px;""></stim_listB>",are dancing with each other,
null,"<div style=""font-size:60px;"">+</div>",,html-keyboard-response,400,1438448,0.0-19.0-0.14,32083,List2B,black,woman,,,,null,,,,
null,"<img src=""stim_listB/argue3.gif""style=""height:400px;""></stim_listB>",,html-keyboard-response,401,1440452,0.0-19.0-1.14,32083,List2B,black,woman,,,,null,,,,
null,is arguing with,,html-keyboard-response,402,1442464,0.0-19.0-2.14,32083,List2B,black,woman,,,,null,,,,
7462,,,survey-text,403,1449927,0.0-19.0-3.14,32083,List2B,black,woman,,,,,"{""Q0"":""mike is arguing with beth""}","<img src=""stim_listB/argue3.gif""style=""height:400px;""></stim_listB>",is arguing with,
null,"<div style=""font-size:60px;"">+</div>",,html-keyboard-response,404,1450434,0.0-19.0-0.15,32083,List2B,black,woman,,,,null,,,,
null,"<img src=""stim_listB/dance2.gif""style=""height:400px;""></stim_listB>",,html-keyboard-response,405,1452449,0.0-19.0-1.15,32083,List2B,black,woman,,,,null,,,,
null,are dancing with each other,,html-keyboard-response,406,1454452,0.0-19.0-2.15,32083,List2B,black,woman,,,,null,,,,
8905,,,survey-text,407,1463358,0.0-19.0-3.15,32083,List2B,black,woman,,,,,"{""Q0"":""ruth and dave are dancing with each other""}","<img src=""stim_listB/dance2.gif""style=""height:400px;""></stim_listB>",are dancing with each other,
null,"<div style=""font-size:60px;"">+</div>",,html-keyboard-response,408,1463863,0.0-19.0-0.16,32083,List2B,black,woman,,,,null,,,,
null,"<img src=""stim_listB/play8.gif""style=""height:400px;""></stim_listB>",,html-keyboard-response,409,1465870,0.0-19.0-1.16,32083,List2B,black,woman,,,,null,,,,
null,are playing with each other,,html-keyboard-response,410,1467885,0.0-19.0-2.16,32083,List2B,black,woman,,,,null,,,,
8590,,,survey-text,411,1476476,0.0-19.0-3.16,32083,List2B,black,woman,,,,,"{""Q0"":""beth and ruth are playing with each other""}","<img src=""stim_listB/play8.gif""style=""height:400px;""></stim_listB>",are playing with each other,
null,"<div style=""font-size:60px;"">+</div>",,html-keyboard-response,412,1476994,0.0-19.0-0.17,32083,List2B,black,woman,,,,null,,,,
null,"<img src=""stim_listB/shout7.gif""style=""height:400px;""></stim_listB>",,html-keyboard-response,413,1478998,0.0-19.0-1.17,32083,List2B,black,woman,,,,null,,,,
null,is shouting at,,html-keyboard-response,414,1481001,0.0-19.0-2.17,32083,List2B,black,woman,,,,null,,,,
11025,,,survey-text,415,1492029,0.0-19.0-3.17,32083,List2B,black,woman,,,,,"{""Q0"":""ruth is shouting at beth""}","<img src=""stim_listB/shout7.gif""style=""height:400px;""></stim_listB>",is shouting at,
null,"<div style=""font-size:60px;"">+</div>",,html-keyboard-response,416,1492534,0.0-19.0-0.18,32083,List2B,black,woman,,,,null,,,,
null,"<img src=""stim_listB/talk7.gif""style=""height:400px;""></stim_listB>",,html-keyboard-response,417,1494551,0.0-19.0-1.18,32083,List2B,black,woman,,,,null,,,,
null,is talking to,,html-keyboard-response,418,1496569,0.0-19.0-2.18,32083,List2B,black,woman,,,,null,,,,
9049,,,survey-text,419,1505621,0.0-19.0-3.18,32083,List2B,black,woman,,,,,"{""Q0"":""kate is talking to ruth""}","<img src=""stim_listB/talk7.gif""style=""height:400px;""></stim_listB>",is talking to,
null,"<div style=""font-size:60px;"">+</div>",,html-keyboard-response,420,1506138,0.0-19.0-0.19,32083,List2B,black,woman,,,,null,,,,
null,"<img src=""stim_listB/talk5.gif""style=""height:400px;""></stim_listB>",,html-keyboard-response,421,1508142,0.0-19.0-1.19,32083,List2B,black,woman,,,,null,,,,
null,is talking to,,html-keyboard-response,422,1510158,0.0-19.0-2.19,32083,List2B,black,woman,,,,null,,,,
5217,,,survey-text,423,1515376,0.0-19.0-3.19,32083,List2B,black,woman,,,,,"{""Q0"":""mike is talking to luke""}","<img src=""stim_listB/talk5.gif""style=""height:400px;""></stim_listB>",is talking to,
2023,<p>Thank you for completing that task.</p><p>The final part of this session is a short questionnaire.</p><p>Press Continue.</p>,0,html-button-response,424,1517400,0.0-20.0,32083,List2B,black,woman,,,,,,,,
19573,,,survey-text,425,1537993,0.0-21.0,32083,List2B,black,woman,,,,,"{""Q0"":""24"",""Q1"":""english"",""Q2"":""english"",""Q3"":""united states"",""Q4"":""Black"",""Q5"":""Woman""}",,,demographics
6391,,,survey-likert,426,1544386,0.0-22.0,32083,List2B,black,woman,,,,,"{""Q0"":4}",,,likert_ESS
4005,,,survey-likert,427,1548396,0.0-23.0,32083,List2B,black,woman,,,,,"{""Q0"":4}",,,likert_NSSAL_Q1
4837,,,survey-likert,428,1553239,0.0-24.0,32083,List2B,black,woman,,,,,"{""Q0"":4}",,,likert_NSSAL_Q2
3831,,,survey-likert,429,1557075,0.0-25.0,32083,List2B,black,woman,,,,,"{""Q0"":5}",,,likert_CGRS_Q1
2744,,,survey-likert,430,1559825,0.0-26.0,32083,List2B,black,woman,,,,,"{""Q0"":5}",,,likert_CGRS_Q2
3733,,,survey-likert,431,1563563,0.0-27.0,32083,List2B,black,woman,,,,,"{""Q0"":5}",,,likert_CGRS_Q3
8567,,,survey-text,432,1572135,0.0-28.0,32083,List2B,black,woman,,,,,"{""Q0"":""ccc""}",,,worker_id
6653,,,external-html,433,1579530,0.0-29.0,32083,List2B,black,woman,debrief.html,,,,,,,
