rt,stimulus,button_pressed,trial_type,trial_index,time_elapsed,internal_node_id,subject,list,ppt_race,ppt_gender,url,first_guess,correct,key_press,responses,image_type,phrase_type,test_part
154759,Welcome to the experiment. Press Continue to begin.,0,html-button-response,0,154765,0.0-0.0,32774,List2B,white,man,,,,,,,,
84658,,,external-html,1,240747,0.0-1.0,32774,List2B,white,man,consent.html,,,,,,,
15004,"<p>On the next page, you will see portraits of 8 people and their names.</p><p>Your first task is to take a few minutes to memorise the names of these people.</p><p>You will have to recall their names during the rest of the experiment, so it is</p><p>essential that you try to memorise these people and their names as best as you can.</p><br><p><strong>You will then be tested on your memory of these names and portraits.</strong></p><br><p>The experiment will start after you have completed this memory test.</p><br><p>Ready?</p>",0,html-button-response,2,255754,0.0-2.0,32774,List2B,white,man,,,,,,,,
135382,"<img src='img/portrait_matrix_list2.jpg' style='width:900px;height:500px;''></img><p>If you have memorised all the portraits and names and are ready to start, press Continue.</p><p><strong>Please note: Your memory of these faces will be tested 4 times during this experiment.</strong></p>",0,html-button-response,3,392139,0.0-3.0-0.0,32774,List2B,white,man,,,,,,,,
40844,"<img src=""portrait/WW2.jpg""style=""height:400px;""></img>",3,html-button-response,4,433989,0.0-3.0-1.0,32774,List2B,white,man,,TRUE,3,,,,,
null,CORRECT,,html-keyboard-response,5,435495,0.0-3.0-2.0-0.0,32774,List2B,white,man,,,,null,,,,
11486,"<img src=""portrait/WM1.jpg""style=""height:400px;""></img>",6,html-button-response,6,446985,0.0-3.0-4.0,32774,List2B,white,man,,TRUE,6,,,,,
null,CORRECT,,html-keyboard-response,7,448487,0.0-3.0-5.0-0.0,32774,List2B,white,man,,,,null,,,,
17173,"<img src=""portrait/BW2.jpg""style=""height:400px;""></img>",0,html-button-response,8,465662,0.0-3.0-7.0,32774,List2B,white,man,,TRUE,2,,,,,
11731,"<img src=""portrait/BW2.jpg""style=""height:400px;""></img>",2,html-button-response,9,478397,0.0-3.0-9.0-0.0,32774,List2B,white,man,,FALSE,2,,,,,
null,CORRECT,,html-keyboard-response,10,479900,0.0-3.0-9.0-1.0-0.0,32774,List2B,white,man,,,,null,,,,
10176,"<img src=""portrait/BM1.jpg""style=""height:400px;""></img>",4,html-button-response,11,490078,0.0-3.0-10.0,32774,List2B,white,man,,TRUE,4,,,,,
null,CORRECT,,html-keyboard-response,12,491580,0.0-3.0-11.0-0.0,32774,List2B,white,man,,,,null,,,,
13672,"<img src=""portrait/WM2.jpg""style=""height:400px;""></img>",7,html-button-response,13,505255,0.0-3.0-13.0,32774,List2B,white,man,,TRUE,7,,,,,
null,CORRECT,,html-keyboard-response,14,506757,0.0-3.0-14.0-0.0,32774,List2B,white,man,,,,null,,,,
6808,"<img src=""portrait/BW1.jpg""style=""height:400px;""></img>",0,html-button-response,15,513567,0.0-3.0-16.0,32774,List2B,white,man,,TRUE,0,,,,,
null,CORRECT,,html-keyboard-response,16,515069,0.0-3.0-17.0-0.0,32774,List2B,white,man,,,,null,,,,
12320,"<img src=""portrait/BM2.jpg""style=""height:400px;""></img>",4,html-button-response,17,527391,0.0-3.0-19.0,32774,List2B,white,man,,TRUE,5,,,,,
2723,"<img src=""portrait/BM2.jpg""style=""height:400px;""></img>",5,html-button-response,18,531118,0.0-3.0-21.0-0.0,32774,List2B,white,man,,FALSE,5,,,,,
null,CORRECT,,html-keyboard-response,19,532620,0.0-3.0-21.0-1.0-0.0,32774,List2B,white,man,,,,null,,,,
8820,"<img src=""portrait/WW1.jpg""style=""height:400px;""></img>",1,html-button-response,20,541443,0.0-3.0-22.0,32774,List2B,white,man,,TRUE,1,,,,,
null,CORRECT,,html-keyboard-response,21,542945,0.0-3.0-23.0-0.0,32774,List2B,white,man,,,,null,,,,
2782,<p>You got 6 out of 8 right first time. Press Continue.</p>,0,html-button-response,22,545730,0.0-3.0-25.0,32774,List2B,white,man,,,,,,,,
3356,"As you did not score 100%, the memory game will repeat. Press Continue.",0,html-button-response,23,550088,0.0-3.0-26.0-0.0,32774,List2B,white,man,,,,,,,,
19213,"<img src='img/portrait_matrix_list2.jpg' style='width:900px;height:500px;''></img><p>If you have memorised all the portraits and names and are ready to start, press Continue.</p><p><strong>Please note: Your memory of these faces will be tested 4 times during this experiment.</strong></p>",0,html-button-response,24,570307,0.0-3.1-0.1,32774,List2B,white,man,,,,,,,,
4836,"<img src=""portrait/WW2.jpg""style=""height:400px;""></img>",3,html-button-response,25,576146,0.0-3.1-1.1,32774,List2B,white,man,,TRUE,3,,,,,
null,CORRECT,,html-keyboard-response,26,577648,0.0-3.1-2.1-0.1,32774,List2B,white,man,,,,null,,,,
5841,"<img src=""portrait/WM1.jpg""style=""height:400px;""></img>",6,html-button-response,27,583493,0.0-3.1-4.1,32774,List2B,white,man,,TRUE,6,,,,,
null,CORRECT,,html-keyboard-response,28,584995,0.0-3.1-5.1-0.1,32774,List2B,white,man,,,,null,,,,
10145,"<img src=""portrait/BW2.jpg""style=""height:400px;""></img>",2,html-button-response,29,595142,0.0-3.1-7.1,32774,List2B,white,man,,TRUE,2,,,,,
null,CORRECT,,html-keyboard-response,30,596645,0.0-3.1-8.1-0.1,32774,List2B,white,man,,,,null,,,,
7232,"<img src=""portrait/BM1.jpg""style=""height:400px;""></img>",5,html-button-response,31,603880,0.0-3.1-10.1,32774,List2B,white,man,,TRUE,4,,,,,
1867,"<img src=""portrait/BM1.jpg""style=""height:400px;""></img>",4,html-button-response,32,606751,0.0-3.1-12.1-0.1,32774,List2B,white,man,,FALSE,4,,,,,
null,CORRECT,,html-keyboard-response,33,608253,0.0-3.1-12.1-1.1-0.1,32774,List2B,white,man,,,,null,,,,
10627,"<img src=""portrait/WM2.jpg""style=""height:400px;""></img>",7,html-button-response,34,618882,0.0-3.1-13.1,32774,List2B,white,man,,TRUE,7,,,,,
null,CORRECT,,html-keyboard-response,35,620383,0.0-3.1-14.1-0.1,32774,List2B,white,man,,,,null,,,,
10511,"<img src=""portrait/BW1.jpg""style=""height:400px;""></img>",0,html-button-response,36,630897,0.0-3.1-16.1,32774,List2B,white,man,,TRUE,0,,,,,
null,CORRECT,,html-keyboard-response,37,632399,0.0-3.1-17.1-0.1,32774,List2B,white,man,,,,null,,,,
7423,"<img src=""portrait/BM2.jpg""style=""height:400px;""></img>",5,html-button-response,38,639824,0.0-3.1-19.1,32774,List2B,white,man,,TRUE,5,,,,,
null,CORRECT,,html-keyboard-response,39,641326,0.0-3.1-20.1-0.1,32774,List2B,white,man,,,,null,,,,
13540,"<img src=""portrait/WW1.jpg""style=""height:400px;""></img>",1,html-button-response,40,654868,0.0-3.1-22.1,32774,List2B,white,man,,TRUE,1,,,,,
null,CORRECT,,html-keyboard-response,41,656370,0.0-3.1-23.1-0.1,32774,List2B,white,man,,,,null,,,,
2397,<p>You got 7 out of 8 right first time. Press Continue.</p>,0,html-button-response,42,658768,0.0-3.1-25.1,32774,List2B,white,man,,,,,,,,
2505,"As you did not score 100%, the memory game will repeat. Press Continue.",0,html-button-response,43,662275,0.0-3.1-26.1-0.1,32774,List2B,white,man,,,,,,,,
5031,"<img src='img/portrait_matrix_list2.jpg' style='width:900px;height:500px;''></img><p>If you have memorised all the portraits and names and are ready to start, press Continue.</p><p><strong>Please note: Your memory of these faces will be tested 4 times during this experiment.</strong></p>",0,html-button-response,44,668309,0.0-3.2-0.2,32774,List2B,white,man,,,,,,,,
4184,"<img src=""portrait/WW2.jpg""style=""height:400px;""></img>",3,html-button-response,45,673497,0.0-3.2-1.2,32774,List2B,white,man,,TRUE,3,,,,,
null,CORRECT,,html-keyboard-response,46,674999,0.0-3.2-2.2-0.2,32774,List2B,white,man,,,,null,,,,
7678,"<img src=""portrait/WM1.jpg""style=""height:400px;""></img>",6,html-button-response,47,682679,0.0-3.2-4.2,32774,List2B,white,man,,TRUE,6,,,,,
null,CORRECT,,html-keyboard-response,48,684181,0.0-3.2-5.2-0.2,32774,List2B,white,man,,,,null,,,,
7226,"<img src=""portrait/BW2.jpg""style=""height:400px;""></img>",2,html-button-response,49,691410,0.0-3.2-7.2,32774,List2B,white,man,,TRUE,2,,,,,
null,CORRECT,,html-keyboard-response,50,692912,0.0-3.2-8.2-0.2,32774,List2B,white,man,,,,null,,,,
10928,"<img src=""portrait/BM1.jpg""style=""height:400px;""></img>",4,html-button-response,51,703842,0.0-3.2-10.2,32774,List2B,white,man,,TRUE,4,,,,,
null,CORRECT,,html-keyboard-response,52,705344,0.0-3.2-11.2-0.2,32774,List2B,white,man,,,,null,,,,
6404,"<img src=""portrait/WM2.jpg""style=""height:400px;""></img>",7,html-button-response,53,711751,0.0-3.2-13.2,32774,List2B,white,man,,TRUE,7,,,,,
null,CORRECT,,html-keyboard-response,54,713255,0.0-3.2-14.2-0.2,32774,List2B,white,man,,,,null,,,,
12301,"<img src=""portrait/BW1.jpg""style=""height:400px;""></img>",0,html-button-response,55,725558,0.0-3.2-16.2,32774,List2B,white,man,,TRUE,0,,,,,
null,CORRECT,,html-keyboard-response,56,727059,0.0-3.2-17.2-0.2,32774,List2B,white,man,,,,null,,,,
4810,"<img src=""portrait/BM2.jpg""style=""height:400px;""></img>",5,html-button-response,57,731872,0.0-3.2-19.2,32774,List2B,white,man,,TRUE,5,,,,,
null,CORRECT,,html-keyboard-response,58,733375,0.0-3.2-20.2-0.2,32774,List2B,white,man,,,,null,,,,
12389,"<img src=""portrait/WW1.jpg""style=""height:400px;""></img>",1,html-button-response,59,745766,0.0-3.2-22.2,32774,List2B,white,man,,TRUE,1,,,,,
null,CORRECT,,html-keyboard-response,60,747268,0.0-3.2-23.2-0.2,32774,List2B,white,man,,,,null,,,,
1904,<p>You got 8 out of 8 right first time. Press Continue.</p>,0,html-button-response,61,749174,0.0-3.2-25.2,32774,List2B,white,man,,,,,,,,
53139,"<p>In this experiment, you will view photographs of the people from the memory game interacting.</p><p>By using the <strong>exact</strong> phrase given <i>after</i> the photograph appears and recalling the correct names of the people in the photographs, form a sentence describing the interaction. You do not need to capitalise names.</p><p>Type your answer in the space provided. Please complete every sentence before moving onto the next trial.</p><p>You will only have a few seconds to memorise each given photograph and phrase before you can respond, so try your best to focus.</p><p>An example is given below. Press 'Continue' when you are ready.</p><img src='img/speaking_example.jpg' style='width:800px;height:460px;''></img>",0,html-button-response,62,803315,0.0-4.0,32774,List2B,white,man,,,,,,,,
2671,"<p>Before the experiment starts, you will watch two example trials. Press 'Continue'.</p>",0,html-button-response,63,806988,0.0-5.0,32774,List2B,white,man,,,,,,,,
null,<img src='img/meet_eg.gif' style='height:400px;''></img>,,html-keyboard-response,64,809991,0.0-6.0,32774,List2B,white,man,,,,null,,,,
null,<p>is meeting</p>,,html-keyboard-response,65,811992,0.0-7.0,32774,List2B,white,man,,,,null,,,,
4214,<p><b>Answer:</b> jane is meeting ruth</p>,0,html-button-response,66,816207,0.0-8.0,32774,List2B,white,man,,,,,,,,
null,<img src='img/look_eg.gif' style='height:400px;''></img>,,html-keyboard-response,67,819209,0.0-9.0,32774,List2B,white,man,,,,null,,,,
null,<p>are looking at each other</p>,,html-keyboard-response,68,821210,0.0-10.0,32774,List2B,white,man,,,,null,,,,
4234,<p><b>Answer:</b> fred and mike are looking at each other</p>,0,html-button-response,69,825446,0.0-11.0,32774,List2B,white,man,,,,,,,,
7991,"<p>Ready to start the experiment?</p><br><p><strong>Remember to describe the picture using a full sentence,</strong></p><p><strong>that combines the names of the people with the <i>exact</i> phrase given.</strong></p><p><strong>To receive full payment you must do this correctly.</strong></p><p><strong> You do not need to capitalise names or use punctuation.</strong></p><br><p>Press 'Continue' to begin.</p>",0,html-button-response,70,834439,0.0-12.0,32774,List2B,white,man,,,,,,,,
null,"<div style=""font-size:60px;"">+</div>",,html-keyboard-response,71,835941,0.0-13.0-0.0,32774,List2B,white,man,,,,null,,,,
null,"<img src=""stim_listB/shout3.gif""style=""height:400px;""></stim_listB>",,html-keyboard-response,72,837944,0.0-13.0-1.0,32774,List2B,white,man,,,,null,,,,
null,is shouting at,,html-keyboard-response,73,839945,0.0-13.0-2.0,32774,List2B,white,man,,,,null,,,,
24673,,,survey-text,74,864619,0.0-13.0-3.0,32774,List2B,white,man,,,,,"{""Q0"":""fred is shouting at beth""}","<img src=""stim_listB/shout3.gif""style=""height:400px;""></stim_listB>",is shouting at,
null,"<div style=""font-size:60px;"">+</div>",,html-keyboard-response,75,865122,0.0-13.0-0.1,32774,List2B,white,man,,,,null,,,,
null,"<img src=""stim_listB/touch3.gif""style=""height:400px;""></stim_listB>",,html-keyboard-response,76,867124,0.0-13.0-1.1,32774,List2B,white,man,,,,null,,,,
null,is touching,,html-keyboard-response,77,869125,0.0-13.0-2.1,32774,List2B,white,man,,,,null,,,,
29405,,,survey-text,78,898532,0.0-13.0-3.1,32774,List2B,white,man,,,,,"{""Q0"":""kate is touching mike""}","<img src=""stim_listB/touch3.gif""style=""height:400px;""></stim_listB>",is touching,
null,"<div style=""font-size:60px;"">+</div>",,html-keyboard-response,79,899034,0.0-13.0-0.2,32774,List2B,white,man,,,,null,,,,
null,"<img src=""stim_listB/talk1.gif""style=""height:400px;""></stim_listB>",,html-keyboard-response,80,901037,0.0-13.0-1.2,32774,List2B,white,man,,,,null,,,,
null,is talking to,,html-keyboard-response,81,903038,0.0-13.0-2.2,32774,List2B,white,man,,,,null,,,,
16444,,,survey-text,82,919484,0.0-13.0-3.2,32774,List2B,white,man,,,,,"{""Q0"":""jane is talking to luke""}","<img src=""stim_listB/talk1.gif""style=""height:400px;""></stim_listB>",is talking to,
null,"<div style=""font-size:60px;"">+</div>",,html-keyboard-response,83,919985,0.0-13.0-0.3,32774,List2B,white,man,,,,null,,,,
null,"<img src=""stim_listB/shout2.gif""style=""height:400px;""></stim_listB>",,html-keyboard-response,84,921988,0.0-13.0-1.3,32774,List2B,white,man,,,,null,,,,
null,are shouting at each other,,html-keyboard-response,85,923990,0.0-13.0-2.3,32774,List2B,white,man,,,,null,,,,
22800,,,survey-text,86,946791,0.0-13.0-3.3,32774,List2B,white,man,,,,,"{""Q0"":""jane is talking to dave""}","<img src=""stim_listB/shout2.gif""style=""height:400px;""></stim_listB>",are shouting at each other,
null,"<div style=""font-size:60px;"">+</div>",,html-keyboard-response,87,947293,0.0-13.0-0.4,32774,List2B,white,man,,,,null,,,,
null,"<img src=""stim_listB/kiss6.gif""style=""height:400px;""></stim_listB>",,html-keyboard-response,88,949296,0.0-13.0-1.4,32774,List2B,white,man,,,,null,,,,
null,are kissing each other,,html-keyboard-response,89,951297,0.0-13.0-2.4,32774,List2B,white,man,,,,null,,,,
19400,,,survey-text,90,970698,0.0-13.0-3.4,32774,List2B,white,man,,,,,"{""Q0"":""mike is kissing dave""}","<img src=""stim_listB/kiss6.gif""style=""height:400px;""></stim_listB>",are kissing each other,
null,"<div style=""font-size:60px;"">+</div>",,html-keyboard-response,91,971200,0.0-13.0-0.5,32774,List2B,white,man,,,,null,,,,
null,"<img src=""stim_listB/talk3.gif""style=""height:400px;""></stim_listB>",,html-keyboard-response,92,973203,0.0-13.0-1.5,32774,List2B,white,man,,,,null,,,,
null,is talking to,,html-keyboard-response,93,975204,0.0-13.0-2.5,32774,List2B,white,man,,,,null,,,,
46327,,,survey-text,94,1021532,0.0-13.0-3.5,32774,List2B,white,man,,,,,"{""Q0"":""kate is talking to jane""}","<img src=""stim_listB/talk3.gif""style=""height:400px;""></stim_listB>",is talking to,
null,"<div style=""font-size:60px;"">+</div>",,html-keyboard-response,95,1022034,0.0-13.0-0.6,32774,List2B,white,man,,,,null,,,,
null,"<img src=""stim_listB/kiss8.gif""style=""height:400px;""></stim_listB>",,html-keyboard-response,96,1024038,0.0-13.0-1.6,32774,List2B,white,man,,,,null,,,,
null,are kissing each other,,html-keyboard-response,97,1026039,0.0-13.0-2.6,32774,List2B,white,man,,,,null,,,,
19811,,,survey-text,98,1045851,0.0-13.0-3.6,32774,List2B,white,man,,,,,"{""Q0"":""kate is kissing jane""}","<img src=""stim_listB/kiss8.gif""style=""height:400px;""></stim_listB>",are kissing each other,
null,"<div style=""font-size:60px;"">+</div>",,html-keyboard-response,99,1046352,0.0-13.0-0.7,32774,List2B,white,man,,,,null,,,,
null,"<img src=""stim_listB/talk4.gif""style=""height:400px;""></stim_listB>",,html-keyboard-response,100,1048355,0.0-13.0-1.7,32774,List2B,white,man,,,,null,,,,
null,are talking to each other,,html-keyboard-response,101,1050357,0.0-13.0-2.7,32774,List2B,white,man,,,,null,,,,
24096,,,survey-text,102,1074454,0.0-13.0-3.7,32774,List2B,white,man,,,,,"{""Q0"":""beth is talking to mike""}","<img src=""stim_listB/talk4.gif""style=""height:400px;""></stim_listB>",are talking to each other,
null,"<div style=""font-size:60px;"">+</div>",,html-keyboard-response,103,1074955,0.0-13.0-0.8,32774,List2B,white,man,,,,null,,,,
null,"<img src=""stim_listB/marry8.gif""style=""height:400px;""></stim_listB>",,html-keyboard-response,104,1076958,0.0-13.0-1.8,32774,List2B,white,man,,,,null,,,,
null,are marrying each other,,html-keyboard-response,105,1078960,0.0-13.0-2.8,32774,List2B,white,man,,,,null,,,,
28062,,,survey-text,106,1107022,0.0-13.0-3.8,32774,List2B,white,man,,,,,"{""Q0"":""kate is marring jane""}","<img src=""stim_listB/marry8.gif""style=""height:400px;""></stim_listB>",are marrying each other,
null,"<div style=""font-size:60px;"">+</div>",,html-keyboard-response,107,1107523,0.0-13.0-0.9,32774,List2B,white,man,,,,null,,,,
null,"<img src=""stim_listB/dance6.gif""style=""height:400px;""></stim_listB>",,html-keyboard-response,108,1109527,0.0-13.0-1.9,32774,List2B,white,man,,,,null,,,,
null,are dancing with each other,,html-keyboard-response,109,1111528,0.0-13.0-2.9,32774,List2B,white,man,,,,null,,,,
33505,,,survey-text,110,1145034,0.0-13.0-3.9,32774,List2B,white,man,,,,,"{""Q0"":""dave is dancing with fred""}","<img src=""stim_listB/dance6.gif""style=""height:400px;""></stim_listB>",are dancing with each other,
null,"<div style=""font-size:60px;"">+</div>",,html-keyboard-response,111,1145536,0.0-13.0-0.10,32774,List2B,white,man,,,,null,,,,
null,"<img src=""stim_listB/kiss1.gif""style=""height:400px;""></stim_listB>",,html-keyboard-response,112,1147539,0.0-13.0-1.10,32774,List2B,white,man,,,,null,,,,
null,is kissing,,html-keyboard-response,113,1149540,0.0-13.0-2.10,32774,List2B,white,man,,,,null,,,,
18348,,,survey-text,114,1167890,0.0-13.0-3.10,32774,List2B,white,man,,,,,"{""Q0"":""mike is kissing ruth""}","<img src=""stim_listB/kiss1.gif""style=""height:400px;""></stim_listB>",is kissing,
null,"<div style=""font-size:60px;"">+</div>",,html-keyboard-response,115,1168392,0.0-13.0-0.11,32774,List2B,white,man,,,,null,,,,
null,"<img src=""stim_listB/argue7.gif""style=""height:400px;""></stim_listB>",,html-keyboard-response,116,1170395,0.0-13.0-1.11,32774,List2B,white,man,,,,null,,,,
null,is arguing with,,html-keyboard-response,117,1172396,0.0-13.0-2.11,32774,List2B,white,man,,,,null,,,,
37284,,,survey-text,118,1209681,0.0-13.0-3.11,32774,List2B,white,man,,,,,"{""Q0"":""fred is arguing with beth""}","<img src=""stim_listB/argue7.gif""style=""height:400px;""></stim_listB>",is arguing with,
null,"<div style=""font-size:60px;"">+</div>",,html-keyboard-response,119,1210183,0.0-13.0-0.12,32774,List2B,white,man,,,,null,,,,
null,"<img src=""stim_listB/fight7.gif""style=""height:400px;""></stim_listB>",,html-keyboard-response,120,1212186,0.0-13.0-1.12,32774,List2B,white,man,,,,null,,,,
null,is fighting,,html-keyboard-response,121,1214187,0.0-13.0-2.12,32774,List2B,white,man,,,,null,,,,
16888,,,survey-text,122,1231076,0.0-13.0-3.12,32774,List2B,white,man,,,,,"{""Q0"":""kate is fighting jane""}","<img src=""stim_listB/fight7.gif""style=""height:400px;""></stim_listB>",is fighting,
null,"<div style=""font-size:60px;"">+</div>",,html-keyboard-response,123,1231578,0.0-13.0-0.13,32774,List2B,white,man,,,,null,,,,
null,"<img src=""stim_listB/argue8.gif""style=""height:400px;""></stim_listB>",,html-keyboard-response,124,1233581,0.0-13.0-1.13,32774,List2B,white,man,,,,null,,,,
null,are arguing with each other,,html-keyboard-response,125,1235582,0.0-13.0-2.13,32774,List2B,white,man,,,,null,,,,
32732,,,survey-text,126,1268316,0.0-13.0-3.13,32774,List2B,white,man,,,,,"{""Q0"":""ruth is arguing with kate""}","<img src=""stim_listB/argue8.gif""style=""height:400px;""></stim_listB>",are arguing with each other,
null,"<div style=""font-size:60px;"">+</div>",,html-keyboard-response,127,1268817,0.0-13.0-0.14,32774,List2B,white,man,,,,null,,,,
null,"<img src=""stim_listB/flirt2.gif""style=""height:400px;""></stim_listB>",,html-keyboard-response,128,1270820,0.0-13.0-1.14,32774,List2B,white,man,,,,null,,,,
null,are flirting with each other,,html-keyboard-response,129,1272821,0.0-13.0-2.14,32774,List2B,white,man,,,,null,,,,
77928,,,survey-text,130,1350751,0.0-13.0-3.14,32774,List2B,white,man,,,,,"{""Q0"":""dave is flirting with kate""}","<img src=""stim_listB/flirt2.gif""style=""height:400px;""></stim_listB>",are flirting with each other,
null,"<div style=""font-size:60px;"">+</div>",,html-keyboard-response,131,1351252,0.0-13.0-0.15,32774,List2B,white,man,,,,null,,,,
null,"<img src=""stim_listB/marry3.gif""style=""height:400px;""></stim_listB>",,html-keyboard-response,132,1353257,0.0-13.0-1.15,32774,List2B,white,man,,,,null,,,,
null,is marrying,,html-keyboard-response,133,1355258,0.0-13.0-2.15,32774,List2B,white,man,,,,null,,,,
55150,,,survey-text,134,1410410,0.0-13.0-3.15,32774,List2B,white,man,,,,,"{""Q0"":""mike is marrying beth""}","<img src=""stim_listB/marry3.gif""style=""height:400px;""></stim_listB>",is marrying,
null,"<div style=""font-size:60px;"">+</div>",,html-keyboard-response,135,1410912,0.0-13.0-0.16,32774,List2B,white,man,,,,null,,,,
null,"<img src=""stim_listB/touch2.gif""style=""height:400px;""></stim_listB>",,html-keyboard-response,136,1412915,0.0-13.0-1.16,32774,List2B,white,man,,,,null,,,,
null,are touching each other,,html-keyboard-response,137,1414917,0.0-13.0-2.16,32774,List2B,white,man,,,,null,,,,
37189,,,survey-text,138,1452108,0.0-13.0-3.16,32774,List2B,white,man,,,,,"{""Q0"":""luke is touching ruth""}","<img src=""stim_listB/touch2.gif""style=""height:400px;""></stim_listB>",are touching each other,
null,"<div style=""font-size:60px;"">+</div>",,html-keyboard-response,139,1452610,0.0-13.0-0.17,32774,List2B,white,man,,,,null,,,,
null,"<img src=""stim_listB/fight4.gif""style=""height:400px;""></stim_listB>",,html-keyboard-response,140,1454613,0.0-13.0-1.17,32774,List2B,white,man,,,,null,,,,
null,are fighting each other,,html-keyboard-response,141,1456614,0.0-13.0-2.17,32774,List2B,white,man,,,,null,,,,
13874,,,survey-text,142,1470489,0.0-13.0-3.17,32774,List2B,white,man,,,,,"{""Q0"":""fred is fighting beth""}","<img src=""stim_listB/fight4.gif""style=""height:400px;""></stim_listB>",are fighting each other,
null,"<div style=""font-size:60px;"">+</div>",,html-keyboard-response,143,1470990,0.0-13.0-0.18,32774,List2B,white,man,,,,null,,,,
null,"<img src=""stim_listB/talk2.gif""style=""height:400px;""></stim_listB>",,html-keyboard-response,144,1472993,0.0-13.0-1.18,32774,List2B,white,man,,,,null,,,,
null,are talking to each other,,html-keyboard-response,145,1474996,0.0-13.0-2.18,32774,List2B,white,man,,,,null,,,,
25662,,,survey-text,146,1500658,0.0-13.0-3.18,32774,List2B,white,man,,,,,"{""Q0"":""luke is talking to ruth""}","<img src=""stim_listB/talk2.gif""style=""height:400px;""></stim_listB>",are talking to each other,
null,"<div style=""font-size:60px;"">+</div>",,html-keyboard-response,147,1501160,0.0-13.0-0.19,32774,List2B,white,man,,,,null,,,,
null,"<img src=""stim_listB/marry6.gif""style=""height:400px;""></stim_listB>",,html-keyboard-response,148,1503163,0.0-13.0-1.19,32774,List2B,white,man,,,,null,,,,
null,are marrying each other,,html-keyboard-response,149,1505164,0.0-13.0-2.19,32774,List2B,white,man,,,,null,,,,
31415,,,survey-text,150,1536581,0.0-13.0-3.19,32774,List2B,white,man,,,,,"{""Q0"":""luke is marrying mike""}","<img src=""stim_listB/marry6.gif""style=""height:400px;""></stim_listB>",are marrying each other,
7858,"<img src='img/portrait_matrix_list2.jpg' style='width:900px;height:500px;''></img><p>If you have memorised all the portraits and names and are ready to start, press Continue.</p><p><strong>Please note: Your memory of these faces will be tested 4 times during this experiment.</strong></p>",0,html-button-response,151,1544441,0.0-14.0-0.0,32774,List2B,white,man,,,,,,,,
7287,"<img src=""portrait/WM2.jpg""style=""height:400px;""></img>",7,html-button-response,152,1552732,0.0-14.0-1.0,32774,List2B,white,man,,TRUE,7,,,,,
null,CORRECT,,html-keyboard-response,153,1554233,0.0-14.0-2.0-0.0,32774,List2B,white,man,,,,null,,,,
5853,"<img src=""portrait/BW2.jpg""style=""height:400px;""></img>",2,html-button-response,154,1560089,0.0-14.0-4.0,32774,List2B,white,man,,TRUE,2,,,,,
null,CORRECT,,html-keyboard-response,155,1561592,0.0-14.0-5.0-0.0,32774,List2B,white,man,,,,null,,,,
6556,"<img src=""portrait/BM1.jpg""style=""height:400px;""></img>",5,html-button-response,156,1568150,0.0-14.0-7.0,32774,List2B,white,man,,TRUE,4,,,,,
3246,"<img src=""portrait/BM1.jpg""style=""height:400px;""></img>",4,html-button-response,157,1572400,0.0-14.0-9.0-0.0,32774,List2B,white,man,,FALSE,4,,,,,
null,CORRECT,,html-keyboard-response,158,1573902,0.0-14.0-9.0-1.0-0.0,32774,List2B,white,man,,,,null,,,,
5131,"<img src=""portrait/WW1.jpg""style=""height:400px;""></img>",1,html-button-response,159,1579035,0.0-14.0-10.0,32774,List2B,white,man,,TRUE,1,,,,,
null,CORRECT,,html-keyboard-response,160,1580536,0.0-14.0-11.0-0.0,32774,List2B,white,man,,,,null,,,,
5165,"<img src=""portrait/WW2.jpg""style=""height:400px;""></img>",3,html-button-response,161,1585704,0.0-14.0-13.0,32774,List2B,white,man,,TRUE,3,,,,,
null,CORRECT,,html-keyboard-response,162,1587206,0.0-14.0-14.0-0.0,32774,List2B,white,man,,,,null,,,,
11075,"<img src=""portrait/BM2.jpg""style=""height:400px;""></img>",5,html-button-response,163,1598283,0.0-14.0-16.0,32774,List2B,white,man,,TRUE,5,,,,,
null,CORRECT,,html-keyboard-response,164,1599785,0.0-14.0-17.0-0.0,32774,List2B,white,man,,,,null,,,,
7247,"<img src=""portrait/WM1.jpg""style=""height:400px;""></img>",6,html-button-response,165,1607034,0.0-14.0-19.0,32774,List2B,white,man,,TRUE,6,,,,,
null,CORRECT,,html-keyboard-response,166,1608536,0.0-14.0-20.0-0.0,32774,List2B,white,man,,,,null,,,,
7124,"<img src=""portrait/BW1.jpg""style=""height:400px;""></img>",2,html-button-response,167,1615662,0.0-14.0-22.0,32774,List2B,white,man,,TRUE,0,,,,,
2266,"<img src=""portrait/BW1.jpg""style=""height:400px;""></img>",0,html-button-response,168,1618931,0.0-14.0-24.0-0.0,32774,List2B,white,man,,FALSE,0,,,,,
null,CORRECT,,html-keyboard-response,169,1620433,0.0-14.0-24.0-1.0-0.0,32774,List2B,white,man,,,,null,,,,
2133,<p>You got 6 out of 8 right first time. Press Continue.</p>,0,html-button-response,170,1622568,0.0-14.0-25.0,32774,List2B,white,man,,,,,,,,
1998,"As you did not score 100%, the memory game will repeat. Press Continue.",0,html-button-response,171,1625569,0.0-14.0-26.0-0.0,32774,List2B,white,man,,,,,,,,
6811,"<img src='img/portrait_matrix_list2.jpg' style='width:900px;height:500px;''></img><p>If you have memorised all the portraits and names and are ready to start, press Continue.</p><p><strong>Please note: Your memory of these faces will be tested 4 times during this experiment.</strong></p>",0,html-button-response,172,1633383,0.0-14.1-0.1,32774,List2B,white,man,,,,,,,,
7603,"<img src=""portrait/WM2.jpg""style=""height:400px;""></img>",7,html-button-response,173,1641990,0.0-14.1-1.1,32774,List2B,white,man,,TRUE,7,,,,,
null,CORRECT,,html-keyboard-response,174,1643492,0.0-14.1-2.1-0.1,32774,List2B,white,man,,,,null,,,,
10823,"<img src=""portrait/BW2.jpg""style=""height:400px;""></img>",2,html-button-response,175,1654317,0.0-14.1-4.1,32774,List2B,white,man,,TRUE,2,,,,,
null,CORRECT,,html-keyboard-response,176,1655819,0.0-14.1-5.1-0.1,32774,List2B,white,man,,,,null,,,,
6481,"<img src=""portrait/BM1.jpg""style=""height:400px;""></img>",4,html-button-response,177,1662302,0.0-14.1-7.1,32774,List2B,white,man,,TRUE,4,,,,,
null,CORRECT,,html-keyboard-response,178,1663804,0.0-14.1-8.1-0.1,32774,List2B,white,man,,,,null,,,,
3664,"<img src=""portrait/WW1.jpg""style=""height:400px;""></img>",1,html-button-response,179,1667471,0.0-14.1-10.1,32774,List2B,white,man,,TRUE,1,,,,,
null,CORRECT,,html-keyboard-response,180,1668973,0.0-14.1-11.1-0.1,32774,List2B,white,man,,,,null,,,,
4143,"<img src=""portrait/WW2.jpg""style=""height:400px;""></img>",3,html-button-response,181,1673119,0.0-14.1-13.1,32774,List2B,white,man,,TRUE,3,,,,,
null,CORRECT,,html-keyboard-response,182,1674621,0.0-14.1-14.1-0.1,32774,List2B,white,man,,,,null,,,,
5233,"<img src=""portrait/BM2.jpg""style=""height:400px;""></img>",5,html-button-response,183,1679856,0.0-14.1-16.1,32774,List2B,white,man,,TRUE,5,,,,,
null,CORRECT,,html-keyboard-response,184,1681358,0.0-14.1-17.1-0.1,32774,List2B,white,man,,,,null,,,,
3949,"<img src=""portrait/WM1.jpg""style=""height:400px;""></img>",6,html-button-response,185,1685309,0.0-14.1-19.1,32774,List2B,white,man,,TRUE,6,,,,,
null,CORRECT,,html-keyboard-response,186,1686811,0.0-14.1-20.1-0.1,32774,List2B,white,man,,,,null,,,,
5079,"<img src=""portrait/BW1.jpg""style=""height:400px;""></img>",0,html-button-response,187,1691892,0.0-14.1-22.1,32774,List2B,white,man,,TRUE,0,,,,,
null,CORRECT,,html-keyboard-response,188,1693393,0.0-14.1-23.1-0.1,32774,List2B,white,man,,,,null,,,,
1608,<p>You got 8 out of 8 right first time. Press Continue.</p>,0,html-button-response,189,1695004,0.0-14.1-25.1,32774,List2B,white,man,,,,,,,,
null,"<div style=""font-size:60px;"">+</div>",,html-keyboard-response,190,1696506,0.0-15.0-0.0,32774,List2B,white,man,,,,null,,,,
null,"<img src=""stim_listB/talk7.gif""style=""height:400px;""></stim_listB>",,html-keyboard-response,191,1698509,0.0-15.0-1.0,32774,List2B,white,man,,,,null,,,,
null,is talking to,,html-keyboard-response,192,1700511,0.0-15.0-2.0,32774,List2B,white,man,,,,null,,,,
23937,,,survey-text,193,1724450,0.0-15.0-3.0,32774,List2B,white,man,,,,,"{""Q0"":""kate is talking to ruth""}","<img src=""stim_listB/talk7.gif""style=""height:400px;""></stim_listB>",is talking to,
null,"<div style=""font-size:60px;"">+</div>",,html-keyboard-response,194,1724951,0.0-15.0-0.1,32774,List2B,white,man,,,,null,,,,
null,"<img src=""stim_listB/play7.gif""style=""height:400px;""></stim_listB>",,html-keyboard-response,195,1726954,0.0-15.0-1.1,32774,List2B,white,man,,,,null,,,,
null,is playing with,,html-keyboard-response,196,1728956,0.0-15.0-2.1,32774,List2B,white,man,,,,null,,,,
23519,,,survey-text,197,1752477,0.0-15.0-3.1,32774,List2B,white,man,,,,,"{""Q0"":""kate is playing with jane""}","<img src=""stim_listB/play7.gif""style=""height:400px;""></stim_listB>",is playing with,
null,"<div style=""font-size:60px;"">+</div>",,html-keyboard-response,198,1752978,0.0-15.0-0.2,32774,List2B,white,man,,,,null,,,,
null,"<img src=""stim_listB/flirt6.gif""style=""height:400px;""></stim_listB>",,html-keyboard-response,199,1754981,0.0-15.0-1.2,32774,List2B,white,man,,,,null,,,,
null,are flirting with each other,,html-keyboard-response,200,1756982,0.0-15.0-2.2,32774,List2B,white,man,,,,null,,,,
41260,,,survey-text,201,1798244,0.0-15.0-3.2,32774,List2B,white,man,,,,,"{""Q0"":""fred is flirting with dave""}","<img src=""stim_listB/flirt6.gif""style=""height:400px;""></stim_listB>",are flirting with each other,
null,"<div style=""font-size:60px;"">+</div>",,html-keyboard-response,202,1798745,0.0-15.0-0.3,32774,List2B,white,man,,,,null,,,,
null,"<img src=""stim_listB/flirt8.gif""style=""height:400px;""></stim_listB>",,html-keyboard-response,203,1800748,0.0-15.0-1.3,32774,List2B,white,man,,,,null,,,,
null,are flirting with each other,,html-keyboard-response,204,1802749,0.0-15.0-2.3,32774,List2B,white,man,,,,null,,,,
50480,,,survey-text,205,1853230,0.0-15.0-3.3,32774,List2B,white,man,,,,,"{""Q0"":""kate is flirting together with jane""}","<img src=""stim_listB/flirt8.gif""style=""height:400px;""></stim_listB>",are flirting with each other,
null,"<div style=""font-size:60px;"">+</div>",,html-keyboard-response,206,1853731,0.0-15.0-0.4,32774,List2B,white,man,,,,null,,,,
null,"<img src=""stim_listB/talk6.gif""style=""height:400px;""></stim_listB>",,html-keyboard-response,207,1855733,0.0-15.0-1.4,32774,List2B,white,man,,,,null,,,,
null,are talking to each other,,html-keyboard-response,208,1857734,0.0-15.0-2.4,32774,List2B,white,man,,,,null,,,,
52730,,,survey-text,209,1910465,0.0-15.0-3.4,32774,List2B,white,man,,,,,"{""Q0"":""fred is talking with dave""}","<img src=""stim_listB/talk6.gif""style=""height:400px;""></stim_listB>",are talking to each other,
null,"<div style=""font-size:60px;"">+</div>",,html-keyboard-response,210,1910968,0.0-15.0-0.5,32774,List2B,white,man,,,,null,,,,
null,"<img src=""stim_listB/talk5.gif""style=""height:400px;""></stim_listB>",,html-keyboard-response,211,1912971,0.0-15.0-1.5,32774,List2B,white,man,,,,null,,,,
null,is talking to,,html-keyboard-response,212,1914972,0.0-15.0-2.5,32774,List2B,white,man,,,,null,,,,
54569,,,survey-text,213,1969543,0.0-15.0-3.5,32774,List2B,white,man,,,,,"{""Q0"":""mike is talking to luke""}","<img src=""stim_listB/talk5.gif""style=""height:400px;""></stim_listB>",is talking to,
null,"<div style=""font-size:60px;"">+</div>",,html-keyboard-response,214,1970044,0.0-15.0-0.6,32774,List2B,white,man,,,,null,,,,
null,"<img src=""stim_listB/argue5.gif""style=""height:400px;""></stim_listB>",,html-keyboard-response,215,1972048,0.0-15.0-1.6,32774,List2B,white,man,,,,null,,,,
null,is arguing with,,html-keyboard-response,216,1974049,0.0-15.0-2.6,32774,List2B,white,man,,,,null,,,,
57049,,,survey-text,217,2031099,0.0-15.0-3.6,32774,List2B,white,man,,,,,"{""Q0"":""fred is arguing with dave""}","<img src=""stim_listB/argue5.gif""style=""height:400px;""></stim_listB>",is arguing with,
null,"<div style=""font-size:60px;"">+</div>",,html-keyboard-response,218,2031601,0.0-15.0-0.7,32774,List2B,white,man,,,,null,,,,
null,"<img src=""stim_listB/flirt3.gif""style=""height:400px;""></stim_listB>",,html-keyboard-response,219,2033604,0.0-15.0-1.7,32774,List2B,white,man,,,,null,,,,
null,is flirting with,,html-keyboard-response,220,2035605,0.0-15.0-2.7,32774,List2B,white,man,,,,null,,,,
52972,,,survey-text,221,2088579,0.0-15.0-3.7,32774,List2B,white,man,,,,,"{""Q0"":""kate is flirting with fred""}","<img src=""stim_listB/flirt3.gif""style=""height:400px;""></stim_listB>",is flirting with,
null,"<div style=""font-size:60px;"">+</div>",,html-keyboard-response,222,2089080,0.0-15.0-0.8,32774,List2B,white,man,,,,null,,,,
null,"<img src=""stim_listB/dance1.gif""style=""height:400px;""></stim_listB>",,html-keyboard-response,223,2091085,0.0-15.0-1.8,32774,List2B,white,man,,,,null,,,,
null,is dancing with,,html-keyboard-response,224,2093086,0.0-15.0-2.8,32774,List2B,white,man,,,,null,,,,
79798,,,survey-text,225,2172886,0.0-15.0-3.8,32774,List2B,white,man,,,,,"{""Q0"":""jane is dancing with luke""}","<img src=""stim_listB/dance1.gif""style=""height:400px;""></stim_listB>",is dancing with,
null,"<div style=""font-size:60px;"">+</div>",,html-keyboard-response,226,2173388,0.0-15.0-0.9,32774,List2B,white,man,,,,null,,,,
null,"<img src=""stim_listB/play6.gif""style=""height:400px;""></stim_listB>",,html-keyboard-response,227,2175391,0.0-15.0-1.9,32774,List2B,white,man,,,,null,,,,
null,are playing with each other,,html-keyboard-response,228,2177392,0.0-15.0-2.9,32774,List2B,white,man,,,,null,,,,
28293,,,survey-text,229,2205687,0.0-15.0-3.9,32774,List2B,white,man,,,,,"{""Q0"":""luke is playing with fred""}","<img src=""stim_listB/play6.gif""style=""height:400px;""></stim_listB>",are playing with each other,
null,"<div style=""font-size:60px;"">+</div>",,html-keyboard-response,230,2206188,0.0-15.0-0.10,32774,List2B,white,man,,,,null,,,,
null,"<img src=""stim_listB/touch8.gif""style=""height:400px;""></stim_listB>",,html-keyboard-response,231,2208191,0.0-15.0-1.10,32774,List2B,white,man,,,,null,,,,
null,are touching each other,,html-keyboard-response,232,2210192,0.0-15.0-2.10,32774,List2B,white,man,,,,null,,,,
27050,,,survey-text,233,2237244,0.0-15.0-3.10,32774,List2B,white,man,,,,,"{""Q0"":""beth is touching ruth""}","<img src=""stim_listB/touch8.gif""style=""height:400px;""></stim_listB>",are touching each other,
null,"<div style=""font-size:60px;"">+</div>",,html-keyboard-response,234,2237745,0.0-15.0-0.11,32774,List2B,white,man,,,,null,,,,
null,"<img src=""stim_listB/fight5.gif""style=""height:400px;""></stim_listB>",,html-keyboard-response,235,2239748,0.0-15.0-1.11,32774,List2B,white,man,,,,null,,,,
null,is fighting,,html-keyboard-response,236,2241749,0.0-15.0-2.11,32774,List2B,white,man,,,,null,,,,
18555,,,survey-text,237,2260306,0.0-15.0-3.11,32774,List2B,white,man,,,,,"{""Q0"":""mike is fighting dave""}","<img src=""stim_listB/fight5.gif""style=""height:400px;""></stim_listB>",is fighting,
null,"<div style=""font-size:60px;"">+</div>",,html-keyboard-response,238,2260808,0.0-15.0-0.12,32774,List2B,white,man,,,,null,,,,
null,"<img src=""stim_listB/fight2.gif""style=""height:400px;""></stim_listB>",,html-keyboard-response,239,2262811,0.0-15.0-1.12,32774,List2B,white,man,,,,null,,,,
null,are fighting each other,,html-keyboard-response,240,2264812,0.0-15.0-2.12,32774,List2B,white,man,,,,null,,,,
31060,,,survey-text,241,2295874,0.0-15.0-3.12,32774,List2B,white,man,,,,,"{""Q0"":""ruth is fighting luke""}","<img src=""stim_listB/fight2.gif""style=""height:400px;""></stim_listB>",are fighting each other,
null,"<div style=""font-size:60px;"">+</div>",,html-keyboard-response,242,2296375,0.0-15.0-0.13,32774,List2B,white,man,,,,null,,,,
null,"<img src=""stim_listB/touch5.gif""style=""height:400px;""></stim_listB>",,html-keyboard-response,243,2298380,0.0-15.0-1.13,32774,List2B,white,man,,,,null,,,,
null,is touching,,html-keyboard-response,244,2300382,0.0-15.0-2.13,32774,List2B,white,man,,,,null,,,,
34275,,,survey-text,245,2334659,0.0-15.0-3.13,32774,List2B,white,man,,,,,"{""Q0"":""mike is touching dave""}","<img src=""stim_listB/touch5.gif""style=""height:400px;""></stim_listB>",is touching,
null,"<div style=""font-size:60px;"">+</div>",,html-keyboard-response,246,2335161,0.0-15.0-0.14,32774,List2B,white,man,,,,null,,,,
null,"<img src=""stim_listB/flirt1.gif""style=""height:400px;""></stim_listB>",,html-keyboard-response,247,2337164,0.0-15.0-1.14,32774,List2B,white,man,,,,null,,,,
null,is flirting with,,html-keyboard-response,248,2339165,0.0-15.0-2.14,32774,List2B,white,man,,,,null,,,,
31916,,,survey-text,249,2371082,0.0-15.0-3.14,32774,List2B,white,man,,,,,"{""Q0"":""jane is flirting with luke""}","<img src=""stim_listB/flirt1.gif""style=""height:400px;""></stim_listB>",is flirting with,
null,"<div style=""font-size:60px;"">+</div>",,html-keyboard-response,250,2371584,0.0-15.0-0.15,32774,List2B,white,man,,,,null,,,,
null,"<img src=""stim_listB/dance5.gif""style=""height:400px;""></stim_listB>",,html-keyboard-response,251,2373587,0.0-15.0-1.15,32774,List2B,white,man,,,,null,,,,
null,is dancing with,,html-keyboard-response,252,2375588,0.0-15.0-2.15,32774,List2B,white,man,,,,null,,,,
36112,,,survey-text,253,2411701,0.0-15.0-3.15,32774,List2B,white,man,,,,,"{""Q0"":""mike is dancing with luke""}","<img src=""stim_listB/dance5.gif""style=""height:400px;""></stim_listB>",is dancing with,
null,"<div style=""font-size:60px;"">+</div>",,html-keyboard-response,254,2412203,0.0-15.0-0.16,32774,List2B,white,man,,,,null,,,,
null,"<img src=""stim_listB/marry2.gif""style=""height:400px;""></stim_listB>",,html-keyboard-response,255,2414205,0.0-15.0-1.16,32774,List2B,white,man,,,,null,,,,
null,are marrying each other,,html-keyboard-response,256,2416207,0.0-15.0-2.16,32774,List2B,white,man,,,,null,,,,
28798,,,survey-text,257,2445007,0.0-15.0-3.16,32774,List2B,white,man,,,,,"{""Q0"":""dave is marrying ruth""}","<img src=""stim_listB/marry2.gif""style=""height:400px;""></stim_listB>",are marrying each other,
null,"<div style=""font-size:60px;"">+</div>",,html-keyboard-response,258,2445508,0.0-15.0-0.17,32774,List2B,white,man,,,,null,,,,
null,"<img src=""stim_listB/dance8.gif""style=""height:400px;""></stim_listB>",,html-keyboard-response,259,2447511,0.0-15.0-1.17,32774,List2B,white,man,,,,null,,,,
null,are dancing with each other,,html-keyboard-response,260,2449512,0.0-15.0-2.17,32774,List2B,white,man,,,,null,,,,
21904,,,survey-text,261,2471418,0.0-15.0-3.17,32774,List2B,white,man,,,,,"{""Q0"":""jane is dancibg with beth""}","<img src=""stim_listB/dance8.gif""style=""height:400px;""></stim_listB>",are dancing with each other,
null,"<div style=""font-size:60px;"">+</div>",,html-keyboard-response,262,2471920,0.0-15.0-0.18,32774,List2B,white,man,,,,null,,,,
null,"<img src=""stim_listB/shout7.gif""style=""height:400px;""></stim_listB>",,html-keyboard-response,263,2473923,0.0-15.0-1.18,32774,List2B,white,man,,,,null,,,,
null,is shouting at,,html-keyboard-response,264,2475924,0.0-15.0-2.18,32774,List2B,white,man,,,,null,,,,
50242,,,survey-text,265,2526168,0.0-15.0-3.18,32774,List2B,white,man,,,,,"{""Q0"":""fred is arguing with ruth""}","<img src=""stim_listB/shout7.gif""style=""height:400px;""></stim_listB>",is shouting at,
null,"<div style=""font-size:60px;"">+</div>",,html-keyboard-response,266,2526670,0.0-15.0-0.19,32774,List2B,white,man,,,,null,,,,
null,"<img src=""stim_listB/play8.gif""style=""height:400px;""></stim_listB>",,html-keyboard-response,267,2528673,0.0-15.0-1.19,32774,List2B,white,man,,,,null,,,,
null,are playing with each other,,html-keyboard-response,268,2530674,0.0-15.0-2.19,32774,List2B,white,man,,,,null,,,,
28527,,,survey-text,269,2559201,0.0-15.0-3.19,32774,List2B,white,man,,,,,"{""Q0"":""ruth is playing with beth""}","<img src=""stim_listB/play8.gif""style=""height:400px;""></stim_listB>",are playing with each other,
8649,"<img src='img/portrait_matrix_list2.jpg' style='width:900px;height:500px;''></img><p>If you have memorised all the portraits and names and are ready to start, press Continue.</p><p><strong>Please note: Your memory of these faces will be tested 4 times during this experiment.</strong></p>",0,html-button-response,270,2567853,0.0-16.0-0.0,32774,List2B,white,man,,,,,,,,
6079,"<img src=""portrait/WM1.jpg""style=""height:400px;""></img>",6,html-button-response,271,2574935,0.0-16.0-1.0,32774,List2B,white,man,,TRUE,6,,,,,
null,CORRECT,,html-keyboard-response,272,2576437,0.0-16.0-2.0-0.0,32774,List2B,white,man,,,,null,,,,
10069,"<img src=""portrait/BW2.jpg""style=""height:400px;""></img>",2,html-button-response,273,2586509,0.0-16.0-4.0,32774,List2B,white,man,,TRUE,2,,,,,
null,CORRECT,,html-keyboard-response,274,2588011,0.0-16.0-5.0-0.0,32774,List2B,white,man,,,,null,,,,
4143,"<img src=""portrait/BW1.jpg""style=""height:400px;""></img>",0,html-button-response,275,2592156,0.0-16.0-7.0,32774,List2B,white,man,,TRUE,0,,,,,
null,CORRECT,,html-keyboard-response,276,2593658,0.0-16.0-8.0-0.0,32774,List2B,white,man,,,,null,,,,
7161,"<img src=""portrait/WM2.jpg""style=""height:400px;""></img>",7,html-button-response,277,2600822,0.0-16.0-10.0,32774,List2B,white,man,,TRUE,7,,,,,
null,CORRECT,,html-keyboard-response,278,2602323,0.0-16.0-11.0-0.0,32774,List2B,white,man,,,,null,,,,
7937,"<img src=""portrait/BM1.jpg""style=""height:400px;""></img>",4,html-button-response,279,2610264,0.0-16.0-13.0,32774,List2B,white,man,,TRUE,4,,,,,
null,CORRECT,,html-keyboard-response,280,2611766,0.0-16.0-14.0-0.0,32774,List2B,white,man,,,,null,,,,
3363,"<img src=""portrait/BM2.jpg""style=""height:400px;""></img>",5,html-button-response,281,2615132,0.0-16.0-16.0,32774,List2B,white,man,,TRUE,5,,,,,
null,CORRECT,,html-keyboard-response,282,2616634,0.0-16.0-17.0-0.0,32774,List2B,white,man,,,,null,,,,
4121,"<img src=""portrait/WW1.jpg""style=""height:400px;""></img>",1,html-button-response,283,2620758,0.0-16.0-19.0,32774,List2B,white,man,,TRUE,1,,,,,
null,CORRECT,,html-keyboard-response,284,2622259,0.0-16.0-20.0-0.0,32774,List2B,white,man,,,,null,,,,
4477,"<img src=""portrait/WW2.jpg""style=""height:400px;""></img>",3,html-button-response,285,2626739,0.0-16.0-22.0,32774,List2B,white,man,,TRUE,3,,,,,
null,CORRECT,,html-keyboard-response,286,2628241,0.0-16.0-23.0-0.0,32774,List2B,white,man,,,,null,,,,
1758,<p>You got 8 out of 8 right first time. Press Continue.</p>,0,html-button-response,287,2630000,0.0-16.0-25.0,32774,List2B,white,man,,,,,,,,
null,"<div style=""font-size:60px;"">+</div>",,html-keyboard-response,288,2631504,0.0-17.0-0.0,32774,List2B,white,man,,,,null,,,,
null,"<img src=""stim_listB/touch6.gif""style=""height:400px;""></stim_listB>",,html-keyboard-response,289,2633507,0.0-17.0-1.0,32774,List2B,white,man,,,,null,,,,
null,are touching each other,,html-keyboard-response,290,2635508,0.0-17.0-2.0,32774,List2B,white,man,,,,null,,,,
42074,,,survey-text,291,2677584,0.0-17.0-3.0,32774,List2B,white,man,,,,,"{""Q0"":""luke is touching fred""}","<img src=""stim_listB/touch6.gif""style=""height:400px;""></stim_listB>",are touching each other,
null,"<div style=""font-size:60px;"">+</div>",,html-keyboard-response,292,2678086,0.0-17.0-0.1,32774,List2B,white,man,,,,null,,,,
null,"<img src=""stim_listB/kiss5.gif""style=""height:400px;""></stim_listB>",,html-keyboard-response,293,2680089,0.0-17.0-1.1,32774,List2B,white,man,,,,null,,,,
null,is kissing,,html-keyboard-response,294,2682090,0.0-17.0-2.1,32774,List2B,white,man,,,,null,,,,
19842,,,survey-text,295,2701934,0.0-17.0-3.1,32774,List2B,white,man,,,,,"{""Q0"":""luke is kissing fred""}","<img src=""stim_listB/kiss5.gif""style=""height:400px;""></stim_listB>",is kissing,
null,"<div style=""font-size:60px;"">+</div>",,html-keyboard-response,296,2702436,0.0-17.0-0.2,32774,List2B,white,man,,,,null,,,,
null,"<img src=""stim_listB/flirt7.gif""style=""height:400px;""></stim_listB>",,html-keyboard-response,297,2704439,0.0-17.0-1.2,32774,List2B,white,man,,,,null,,,,
null,is flirting with,,html-keyboard-response,298,2706440,0.0-17.0-2.2,32774,List2B,white,man,,,,null,,,,
23792,,,survey-text,299,2730234,0.0-17.0-3.2,32774,List2B,white,man,,,,,"{""Q0"":""kate is flirting with ruth""}","<img src=""stim_listB/flirt7.gif""style=""height:400px;""></stim_listB>",is flirting with,
null,"<div style=""font-size:60px;"">+</div>",,html-keyboard-response,300,2730736,0.0-17.0-0.3,32774,List2B,white,man,,,,null,,,,
null,"<img src=""stim_listB/dance4.gif""style=""height:400px;""></stim_listB>",,html-keyboard-response,301,2732739,0.0-17.0-1.3,32774,List2B,white,man,,,,null,,,,
null,are dancing with each other,,html-keyboard-response,302,2734740,0.0-17.0-2.3,32774,List2B,white,man,,,,null,,,,
38128,,,survey-text,303,2772870,0.0-17.0-3.3,32774,List2B,white,man,,,,,"{""Q0"":""mike is dancing with beth""}","<img src=""stim_listB/dance4.gif""style=""height:400px;""></stim_listB>",are dancing with each other,
null,"<div style=""font-size:60px;"">+</div>",,html-keyboard-response,304,2773372,0.0-17.0-0.4,32774,List2B,white,man,,,,null,,,,
null,"<img src=""stim_listB/kiss7.gif""style=""height:400px;""></stim_listB>",,html-keyboard-response,305,2775375,0.0-17.0-1.4,32774,List2B,white,man,,,,null,,,,
null,is kissing,,html-keyboard-response,306,2777376,0.0-17.0-2.4,32774,List2B,white,man,,,,null,,,,
24521,,,survey-text,307,2801899,0.0-17.0-3.4,32774,List2B,white,man,,,,,"{""Q0"":""ruth is kissing beth""}","<img src=""stim_listB/kiss7.gif""style=""height:400px;""></stim_listB>",is kissing,
null,"<div style=""font-size:60px;"">+</div>",,html-keyboard-response,308,2802401,0.0-17.0-0.5,32774,List2B,white,man,,,,null,,,,
null,"<img src=""stim_listB/touch4.gif""style=""height:400px;""></stim_listB>",,html-keyboard-response,309,2804404,0.0-17.0-1.5,32774,List2B,white,man,,,,null,,,,
null,are touching each other,,html-keyboard-response,310,2806405,0.0-17.0-2.5,32774,List2B,white,man,,,,null,,,,
16524,,,survey-text,311,2822930,0.0-17.0-3.5,32774,List2B,white,man,,,,,"{""Q0"":""fred is touching beth""}","<img src=""stim_listB/touch4.gif""style=""height:400px;""></stim_listB>",are touching each other,
null,"<div style=""font-size:60px;"">+</div>",,html-keyboard-response,312,2823433,0.0-17.0-0.6,32774,List2B,white,man,,,,null,,,,
null,"<img src=""stim_listB/fight6.gif""style=""height:400px;""></stim_listB>",,html-keyboard-response,313,2825436,0.0-17.0-1.6,32774,List2B,white,man,,,,null,,,,
null,are fighting each other,,html-keyboard-response,314,2827437,0.0-17.0-2.6,32774,List2B,white,man,,,,null,,,,
18555,,,survey-text,315,2845994,0.0-17.0-3.6,32774,List2B,white,man,,,,,"{""Q0"":""luke is fighting fred""}","<img src=""stim_listB/fight6.gif""style=""height:400px;""></stim_listB>",are fighting each other,
null,"<div style=""font-size:60px;"">+</div>",,html-keyboard-response,316,2846496,0.0-17.0-0.7,32774,List2B,white,man,,,,null,,,,
null,"<img src=""stim_listB/fight8.gif""style=""height:400px;""></stim_listB>",,html-keyboard-response,317,2848499,0.0-17.0-1.7,32774,List2B,white,man,,,,null,,,,
null,are fighting each other,,html-keyboard-response,318,2850500,0.0-17.0-2.7,32774,List2B,white,man,,,,null,,,,
24020,,,survey-text,319,2874522,0.0-17.0-3.7,32774,List2B,white,man,,,,,"{""Q0"":""ruth is fighting beth""}","<img src=""stim_listB/fight8.gif""style=""height:400px;""></stim_listB>",are fighting each other,
null,"<div style=""font-size:60px;"">+</div>",,html-keyboard-response,320,2875023,0.0-17.0-0.8,32774,List2B,white,man,,,,null,,,,
null,"<img src=""stim_listB/marry1.gif""style=""height:400px;""></stim_listB>",,html-keyboard-response,321,2877026,0.0-17.0-1.8,32774,List2B,white,man,,,,null,,,,
null,is marrying,,html-keyboard-response,322,2879027,0.0-17.0-2.8,32774,List2B,white,man,,,,null,,,,
35382,,,survey-text,323,2914410,0.0-17.0-3.8,32774,List2B,white,man,,,,,"{""Q0"":""ruth is marrying luke""}","<img src=""stim_listB/marry1.gif""style=""height:400px;""></stim_listB>",is marrying,
null,"<div style=""font-size:60px;"">+</div>",,html-keyboard-response,324,2914912,0.0-17.0-0.9,32774,List2B,white,man,,,,null,,,,
null,"<img src=""stim_listB/fight1.gif""style=""height:400px;""></stim_listB>",,html-keyboard-response,325,2916915,0.0-17.0-1.9,32774,List2B,white,man,,,,null,,,,
null,is fighting,,html-keyboard-response,326,2918916,0.0-17.0-2.9,32774,List2B,white,man,,,,null,,,,
14600,,,survey-text,327,2933518,0.0-17.0-3.9,32774,List2B,white,man,,,,,"{""Q0"":""jane is fighting dave""}","<img src=""stim_listB/fight1.gif""style=""height:400px;""></stim_listB>",is fighting,
null,"<div style=""font-size:60px;"">+</div>",,html-keyboard-response,328,2934020,0.0-17.0-0.10,32774,List2B,white,man,,,,null,,,,
null,"<img src=""stim_listB/shout8.gif""style=""height:400px;""></stim_listB>",,html-keyboard-response,329,2936023,0.0-17.0-1.10,32774,List2B,white,man,,,,null,,,,
null,are shouting at each other,,html-keyboard-response,330,2938024,0.0-17.0-2.10,32774,List2B,white,man,,,,null,,,,
29155,,,survey-text,331,2967180,0.0-17.0-3.10,32774,List2B,white,man,,,,,"{""Q0"":""jane is shouting at kate""}","<img src=""stim_listB/shout8.gif""style=""height:400px;""></stim_listB>",are shouting at each other,
null,"<div style=""font-size:60px;"">+</div>",,html-keyboard-response,332,2967681,0.0-17.0-0.11,32774,List2B,white,man,,,,null,,,,
null,"<img src=""stim_listB/play2.gif""style=""height:400px;""></stim_listB>",,html-keyboard-response,333,2969683,0.0-17.0-1.11,32774,List2B,white,man,,,,null,,,,
null,are playing with each other,,html-keyboard-response,334,2971684,0.0-17.0-2.11,32774,List2B,white,man,,,,null,,,,
22244,,,survey-text,335,2993929,0.0-17.0-3.11,32774,List2B,white,man,,,,,"{""Q0"":""luke is playing with ruth""}","<img src=""stim_listB/play2.gif""style=""height:400px;""></stim_listB>",are playing with each other,
null,"<div style=""font-size:60px;"">+</div>",,html-keyboard-response,336,2994432,0.0-17.0-0.12,32774,List2B,white,man,,,,null,,,,
null,"<img src=""stim_listB/kiss3.gif""style=""height:400px;""></stim_listB>",,html-keyboard-response,337,2996435,0.0-17.0-1.12,32774,List2B,white,man,,,,null,,,,
null,is kissing,,html-keyboard-response,338,2998436,0.0-17.0-2.12,32774,List2B,white,man,,,,null,,,,
11889,,,survey-text,339,3010327,0.0-17.0-3.12,32774,List2B,white,man,,,,,"{""Q0"":""fred is kissing beth""}","<img src=""stim_listB/kiss3.gif""style=""height:400px;""></stim_listB>",is kissing,
null,"<div style=""font-size:60px;"">+</div>",,html-keyboard-response,340,3010828,0.0-17.0-0.13,32774,List2B,white,man,,,,null,,,,
null,"<img src=""stim_listB/argue1.gif""style=""height:400px;""></stim_listB>",,html-keyboard-response,341,3012831,0.0-17.0-1.13,32774,List2B,white,man,,,,null,,,,
null,is arguing with,,html-keyboard-response,342,3014832,0.0-17.0-2.13,32774,List2B,white,man,,,,null,,,,
51129,,,survey-text,343,3065963,0.0-17.0-3.13,32774,List2B,white,man,,,,,"{""Q0"":""ruth is arguing with dave""}","<img src=""stim_listB/argue1.gif""style=""height:400px;""></stim_listB>",is arguing with,
null,"<div style=""font-size:60px;"">+</div>",,html-keyboard-response,344,3066465,0.0-17.0-0.14,32774,List2B,white,man,,,,null,,,,
null,"<img src=""stim_listB/kiss4.gif""style=""height:400px;""></stim_listB>",,html-keyboard-response,345,3068467,0.0-17.0-1.14,32774,List2B,white,man,,,,null,,,,
null,are kissing each other,,html-keyboard-response,346,3070468,0.0-17.0-2.14,32774,List2B,white,man,,,,null,,,,
21965,,,survey-text,347,3092434,0.0-17.0-3.14,32774,List2B,white,man,,,,,"{""Q0"":""mike is kissing kate""}","<img src=""stim_listB/kiss4.gif""style=""height:400px;""></stim_listB>",are kissing each other,
null,"<div style=""font-size:60px;"">+</div>",,html-keyboard-response,348,3092936,0.0-17.0-0.15,32774,List2B,white,man,,,,null,,,,
null,"<img src=""stim_listB/kiss2.gif""style=""height:400px;""></stim_listB>",,html-keyboard-response,349,3094939,0.0-17.0-1.15,32774,List2B,white,man,,,,null,,,,
null,are kissing each other,,html-keyboard-response,350,3096940,0.0-17.0-2.15,32774,List2B,white,man,,,,null,,,,
17789,,,survey-text,351,3114730,0.0-17.0-3.15,32774,List2B,white,man,,,,,"{""Q0"":""dave is kissing jane""}","<img src=""stim_listB/kiss2.gif""style=""height:400px;""></stim_listB>",are kissing each other,
null,"<div style=""font-size:60px;"">+</div>",,html-keyboard-response,352,3115232,0.0-17.0-0.16,32774,List2B,white,man,,,,null,,,,
null,"<img src=""stim_listB/play5.gif""style=""height:400px;""></stim_listB>",,html-keyboard-response,353,3117235,0.0-17.0-1.16,32774,List2B,white,man,,,,null,,,,
null,is playing with,,html-keyboard-response,354,3119237,0.0-17.0-2.16,32774,List2B,white,man,,,,null,,,,
27557,,,survey-text,355,3146796,0.0-17.0-3.16,32774,List2B,white,man,,,,,"{""Q0"":""mike is playing with dave""}","<img src=""stim_listB/play5.gif""style=""height:400px;""></stim_listB>",is playing with,
null,"<div style=""font-size:60px;"">+</div>",,html-keyboard-response,356,3147297,0.0-17.0-0.17,32774,List2B,white,man,,,,null,,,,
null,"<img src=""stim_listB/marry7.gif""style=""height:400px;""></stim_listB>",,html-keyboard-response,357,3149300,0.0-17.0-1.17,32774,List2B,white,man,,,,null,,,,
null,is marrying,,html-keyboard-response,358,3151301,0.0-17.0-2.17,32774,List2B,white,man,,,,null,,,,
297539,,,survey-text,359,3448841,0.0-17.0-3.17,32774,List2B,white,man,,,,,"{""Q0"":""beth is marrying jane""}","<img src=""stim_listB/marry7.gif""style=""height:400px;""></stim_listB>",is marrying,
null,"<div style=""font-size:60px;"">+</div>",,html-keyboard-response,360,3449343,0.0-17.0-0.18,32774,List2B,white,man,,,,null,,,,
null,"<img src=""stim_listB/touch1.gif""style=""height:400px;""></stim_listB>",,html-keyboard-response,361,3451346,0.0-17.0-1.18,32774,List2B,white,man,,,,null,,,,
null,is touching,,html-keyboard-response,362,3453347,0.0-17.0-2.18,32774,List2B,white,man,,,,null,,,,
40993,,,survey-text,363,3494342,0.0-17.0-3.18,32774,List2B,white,man,,,,,"{""Q0"":""jane is touching dave""}","<img src=""stim_listB/touch1.gif""style=""height:400px;""></stim_listB>",is touching,
null,"<div style=""font-size:60px;"">+</div>",,html-keyboard-response,364,3494844,0.0-17.0-0.19,32774,List2B,white,man,,,,null,,,,
null,"<img src=""stim_listB/argue6.gif""style=""height:400px;""></stim_listB>",,html-keyboard-response,365,3496847,0.0-17.0-1.19,32774,List2B,white,man,,,,null,,,,
null,are arguing with each other,,html-keyboard-response,366,3498849,0.0-17.0-2.19,32774,List2B,white,man,,,,null,,,,
18982,,,survey-text,367,3517832,0.0-17.0-3.19,32774,List2B,white,man,,,,,"{""Q0"":""mike is arguing with luke""}","<img src=""stim_listB/argue6.gif""style=""height:400px;""></stim_listB>",are arguing with each other,
51129,"<img src='img/portrait_matrix_list2.jpg' style='width:900px;height:500px;''></img><p>If you have memorised all the portraits and names and are ready to start, press Continue.</p><p><strong>Please note: Your memory of these faces will be tested 4 times during this experiment.</strong></p>",0,html-button-response,368,3568964,0.0-18.0-0.0,32774,List2B,white,man,,,,,,,,
6937,"<img src=""portrait/WM2.jpg""style=""height:400px;""></img>",7,html-button-response,369,3576904,0.0-18.0-1.0,32774,List2B,white,man,,TRUE,7,,,,,
null,CORRECT,,html-keyboard-response,370,3578407,0.0-18.0-2.0-0.0,32774,List2B,white,man,,,,null,,,,
4726,"<img src=""portrait/WW1.jpg""style=""height:400px;""></img>",1,html-button-response,371,3583135,0.0-18.0-4.0,32774,List2B,white,man,,TRUE,1,,,,,
null,CORRECT,,html-keyboard-response,372,3584637,0.0-18.0-5.0-0.0,32774,List2B,white,man,,,,null,,,,
7020,"<img src=""portrait/BW1.jpg""style=""height:400px;""></img>",0,html-button-response,373,3591659,0.0-18.0-7.0,32774,List2B,white,man,,TRUE,0,,,,,
null,CORRECT,,html-keyboard-response,374,3593160,0.0-18.0-8.0-0.0,32774,List2B,white,man,,,,null,,,,
5337,"<img src=""portrait/BM1.jpg""style=""height:400px;""></img>",4,html-button-response,375,3598501,0.0-18.0-10.0,32774,List2B,white,man,,TRUE,4,,,,,
null,CORRECT,,html-keyboard-response,376,3600003,0.0-18.0-11.0-0.0,32774,List2B,white,man,,,,null,,,,
2470,"<img src=""portrait/WW2.jpg""style=""height:400px;""></img>",3,html-button-response,377,3602476,0.0-18.0-13.0,32774,List2B,white,man,,TRUE,3,,,,,
null,CORRECT,,html-keyboard-response,378,3603978,0.0-18.0-14.0-0.0,32774,List2B,white,man,,,,null,,,,
5547,"<img src=""portrait/BM2.jpg""style=""height:400px;""></img>",5,html-button-response,379,3609527,0.0-18.0-16.0,32774,List2B,white,man,,TRUE,5,,,,,
null,CORRECT,,html-keyboard-response,380,3611029,0.0-18.0-17.0-0.0,32774,List2B,white,man,,,,null,,,,
6792,"<img src=""portrait/WM1.jpg""style=""height:400px;""></img>",7,html-button-response,381,3617823,0.0-18.0-19.0,32774,List2B,white,man,,TRUE,6,,,,,
1780,"<img src=""portrait/WM1.jpg""style=""height:400px;""></img>",6,html-button-response,382,3620607,0.0-18.0-21.0-0.0,32774,List2B,white,man,,FALSE,6,,,,,
null,CORRECT,,html-keyboard-response,383,3622110,0.0-18.0-21.0-1.0-0.0,32774,List2B,white,man,,,,null,,,,
4281,"<img src=""portrait/BW2.jpg""style=""height:400px;""></img>",2,html-button-response,384,3626394,0.0-18.0-22.0,32774,List2B,white,man,,TRUE,2,,,,,
null,CORRECT,,html-keyboard-response,385,3627896,0.0-18.0-23.0-0.0,32774,List2B,white,man,,,,null,,,,
2149,<p>You got 7 out of 8 right first time. Press Continue.</p>,0,html-button-response,386,3630047,0.0-18.0-25.0,32774,List2B,white,man,,,,,,,,
1732,"As you did not score 100%, the memory game will repeat. Press Continue.",0,html-button-response,387,3632781,0.0-18.0-26.0-0.0,32774,List2B,white,man,,,,,,,,
1889,"<img src='img/portrait_matrix_list2.jpg' style='width:900px;height:500px;''></img><p>If you have memorised all the portraits and names and are ready to start, press Continue.</p><p><strong>Please note: Your memory of these faces will be tested 4 times during this experiment.</strong></p>",0,html-button-response,388,3635673,0.0-18.1-0.1,32774,List2B,white,man,,,,,,,,
4382,"<img src=""portrait/WM2.jpg""style=""height:400px;""></img>",7,html-button-response,389,3641058,0.0-18.1-1.1,32774,List2B,white,man,,TRUE,7,,,,,
null,CORRECT,,html-keyboard-response,390,3642560,0.0-18.1-2.1-0.1,32774,List2B,white,man,,,,null,,,,
1956,"<img src=""portrait/WW1.jpg""style=""height:400px;""></img>",1,html-button-response,391,3644518,0.0-18.1-4.1,32774,List2B,white,man,,TRUE,1,,,,,
null,CORRECT,,html-keyboard-response,392,3646020,0.0-18.1-5.1-0.1,32774,List2B,white,man,,,,null,,,,
4851,"<img src=""portrait/BW1.jpg""style=""height:400px;""></img>",0,html-button-response,393,3650873,0.0-18.1-7.1,32774,List2B,white,man,,TRUE,0,,,,,
null,CORRECT,,html-keyboard-response,394,3652375,0.0-18.1-8.1-0.1,32774,List2B,white,man,,,,null,,,,
6485,"<img src=""portrait/BM1.jpg""style=""height:400px;""></img>",4,html-button-response,395,3658863,0.0-18.1-10.1,32774,List2B,white,man,,TRUE,4,,,,,
null,CORRECT,,html-keyboard-response,396,3660365,0.0-18.1-11.1-0.1,32774,List2B,white,man,,,,null,,,,
2249,"<img src=""portrait/WW2.jpg""style=""height:400px;""></img>",3,html-button-response,397,3662617,0.0-18.1-13.1,32774,List2B,white,man,,TRUE,3,,,,,
null,CORRECT,,html-keyboard-response,398,3664119,0.0-18.1-14.1-0.1,32774,List2B,white,man,,,,null,,,,
4110,"<img src=""portrait/BM2.jpg""style=""height:400px;""></img>",5,html-button-response,399,3668231,0.0-18.1-16.1,32774,List2B,white,man,,TRUE,5,,,,,
null,CORRECT,,html-keyboard-response,400,3669733,0.0-18.1-17.1-0.1,32774,List2B,white,man,,,,null,,,,
2367,"<img src=""portrait/WM1.jpg""style=""height:400px;""></img>",6,html-button-response,401,3672102,0.0-18.1-19.1,32774,List2B,white,man,,TRUE,6,,,,,
null,CORRECT,,html-keyboard-response,402,3673604,0.0-18.1-20.1-0.1,32774,List2B,white,man,,,,null,,,,
5144,"<img src=""portrait/BW2.jpg""style=""height:400px;""></img>",2,html-button-response,403,3678750,0.0-18.1-22.1,32774,List2B,white,man,,TRUE,2,,,,,
null,CORRECT,,html-keyboard-response,404,3680252,0.0-18.1-23.1-0.1,32774,List2B,white,man,,,,null,,,,
1705,<p>You got 8 out of 8 right first time. Press Continue.</p>,0,html-button-response,405,3681959,0.0-18.1-25.1,32774,List2B,white,man,,,,,,,,
null,"<div style=""font-size:60px;"">+</div>",,html-keyboard-response,406,3683461,0.0-19.0-0.0,32774,List2B,white,man,,,,null,,,,
null,"<img src=""stim_listB/dance2.gif""style=""height:400px;""></stim_listB>",,html-keyboard-response,407,3685464,0.0-19.0-1.0,32774,List2B,white,man,,,,null,,,,
null,are dancing with each other,,html-keyboard-response,408,3687467,0.0-19.0-2.0,32774,List2B,white,man,,,,null,,,,
17714,,,survey-text,409,3705183,0.0-19.0-3.0,32774,List2B,white,man,,,,,"{""Q0"":""ruth is dancing with luke""}","<img src=""stim_listB/dance2.gif""style=""height:400px;""></stim_listB>",are dancing with each other,
null,"<div style=""font-size:60px;"">+</div>",,html-keyboard-response,410,3705685,0.0-19.0-0.1,32774,List2B,white,man,,,,null,,,,
null,"<img src=""stim_listB/play4.gif""style=""height:400px;""></stim_listB>",,html-keyboard-response,411,3707688,0.0-19.0-1.1,32774,List2B,white,man,,,,null,,,,
null,are playing with each other,,html-keyboard-response,412,3709689,0.0-19.0-2.1,32774,List2B,white,man,,,,null,,,,
18327,,,survey-text,413,3728017,0.0-19.0-3.1,32774,List2B,white,man,,,,,"{""Q0"":""fred is playing with beth""}","<img src=""stim_listB/play4.gif""style=""height:400px;""></stim_listB>",are playing with each other,
null,"<div style=""font-size:60px;"">+</div>",,html-keyboard-response,414,3728519,0.0-19.0-0.2,32774,List2B,white,man,,,,null,,,,
null,"<img src=""stim_listB/marry5.gif""style=""height:400px;""></stim_listB>",,html-keyboard-response,415,3730522,0.0-19.0-1.2,32774,List2B,white,man,,,,null,,,,
null,is marrying,,html-keyboard-response,416,3732524,0.0-19.0-2.2,32774,List2B,white,man,,,,null,,,,
21852,,,survey-text,417,3754378,0.0-19.0-3.2,32774,List2B,white,man,,,,,"{""Q0"":""fred is marrying dave""}","<img src=""stim_listB/marry5.gif""style=""height:400px;""></stim_listB>",is marrying,
null,"<div style=""font-size:60px;"">+</div>",,html-keyboard-response,418,3754880,0.0-19.0-0.3,32774,List2B,white,man,,,,null,,,,
null,"<img src=""stim_listB/dance3.gif""style=""height:400px;""></stim_listB>",,html-keyboard-response,419,3756883,0.0-19.0-1.3,32774,List2B,white,man,,,,null,,,,
null,is dancing with,,html-keyboard-response,420,3758885,0.0-19.0-2.3,32774,List2B,white,man,,,,null,,,,
30828,,,survey-text,421,3789715,0.0-19.0-3.3,32774,List2B,white,man,,,,,"{""Q0"":""beth is dancing with fred""}","<img src=""stim_listB/dance3.gif""style=""height:400px;""></stim_listB>",is dancing with,
null,"<div style=""font-size:60px;"">+</div>",,html-keyboard-response,422,3790217,0.0-19.0-0.4,32774,List2B,white,man,,,,null,,,,
null,"<img src=""stim_listB/shout1.gif""style=""height:400px;""></stim_listB>",,html-keyboard-response,423,3792220,0.0-19.0-1.4,32774,List2B,white,man,,,,null,,,,
null,is shouting at,,html-keyboard-response,424,3794222,0.0-19.0-2.4,32774,List2B,white,man,,,,null,,,,
16314,,,survey-text,425,3810538,0.0-19.0-3.4,32774,List2B,white,man,,,,,"{""Q0"":""luke is shouting at ruth""}","<img src=""stim_listB/shout1.gif""style=""height:400px;""></stim_listB>",is shouting at,
null,"<div style=""font-size:60px;"">+</div>",,html-keyboard-response,426,3811040,0.0-19.0-0.5,32774,List2B,white,man,,,,null,,,,
null,"<img src=""stim_listB/argue2.gif""style=""height:400px;""></stim_listB>",,html-keyboard-response,427,3813043,0.0-19.0-1.5,32774,List2B,white,man,,,,null,,,,
null,are arguing with each other,,html-keyboard-response,428,3815045,0.0-19.0-2.5,32774,List2B,white,man,,,,null,,,,
29215,,,survey-text,429,3844260,0.0-19.0-3.5,32774,List2B,white,man,,,,,"{""Q0"":""luke is shouting at ruth""}","<img src=""stim_listB/argue2.gif""style=""height:400px;""></stim_listB>",are arguing with each other,
null,"<div style=""font-size:60px;"">+</div>",,html-keyboard-response,430,3844763,0.0-19.0-0.6,32774,List2B,white,man,,,,null,,,,
null,"<img src=""stim_listB/argue4.gif""style=""height:400px;""></stim_listB>",,html-keyboard-response,431,3846766,0.0-19.0-1.6,32774,List2B,white,man,,,,null,,,,
null,are arguing with each other,,html-keyboard-response,432,3848767,0.0-19.0-2.6,32774,List2B,white,man,,,,null,,,,
18959,,,survey-text,433,3867728,0.0-19.0-3.6,32774,List2B,white,man,,,,,"{""Q0"":""fred is arguing with kate""}","<img src=""stim_listB/argue4.gif""style=""height:400px;""></stim_listB>",are arguing with each other,
null,"<div style=""font-size:60px;"">+</div>",,html-keyboard-response,434,3868230,0.0-19.0-0.7,32774,List2B,white,man,,,,null,,,,
null,"<img src=""stim_listB/shout5.gif""style=""height:400px;""></stim_listB>",,html-keyboard-response,435,3870233,0.0-19.0-1.7,32774,List2B,white,man,,,,null,,,,
null,is shouting at,,html-keyboard-response,436,3872235,0.0-19.0-2.7,32774,List2B,white,man,,,,null,,,,
104090,,,survey-text,437,3976327,0.0-19.0-3.7,32774,List2B,white,man,,,,,"{""Q0"":""fred is shouting at luke""}","<img src=""stim_listB/shout5.gif""style=""height:400px;""></stim_listB>",is shouting at,
null,"<div style=""font-size:60px;"">+</div>",,html-keyboard-response,438,3976828,0.0-19.0-0.8,32774,List2B,white,man,,,,null,,,,
null,"<img src=""stim_listB/play3.gif""style=""height:400px;""></stim_listB>",,html-keyboard-response,439,3978831,0.0-19.0-1.8,32774,List2B,white,man,,,,null,,,,
null,is playing with,,html-keyboard-response,440,3980832,0.0-19.0-2.8,32774,List2B,white,man,,,,null,,,,
18357,,,survey-text,441,3999191,0.0-19.0-3.8,32774,List2B,white,man,,,,,"{""Q0"":""mike is playing with kate""}","<img src=""stim_listB/play3.gif""style=""height:400px;""></stim_listB>",is playing with,
null,"<div style=""font-size:60px;"">+</div>",,html-keyboard-response,442,3999693,0.0-19.0-0.9,32774,List2B,white,man,,,,null,,,,
null,"<img src=""stim_listB/flirt4.gif""style=""height:400px;""></stim_listB>",,html-keyboard-response,443,4001696,0.0-19.0-1.9,32774,List2B,white,man,,,,null,,,,
null,are flirting with each other,,html-keyboard-response,444,4003698,0.0-19.0-2.9,32774,List2B,white,man,,,,null,,,,
17826,,,survey-text,445,4021525,0.0-19.0-3.9,32774,List2B,white,man,,,,,"{""Q0"":""mike is flirting with beth""}","<img src=""stim_listB/flirt4.gif""style=""height:400px;""></stim_listB>",are flirting with each other,
null,"<div style=""font-size:60px;"">+</div>",,html-keyboard-response,446,4022027,0.0-19.0-0.10,32774,List2B,white,man,,,,null,,,,
null,"<img src=""stim_listB/touch7.gif""style=""height:400px;""></stim_listB>",,html-keyboard-response,447,4024030,0.0-19.0-1.10,32774,List2B,white,man,,,,null,,,,
null,is touching,,html-keyboard-response,448,4026032,0.0-19.0-2.10,32774,List2B,white,man,,,,null,,,,
15283,,,survey-text,449,4041317,0.0-19.0-3.10,32774,List2B,white,man,,,,,"{""Q0"":""jane is touching kate""}","<img src=""stim_listB/touch7.gif""style=""height:400px;""></stim_listB>",is touching,
null,"<div style=""font-size:60px;"">+</div>",,html-keyboard-response,450,4041818,0.0-19.0-0.11,32774,List2B,white,man,,,,null,,,,
null,"<img src=""stim_listB/dance7.gif""style=""height:400px;""></stim_listB>",,html-keyboard-response,451,4043822,0.0-19.0-1.11,32774,List2B,white,man,,,,null,,,,
null,is dancing with,,html-keyboard-response,452,4045823,0.0-19.0-2.11,32774,List2B,white,man,,,,null,,,,
17628,,,survey-text,453,4063452,0.0-19.0-3.11,32774,List2B,white,man,,,,,"{""Q0"":""kate is dancing with ruth""}","<img src=""stim_listB/dance7.gif""style=""height:400px;""></stim_listB>",is dancing with,
null,"<div style=""font-size:60px;"">+</div>",,html-keyboard-response,454,4063953,0.0-19.0-0.12,32774,List2B,white,man,,,,null,,,,
null,"<img src=""stim_listB/marry4.gif""style=""height:400px;""></stim_listB>",,html-keyboard-response,455,4065956,0.0-19.0-1.12,32774,List2B,white,man,,,,null,,,,
null,are marrying each other,,html-keyboard-response,456,4067957,0.0-19.0-2.12,32774,List2B,white,man,,,,null,,,,
59524,,,survey-text,457,4127483,0.0-19.0-3.12,32774,List2B,white,man,,,,,"{""Q0"":""kate is marrying fred""}","<img src=""stim_listB/marry4.gif""style=""height:400px;""></stim_listB>",are marrying each other,
null,"<div style=""font-size:60px;"">+</div>",,html-keyboard-response,458,4127985,0.0-19.0-0.13,32774,List2B,white,man,,,,null,,,,
null,"<img src=""stim_listB/play1.gif""style=""height:400px;""></stim_listB>",,html-keyboard-response,459,4129988,0.0-19.0-1.13,32774,List2B,white,man,,,,null,,,,
null,is playing with,,html-keyboard-response,460,4131990,0.0-19.0-2.13,32774,List2B,white,man,,,,null,,,,
15010,,,survey-text,461,4147001,0.0-19.0-3.13,32774,List2B,white,man,,,,,"{""Q0"":""jane is playing with dave""}","<img src=""stim_listB/play1.gif""style=""height:400px;""></stim_listB>",is playing with,
null,"<div style=""font-size:60px;"">+</div>",,html-keyboard-response,462,4147503,0.0-19.0-0.14,32774,List2B,white,man,,,,null,,,,
null,"<img src=""stim_listB/talk8.gif""style=""height:400px;""></stim_listB>",,html-keyboard-response,463,4149506,0.0-19.0-1.14,32774,List2B,white,man,,,,null,,,,
null,are talking to each other,,html-keyboard-response,464,4151508,0.0-19.0-2.14,32774,List2B,white,man,,,,null,,,,
28566,,,survey-text,465,4180076,0.0-19.0-3.14,32774,List2B,white,man,,,,,"{""Q0"":""beth is talking to jane""}","<img src=""stim_listB/talk8.gif""style=""height:400px;""></stim_listB>",are talking to each other,
null,"<div style=""font-size:60px;"">+</div>",,html-keyboard-response,466,4180577,0.0-19.0-0.15,32774,List2B,white,man,,,,null,,,,
null,"<img src=""stim_listB/argue3.gif""style=""height:400px;""></stim_listB>",,html-keyboard-response,467,4182580,0.0-19.0-1.15,32774,List2B,white,man,,,,null,,,,
null,is arguing with,,html-keyboard-response,468,4184582,0.0-19.0-2.15,32774,List2B,white,man,,,,null,,,,
15512,,,survey-text,469,4200096,0.0-19.0-3.15,32774,List2B,white,man,,,,,"{""Q0"":""fred is arguing with mike""}","<img src=""stim_listB/argue3.gif""style=""height:400px;""></stim_listB>",is arguing with,
null,"<div style=""font-size:60px;"">+</div>",,html-keyboard-response,470,4200598,0.0-19.0-0.16,32774,List2B,white,man,,,,null,,,,
null,"<img src=""stim_listB/flirt5.gif""style=""height:400px;""></stim_listB>",,html-keyboard-response,471,4202601,0.0-19.0-1.16,32774,List2B,white,man,,,,null,,,,
null,is flirting with,,html-keyboard-response,472,4204603,0.0-19.0-2.16,32774,List2B,white,man,,,,null,,,,
17313,,,survey-text,473,4221917,0.0-19.0-3.16,32774,List2B,white,man,,,,,"{""Q0"":""luke is flirting with mike""}","<img src=""stim_listB/flirt5.gif""style=""height:400px;""></stim_listB>",is flirting with,
null,"<div style=""font-size:60px;"">+</div>",,html-keyboard-response,474,4222419,0.0-19.0-0.17,32774,List2B,white,man,,,,null,,,,
null,"<img src=""stim_listB/shout6.gif""style=""height:400px;""></stim_listB>",,html-keyboard-response,475,4224422,0.0-19.0-1.17,32774,List2B,white,man,,,,null,,,,
null,are shouting at each other,,html-keyboard-response,476,4226424,0.0-19.0-2.17,32774,List2B,white,man,,,,null,,,,
17734,,,survey-text,477,4244160,0.0-19.0-3.17,32774,List2B,white,man,,,,,"{""Q0"":""mike is shouting at dave""}","<img src=""stim_listB/shout6.gif""style=""height:400px;""></stim_listB>",are shouting at each other,
null,"<div style=""font-size:60px;"">+</div>",,html-keyboard-response,478,4244662,0.0-19.0-0.18,32774,List2B,white,man,,,,null,,,,
null,"<img src=""stim_listB/shout4.gif""style=""height:400px;""></stim_listB>",,html-keyboard-response,479,4246665,0.0-19.0-1.18,32774,List2B,white,man,,,,null,,,,
null,are shouting at each other,,html-keyboard-response,480,4248666,0.0-19.0-2.18,32774,List2B,white,man,,,,null,,,,
41752,,,survey-text,481,4290420,0.0-19.0-3.18,32774,List2B,white,man,,,,,"{""Q0"":""mike is shouting at kate""}","<img src=""stim_listB/shout4.gif""style=""height:400px;""></stim_listB>",are shouting at each other,
null,"<div style=""font-size:60px;"">+</div>",,html-keyboard-response,482,4290921,0.0-19.0-0.19,32774,List2B,white,man,,,,null,,,,
null,"<img src=""stim_listB/fight3.gif""style=""height:400px;""></stim_listB>",,html-keyboard-response,483,4292924,0.0-19.0-1.19,32774,List2B,white,man,,,,null,,,,
null,is fighting,,html-keyboard-response,484,4294925,0.0-19.0-2.19,32774,List2B,white,man,,,,null,,,,
16344,,,survey-text,485,4311271,0.0-19.0-3.19,32774,List2B,white,man,,,,,"{""Q0"":""mike is fighting kate""}","<img src=""stim_listB/fight3.gif""style=""height:400px;""></stim_listB>",is fighting,
2818,<p>Thank you for completing that task.</p><p>The final part of this session is a short questionnaire.</p><p>Press Continue.</p>,0,html-button-response,486,4314091,0.0-20.0,32774,List2B,white,man,,,,,,,,
42739,,,survey-text,487,4357835,0.0-21.0,32774,List2B,white,man,,,,,"{""Q0"":""55"",""Q1"":""english"",""Q2"":""english"",""Q3"":""united kingdom"",""Q4"":""british"",""Q5"":""male""}",,,demographics
9010,,,survey-likert,488,4366851,0.0-22.0,32774,List2B,white,man,,,,,"{""Q0"":4}",,,likert_ESS
18788,,,survey-likert,489,4385642,0.0-23.0,32774,List2B,white,man,,,,,"{""Q0"":0}",,,likert_NSSAL_Q1
8044,,,survey-likert,490,4393690,0.0-24.0,32774,List2B,white,man,,,,,"{""Q0"":0}",,,likert_NSSAL_Q2
5101,,,survey-likert,491,4398795,0.0-25.0,32774,List2B,white,man,,,,,"{""Q0"":4}",,,likert_CGRS_Q1
5143,,,survey-likert,492,4403941,0.0-26.0,32774,List2B,white,man,,,,,"{""Q0"":4}",,,likert_CGRS_Q2
3634,,,survey-likert,493,4407579,0.0-27.0,32774,List2B,white,man,,,,,"{""Q0"":4}",,,likert_CGRS_Q3
11655,,,survey-text,494,4419237,0.0-28.0,32774,List2B,white,man,,,,,"{""Q0"":""ccc""}",,,worker_id
26076,,,external-html,495,4445661,0.0-29.0,32774,List2B,white,man,debrief.html,,,,,,,
