rt,stimulus,button_pressed,trial_type,trial_index,time_elapsed,internal_node_id,subject,list,ppt_race,ppt_gender,url,first_guess,correct,key_press,responses,image_type,phrase_type,test_part
9580,Welcome to the experiment. Press Continue to begin.,0,html-button-response,0,9583,0.0-0.0,32797,List1B,black,man,,,,,,,,
69442,,,external-html,1,80101,0.0-1.0,32797,List1B,black,man,consent.html,,,,,,,
7773,"<p>On the next page, you will see portraits of 8 people and their names.</p><p>Your first task is to take a few minutes to memorise the names of these people.</p><p>You will have to recall their names during the rest of the experiment, so it is</p><p>essential that you try to memorise these people and their names as best as you can.</p><br><p><strong>You will then be tested on your memory of these names and portraits.</strong></p><br><p>The experiment will start after you have completed this memory test.</p><br><p>Ready?</p>",0,html-button-response,2,87876,0.0-2.0,32797,List1B,black,man,,,,,,,,
45192,"<img src='img/portrait_matrix_list1.jpg' style='width:900px;height:500px;''></img><p>If you have memorised all the portraits and names and are ready to start, press Continue.</p><p><strong>Please note: Your memory of these faces will be tested 4 times during this experiment.</strong></p>",0,html-button-response,3,134069,0.0-3.0-0.0,32797,List1B,black,man,,,,,,,,
3488,"<img src=""portrait/BW1.jpg""style=""height:400px;""></img>",2,html-button-response,4,138560,0.0-3.0-1.0,32797,List1B,black,man,,TRUE,0,,,,,
4688,"<img src=""portrait/BW1.jpg""style=""height:400px;""></img>",0,html-button-response,5,144252,0.0-3.0-3.0-0.0,32797,List1B,black,man,,FALSE,0,,,,,
null,CORRECT,,html-keyboard-response,6,145756,0.0-3.0-3.0-1.0-0.0,32797,List1B,black,man,,,,null,,,,
13123,"<img src=""portrait/WM1.jpg""style=""height:400px;""></img>",6,html-button-response,7,158881,0.0-3.0-4.0,32797,List1B,black,man,,TRUE,6,,,,,
null,CORRECT,,html-keyboard-response,8,160386,0.0-3.0-5.0-0.0,32797,List1B,black,man,,,,null,,,,
4759,"<img src=""portrait/BW2.jpg""style=""height:400px;""></img>",2,html-button-response,9,165146,0.0-3.0-7.0,32797,List1B,black,man,,TRUE,2,,,,,
null,CORRECT,,html-keyboard-response,10,166648,0.0-3.0-8.0-0.0,32797,List1B,black,man,,,,null,,,,
2281,"<img src=""portrait/WW1.jpg""style=""height:400px;""></img>",1,html-button-response,11,168931,0.0-3.0-10.0,32797,List1B,black,man,,TRUE,1,,,,,
null,CORRECT,,html-keyboard-response,12,170434,0.0-3.0-11.0-0.0,32797,List1B,black,man,,,,null,,,,
1535,"<img src=""portrait/WW2.jpg""style=""height:400px;""></img>",3,html-button-response,13,171970,0.0-3.0-13.0,32797,List1B,black,man,,TRUE,3,,,,,
null,CORRECT,,html-keyboard-response,14,173473,0.0-3.0-14.0-0.0,32797,List1B,black,man,,,,null,,,,
1670,"<img src=""portrait/WM2.jpg""style=""height:400px;""></img>",7,html-button-response,15,175144,0.0-3.0-16.0,32797,List1B,black,man,,TRUE,7,,,,,
null,CORRECT,,html-keyboard-response,16,176646,0.0-3.0-17.0-0.0,32797,List1B,black,man,,,,null,,,,
1714,"<img src=""portrait/BM1.jpg""style=""height:400px;""></img>",4,html-button-response,17,178362,0.0-3.0-19.0,32797,List1B,black,man,,TRUE,4,,,,,
null,CORRECT,,html-keyboard-response,18,179863,0.0-3.0-20.0-0.0,32797,List1B,black,man,,,,null,,,,
4529,"<img src=""portrait/BM2.jpg""style=""height:400px;""></img>",5,html-button-response,19,184394,0.0-3.0-22.0,32797,List1B,black,man,,TRUE,5,,,,,
null,CORRECT,,html-keyboard-response,20,185897,0.0-3.0-23.0-0.0,32797,List1B,black,man,,,,null,,,,
1226,<p>You got 7 out of 8 right first time. Press Continue.</p>,0,html-button-response,21,187125,0.0-3.0-25.0,32797,List1B,black,man,,,,,,,,
3144,"As you did not score 100%, the memory game will repeat. Press Continue.",0,html-button-response,22,191272,0.0-3.0-26.0-0.0,32797,List1B,black,man,,,,,,,,
6285,"<img src='img/portrait_matrix_list1.jpg' style='width:900px;height:500px;''></img><p>If you have memorised all the portraits and names and are ready to start, press Continue.</p><p><strong>Please note: Your memory of these faces will be tested 4 times during this experiment.</strong></p>",0,html-button-response,23,198561,0.0-3.1-0.1,32797,List1B,black,man,,,,,,,,
4489,"<img src=""portrait/BW1.jpg""style=""height:400px;""></img>",0,html-button-response,24,204052,0.0-3.1-1.1,32797,List1B,black,man,,TRUE,0,,,,,
null,CORRECT,,html-keyboard-response,25,205556,0.0-3.1-2.1-0.1,32797,List1B,black,man,,,,null,,,,
1707,"<img src=""portrait/WM1.jpg""style=""height:400px;""></img>",6,html-button-response,26,207264,0.0-3.1-4.1,32797,List1B,black,man,,TRUE,6,,,,,
null,CORRECT,,html-keyboard-response,27,208766,0.0-3.1-5.1-0.1,32797,List1B,black,man,,,,null,,,,
2170,"<img src=""portrait/BW2.jpg""style=""height:400px;""></img>",2,html-button-response,28,210938,0.0-3.1-7.1,32797,List1B,black,man,,TRUE,2,,,,,
null,CORRECT,,html-keyboard-response,29,212440,0.0-3.1-8.1-0.1,32797,List1B,black,man,,,,null,,,,
1750,"<img src=""portrait/WW1.jpg""style=""height:400px;""></img>",1,html-button-response,30,214192,0.0-3.1-10.1,32797,List1B,black,man,,TRUE,1,,,,,
null,CORRECT,,html-keyboard-response,31,215694,0.0-3.1-11.1-0.1,32797,List1B,black,man,,,,null,,,,
1187,"<img src=""portrait/WW2.jpg""style=""height:400px;""></img>",3,html-button-response,32,216883,0.0-3.1-13.1,32797,List1B,black,man,,TRUE,3,,,,,
null,CORRECT,,html-keyboard-response,33,218385,0.0-3.1-14.1-0.1,32797,List1B,black,man,,,,null,,,,
1905,"<img src=""portrait/WM2.jpg""style=""height:400px;""></img>",7,html-button-response,34,220292,0.0-3.1-16.1,32797,List1B,black,man,,TRUE,7,,,,,
null,CORRECT,,html-keyboard-response,35,221793,0.0-3.1-17.1-0.1,32797,List1B,black,man,,,,null,,,,
1152,"<img src=""portrait/BM1.jpg""style=""height:400px;""></img>",4,html-button-response,36,222946,0.0-3.1-19.1,32797,List1B,black,man,,TRUE,4,,,,,
null,CORRECT,,html-keyboard-response,37,224450,0.0-3.1-20.1-0.1,32797,List1B,black,man,,,,null,,,,
1765,"<img src=""portrait/BM2.jpg""style=""height:400px;""></img>",5,html-button-response,38,226218,0.0-3.1-22.1,32797,List1B,black,man,,TRUE,5,,,,,
null,CORRECT,,html-keyboard-response,39,227720,0.0-3.1-23.1-0.1,32797,List1B,black,man,,,,null,,,,
772,<p>You got 8 out of 8 right first time. Press Continue.</p>,0,html-button-response,40,228493,0.0-3.1-25.1,32797,List1B,black,man,,,,,,,,
47155,"<p>In this experiment, you will view photographs of the people from the memory game interacting.</p><p>By using the <strong>exact</strong> phrase given <i>after</i> the photograph appears and recalling the correct names of the people in the photographs, form a sentence describing the interaction. You do not need to capitalise names.</p><p>Type your answer in the space provided. Please complete every sentence before moving onto the next trial.</p><p>You will only have a few seconds to memorise each given photograph and phrase before you can respond, so try your best to focus.</p><p>An example is given below. Press 'Continue' when you are ready.</p><img src='img/speaking_example.jpg' style='width:800px;height:460px;''></img>",0,html-button-response,41,276649,0.0-4.0,32797,List1B,black,man,,,,,,,,
1758,"<p>Before the experiment starts, you will watch two example trials. Press 'Continue'.</p>",0,html-button-response,42,279409,0.0-5.0,32797,List1B,black,man,,,,,,,,
null,<img src='img/meet_eg.gif' style='height:400px;''></img>,,html-keyboard-response,43,282415,0.0-6.0,32797,List1B,black,man,,,,null,,,,
null,<p>is meeting</p>,,html-keyboard-response,44,284418,0.0-7.0,32797,List1B,black,man,,,,null,,,,
2970,<p><b>Answer:</b> kate is meeting beth</p>,0,html-button-response,45,287389,0.0-8.0,32797,List1B,black,man,,,,,,,,
null,<img src='img/look_eg.gif' style='height:400px;''></img>,,html-keyboard-response,46,290391,0.0-9.0,32797,List1B,black,man,,,,null,,,,
null,<p>are looking at each other</p>,,html-keyboard-response,47,292393,0.0-10.0,32797,List1B,black,man,,,,null,,,,
2279,<p><b>Answer:</b> luke and dave are looking at each other</p>,0,html-button-response,48,294673,0.0-11.0,32797,List1B,black,man,,,,,,,,
15507,"<p>Ready to start the experiment?</p><br><p><strong>Remember to describe the picture using a full sentence,</strong></p><p><strong>that combines the names of the people with the <i>exact</i> phrase given.</strong></p><p><strong>To receive full payment you must do this correctly.</strong></p><p><strong> You do not need to capitalise names or use punctuation.</strong></p><br><p>Press 'Continue' to begin.</p>",0,html-button-response,49,311183,0.0-12.0,32797,List1B,black,man,,,,,,,,
null,"<div style=""font-size:60px;"">+</div>",,html-keyboard-response,50,312685,0.0-13.0-0.0,32797,List1B,black,man,,,,null,,,,
null,"<img src=""stim_listB/marry1.gif""style=""height:400px;""></stim_listB>",,html-keyboard-response,51,314687,0.0-13.0-1.0,32797,List1B,black,man,,,,null,,,,
null,is marrying,,html-keyboard-response,52,316689,0.0-13.0-2.0,32797,List1B,black,man,,,,null,,,,
7278,,,survey-text,53,323969,0.0-13.0-3.0,32797,List1B,black,man,,,,,"{""Q0"":""Mike is marrying beth""}","<img src=""stim_listB/marry1.gif""style=""height:400px;""></stim_listB>",is marrying,
null,"<div style=""font-size:60px;"">+</div>",,html-keyboard-response,54,324470,0.0-13.0-0.1,32797,List1B,black,man,,,,null,,,,
null,"<img src=""stim_listB/fight4.gif""style=""height:400px;""></stim_listB>",,html-keyboard-response,55,326472,0.0-13.0-1.1,32797,List1B,black,man,,,,null,,,,
null,are fighting each other,,html-keyboard-response,56,328473,0.0-13.0-2.1,32797,List1B,black,man,,,,null,,,,
9462,,,survey-text,57,337937,0.0-13.0-3.1,32797,List1B,black,man,,,,,"{""Q0"":""luke and ruth are fighting each other""}","<img src=""stim_listB/fight4.gif""style=""height:400px;""></stim_listB>",are fighting each other,
null,"<div style=""font-size:60px;"">+</div>",,html-keyboard-response,58,338438,0.0-13.0-0.2,32797,List1B,black,man,,,,null,,,,
null,"<img src=""stim_listB/touch1.gif""style=""height:400px;""></stim_listB>",,html-keyboard-response,59,340439,0.0-13.0-1.2,32797,List1B,black,man,,,,null,,,,
null,is touching,,html-keyboard-response,60,342441,0.0-13.0-2.2,32797,List1B,black,man,,,,null,,,,
6389,,,survey-text,61,348830,0.0-13.0-3.2,32797,List1B,black,man,,,,,"{""Q0"":""mike is touching kate""}","<img src=""stim_listB/touch1.gif""style=""height:400px;""></stim_listB>",is touching,
null,"<div style=""font-size:60px;"">+</div>",,html-keyboard-response,62,349332,0.0-13.0-0.3,32797,List1B,black,man,,,,null,,,,
null,"<img src=""stim_listB/touch3.gif""style=""height:400px;""></stim_listB>",,html-keyboard-response,63,351333,0.0-13.0-1.3,32797,List1B,black,man,,,,null,,,,
null,is touching,,html-keyboard-response,64,353334,0.0-13.0-2.3,32797,List1B,black,man,,,,null,,,,
7116,,,survey-text,65,360450,0.0-13.0-3.3,32797,List1B,black,man,,,,,"{""Q0"":""Dave is touching Jane""}","<img src=""stim_listB/touch3.gif""style=""height:400px;""></stim_listB>",is touching,
null,"<div style=""font-size:60px;"">+</div>",,html-keyboard-response,66,360951,0.0-13.0-0.4,32797,List1B,black,man,,,,null,,,,
null,"<img src=""stim_listB/talk6.gif""style=""height:400px;""></stim_listB>",,html-keyboard-response,67,362954,0.0-13.0-1.4,32797,List1B,black,man,,,,null,,,,
null,are talking to each other,,html-keyboard-response,68,364955,0.0-13.0-2.4,32797,List1B,black,man,,,,null,,,,
48158,,,survey-text,69,413113,0.0-13.0-3.4,32797,List1B,black,man,,,,,"{""Q0"":""Luke and Mike are talking to each other""}","<img src=""stim_listB/talk6.gif""style=""height:400px;""></stim_listB>",are talking to each other,
null,"<div style=""font-size:60px;"">+</div>",,html-keyboard-response,70,413616,0.0-13.0-0.5,32797,List1B,black,man,,,,null,,,,
null,"<img src=""stim_listB/shout6.gif""style=""height:400px;""></stim_listB>",,html-keyboard-response,71,415618,0.0-13.0-1.5,32797,List1B,black,man,,,,null,,,,
null,are shouting at each other,,html-keyboard-response,72,417618,0.0-13.0-2.5,32797,List1B,black,man,,,,null,,,,
13415,,,survey-text,73,431035,0.0-13.0-3.5,32797,List1B,black,man,,,,,"{""Q0"":""Dave and Mike are shouting at each other""}","<img src=""stim_listB/shout6.gif""style=""height:400px;""></stim_listB>",are shouting at each other,
null,"<div style=""font-size:60px;"">+</div>",,html-keyboard-response,74,431536,0.0-13.0-0.6,32797,List1B,black,man,,,,null,,,,
null,"<img src=""stim_listB/talk8.gif""style=""height:400px;""></stim_listB>",,html-keyboard-response,75,433538,0.0-13.0-1.6,32797,List1B,black,man,,,,null,,,,
null,are talking to each other,,html-keyboard-response,76,435538,0.0-13.0-2.6,32797,List1B,black,man,,,,null,,,,
12054,,,survey-text,77,447593,0.0-13.0-3.6,32797,List1B,black,man,,,,,"{""Q0"":""Ruth and Kate are talking to each other""}","<img src=""stim_listB/talk8.gif""style=""height:400px;""></stim_listB>",are talking to each other,
null,"<div style=""font-size:60px;"">+</div>",,html-keyboard-response,78,448095,0.0-13.0-0.7,32797,List1B,black,man,,,,null,,,,
null,"<img src=""stim_listB/marry6.gif""style=""height:400px;""></stim_listB>",,html-keyboard-response,79,450097,0.0-13.0-1.7,32797,List1B,black,man,,,,null,,,,
null,are marrying each other,,html-keyboard-response,80,452100,0.0-13.0-2.7,32797,List1B,black,man,,,,null,,,,
10835,,,survey-text,81,462935,0.0-13.0-3.7,32797,List1B,black,man,,,,,"{""Q0"":""Dave and Fred are marrying each other""}","<img src=""stim_listB/marry6.gif""style=""height:400px;""></stim_listB>",are marrying each other,
null,"<div style=""font-size:60px;"">+</div>",,html-keyboard-response,82,463437,0.0-13.0-0.8,32797,List1B,black,man,,,,null,,,,
null,"<img src=""stim_listB/shout8.gif""style=""height:400px;""></stim_listB>",,html-keyboard-response,83,465439,0.0-13.0-1.8,32797,List1B,black,man,,,,null,,,,
null,are shouting at each other,,html-keyboard-response,84,467440,0.0-13.0-2.8,32797,List1B,black,man,,,,null,,,,
10610,,,survey-text,85,478051,0.0-13.0-3.8,32797,List1B,black,man,,,,,"{""Q0"":""Jane and Kate are shouting at each other""}","<img src=""stim_listB/shout8.gif""style=""height:400px;""></stim_listB>",are shouting at each other,
null,"<div style=""font-size:60px;"">+</div>",,html-keyboard-response,86,478553,0.0-13.0-0.9,32797,List1B,black,man,,,,null,,,,
null,"<img src=""stim_listB/marry3.gif""style=""height:400px;""></stim_listB>",,html-keyboard-response,87,480554,0.0-13.0-1.9,32797,List1B,black,man,,,,null,,,,
null,is marrying,,html-keyboard-response,88,482556,0.0-13.0-2.9,32797,List1B,black,man,,,,null,,,,
10507,,,survey-text,89,493065,0.0-13.0-3.9,32797,List1B,black,man,,,,,"{""Q0"":""Ruth is marrying Dave""}","<img src=""stim_listB/marry3.gif""style=""height:400px;""></stim_listB>",is marrying,
null,"<div style=""font-size:60px;"">+</div>",,html-keyboard-response,90,493566,0.0-13.0-0.10,32797,List1B,black,man,,,,null,,,,
null,"<img src=""stim_listB/marry2.gif""style=""height:400px;""></stim_listB>",,html-keyboard-response,91,495568,0.0-13.0-1.10,32797,List1B,black,man,,,,null,,,,
null,are marrying each other,,html-keyboard-response,92,497570,0.0-13.0-2.10,32797,List1B,black,man,,,,null,,,,
8873,,,survey-text,93,506444,0.0-13.0-3.10,32797,List1B,black,man,,,,,"{""Q0"":""Kate and Fred are marrying each other""}","<img src=""stim_listB/marry2.gif""style=""height:400px;""></stim_listB>",are marrying each other,
null,"<div style=""font-size:60px;"">+</div>",,html-keyboard-response,94,506946,0.0-13.0-0.11,32797,List1B,black,man,,,,null,,,,
null,"<img src=""stim_listB/shout7.gif""style=""height:400px;""></stim_listB>",,html-keyboard-response,95,508948,0.0-13.0-1.11,32797,List1B,black,man,,,,null,,,,
null,is shouting at,,html-keyboard-response,96,510949,0.0-13.0-2.11,32797,List1B,black,man,,,,null,,,,
7438,,,survey-text,97,518388,0.0-13.0-3.11,32797,List1B,black,man,,,,,"{""Q0"":""Ruth is shouting at Beth""}","<img src=""stim_listB/shout7.gif""style=""height:400px;""></stim_listB>",is shouting at,
null,"<div style=""font-size:60px;"">+</div>",,html-keyboard-response,98,518891,0.0-13.0-0.12,32797,List1B,black,man,,,,null,,,,
null,"<img src=""stim_listB/play3.gif""style=""height:400px;""></stim_listB>",,html-keyboard-response,99,520892,0.0-13.0-1.12,32797,List1B,black,man,,,,null,,,,
null,is playing with,,html-keyboard-response,100,522893,0.0-13.0-2.12,32797,List1B,black,man,,,,null,,,,
8126,,,survey-text,101,531020,0.0-13.0-3.12,32797,List1B,black,man,,,,,"{""Q0"":""Dave is playing with Jane""}","<img src=""stim_listB/play3.gif""style=""height:400px;""></stim_listB>",is playing with,
null,"<div style=""font-size:60px;"">+</div>",,html-keyboard-response,102,531522,0.0-13.0-0.13,32797,List1B,black,man,,,,null,,,,
null,"<img src=""stim_listB/touch6.gif""style=""height:400px;""></stim_listB>",,html-keyboard-response,103,533523,0.0-13.0-1.13,32797,List1B,black,man,,,,null,,,,
null,are touching each other,,html-keyboard-response,104,535524,0.0-13.0-2.13,32797,List1B,black,man,,,,null,,,,
16292,,,survey-text,105,551817,0.0-13.0-3.13,32797,List1B,black,man,,,,,"{""Q0"":""Luke and Fred are touching each other""}","<img src=""stim_listB/touch6.gif""style=""height:400px;""></stim_listB>",are touching each other,
null,"<div style=""font-size:60px;"">+</div>",,html-keyboard-response,106,552318,0.0-13.0-0.14,32797,List1B,black,man,,,,null,,,,
null,"<img src=""stim_listB/talk4.gif""style=""height:400px;""></stim_listB>",,html-keyboard-response,107,554320,0.0-13.0-1.14,32797,List1B,black,man,,,,null,,,,
null,are talking to each other,,html-keyboard-response,108,556321,0.0-13.0-2.14,32797,List1B,black,man,,,,null,,,,
8111,,,survey-text,109,564433,0.0-13.0-3.14,32797,List1B,black,man,,,,,"{""Q0"":""Ruth and Dave are talking to each other""}","<img src=""stim_listB/talk4.gif""style=""height:400px;""></stim_listB>",are talking to each other,
null,"<div style=""font-size:60px;"">+</div>",,html-keyboard-response,110,564935,0.0-13.0-0.15,32797,List1B,black,man,,,,null,,,,
null,"<img src=""stim_listB/shout4.gif""style=""height:400px;""></stim_listB>",,html-keyboard-response,111,566936,0.0-13.0-1.15,32797,List1B,black,man,,,,null,,,,
null,are shouting at each other,,html-keyboard-response,112,568937,0.0-13.0-2.15,32797,List1B,black,man,,,,null,,,,
12825,,,survey-text,113,581763,0.0-13.0-3.15,32797,List1B,black,man,,,,,"{""Q0"":""Jane and Dave are shouting at each other""}","<img src=""stim_listB/shout4.gif""style=""height:400px;""></stim_listB>",are shouting at each other,
null,"<div style=""font-size:60px;"">+</div>",,html-keyboard-response,114,582265,0.0-13.0-0.16,32797,List1B,black,man,,,,null,,,,
null,"<img src=""stim_listB/play2.gif""style=""height:400px;""></stim_listB>",,html-keyboard-response,115,584268,0.0-13.0-1.16,32797,List1B,black,man,,,,null,,,,
null,are playing with each other,,html-keyboard-response,116,586270,0.0-13.0-2.16,32797,List1B,black,man,,,,null,,,,
8147,,,survey-text,117,594417,0.0-13.0-3.16,32797,List1B,black,man,,,,,"{""Q0"":""Beth and Fred are playing with each other.""}","<img src=""stim_listB/play2.gif""style=""height:400px;""></stim_listB>",are playing with each other,
null,"<div style=""font-size:60px;"">+</div>",,html-keyboard-response,118,594919,0.0-13.0-0.17,32797,List1B,black,man,,,,null,,,,
null,"<img src=""stim_listB/marry7.gif""style=""height:400px;""></stim_listB>",,html-keyboard-response,119,596921,0.0-13.0-1.17,32797,List1B,black,man,,,,null,,,,
null,is marrying,,html-keyboard-response,120,598922,0.0-13.0-2.17,32797,List1B,black,man,,,,null,,,,
11142,,,survey-text,121,610064,0.0-13.0-3.17,32797,List1B,black,man,,,,,"{""Q0"":""Ruth is marrying Kate""}","<img src=""stim_listB/marry7.gif""style=""height:400px;""></stim_listB>",is marrying,
null,"<div style=""font-size:60px;"">+</div>",,html-keyboard-response,122,610566,0.0-13.0-0.18,32797,List1B,black,man,,,,null,,,,
null,"<img src=""stim_listB/shout5.gif""style=""height:400px;""></stim_listB>",,html-keyboard-response,123,612567,0.0-13.0-1.18,32797,List1B,black,man,,,,null,,,,
null,is shouting at,,html-keyboard-response,124,614568,0.0-13.0-2.18,32797,List1B,black,man,,,,null,,,,
6888,,,survey-text,125,621456,0.0-13.0-3.18,32797,List1B,black,man,,,,,"{""Q0"":""Luke is shouting at Fred""}","<img src=""stim_listB/shout5.gif""style=""height:400px;""></stim_listB>",is shouting at,
null,"<div style=""font-size:60px;"">+</div>",,html-keyboard-response,126,621957,0.0-13.0-0.19,32797,List1B,black,man,,,,null,,,,
null,"<img src=""stim_listB/argue7.gif""style=""height:400px;""></stim_listB>",,html-keyboard-response,127,623960,0.0-13.0-1.19,32797,List1B,black,man,,,,null,,,,
null,is arguing with,,html-keyboard-response,128,625963,0.0-13.0-2.19,32797,List1B,black,man,,,,null,,,,
7509,,,survey-text,129,633472,0.0-13.0-3.19,32797,List1B,black,man,,,,,"{""Q0"":""Kate is arguing with Ruth""}","<img src=""stim_listB/argue7.gif""style=""height:400px;""></stim_listB>",is arguing with,
11278,"<img src='img/portrait_matrix_list1.jpg' style='width:900px;height:500px;''></img><p>If you have memorised all the portraits and names and are ready to start, press Continue.</p><p><strong>Please note: Your memory of these faces will be tested 4 times during this experiment.</strong></p>",0,html-button-response,130,644752,0.0-14.0-0.0,32797,List1B,black,man,,,,,,,,
3906,"<img src=""portrait/WW1.jpg""style=""height:400px;""></img>",1,html-button-response,131,649660,0.0-14.0-1.0,32797,List1B,black,man,,TRUE,1,,,,,
null,CORRECT,,html-keyboard-response,132,651164,0.0-14.0-2.0-0.0,32797,List1B,black,man,,,,null,,,,
2849,"<img src=""portrait/BW1.jpg""style=""height:400px;""></img>",0,html-button-response,133,654014,0.0-14.0-4.0,32797,List1B,black,man,,TRUE,0,,,,,
null,CORRECT,,html-keyboard-response,134,655516,0.0-14.0-5.0-0.0,32797,List1B,black,man,,,,null,,,,
1867,"<img src=""portrait/WW2.jpg""style=""height:400px;""></img>",3,html-button-response,135,657385,0.0-14.0-7.0,32797,List1B,black,man,,TRUE,3,,,,,
null,CORRECT,,html-keyboard-response,136,658887,0.0-14.0-8.0-0.0,32797,List1B,black,man,,,,null,,,,
1828,"<img src=""portrait/BM1.jpg""style=""height:400px;""></img>",4,html-button-response,137,660715,0.0-14.0-10.0,32797,List1B,black,man,,TRUE,4,,,,,
null,CORRECT,,html-keyboard-response,138,662217,0.0-14.0-11.0-0.0,32797,List1B,black,man,,,,null,,,,
2262,"<img src=""portrait/BW2.jpg""style=""height:400px;""></img>",2,html-button-response,139,664481,0.0-14.0-13.0,32797,List1B,black,man,,TRUE,2,,,,,
null,CORRECT,,html-keyboard-response,140,665984,0.0-14.0-14.0-0.0,32797,List1B,black,man,,,,null,,,,
1262,"<img src=""portrait/BM2.jpg""style=""height:400px;""></img>",5,html-button-response,141,667248,0.0-14.0-16.0,32797,List1B,black,man,,TRUE,5,,,,,
null,CORRECT,,html-keyboard-response,142,668750,0.0-14.0-17.0-0.0,32797,List1B,black,man,,,,null,,,,
1170,"<img src=""portrait/WM2.jpg""style=""height:400px;""></img>",7,html-button-response,143,669921,0.0-14.0-19.0,32797,List1B,black,man,,TRUE,7,,,,,
null,CORRECT,,html-keyboard-response,144,671423,0.0-14.0-20.0-0.0,32797,List1B,black,man,,,,null,,,,
2065,"<img src=""portrait/WM1.jpg""style=""height:400px;""></img>",6,html-button-response,145,673489,0.0-14.0-22.0,32797,List1B,black,man,,TRUE,6,,,,,
null,CORRECT,,html-keyboard-response,146,674991,0.0-14.0-23.0-0.0,32797,List1B,black,man,,,,null,,,,
835,<p>You got 8 out of 8 right first time. Press Continue.</p>,0,html-button-response,147,675827,0.0-14.0-25.0,32797,List1B,black,man,,,,,,,,
null,"<div style=""font-size:60px;"">+</div>",,html-keyboard-response,148,677330,0.0-15.0-0.0,32797,List1B,black,man,,,,null,,,,
null,"<img src=""stim_listB/flirt6.gif""style=""height:400px;""></stim_listB>",,html-keyboard-response,149,679333,0.0-15.0-1.0,32797,List1B,black,man,,,,null,,,,
null,are flirting with each other,,html-keyboard-response,150,681334,0.0-15.0-2.0,32797,List1B,black,man,,,,null,,,,
23352,,,survey-text,151,704687,0.0-15.0-3.0,32797,List1B,black,man,,,,,"{""Q0"":""Luke and Mike are flirting with each other""}","<img src=""stim_listB/flirt6.gif""style=""height:400px;""></stim_listB>",are flirting with each other,
null,"<div style=""font-size:60px;"">+</div>",,html-keyboard-response,152,705188,0.0-15.0-0.1,32797,List1B,black,man,,,,null,,,,
null,"<img src=""stim_listB/fight5.gif""style=""height:400px;""></stim_listB>",,html-keyboard-response,153,707190,0.0-15.0-1.1,32797,List1B,black,man,,,,null,,,,
null,is fighting,,html-keyboard-response,154,709192,0.0-15.0-2.1,32797,List1B,black,man,,,,null,,,,
6731,,,survey-text,155,715924,0.0-15.0-3.1,32797,List1B,black,man,,,,,"{""Q0"":""Dave is fighting mike""}","<img src=""stim_listB/fight5.gif""style=""height:400px;""></stim_listB>",is fighting,
null,"<div style=""font-size:60px;"">+</div>",,html-keyboard-response,156,716425,0.0-15.0-0.2,32797,List1B,black,man,,,,null,,,,
null,"<img src=""stim_listB/fight7.gif""style=""height:400px;""></stim_listB>",,html-keyboard-response,157,718427,0.0-15.0-1.2,32797,List1B,black,man,,,,null,,,,
null,is fighting,,html-keyboard-response,158,720429,0.0-15.0-2.2,32797,List1B,black,man,,,,null,,,,
6189,,,survey-text,159,726618,0.0-15.0-3.2,32797,List1B,black,man,,,,,"{""Q0"":""Ruth is fighting Kate""}","<img src=""stim_listB/fight7.gif""style=""height:400px;""></stim_listB>",is fighting,
null,"<div style=""font-size:60px;"">+</div>",,html-keyboard-response,160,727120,0.0-15.0-0.3,32797,List1B,black,man,,,,null,,,,
null,"<img src=""stim_listB/argue4.gif""style=""height:400px;""></stim_listB>",,html-keyboard-response,161,729122,0.0-15.0-1.3,32797,List1B,black,man,,,,null,,,,
null,are arguing with each other,,html-keyboard-response,162,731124,0.0-15.0-2.3,32797,List1B,black,man,,,,null,,,,
10490,,,survey-text,163,741616,0.0-15.0-3.3,32797,List1B,black,man,,,,,"{""Q0"":""Luke and Jane are arguing with each other""}","<img src=""stim_listB/argue4.gif""style=""height:400px;""></stim_listB>",are arguing with each other,
null,"<div style=""font-size:60px;"">+</div>",,html-keyboard-response,164,742118,0.0-15.0-0.4,32797,List1B,black,man,,,,null,,,,
null,"<img src=""stim_listB/shout2.gif""style=""height:400px;""></stim_listB>",,html-keyboard-response,165,744119,0.0-15.0-1.4,32797,List1B,black,man,,,,null,,,,
null,are shouting at each other,,html-keyboard-response,166,746120,0.0-15.0-2.4,32797,List1B,black,man,,,,null,,,,
11645,,,survey-text,167,757765,0.0-15.0-3.4,32797,List1B,black,man,,,,,"{""Q0"":""Kate and Mike are fighting each other""}","<img src=""stim_listB/shout2.gif""style=""height:400px;""></stim_listB>",are shouting at each other,
null,"<div style=""font-size:60px;"">+</div>",,html-keyboard-response,168,758266,0.0-15.0-0.5,32797,List1B,black,man,,,,null,,,,
null,"<img src=""stim_listB/play7.gif""style=""height:400px;""></stim_listB>",,html-keyboard-response,169,760268,0.0-15.0-1.5,32797,List1B,black,man,,,,null,,,,
null,is playing with,,html-keyboard-response,170,762268,0.0-15.0-2.5,32797,List1B,black,man,,,,null,,,,
6985,,,survey-text,171,769254,0.0-15.0-3.5,32797,List1B,black,man,,,,,"{""Q0"":""Jane is playing with kate""}","<img src=""stim_listB/play7.gif""style=""height:400px;""></stim_listB>",is playing with,
null,"<div style=""font-size:60px;"">+</div>",,html-keyboard-response,172,769755,0.0-15.0-0.6,32797,List1B,black,man,,,,null,,,,
null,"<img src=""stim_listB/play4.gif""style=""height:400px;""></stim_listB>",,html-keyboard-response,173,771758,0.0-15.0-1.6,32797,List1B,black,man,,,,null,,,,
null,are playing with each other,,html-keyboard-response,174,773760,0.0-15.0-2.6,32797,List1B,black,man,,,,null,,,,
12629,,,survey-text,175,786389,0.0-15.0-3.6,32797,List1B,black,man,,,,,"{""Q0"":""Luke and Ruth are playing with each other""}","<img src=""stim_listB/play4.gif""style=""height:400px;""></stim_listB>",are playing with each other,
null,"<div style=""font-size:60px;"">+</div>",,html-keyboard-response,176,786892,0.0-15.0-0.7,32797,List1B,black,man,,,,null,,,,
null,"<img src=""stim_listB/marry4.gif""style=""height:400px;""></stim_listB>",,html-keyboard-response,177,788895,0.0-15.0-1.7,32797,List1B,black,man,,,,null,,,,
null,are marrying each other,,html-keyboard-response,178,790897,0.0-15.0-2.7,32797,List1B,black,man,,,,null,,,,
8179,,,survey-text,179,799076,0.0-15.0-3.7,32797,List1B,black,man,,,,,"{""Q0"":""Luke and Ruth are marrying each other""}","<img src=""stim_listB/marry4.gif""style=""height:400px;""></stim_listB>",are marrying each other,
null,"<div style=""font-size:60px;"">+</div>",,html-keyboard-response,180,799578,0.0-15.0-0.8,32797,List1B,black,man,,,,null,,,,
null,"<img src=""stim_listB/kiss6.gif""style=""height:400px;""></stim_listB>",,html-keyboard-response,181,801580,0.0-15.0-1.8,32797,List1B,black,man,,,,null,,,,
null,are kissing each other,,html-keyboard-response,182,803580,0.0-15.0-2.8,32797,List1B,black,man,,,,null,,,,
8076,,,survey-text,183,811657,0.0-15.0-3.8,32797,List1B,black,man,,,,,"{""Q0"":""Dave and Mike are kissing each other""}","<img src=""stim_listB/kiss6.gif""style=""height:400px;""></stim_listB>",are kissing each other,
null,"<div style=""font-size:60px;"">+</div>",,html-keyboard-response,184,812159,0.0-15.0-0.9,32797,List1B,black,man,,,,null,,,,
null,"<img src=""stim_listB/fight2.gif""style=""height:400px;""></stim_listB>",,html-keyboard-response,185,814162,0.0-15.0-1.9,32797,List1B,black,man,,,,null,,,,
null,are fighting each other,,html-keyboard-response,186,816163,0.0-15.0-2.9,32797,List1B,black,man,,,,null,,,,
9483,,,survey-text,187,825647,0.0-15.0-3.9,32797,List1B,black,man,,,,,"{""Q0"":""Fred an beth are fighting each other""}","<img src=""stim_listB/fight2.gif""style=""height:400px;""></stim_listB>",are fighting each other,
null,"<div style=""font-size:60px;"">+</div>",,html-keyboard-response,188,826148,0.0-15.0-0.10,32797,List1B,black,man,,,,null,,,,
null,"<img src=""stim_listB/kiss1.gif""style=""height:400px;""></stim_listB>",,html-keyboard-response,189,828150,0.0-15.0-1.10,32797,List1B,black,man,,,,null,,,,
null,is kissing,,html-keyboard-response,190,830152,0.0-15.0-2.10,32797,List1B,black,man,,,,null,,,,
4589,,,survey-text,191,834742,0.0-15.0-3.10,32797,List1B,black,man,,,,,"{""Q0"":""Fred is kissing beth""}","<img src=""stim_listB/kiss1.gif""style=""height:400px;""></stim_listB>",is kissing,
null,"<div style=""font-size:60px;"">+</div>",,html-keyboard-response,192,835244,0.0-15.0-0.11,32797,List1B,black,man,,,,null,,,,
null,"<img src=""stim_listB/argue1.gif""style=""height:400px;""></stim_listB>",,html-keyboard-response,193,837245,0.0-15.0-1.11,32797,List1B,black,man,,,,null,,,,
null,is arguing with,,html-keyboard-response,194,839246,0.0-15.0-2.11,32797,List1B,black,man,,,,null,,,,
11444,,,survey-text,195,850690,0.0-15.0-3.11,32797,List1B,black,man,,,,,"{""Q0"":""Mike is arguing with Beth""}","<img src=""stim_listB/argue1.gif""style=""height:400px;""></stim_listB>",is arguing with,
null,"<div style=""font-size:60px;"">+</div>",,html-keyboard-response,196,851191,0.0-15.0-0.12,32797,List1B,black,man,,,,null,,,,
null,"<img src=""stim_listB/kiss7.gif""style=""height:400px;""></stim_listB>",,html-keyboard-response,197,853193,0.0-15.0-1.12,32797,List1B,black,man,,,,null,,,,
null,is kissing,,html-keyboard-response,198,855194,0.0-15.0-2.12,32797,List1B,black,man,,,,null,,,,
6313,,,survey-text,199,861509,0.0-15.0-3.12,32797,List1B,black,man,,,,,"{""Q0"":""Ruth is kissing Beth""}","<img src=""stim_listB/kiss7.gif""style=""height:400px;""></stim_listB>",is kissing,
null,"<div style=""font-size:60px;"">+</div>",,html-keyboard-response,200,862011,0.0-15.0-0.13,32797,List1B,black,man,,,,null,,,,
null,"<img src=""stim_listB/play5.gif""style=""height:400px;""></stim_listB>",,html-keyboard-response,201,864012,0.0-15.0-1.13,32797,List1B,black,man,,,,null,,,,
null,is playing with,,html-keyboard-response,202,866012,0.0-15.0-2.13,32797,List1B,black,man,,,,null,,,,
5628,,,survey-text,203,871641,0.0-15.0-3.13,32797,List1B,black,man,,,,,"{""Q0"":""Dave is playing with mike""}","<img src=""stim_listB/play5.gif""style=""height:400px;""></stim_listB>",is playing with,
null,"<div style=""font-size:60px;"">+</div>",,html-keyboard-response,204,872143,0.0-15.0-0.14,32797,List1B,black,man,,,,null,,,,
null,"<img src=""stim_listB/dance1.gif""style=""height:400px;""></stim_listB>",,html-keyboard-response,205,874145,0.0-15.0-1.14,32797,List1B,black,man,,,,null,,,,
null,is dancing with,,html-keyboard-response,206,876147,0.0-15.0-2.14,32797,List1B,black,man,,,,null,,,,
5254,,,survey-text,207,881401,0.0-15.0-3.14,32797,List1B,black,man,,,,,"{""Q0"":""Kate is dancing with Fred""}","<img src=""stim_listB/dance1.gif""style=""height:400px;""></stim_listB>",is dancing with,
null,"<div style=""font-size:60px;"">+</div>",,html-keyboard-response,208,881903,0.0-15.0-0.15,32797,List1B,black,man,,,,null,,,,
null,"<img src=""stim_listB/shout3.gif""style=""height:400px;""></stim_listB>",,html-keyboard-response,209,883906,0.0-15.0-1.15,32797,List1B,black,man,,,,null,,,,
null,is shouting at,,html-keyboard-response,210,885907,0.0-15.0-2.15,32797,List1B,black,man,,,,null,,,,
7143,,,survey-text,211,893051,0.0-15.0-3.15,32797,List1B,black,man,,,,,"{""Q0"":""Luke is shouting at Ruth""}","<img src=""stim_listB/shout3.gif""style=""height:400px;""></stim_listB>",is shouting at,
null,"<div style=""font-size:60px;"">+</div>",,html-keyboard-response,212,893552,0.0-15.0-0.16,32797,List1B,black,man,,,,null,,,,
null,"<img src=""stim_listB/flirt1.gif""style=""height:400px;""></stim_listB>",,html-keyboard-response,213,895554,0.0-15.0-1.16,32797,List1B,black,man,,,,null,,,,
null,is flirting with,,html-keyboard-response,214,897556,0.0-15.0-2.16,32797,List1B,black,man,,,,null,,,,
6724,,,survey-text,215,904280,0.0-15.0-3.16,32797,List1B,black,man,,,,,"{""Q0"":""Fred is flirting with Kate""}","<img src=""stim_listB/flirt1.gif""style=""height:400px;""></stim_listB>",is flirting with,
null,"<div style=""font-size:60px;"">+</div>",,html-keyboard-response,216,904781,0.0-15.0-0.17,32797,List1B,black,man,,,,null,,,,
null,"<img src=""stim_listB/fight1.gif""style=""height:400px;""></stim_listB>",,html-keyboard-response,217,906782,0.0-15.0-1.17,32797,List1B,black,man,,,,null,,,,
null,is fighting,,html-keyboard-response,218,908783,0.0-15.0-2.17,32797,List1B,black,man,,,,null,,,,
5261,,,survey-text,219,914045,0.0-15.0-3.17,32797,List1B,black,man,,,,,"{""Q0"":""Mike is fighting Kate""}","<img src=""stim_listB/fight1.gif""style=""height:400px;""></stim_listB>",is fighting,
null,"<div style=""font-size:60px;"">+</div>",,html-keyboard-response,220,914546,0.0-15.0-0.18,32797,List1B,black,man,,,,null,,,,
null,"<img src=""stim_listB/fight6.gif""style=""height:400px;""></stim_listB>",,html-keyboard-response,221,916548,0.0-15.0-1.18,32797,List1B,black,man,,,,null,,,,
null,are fighting each other,,html-keyboard-response,222,918550,0.0-15.0-2.18,32797,List1B,black,man,,,,null,,,,
11117,,,survey-text,223,929667,0.0-15.0-3.18,32797,List1B,black,man,,,,,"{""Q0"":""Mike and Fred are fighting each other""}","<img src=""stim_listB/fight6.gif""style=""height:400px;""></stim_listB>",are fighting each other,
null,"<div style=""font-size:60px;"">+</div>",,html-keyboard-response,224,930168,0.0-15.0-0.19,32797,List1B,black,man,,,,null,,,,
null,"<img src=""stim_listB/fight8.gif""style=""height:400px;""></stim_listB>",,html-keyboard-response,225,932169,0.0-15.0-1.19,32797,List1B,black,man,,,,null,,,,
null,are fighting each other,,html-keyboard-response,226,934172,0.0-15.0-2.19,32797,List1B,black,man,,,,null,,,,
9012,,,survey-text,227,943185,0.0-15.0-3.19,32797,List1B,black,man,,,,,"{""Q0"":""Ruth and Beth and fighting each other""}","<img src=""stim_listB/fight8.gif""style=""height:400px;""></stim_listB>",are fighting each other,
4615,"<img src='img/portrait_matrix_list1.jpg' style='width:900px;height:500px;''></img><p>If you have memorised all the portraits and names and are ready to start, press Continue.</p><p><strong>Please note: Your memory of these faces will be tested 4 times during this experiment.</strong></p>",0,html-button-response,228,947800,0.0-16.0-0.0,32797,List1B,black,man,,,,,,,,
8714,"<img src=""portrait/WM1.jpg""style=""height:400px;""></img>",6,html-button-response,229,957516,0.0-16.0-1.0,32797,List1B,black,man,,TRUE,6,,,,,
null,CORRECT,,html-keyboard-response,230,959019,0.0-16.0-2.0-0.0,32797,List1B,black,man,,,,null,,,,
1723,"<img src=""portrait/BM1.jpg""style=""height:400px;""></img>",4,html-button-response,231,960742,0.0-16.0-4.0,32797,List1B,black,man,,TRUE,4,,,,,
null,CORRECT,,html-keyboard-response,232,962245,0.0-16.0-5.0-0.0,32797,List1B,black,man,,,,null,,,,
2735,"<img src=""portrait/WM2.jpg""style=""height:400px;""></img>",7,html-button-response,233,964981,0.0-16.0-7.0,32797,List1B,black,man,,TRUE,7,,,,,
null,CORRECT,,html-keyboard-response,234,966483,0.0-16.0-8.0-0.0,32797,List1B,black,man,,,,null,,,,
2040,"<img src=""portrait/WW1.jpg""style=""height:400px;""></img>",1,html-button-response,235,968525,0.0-16.0-10.0,32797,List1B,black,man,,TRUE,1,,,,,
null,CORRECT,,html-keyboard-response,236,970028,0.0-16.0-11.0-0.0,32797,List1B,black,man,,,,null,,,,
1895,"<img src=""portrait/BW2.jpg""style=""height:400px;""></img>",2,html-button-response,237,971924,0.0-16.0-13.0,32797,List1B,black,man,,TRUE,2,,,,,
null,CORRECT,,html-keyboard-response,238,973427,0.0-16.0-14.0-0.0,32797,List1B,black,man,,,,null,,,,
1161,"<img src=""portrait/BM2.jpg""style=""height:400px;""></img>",5,html-button-response,239,974589,0.0-16.0-16.0,32797,List1B,black,man,,TRUE,5,,,,,
null,CORRECT,,html-keyboard-response,240,976093,0.0-16.0-17.0-0.0,32797,List1B,black,man,,,,null,,,,
1517,"<img src=""portrait/WW2.jpg""style=""height:400px;""></img>",3,html-button-response,241,977610,0.0-16.0-19.0,32797,List1B,black,man,,TRUE,3,,,,,
null,CORRECT,,html-keyboard-response,242,979113,0.0-16.0-20.0-0.0,32797,List1B,black,man,,,,null,,,,
2757,"<img src=""portrait/BW1.jpg""style=""height:400px;""></img>",0,html-button-response,243,981870,0.0-16.0-22.0,32797,List1B,black,man,,TRUE,0,,,,,
null,CORRECT,,html-keyboard-response,244,983373,0.0-16.0-23.0-0.0,32797,List1B,black,man,,,,null,,,,
1248,<p>You got 8 out of 8 right first time. Press Continue.</p>,0,html-button-response,245,984622,0.0-16.0-25.0,32797,List1B,black,man,,,,,,,,
null,"<div style=""font-size:60px;"">+</div>",,html-keyboard-response,246,986125,0.0-17.0-0.0,32797,List1B,black,man,,,,null,,,,
null,"<img src=""stim_listB/flirt4.gif""style=""height:400px;""></stim_listB>",,html-keyboard-response,247,988126,0.0-17.0-1.0,32797,List1B,black,man,,,,null,,,,
null,are flirting with each other,,html-keyboard-response,248,990128,0.0-17.0-2.0,32797,List1B,black,man,,,,null,,,,
18520,,,survey-text,249,1008648,0.0-17.0-3.0,32797,List1B,black,man,,,,,"{""Q0"":""Ruth and dave are flirting with each other""}","<img src=""stim_listB/flirt4.gif""style=""height:400px;""></stim_listB>",are flirting with each other,
null,"<div style=""font-size:60px;"">+</div>",,html-keyboard-response,250,1009149,0.0-17.0-0.1,32797,List1B,black,man,,,,null,,,,
null,"<img src=""stim_listB/marry8.gif""style=""height:400px;""></stim_listB>",,html-keyboard-response,251,1011150,0.0-17.0-1.1,32797,List1B,black,man,,,,null,,,,
null,are marrying each other,,html-keyboard-response,252,1013151,0.0-17.0-2.1,32797,List1B,black,man,,,,null,,,,
8050,,,survey-text,253,1021202,0.0-17.0-3.1,32797,List1B,black,man,,,,,"{""Q0"":""Beth and Jane are marrying each other""}","<img src=""stim_listB/marry8.gif""style=""height:400px;""></stim_listB>",are marrying each other,
null,"<div style=""font-size:60px;"">+</div>",,html-keyboard-response,254,1021703,0.0-17.0-0.2,32797,List1B,black,man,,,,null,,,,
null,"<img src=""stim_listB/argue3.gif""style=""height:400px;""></stim_listB>",,html-keyboard-response,255,1023705,0.0-17.0-1.2,32797,List1B,black,man,,,,null,,,,
null,is arguing with,,html-keyboard-response,256,1025706,0.0-17.0-2.2,32797,List1B,black,man,,,,null,,,,
6073,,,survey-text,257,1031779,0.0-17.0-3.2,32797,List1B,black,man,,,,,"{""Q0"":""Dave is arguing with Ruth""}","<img src=""stim_listB/argue3.gif""style=""height:400px;""></stim_listB>",is arguing with,
null,"<div style=""font-size:60px;"">+</div>",,html-keyboard-response,258,1032280,0.0-17.0-0.3,32797,List1B,black,man,,,,null,,,,
null,"<img src=""stim_listB/marry5.gif""style=""height:400px;""></stim_listB>",,html-keyboard-response,259,1034282,0.0-17.0-1.3,32797,List1B,black,man,,,,null,,,,
null,is marrying,,html-keyboard-response,260,1036284,0.0-17.0-2.3,32797,List1B,black,man,,,,null,,,,
8255,,,survey-text,261,1044539,0.0-17.0-3.3,32797,List1B,black,man,,,,,"{""Q0"":""Mike is marrying Luke""}","<img src=""stim_listB/marry5.gif""style=""height:400px;""></stim_listB>",is marrying,
null,"<div style=""font-size:60px;"">+</div>",,html-keyboard-response,262,1045041,0.0-17.0-0.4,32797,List1B,black,man,,,,null,,,,
null,"<img src=""stim_listB/talk7.gif""style=""height:400px;""></stim_listB>",,html-keyboard-response,263,1047042,0.0-17.0-1.4,32797,List1B,black,man,,,,null,,,,
null,is talking to,,html-keyboard-response,264,1049043,0.0-17.0-2.4,32797,List1B,black,man,,,,null,,,,
9994,,,survey-text,265,1059039,0.0-17.0-3.4,32797,List1B,black,man,,,,,"{""Q0"":""Beth is talking to Jane""}","<img src=""stim_listB/talk7.gif""style=""height:400px;""></stim_listB>",is talking to,
null,"<div style=""font-size:60px;"">+</div>",,html-keyboard-response,266,1059540,0.0-17.0-0.5,32797,List1B,black,man,,,,null,,,,
null,"<img src=""stim_listB/touch5.gif""style=""height:400px;""></stim_listB>",,html-keyboard-response,267,1061542,0.0-17.0-1.5,32797,List1B,black,man,,,,null,,,,
null,is touching,,html-keyboard-response,268,1063542,0.0-17.0-2.5,32797,List1B,black,man,,,,null,,,,
91358,,,survey-text,269,1154902,0.0-17.0-3.5,32797,List1B,black,man,,,,,"{""Q0"":""Dave is touching Mike""}","<img src=""stim_listB/touch5.gif""style=""height:400px;""></stim_listB>",is touching,
null,"<div style=""font-size:60px;"">+</div>",,html-keyboard-response,270,1155403,0.0-17.0-0.6,32797,List1B,black,man,,,,null,,,,
null,"<img src=""stim_listB/kiss8.gif""style=""height:400px;""></stim_listB>",,html-keyboard-response,271,1157405,0.0-17.0-1.6,32797,List1B,black,man,,,,null,,,,
null,are kissing each other,,html-keyboard-response,272,1159407,0.0-17.0-2.6,32797,List1B,black,man,,,,null,,,,
7532,,,survey-text,273,1166939,0.0-17.0-3.6,32797,List1B,black,man,,,,,"{""Q0"":""Kate and Jane are kissing each other""}","<img src=""stim_listB/kiss8.gif""style=""height:400px;""></stim_listB>",are kissing each other,
null,"<div style=""font-size:60px;"">+</div>",,html-keyboard-response,274,1167440,0.0-17.0-0.7,32797,List1B,black,man,,,,null,,,,
null,"<img src=""stim_listB/argue2.gif""style=""height:400px;""></stim_listB>",,html-keyboard-response,275,1169441,0.0-17.0-1.7,32797,List1B,black,man,,,,null,,,,
null,are arguing with each other,,html-keyboard-response,276,1171442,0.0-17.0-2.7,32797,List1B,black,man,,,,null,,,,
7841,,,survey-text,277,1179284,0.0-17.0-3.7,32797,List1B,black,man,,,,,"{""Q0"":""Kate and Fred are arguing with each other""}","<img src=""stim_listB/argue2.gif""style=""height:400px;""></stim_listB>",are arguing with each other,
null,"<div style=""font-size:60px;"">+</div>",,html-keyboard-response,278,1179786,0.0-17.0-0.8,32797,List1B,black,man,,,,null,,,,
null,"<img src=""stim_listB/dance8.gif""style=""height:400px;""></stim_listB>",,html-keyboard-response,279,1181788,0.0-17.0-1.8,32797,List1B,black,man,,,,null,,,,
null,are dancing with each other,,html-keyboard-response,280,1183791,0.0-17.0-2.8,32797,List1B,black,man,,,,null,,,,
7525,,,survey-text,281,1191317,0.0-17.0-3.8,32797,List1B,black,man,,,,,"{""Q0"":""Ruth and Kate are dancing with each other""}","<img src=""stim_listB/dance8.gif""style=""height:400px;""></stim_listB>",are dancing with each other,
null,"<div style=""font-size:60px;"">+</div>",,html-keyboard-response,282,1191821,0.0-17.0-0.9,32797,List1B,black,man,,,,null,,,,
null,"<img src=""stim_listB/kiss5.gif""style=""height:400px;""></stim_listB>",,html-keyboard-response,283,1193822,0.0-17.0-1.9,32797,List1B,black,man,,,,null,,,,
null,is kissing,,html-keyboard-response,284,1195823,0.0-17.0-2.9,32797,List1B,black,man,,,,null,,,,
6054,,,survey-text,285,1201878,0.0-17.0-3.9,32797,List1B,black,man,,,,,"{""Q0"":""Luke is kissing Fred""}","<img src=""stim_listB/kiss5.gif""style=""height:400px;""></stim_listB>",is kissing,
null,"<div style=""font-size:60px;"">+</div>",,html-keyboard-response,286,1202380,0.0-17.0-0.10,32797,List1B,black,man,,,,null,,,,
null,"<img src=""stim_listB/dance6.gif""style=""height:400px;""></stim_listB>",,html-keyboard-response,287,1204382,0.0-17.0-1.10,32797,List1B,black,man,,,,null,,,,
null,are dancing with each other,,html-keyboard-response,288,1206383,0.0-17.0-2.10,32797,List1B,black,man,,,,null,,,,
17017,,,survey-text,289,1223400,0.0-17.0-3.10,32797,List1B,black,man,,,,,"{""Q0"":""Luke and Fred are dancing with each other""}","<img src=""stim_listB/dance6.gif""style=""height:400px;""></stim_listB>",are dancing with each other,
null,"<div style=""font-size:60px;"">+</div>",,html-keyboard-response,290,1223902,0.0-17.0-0.11,32797,List1B,black,man,,,,null,,,,
null,"<img src=""stim_listB/dance7.gif""style=""height:400px;""></stim_listB>",,html-keyboard-response,291,1225903,0.0-17.0-1.11,32797,List1B,black,man,,,,null,,,,
null,is dancing with,,html-keyboard-response,292,1227904,0.0-17.0-2.11,32797,List1B,black,man,,,,null,,,,
8145,,,survey-text,293,1236049,0.0-17.0-3.11,32797,List1B,black,man,,,,,"{""Q0"":""Beth is dancing with Jane""}","<img src=""stim_listB/dance7.gif""style=""height:400px;""></stim_listB>",is dancing with,
null,"<div style=""font-size:60px;"">+</div>",,html-keyboard-response,294,1236552,0.0-17.0-0.12,32797,List1B,black,man,,,,null,,,,
null,"<img src=""stim_listB/play1.gif""style=""height:400px;""></stim_listB>",,html-keyboard-response,295,1238554,0.0-17.0-1.12,32797,List1B,black,man,,,,null,,,,
null,is playing with,,html-keyboard-response,296,1240556,0.0-17.0-2.12,32797,List1B,black,man,,,,null,,,,
5997,,,survey-text,297,1246554,0.0-17.0-3.12,32797,List1B,black,man,,,,,"{""Q0"":""Kate is playing with Mike""}","<img src=""stim_listB/play1.gif""style=""height:400px;""></stim_listB>",is playing with,
null,"<div style=""font-size:60px;"">+</div>",,html-keyboard-response,298,1247056,0.0-17.0-0.13,32797,List1B,black,man,,,,null,,,,
null,"<img src=""stim_listB/dance2.gif""style=""height:400px;""></stim_listB>",,html-keyboard-response,299,1249058,0.0-17.0-1.13,32797,List1B,black,man,,,,null,,,,
null,are dancing with each other,,html-keyboard-response,300,1251060,0.0-17.0-2.13,32797,List1B,black,man,,,,null,,,,
9270,,,survey-text,301,1260332,0.0-17.0-3.13,32797,List1B,black,man,,,,,"{""Q0"":""Mike and Beth are dancing with each other""}","<img src=""stim_listB/dance2.gif""style=""height:400px;""></stim_listB>",are dancing with each other,
null,"<div style=""font-size:60px;"">+</div>",,html-keyboard-response,302,1260834,0.0-17.0-0.14,32797,List1B,black,man,,,,null,,,,
null,"<img src=""stim_listB/touch4.gif""style=""height:400px;""></stim_listB>",,html-keyboard-response,303,1262836,0.0-17.0-1.14,32797,List1B,black,man,,,,null,,,,
null,are touching each other,,html-keyboard-response,304,1264837,0.0-17.0-2.14,32797,List1B,black,man,,,,null,,,,
8470,,,survey-text,305,1273309,0.0-17.0-3.14,32797,List1B,black,man,,,,,"{""Q0"":""Luke and Jane are touching each other""}","<img src=""stim_listB/touch4.gif""style=""height:400px;""></stim_listB>",are touching each other,
null,"<div style=""font-size:60px;"">+</div>",,html-keyboard-response,306,1273810,0.0-17.0-0.15,32797,List1B,black,man,,,,null,,,,
null,"<img src=""stim_listB/flirt5.gif""style=""height:400px;""></stim_listB>",,html-keyboard-response,307,1275812,0.0-17.0-1.15,32797,List1B,black,man,,,,null,,,,
null,is flirting with,,html-keyboard-response,308,1277814,0.0-17.0-2.15,32797,List1B,black,man,,,,null,,,,
7792,,,survey-text,309,1285606,0.0-17.0-3.15,32797,List1B,black,man,,,,,"{""Q0"":""Dave is flirting with Fred""}","<img src=""stim_listB/flirt5.gif""style=""height:400px;""></stim_listB>",is flirting with,
null,"<div style=""font-size:60px;"">+</div>",,html-keyboard-response,310,1286109,0.0-17.0-0.16,32797,List1B,black,man,,,,null,,,,
null,"<img src=""stim_listB/talk3.gif""style=""height:400px;""></stim_listB>",,html-keyboard-response,311,1288110,0.0-17.0-1.16,32797,List1B,black,man,,,,null,,,,
null,is talking to,,html-keyboard-response,312,1290113,0.0-17.0-2.16,32797,List1B,black,man,,,,null,,,,
6622,,,survey-text,313,1296735,0.0-17.0-3.16,32797,List1B,black,man,,,,,"{""Q0"":""Luke is flirting with Jane""}","<img src=""stim_listB/talk3.gif""style=""height:400px;""></stim_listB>",is talking to,
null,"<div style=""font-size:60px;"">+</div>",,html-keyboard-response,314,1297236,0.0-17.0-0.17,32797,List1B,black,man,,,,null,,,,
null,"<img src=""stim_listB/play6.gif""style=""height:400px;""></stim_listB>",,html-keyboard-response,315,1299238,0.0-17.0-1.17,32797,List1B,black,man,,,,null,,,,
null,are playing with each other,,html-keyboard-response,316,1301239,0.0-17.0-2.17,32797,List1B,black,man,,,,null,,,,
10896,,,survey-text,317,1312137,0.0-17.0-3.17,32797,List1B,black,man,,,,,"{""Q0"":""Luke is playing with Fred""}","<img src=""stim_listB/play6.gif""style=""height:400px;""></stim_listB>",are playing with each other,
null,"<div style=""font-size:60px;"">+</div>",,html-keyboard-response,318,1312638,0.0-17.0-0.18,32797,List1B,black,man,,,,null,,,,
null,"<img src=""stim_listB/touch7.gif""style=""height:400px;""></stim_listB>",,html-keyboard-response,319,1314639,0.0-17.0-1.18,32797,List1B,black,man,,,,null,,,,
null,is touching,,html-keyboard-response,320,1316640,0.0-17.0-2.18,32797,List1B,black,man,,,,null,,,,
3720,,,survey-text,321,1320361,0.0-17.0-3.18,32797,List1B,black,man,,,,,"{""Q0"":""Kate is touching Jane""}","<img src=""stim_listB/touch7.gif""style=""height:400px;""></stim_listB>",is touching,
null,"<div style=""font-size:60px;"">+</div>",,html-keyboard-response,322,1320862,0.0-17.0-0.19,32797,List1B,black,man,,,,null,,,,
null,"<img src=""stim_listB/flirt2.gif""style=""height:400px;""></stim_listB>",,html-keyboard-response,323,1322863,0.0-17.0-1.19,32797,List1B,black,man,,,,null,,,,
null,are flirting with each other,,html-keyboard-response,324,1324864,0.0-17.0-2.19,32797,List1B,black,man,,,,null,,,,
9115,,,survey-text,325,1333979,0.0-17.0-3.19,32797,List1B,black,man,,,,,"{""Q0"":""Beth and Mike are flirting with each other""}","<img src=""stim_listB/flirt2.gif""style=""height:400px;""></stim_listB>",are flirting with each other,
1956,"<img src='img/portrait_matrix_list1.jpg' style='width:900px;height:500px;''></img><p>If you have memorised all the portraits and names and are ready to start, press Continue.</p><p><strong>Please note: Your memory of these faces will be tested 4 times during this experiment.</strong></p>",0,html-button-response,326,1335936,0.0-18.0-0.0,32797,List1B,black,man,,,,,,,,
5530,"<img src=""portrait/WW2.jpg""style=""height:400px;""></img>",3,html-button-response,327,1342468,0.0-18.0-1.0,32797,List1B,black,man,,TRUE,3,,,,,
null,CORRECT,,html-keyboard-response,328,1343971,0.0-18.0-2.0-0.0,32797,List1B,black,man,,,,null,,,,
1333,"<img src=""portrait/WW1.jpg""style=""height:400px;""></img>",1,html-button-response,329,1345305,0.0-18.0-4.0,32797,List1B,black,man,,TRUE,1,,,,,
null,CORRECT,,html-keyboard-response,330,1346807,0.0-18.0-5.0-0.0,32797,List1B,black,man,,,,null,,,,
1397,"<img src=""portrait/WM2.jpg""style=""height:400px;""></img>",7,html-button-response,331,1348206,0.0-18.0-7.0,32797,List1B,black,man,,TRUE,7,,,,,
null,CORRECT,,html-keyboard-response,332,1349708,0.0-18.0-8.0-0.0,32797,List1B,black,man,,,,null,,,,
1128,"<img src=""portrait/BM1.jpg""style=""height:400px;""></img>",4,html-button-response,333,1350836,0.0-18.0-10.0,32797,List1B,black,man,,TRUE,4,,,,,
null,CORRECT,,html-keyboard-response,334,1352339,0.0-18.0-11.0-0.0,32797,List1B,black,man,,,,null,,,,
1183,"<img src=""portrait/BM2.jpg""style=""height:400px;""></img>",5,html-button-response,335,1353523,0.0-18.0-13.0,32797,List1B,black,man,,TRUE,5,,,,,
null,CORRECT,,html-keyboard-response,336,1355026,0.0-18.0-14.0-0.0,32797,List1B,black,man,,,,null,,,,
3040,"<img src=""portrait/BW1.jpg""style=""height:400px;""></img>",2,html-button-response,337,1358068,0.0-18.0-16.0,32797,List1B,black,man,,TRUE,0,,,,,
5290,"<img src=""portrait/BW1.jpg""style=""height:400px;""></img>",0,html-button-response,338,1364359,0.0-18.0-18.0-0.0,32797,List1B,black,man,,FALSE,0,,,,,
null,CORRECT,,html-keyboard-response,339,1365862,0.0-18.0-18.0-1.0-0.0,32797,List1B,black,man,,,,null,,,,
2081,"<img src=""portrait/WM1.jpg""style=""height:400px;""></img>",6,html-button-response,340,1367944,0.0-18.0-19.0,32797,List1B,black,man,,TRUE,6,,,,,
null,CORRECT,,html-keyboard-response,341,1369449,0.0-18.0-20.0-0.0,32797,List1B,black,man,,,,null,,,,
1758,"<img src=""portrait/BW2.jpg""style=""height:400px;""></img>",2,html-button-response,342,1371208,0.0-18.0-22.0,32797,List1B,black,man,,TRUE,2,,,,,
null,CORRECT,,html-keyboard-response,343,1372711,0.0-18.0-23.0-0.0,32797,List1B,black,man,,,,null,,,,
1120,<p>You got 7 out of 8 right first time. Press Continue.</p>,0,html-button-response,344,1373832,0.0-18.0-25.0,32797,List1B,black,man,,,,,,,,
1371,"As you did not score 100%, the memory game will repeat. Press Continue.",0,html-button-response,345,1376205,0.0-18.0-26.0-0.0,32797,List1B,black,man,,,,,,,,
853,"<img src='img/portrait_matrix_list1.jpg' style='width:900px;height:500px;''></img><p>If you have memorised all the portraits and names and are ready to start, press Continue.</p><p><strong>Please note: Your memory of these faces will be tested 4 times during this experiment.</strong></p>",0,html-button-response,346,1378060,0.0-18.1-0.1,32797,List1B,black,man,,,,,,,,
1779,"<img src=""portrait/WW2.jpg""style=""height:400px;""></img>",3,html-button-response,347,1380841,0.0-18.1-1.1,32797,List1B,black,man,,TRUE,3,,,,,
null,CORRECT,,html-keyboard-response,348,1382344,0.0-18.1-2.1-0.1,32797,List1B,black,man,,,,null,,,,
1908,"<img src=""portrait/WW1.jpg""style=""height:400px;""></img>",1,html-button-response,349,1384254,0.0-18.1-4.1,32797,List1B,black,man,,TRUE,1,,,,,
null,CORRECT,,html-keyboard-response,350,1385757,0.0-18.1-5.1-0.1,32797,List1B,black,man,,,,null,,,,
1025,"<img src=""portrait/WM2.jpg""style=""height:400px;""></img>",7,html-button-response,351,1386783,0.0-18.1-7.1,32797,List1B,black,man,,TRUE,7,,,,,
null,CORRECT,,html-keyboard-response,352,1388286,0.0-18.1-8.1-0.1,32797,List1B,black,man,,,,null,,,,
1368,"<img src=""portrait/BM1.jpg""style=""height:400px;""></img>",4,html-button-response,353,1389654,0.0-18.1-10.1,32797,List1B,black,man,,TRUE,4,,,,,
null,CORRECT,,html-keyboard-response,354,1391157,0.0-18.1-11.1-0.1,32797,List1B,black,man,,,,null,,,,
1062,"<img src=""portrait/BM2.jpg""style=""height:400px;""></img>",5,html-button-response,355,1392220,0.0-18.1-13.1,32797,List1B,black,man,,TRUE,5,,,,,
null,CORRECT,,html-keyboard-response,356,1393722,0.0-18.1-14.1-0.1,32797,List1B,black,man,,,,null,,,,
3485,"<img src=""portrait/BW1.jpg""style=""height:400px;""></img>",0,html-button-response,357,1397209,0.0-18.1-16.1,32797,List1B,black,man,,TRUE,0,,,,,
null,CORRECT,,html-keyboard-response,358,1398711,0.0-18.1-17.1-0.1,32797,List1B,black,man,,,,null,,,,
1578,"<img src=""portrait/WM1.jpg""style=""height:400px;""></img>",6,html-button-response,359,1400291,0.0-18.1-19.1,32797,List1B,black,man,,TRUE,6,,,,,
null,CORRECT,,html-keyboard-response,360,1401793,0.0-18.1-20.1-0.1,32797,List1B,black,man,,,,null,,,,
1186,"<img src=""portrait/BW2.jpg""style=""height:400px;""></img>",2,html-button-response,361,1402981,0.0-18.1-22.1,32797,List1B,black,man,,TRUE,2,,,,,
null,CORRECT,,html-keyboard-response,362,1404483,0.0-18.1-23.1-0.1,32797,List1B,black,man,,,,null,,,,
772,<p>You got 8 out of 8 right first time. Press Continue.</p>,0,html-button-response,363,1405256,0.0-18.1-25.1,32797,List1B,black,man,,,,,,,,
null,"<div style=""font-size:60px;"">+</div>",,html-keyboard-response,364,1406759,0.0-19.0-0.0,32797,List1B,black,man,,,,null,,,,
null,"<img src=""stim_listB/dance4.gif""style=""height:400px;""></stim_listB>",,html-keyboard-response,365,1408761,0.0-19.0-1.0,32797,List1B,black,man,,,,null,,,,
null,are dancing with each other,,html-keyboard-response,366,1410763,0.0-19.0-2.0,32797,List1B,black,man,,,,null,,,,
7990,,,survey-text,367,1418755,0.0-19.0-3.0,32797,List1B,black,man,,,,,"{""Q0"":""Dave and Ruth are dancing with each other""}","<img src=""stim_listB/dance4.gif""style=""height:400px;""></stim_listB>",are dancing with each other,
null,"<div style=""font-size:60px;"">+</div>",,html-keyboard-response,368,1419256,0.0-19.0-0.1,32797,List1B,black,man,,,,null,,,,
null,"<img src=""stim_listB/kiss3.gif""style=""height:400px;""></stim_listB>",,html-keyboard-response,369,1421257,0.0-19.0-1.1,32797,List1B,black,man,,,,null,,,,
null,is kissing,,html-keyboard-response,370,1423258,0.0-19.0-2.1,32797,List1B,black,man,,,,null,,,,
4721,,,survey-text,371,1427980,0.0-19.0-3.1,32797,List1B,black,man,,,,,"{""Q0"":""Luke is kissing Ruth""}","<img src=""stim_listB/kiss3.gif""style=""height:400px;""></stim_listB>",is kissing,
null,"<div style=""font-size:60px;"">+</div>",,html-keyboard-response,372,1428482,0.0-19.0-0.2,32797,List1B,black,man,,,,null,,,,
null,"<img src=""stim_listB/kiss2.gif""style=""height:400px;""></stim_listB>",,html-keyboard-response,373,1430485,0.0-19.0-1.2,32797,List1B,black,man,,,,null,,,,
null,are kissing each other,,html-keyboard-response,374,1432486,0.0-19.0-2.2,32797,List1B,black,man,,,,null,,,,
5653,,,survey-text,375,1438141,0.0-19.0-3.2,32797,List1B,black,man,,,,,"{""Q0"":""Kate and Mike are kissing each other""}","<img src=""stim_listB/kiss2.gif""style=""height:400px;""></stim_listB>",are kissing each other,
null,"<div style=""font-size:60px;"">+</div>",,html-keyboard-response,376,1438642,0.0-19.0-0.3,32797,List1B,black,man,,,,null,,,,
null,"<img src=""stim_listB/flirt8.gif""style=""height:400px;""></stim_listB>",,html-keyboard-response,377,1440644,0.0-19.0-1.3,32797,List1B,black,man,,,,null,,,,
null,are flirting with each other,,html-keyboard-response,378,1442647,0.0-19.0-2.3,32797,List1B,black,man,,,,null,,,,
10703,,,survey-text,379,1453350,0.0-19.0-3.3,32797,List1B,black,man,,,,,"{""Q0"":""Ruth and Kate are flirting with each other""}","<img src=""stim_listB/flirt8.gif""style=""height:400px;""></stim_listB>",are flirting with each other,
null,"<div style=""font-size:60px;"">+</div>",,html-keyboard-response,380,1453851,0.0-19.0-0.4,32797,List1B,black,man,,,,null,,,,
null,"<img src=""stim_listB/dance3.gif""style=""height:400px;""></stim_listB>",,html-keyboard-response,381,1455853,0.0-19.0-1.4,32797,List1B,black,man,,,,null,,,,
null,is dancing with,,html-keyboard-response,382,1457854,0.0-19.0-2.4,32797,List1B,black,man,,,,null,,,,
30195,,,survey-text,383,1488050,0.0-19.0-3.4,32797,List1B,black,man,,,,,"{""Q0"":""Luke is dancing with Jane""}","<img src=""stim_listB/dance3.gif""style=""height:400px;""></stim_listB>",is dancing with,
null,"<div style=""font-size:60px;"">+</div>",,html-keyboard-response,384,1488553,0.0-19.0-0.5,32797,List1B,black,man,,,,null,,,,
null,"<img src=""stim_listB/shout1.gif""style=""height:400px;""></stim_listB>",,html-keyboard-response,385,1490554,0.0-19.0-1.5,32797,List1B,black,man,,,,null,,,,
null,is shouting at,,html-keyboard-response,386,1492555,0.0-19.0-2.5,32797,List1B,black,man,,,,null,,,,
6639,,,survey-text,387,1499195,0.0-19.0-3.5,32797,List1B,black,man,,,,,"{""Q0"":""Fred is shouting at Beth""}","<img src=""stim_listB/shout1.gif""style=""height:400px;""></stim_listB>",is shouting at,
null,"<div style=""font-size:60px;"">+</div>",,html-keyboard-response,388,1499698,0.0-19.0-0.6,32797,List1B,black,man,,,,null,,,,
null,"<img src=""stim_listB/argue8.gif""style=""height:400px;""></stim_listB>",,html-keyboard-response,389,1501700,0.0-19.0-1.6,32797,List1B,black,man,,,,null,,,,
null,are arguing with each other,,html-keyboard-response,390,1503701,0.0-19.0-2.6,32797,List1B,black,man,,,,null,,,,
7174,,,survey-text,391,1510877,0.0-19.0-3.6,32797,List1B,black,man,,,,,"{""Q0"":""Beth and Jane are arguing with each other""}","<img src=""stim_listB/argue8.gif""style=""height:400px;""></stim_listB>",are arguing with each other,
null,"<div style=""font-size:60px;"">+</div>",,html-keyboard-response,392,1511378,0.0-19.0-0.7,32797,List1B,black,man,,,,null,,,,
null,"<img src=""stim_listB/kiss4.gif""style=""height:400px;""></stim_listB>",,html-keyboard-response,393,1513379,0.0-19.0-1.7,32797,List1B,black,man,,,,null,,,,
null,are kissing each other,,html-keyboard-response,394,1515380,0.0-19.0-2.7,32797,List1B,black,man,,,,null,,,,
14993,,,survey-text,395,1530374,0.0-19.0-3.7,32797,List1B,black,man,,,,,"{""Q0"":""Dave and Beth are kissing each other""}","<img src=""stim_listB/kiss4.gif""style=""height:400px;""></stim_listB>",are kissing each other,
null,"<div style=""font-size:60px;"">+</div>",,html-keyboard-response,396,1530876,0.0-19.0-0.8,32797,List1B,black,man,,,,null,,,,
null,"<img src=""stim_listB/play8.gif""style=""height:400px;""></stim_listB>",,html-keyboard-response,397,1532878,0.0-19.0-1.8,32797,List1B,black,man,,,,null,,,,
null,are playing with each other,,html-keyboard-response,398,1534879,0.0-19.0-2.8,32797,List1B,black,man,,,,null,,,,
7719,,,survey-text,399,1542599,0.0-19.0-3.8,32797,List1B,black,man,,,,,"{""Q0"":""Beth and Jane are playing with each other""}","<img src=""stim_listB/play8.gif""style=""height:400px;""></stim_listB>",are playing with each other,
null,"<div style=""font-size:60px;"">+</div>",,html-keyboard-response,400,1543101,0.0-19.0-0.9,32797,List1B,black,man,,,,null,,,,
null,"<img src=""stim_listB/dance5.gif""style=""height:400px;""></stim_listB>",,html-keyboard-response,401,1545103,0.0-19.0-1.9,32797,List1B,black,man,,,,null,,,,
null,is dancing with,,html-keyboard-response,402,1547104,0.0-19.0-2.9,32797,List1B,black,man,,,,null,,,,
5255,,,survey-text,403,1552360,0.0-19.0-3.9,32797,List1B,black,man,,,,,"{""Q0"":""Fred is dancing with Dave""}","<img src=""stim_listB/dance5.gif""style=""height:400px;""></stim_listB>",is dancing with,
null,"<div style=""font-size:60px;"">+</div>",,html-keyboard-response,404,1552862,0.0-19.0-0.10,32797,List1B,black,man,,,,null,,,,
null,"<img src=""stim_listB/talk5.gif""style=""height:400px;""></stim_listB>",,html-keyboard-response,405,1554866,0.0-19.0-1.10,32797,List1B,black,man,,,,null,,,,
null,is talking to,,html-keyboard-response,406,1556867,0.0-19.0-2.10,32797,List1B,black,man,,,,null,,,,
25295,,,survey-text,407,1582163,0.0-19.0-3.10,32797,List1B,black,man,,,,,"{""Q0"":""Dave is talking to Fred""}","<img src=""stim_listB/talk5.gif""style=""height:400px;""></stim_listB>",is talking to,
null,"<div style=""font-size:60px;"">+</div>",,html-keyboard-response,408,1582665,0.0-19.0-0.11,32797,List1B,black,man,,,,null,,,,
null,"<img src=""stim_listB/argue5.gif""style=""height:400px;""></stim_listB>",,html-keyboard-response,409,1584667,0.0-19.0-1.11,32797,List1B,black,man,,,,null,,,,
null,is arguing with,,html-keyboard-response,410,1586667,0.0-19.0-2.11,32797,List1B,black,man,,,,null,,,,
5255,,,survey-text,411,1591924,0.0-19.0-3.11,32797,List1B,black,man,,,,,"{""Q0"":""Luke is arguing with Mike""}","<img src=""stim_listB/argue5.gif""style=""height:400px;""></stim_listB>",is arguing with,
null,"<div style=""font-size:60px;"">+</div>",,html-keyboard-response,412,1592425,0.0-19.0-0.12,32797,List1B,black,man,,,,null,,,,
null,"<img src=""stim_listB/flirt3.gif""style=""height:400px;""></stim_listB>",,html-keyboard-response,413,1594427,0.0-19.0-1.12,32797,List1B,black,man,,,,null,,,,
null,is flirting with,,html-keyboard-response,414,1596429,0.0-19.0-2.12,32797,List1B,black,man,,,,null,,,,
5110,,,survey-text,415,1601541,0.0-19.0-3.12,32797,List1B,black,man,,,,,"{""Q0"":""Mike is flirting with Jane""}","<img src=""stim_listB/flirt3.gif""style=""height:400px;""></stim_listB>",is flirting with,
null,"<div style=""font-size:60px;"">+</div>",,html-keyboard-response,416,1602042,0.0-19.0-0.13,32797,List1B,black,man,,,,null,,,,
null,"<img src=""stim_listB/fight3.gif""style=""height:400px;""></stim_listB>",,html-keyboard-response,417,1604043,0.0-19.0-1.13,32797,List1B,black,man,,,,null,,,,
null,is fighting,,html-keyboard-response,418,1606045,0.0-19.0-2.13,32797,List1B,black,man,,,,null,,,,
8984,,,survey-text,419,1615031,0.0-19.0-3.13,32797,List1B,black,man,,,,,"{""Q0"":""Luke is fighting Jane""}","<img src=""stim_listB/fight3.gif""style=""height:400px;""></stim_listB>",is fighting,
null,"<div style=""font-size:60px;"">+</div>",,html-keyboard-response,420,1615533,0.0-19.0-0.14,32797,List1B,black,man,,,,null,,,,
null,"<img src=""stim_listB/talk2.gif""style=""height:400px;""></stim_listB>",,html-keyboard-response,421,1617535,0.0-19.0-1.14,32797,List1B,black,man,,,,null,,,,
null,are talking to each other,,html-keyboard-response,422,1619537,0.0-19.0-2.14,32797,List1B,black,man,,,,null,,,,
9959,,,survey-text,423,1629496,0.0-19.0-3.14,32797,List1B,black,man,,,,,"{""Q0"":""Beth and Mike are flirting with each other""}","<img src=""stim_listB/talk2.gif""style=""height:400px;""></stim_listB>",are talking to each other,
null,"<div style=""font-size:60px;"">+</div>",,html-keyboard-response,424,1629998,0.0-19.0-0.15,32797,List1B,black,man,,,,null,,,,
null,"<img src=""stim_listB/talk1.gif""style=""height:400px;""></stim_listB>",,html-keyboard-response,425,1632000,0.0-19.0-1.15,32797,List1B,black,man,,,,null,,,,
null,is talking to,,html-keyboard-response,426,1634001,0.0-19.0-2.15,32797,List1B,black,man,,,,null,,,,
8287,,,survey-text,427,1642289,0.0-19.0-3.15,32797,List1B,black,man,,,,,"{""Q0"":""Fred is talking to Kate""}","<img src=""stim_listB/talk1.gif""style=""height:400px;""></stim_listB>",is talking to,
null,"<div style=""font-size:60px;"">+</div>",,html-keyboard-response,428,1642790,0.0-19.0-0.16,32797,List1B,black,man,,,,null,,,,
null,"<img src=""stim_listB/argue6.gif""style=""height:400px;""></stim_listB>",,html-keyboard-response,429,1644792,0.0-19.0-1.16,32797,List1B,black,man,,,,null,,,,
null,are arguing with each other,,html-keyboard-response,430,1646793,0.0-19.0-2.16,32797,List1B,black,man,,,,null,,,,
43032,,,survey-text,431,1689826,0.0-19.0-3.16,32797,List1B,black,man,,,,,"{""Q0"":""Dave and Fred are arguing with each other""}","<img src=""stim_listB/argue6.gif""style=""height:400px;""></stim_listB>",are arguing with each other,
null,"<div style=""font-size:60px;"">+</div>",,html-keyboard-response,432,1690327,0.0-19.0-0.17,32797,List1B,black,man,,,,null,,,,
null,"<img src=""stim_listB/touch8.gif""style=""height:400px;""></stim_listB>",,html-keyboard-response,433,1692330,0.0-19.0-1.17,32797,List1B,black,man,,,,null,,,,
null,are touching each other,,html-keyboard-response,434,1694331,0.0-19.0-2.17,32797,List1B,black,man,,,,null,,,,
6539,,,survey-text,435,1700870,0.0-19.0-3.17,32797,List1B,black,man,,,,,"{""Q0"":""Ruth and beth are touching each other""}","<img src=""stim_listB/touch8.gif""style=""height:400px;""></stim_listB>",are touching each other,
null,"<div style=""font-size:60px;"">+</div>",,html-keyboard-response,436,1701371,0.0-19.0-0.18,32797,List1B,black,man,,,,null,,,,
null,"<img src=""stim_listB/flirt7.gif""style=""height:400px;""></stim_listB>",,html-keyboard-response,437,1703373,0.0-19.0-1.18,32797,List1B,black,man,,,,null,,,,
null,is flirting with,,html-keyboard-response,438,1705375,0.0-19.0-2.18,32797,List1B,black,man,,,,null,,,,
5336,,,survey-text,439,1710711,0.0-19.0-3.18,32797,List1B,black,man,,,,,"{""Q0"":""Beth is flirting with Ruth""}","<img src=""stim_listB/flirt7.gif""style=""height:400px;""></stim_listB>",is flirting with,
null,"<div style=""font-size:60px;"">+</div>",,html-keyboard-response,440,1711212,0.0-19.0-0.19,32797,List1B,black,man,,,,null,,,,
null,"<img src=""stim_listB/touch2.gif""style=""height:400px;""></stim_listB>",,html-keyboard-response,441,1713215,0.0-19.0-1.19,32797,List1B,black,man,,,,null,,,,
null,are touching each other,,html-keyboard-response,442,1715217,0.0-19.0-2.19,32797,List1B,black,man,,,,null,,,,
6143,,,survey-text,443,1721361,0.0-19.0-3.19,32797,List1B,black,man,,,,,"{""Q0"":""Fred and Beth are touching each other""}","<img src=""stim_listB/touch2.gif""style=""height:400px;""></stim_listB>",are touching each other,
2629,<p>Thank you for completing that task.</p><p>The final part of this session is a short questionnaire.</p><p>Press Continue.</p>,0,html-button-response,444,1723991,0.0-20.0,32797,List1B,black,man,,,,,,,,
16265,,,survey-text,445,1741257,0.0-21.0,32797,List1B,black,man,,,,,"{""Q0"":""22"",""Q1"":""English"",""Q2"":""English"",""Q3"":""UK"",""Q4"":""Black"",""Q5"":""Male""}",,,demographics
6212,,,survey-likert,446,1747470,0.0-22.0,32797,List1B,black,man,,,,,"{""Q0"":4}",,,likert_ESS
12176,,,survey-likert,447,1759662,0.0-23.0,32797,List1B,black,man,,,,,"{""Q0"":5}",,,likert_NSSAL_Q1
3576,,,survey-likert,448,1763253,0.0-24.0,32797,List1B,black,man,,,,,"{""Q0"":5}",,,likert_NSSAL_Q2
5461,,,survey-likert,449,1768730,0.0-25.0,32797,List1B,black,man,,,,,"{""Q0"":4}",,,likert_CGRS_Q1
2936,,,survey-likert,450,1771682,0.0-26.0,32797,List1B,black,man,,,,,"{""Q0"":4}",,,likert_CGRS_Q2
2534,,,survey-likert,451,1774233,0.0-27.0,32797,List1B,black,man,,,,,"{""Q0"":4}",,,likert_CGRS_Q3
7448,,,survey-text,452,1781697,0.0-28.0,32797,List1B,black,man,,,,,"{""Q0"":""ccc""}",,,worker_id
2311,,,external-html,453,1784105,0.0-29.0,32797,List1B,black,man,debrief.html,,,,,,,
