rt,stimulus,button_pressed,trial_type,trial_index,time_elapsed,internal_node_id,subject,list,ppt_race,ppt_gender,url,first_guess,correct,key_press,responses,image_type,phrase_type,test_part
760590,Welcome to the experiment. Press Continue to begin.,0,html-button-response,0,760594,0.0-0.0,32928,List2B,white,man,,,,,,,,
6265,,,external-html,1,768250,0.0-1.0,32928,List2B,white,man,consent.html,,,,,,,
229285,"<p>On the next page, you will see portraits of 8 people and their names.</p><p>Your first task is to take a few minutes to memorise the names of these people.</p><p>You will have to recall their names during the rest of the experiment, so it is</p><p>essential that you try to memorise these people and their names as best as you can.</p><br><p><strong>You will then be tested on your memory of these names and portraits.</strong></p><br><p>The experiment will start after you have completed this memory test.</p><br><p>Ready?</p>",0,html-button-response,2,997538,0.0-2.0,32928,List2B,white,man,,,,,,,,
44168,"<img src='img/portrait_matrix_list2.jpg' style='width:900px;height:500px;''></img><p>If you have memorised all the portraits and names and are ready to start, press Continue.</p><p><strong>Please note: Your memory of these faces will be tested 4 times during this experiment.</strong></p>",0,html-button-response,3,1042713,0.0-3.0-0.0,32928,List2B,white,man,,,,,,,,
8772,"<img src=""portrait/WW1.jpg""style=""height:400px;""></img>",1,html-button-response,4,1052489,0.0-3.0-1.0,32928,List2B,white,man,,TRUE,1,,,,,
null,CORRECT,,html-keyboard-response,5,1053996,0.0-3.0-2.0-0.0,32928,List2B,white,man,,,,null,,,,
4071,"<img src=""portrait/WW2.jpg""style=""height:400px;""></img>",3,html-button-response,6,1058073,0.0-3.0-4.0,32928,List2B,white,man,,TRUE,3,,,,,
null,CORRECT,,html-keyboard-response,7,1059577,0.0-3.0-5.0-0.0,32928,List2B,white,man,,,,null,,,,
2950,"<img src=""portrait/BM1.jpg""style=""height:400px;""></img>",5,html-button-response,8,1062529,0.0-3.0-7.0,32928,List2B,white,man,,TRUE,4,,,,,
4522,"<img src=""portrait/BM1.jpg""style=""height:400px;""></img>",4,html-button-response,9,1068057,0.0-3.0-9.0-0.0,32928,List2B,white,man,,FALSE,4,,,,,
null,CORRECT,,html-keyboard-response,10,1069562,0.0-3.0-9.0-1.0-0.0,32928,List2B,white,man,,,,null,,,,
5379,"<img src=""portrait/BW1.jpg""style=""height:400px;""></img>",2,html-button-response,11,1074945,0.0-3.0-10.0,32928,List2B,white,man,,TRUE,0,,,,,
1637,"<img src=""portrait/BW1.jpg""style=""height:400px;""></img>",0,html-button-response,12,1077585,0.0-3.0-12.0-0.0,32928,List2B,white,man,,FALSE,0,,,,,
null,CORRECT,,html-keyboard-response,13,1079089,0.0-3.0-12.0-1.0-0.0,32928,List2B,white,man,,,,null,,,,
2541,"<img src=""portrait/BW2.jpg""style=""height:400px;""></img>",2,html-button-response,14,1081633,0.0-3.0-13.0,32928,List2B,white,man,,TRUE,2,,,,,
null,CORRECT,,html-keyboard-response,15,1083137,0.0-3.0-14.0-0.0,32928,List2B,white,man,,,,null,,,,
14734,"<img src=""portrait/WM1.jpg""style=""height:400px;""></img>",6,html-button-response,16,1097873,0.0-3.0-16.0,32928,List2B,white,man,,TRUE,6,,,,,
null,CORRECT,,html-keyboard-response,17,1099377,0.0-3.0-17.0-0.0,32928,List2B,white,man,,,,null,,,,
3157,"<img src=""portrait/BM2.jpg""style=""height:400px;""></img>",5,html-button-response,18,1102537,0.0-3.0-19.0,32928,List2B,white,man,,TRUE,5,,,,,
null,CORRECT,,html-keyboard-response,19,1104040,0.0-3.0-20.0-0.0,32928,List2B,white,man,,,,null,,,,
2526,"<img src=""portrait/WM2.jpg""style=""height:400px;""></img>",7,html-button-response,20,1106569,0.0-3.0-22.0,32928,List2B,white,man,,TRUE,7,,,,,
null,CORRECT,,html-keyboard-response,21,1108072,0.0-3.0-23.0-0.0,32928,List2B,white,man,,,,null,,,,
2773,<p>You got 6 out of 8 right first time. Press Continue.</p>,0,html-button-response,22,1110848,0.0-3.0-25.0,32928,List2B,white,man,,,,,,,,
11869,"As you did not score 100%, the memory game will repeat. Press Continue.",0,html-button-response,23,1123721,0.0-3.0-26.0-0.0,32928,List2B,white,man,,,,,,,,
15319,"<img src='img/portrait_matrix_list2.jpg' style='width:900px;height:500px;''></img><p>If you have memorised all the portraits and names and are ready to start, press Continue.</p><p><strong>Please note: Your memory of these faces will be tested 4 times during this experiment.</strong></p>",0,html-button-response,24,1140049,0.0-3.1-0.1,32928,List2B,white,man,,,,,,,,
2427,"<img src=""portrait/WW1.jpg""style=""height:400px;""></img>",3,html-button-response,25,1143481,0.0-3.1-1.1,32928,List2B,white,man,,TRUE,1,,,,,
5627,"<img src=""portrait/WW1.jpg""style=""height:400px;""></img>",1,html-button-response,26,1150113,0.0-3.1-3.1-0.1,32928,List2B,white,man,,FALSE,1,,,,,
null,CORRECT,,html-keyboard-response,27,1151618,0.0-3.1-3.1-1.1-0.1,32928,List2B,white,man,,,,null,,,,
2036,"<img src=""portrait/WW2.jpg""style=""height:400px;""></img>",3,html-button-response,28,1153657,0.0-3.1-4.1,32928,List2B,white,man,,TRUE,3,,,,,
null,CORRECT,,html-keyboard-response,29,1155160,0.0-3.1-5.1-0.1,32928,List2B,white,man,,,,null,,,,
2822,"<img src=""portrait/BM1.jpg""style=""height:400px;""></img>",4,html-button-response,30,1157986,0.0-3.1-7.1,32928,List2B,white,man,,TRUE,4,,,,,
null,CORRECT,,html-keyboard-response,31,1159491,0.0-3.1-8.1-0.1,32928,List2B,white,man,,,,null,,,,
4899,"<img src=""portrait/BW1.jpg""style=""height:400px;""></img>",0,html-button-response,32,1164393,0.0-3.1-10.1,32928,List2B,white,man,,TRUE,0,,,,,
null,CORRECT,,html-keyboard-response,33,1165898,0.0-3.1-11.1-0.1,32928,List2B,white,man,,,,null,,,,
2108,"<img src=""portrait/BW2.jpg""style=""height:400px;""></img>",2,html-button-response,34,1168010,0.0-3.1-13.1,32928,List2B,white,man,,TRUE,2,,,,,
null,CORRECT,,html-keyboard-response,35,1169515,0.0-3.1-14.1-0.1,32928,List2B,white,man,,,,null,,,,
29814,"<img src=""portrait/WM1.jpg""style=""height:400px;""></img>",6,html-button-response,36,1199333,0.0-3.1-16.1,32928,List2B,white,man,,TRUE,6,,,,,
null,CORRECT,,html-keyboard-response,37,1200839,0.0-3.1-17.1-0.1,32928,List2B,white,man,,,,null,,,,
2918,"<img src=""portrait/BM2.jpg""style=""height:400px;""></img>",7,html-button-response,38,1203760,0.0-3.1-19.1,32928,List2B,white,man,,TRUE,5,,,,,
2069,"<img src=""portrait/BM2.jpg""style=""height:400px;""></img>",5,html-button-response,39,1206833,0.0-3.1-21.1-0.1,32928,List2B,white,man,,FALSE,5,,,,,
null,CORRECT,,html-keyboard-response,40,1208337,0.0-3.1-21.1-1.1-0.1,32928,List2B,white,man,,,,null,,,,
1989,"<img src=""portrait/WM2.jpg""style=""height:400px;""></img>",7,html-button-response,41,1210329,0.0-3.1-22.1,32928,List2B,white,man,,TRUE,7,,,,,
null,CORRECT,,html-keyboard-response,42,1211833,0.0-3.1-23.1-0.1,32928,List2B,white,man,,,,null,,,,
2397,<p>You got 6 out of 8 right first time. Press Continue.</p>,0,html-button-response,43,1214233,0.0-3.1-25.1,32928,List2B,white,man,,,,,,,,
1221,"As you did not score 100%, the memory game will repeat. Press Continue.",0,html-button-response,44,1216456,0.0-3.1-26.1-0.1,32928,List2B,white,man,,,,,,,,
2676,"<img src='img/portrait_matrix_list2.jpg' style='width:900px;height:500px;''></img><p>If you have memorised all the portraits and names and are ready to start, press Continue.</p><p><strong>Please note: Your memory of these faces will be tested 4 times during this experiment.</strong></p>",0,html-button-response,45,1220136,0.0-3.2-0.2,32928,List2B,white,man,,,,,,,,
6141,"<img src=""portrait/WW1.jpg""style=""height:400px;""></img>",1,html-button-response,46,1227281,0.0-3.2-1.2,32928,List2B,white,man,,TRUE,1,,,,,
null,CORRECT,,html-keyboard-response,47,1228784,0.0-3.2-2.2-0.2,32928,List2B,white,man,,,,null,,,,
1790,"<img src=""portrait/WW2.jpg""style=""height:400px;""></img>",3,html-button-response,48,1230577,0.0-3.2-4.2,32928,List2B,white,man,,TRUE,3,,,,,
null,CORRECT,,html-keyboard-response,49,1232081,0.0-3.2-5.2-0.2,32928,List2B,white,man,,,,null,,,,
1772,"<img src=""portrait/BM1.jpg""style=""height:400px;""></img>",4,html-button-response,50,1233857,0.0-3.2-7.2,32928,List2B,white,man,,TRUE,4,,,,,
null,CORRECT,,html-keyboard-response,51,1235361,0.0-3.2-8.2-0.2,32928,List2B,white,man,,,,null,,,,
3317,"<img src=""portrait/BW1.jpg""style=""height:400px;""></img>",0,html-button-response,52,1238681,0.0-3.2-10.2,32928,List2B,white,man,,TRUE,0,,,,,
null,CORRECT,,html-keyboard-response,53,1240184,0.0-3.2-11.2-0.2,32928,List2B,white,man,,,,null,,,,
1860,"<img src=""portrait/BW2.jpg""style=""height:400px;""></img>",2,html-button-response,54,1242049,0.0-3.2-13.2,32928,List2B,white,man,,TRUE,2,,,,,
null,CORRECT,,html-keyboard-response,55,1243553,0.0-3.2-14.2-0.2,32928,List2B,white,man,,,,null,,,,
4965,"<img src=""portrait/WM1.jpg""style=""height:400px;""></img>",6,html-button-response,56,1248521,0.0-3.2-16.2,32928,List2B,white,man,,TRUE,6,,,,,
null,CORRECT,,html-keyboard-response,57,1250024,0.0-3.2-17.2-0.2,32928,List2B,white,man,,,,null,,,,
9433,"<img src=""portrait/BM2.jpg""style=""height:400px;""></img>",5,html-button-response,58,1259459,0.0-3.2-19.2,32928,List2B,white,man,,TRUE,5,,,,,
null,CORRECT,,html-keyboard-response,59,1260961,0.0-3.2-20.2-0.2,32928,List2B,white,man,,,,null,,,,
1277,"<img src=""portrait/WM2.jpg""style=""height:400px;""></img>",7,html-button-response,60,1262241,0.0-3.2-22.2,32928,List2B,white,man,,TRUE,7,,,,,
null,CORRECT,,html-keyboard-response,61,1263750,0.0-3.2-23.2-0.2,32928,List2B,white,man,,,,null,,,,
970,<p>You got 8 out of 8 right first time. Press Continue.</p>,0,html-button-response,62,1264721,0.0-3.2-25.2,32928,List2B,white,man,,,,,,,,
1509276,"<p>In this experiment, you will view photographs of the people from the memory game interacting.</p><p>By using the <strong>exact</strong> phrase given <i>after</i> the photograph appears and recalling the correct names of the people in the photographs, form a sentence describing the interaction. You do not need to capitalise names.</p><p>Type your answer in the space provided. Please complete every sentence before moving onto the next trial.</p><p>You will only have a few seconds to memorise each given photograph and phrase before you can respond, so try your best to focus.</p><p>An example is given below. Press 'Continue' when you are ready.</p><img src='img/speaking_example.jpg' style='width:800px;height:460px;''></img>",0,html-button-response,63,2775002,0.0-4.0,32928,List2B,white,man,,,,,,,,
2192,"<p>Before the experiment starts, you will watch two example trials. Press 'Continue'.</p>",0,html-button-response,64,2778200,0.0-5.0,32928,List2B,white,man,,,,,,,,
null,<img src='img/meet_eg.gif' style='height:400px;''></img>,,html-keyboard-response,65,2781208,0.0-6.0,32928,List2B,white,man,,,,null,,,,
null,<p>is meeting</p>,,html-keyboard-response,66,2783210,0.0-7.0,32928,List2B,white,man,,,,null,,,,
14808,<p><b>Answer:</b> jane is meeting ruth</p>,0,html-button-response,67,2798018,0.0-8.0,32928,List2B,white,man,,,,,,,,
null,<img src='img/look_eg.gif' style='height:400px;''></img>,,html-keyboard-response,68,2801023,0.0-9.0,32928,List2B,white,man,,,,null,,,,
null,<p>are looking at each other</p>,,html-keyboard-response,69,2803026,0.0-10.0,32928,List2B,white,man,,,,null,,,,
3629,<p><b>Answer:</b> fred and mike are looking at each other</p>,0,html-button-response,70,2806656,0.0-11.0,32928,List2B,white,man,,,,,,,,
12686,"<p>Ready to start the experiment?</p><br><p><strong>Remember to describe the picture using a full sentence,</strong></p><p><strong>that combines the names of the people with the <i>exact</i> phrase given.</strong></p><p><strong>To receive full payment you must do this correctly.</strong></p><p><strong> You do not need to capitalise names or use punctuation.</strong></p><br><p>Press 'Continue' to begin.</p>",0,html-button-response,71,2820345,0.0-12.0,32928,List2B,white,man,,,,,,,,
null,"<div style=""font-size:60px;"">+</div>",,html-keyboard-response,72,2821849,0.0-13.0-0.0,32928,List2B,white,man,,,,null,,,,
null,"<img src=""stim_listB/talk1.gif""style=""height:400px;""></stim_listB>",,html-keyboard-response,73,2823857,0.0-13.0-1.0,32928,List2B,white,man,,,,null,,,,
null,is talking to,,html-keyboard-response,74,2825860,0.0-13.0-2.0,32928,List2B,white,man,,,,null,,,,
14713,,,survey-text,75,2840577,0.0-13.0-3.0,32928,List2B,white,man,,,,,"{""Q0"":""Jane is talking to Luke""}","<img src=""stim_listB/talk1.gif""style=""height:400px;""></stim_listB>",is talking to,
null,"<div style=""font-size:60px;"">+</div>",,html-keyboard-response,76,2841080,0.0-13.0-0.1,32928,List2B,white,man,,,,null,,,,
null,"<img src=""stim_listB/marry7.gif""style=""height:400px;""></stim_listB>",,html-keyboard-response,77,2843084,0.0-13.0-1.1,32928,List2B,white,man,,,,null,,,,
null,is marrying,,html-keyboard-response,78,2845086,0.0-13.0-2.1,32928,List2B,white,man,,,,null,,,,
17304,,,survey-text,79,2862393,0.0-13.0-3.1,32928,List2B,white,man,,,,,"{""Q0"":""Ruth is marrying Kate""}","<img src=""stim_listB/marry7.gif""style=""height:400px;""></stim_listB>",is marrying,
null,"<div style=""font-size:60px;"">+</div>",,html-keyboard-response,80,2862896,0.0-13.0-0.2,32928,List2B,white,man,,,,null,,,,
null,"<img src=""stim_listB/flirt3.gif""style=""height:400px;""></stim_listB>",,html-keyboard-response,81,2864900,0.0-13.0-1.2,32928,List2B,white,man,,,,null,,,,
null,is flirting with,,html-keyboard-response,82,2866902,0.0-13.0-2.2,32928,List2B,white,man,,,,null,,,,
6736,,,survey-text,83,2873641,0.0-13.0-3.2,32928,List2B,white,man,,,,,"{""Q0"":""Kate is flirting with Fred""}","<img src=""stim_listB/flirt3.gif""style=""height:400px;""></stim_listB>",is flirting with,
null,"<div style=""font-size:60px;"">+</div>",,html-keyboard-response,84,2874143,0.0-13.0-0.3,32928,List2B,white,man,,,,null,,,,
null,"<img src=""stim_listB/dance2.gif""style=""height:400px;""></stim_listB>",,html-keyboard-response,85,2876147,0.0-13.0-1.3,32928,List2B,white,man,,,,null,,,,
null,are dancing with each other,,html-keyboard-response,86,2878148,0.0-13.0-2.3,32928,List2B,white,man,,,,null,,,,
28404,,,survey-text,87,2906553,0.0-13.0-3.3,32928,List2B,white,man,,,,,"{""Q0"":""Mike and Kate are dancing with each other""}","<img src=""stim_listB/dance2.gif""style=""height:400px;""></stim_listB>",are dancing with each other,
null,"<div style=""font-size:60px;"">+</div>",,html-keyboard-response,88,2907055,0.0-13.0-0.4,32928,List2B,white,man,,,,null,,,,
null,"<img src=""stim_listB/flirt2.gif""style=""height:400px;""></stim_listB>",,html-keyboard-response,89,2909061,0.0-13.0-1.4,32928,List2B,white,man,,,,null,,,,
null,are flirting with each other,,html-keyboard-response,90,2911064,0.0-13.0-2.4,32928,List2B,white,man,,,,null,,,,
25256,,,survey-text,91,2936321,0.0-13.0-3.4,32928,List2B,white,man,,,,,"{""Q0"":""Dave and Jane are flirting with each other""}","<img src=""stim_listB/flirt2.gif""style=""height:400px;""></stim_listB>",are flirting with each other,
null,"<div style=""font-size:60px;"">+</div>",,html-keyboard-response,92,2936824,0.0-13.0-0.5,32928,List2B,white,man,,,,null,,,,
null,"<img src=""stim_listB/dance8.gif""style=""height:400px;""></stim_listB>",,html-keyboard-response,93,2938828,0.0-13.0-1.5,32928,List2B,white,man,,,,null,,,,
null,are dancing with each other,,html-keyboard-response,94,2940830,0.0-13.0-2.5,32928,List2B,white,man,,,,null,,,,
14632,,,survey-text,95,2955465,0.0-13.0-3.5,32928,List2B,white,man,,,,,"{""Q0"":""Ruth and Beth are dancing with each other""}","<img src=""stim_listB/dance8.gif""style=""height:400px;""></stim_listB>",are dancing with each other,
null,"<div style=""font-size:60px;"">+</div>",,html-keyboard-response,96,2955968,0.0-13.0-0.6,32928,List2B,white,man,,,,null,,,,
null,"<img src=""stim_listB/talk8.gif""style=""height:400px;""></stim_listB>",,html-keyboard-response,97,2957971,0.0-13.0-1.6,32928,List2B,white,man,,,,null,,,,
null,are talking to each other,,html-keyboard-response,98,2959973,0.0-13.0-2.6,32928,List2B,white,man,,,,null,,,,
11514,,,survey-text,99,2971489,0.0-13.0-3.6,32928,List2B,white,man,,,,,"{""Q0"":""Ruth and Beth are talking to each other""}","<img src=""stim_listB/talk8.gif""style=""height:400px;""></stim_listB>",are talking to each other,
null,"<div style=""font-size:60px;"">+</div>",,html-keyboard-response,100,2971991,0.0-13.0-0.7,32928,List2B,white,man,,,,null,,,,
null,"<img src=""stim_listB/flirt8.gif""style=""height:400px;""></stim_listB>",,html-keyboard-response,101,2973995,0.0-13.0-1.7,32928,List2B,white,man,,,,null,,,,
null,are flirting with each other,,html-keyboard-response,102,2975998,0.0-13.0-2.7,32928,List2B,white,man,,,,null,,,,
9802,,,survey-text,103,2985801,0.0-13.0-3.7,32928,List2B,white,man,,,,,"{""Q0"":""Ruth and Beth are flirting with each other""}","<img src=""stim_listB/flirt8.gif""style=""height:400px;""></stim_listB>",are flirting with each other,
null,"<div style=""font-size:60px;"">+</div>",,html-keyboard-response,104,2986304,0.0-13.0-0.8,32928,List2B,white,man,,,,null,,,,
null,"<img src=""stim_listB/flirt7.gif""style=""height:400px;""></stim_listB>",,html-keyboard-response,105,2988307,0.0-13.0-1.8,32928,List2B,white,man,,,,null,,,,
null,is flirting with,,html-keyboard-response,106,2990309,0.0-13.0-2.8,32928,List2B,white,man,,,,null,,,,
8266,,,survey-text,107,2998577,0.0-13.0-3.8,32928,List2B,white,man,,,,,"{""Q0"":""Kate is flirting with Jane""}","<img src=""stim_listB/flirt7.gif""style=""height:400px;""></stim_listB>",is flirting with,
null,"<div style=""font-size:60px;"">+</div>",,html-keyboard-response,108,2999079,0.0-13.0-0.9,32928,List2B,white,man,,,,null,,,,
null,"<img src=""stim_listB/talk5.gif""style=""height:400px;""></stim_listB>",,html-keyboard-response,109,3001084,0.0-13.0-1.9,32928,List2B,white,man,,,,null,,,,
null,is talking to,,html-keyboard-response,110,3003087,0.0-13.0-2.9,32928,List2B,white,man,,,,null,,,,
9543,,,survey-text,111,3012633,0.0-13.0-3.9,32928,List2B,white,man,,,,,"{""Q0"":""Fred is talking to Mike""}","<img src=""stim_listB/talk5.gif""style=""height:400px;""></stim_listB>",is talking to,
null,"<div style=""font-size:60px;"">+</div>",,html-keyboard-response,112,3013136,0.0-13.0-0.10,32928,List2B,white,man,,,,null,,,,
null,"<img src=""stim_listB/play3.gif""style=""height:400px;""></stim_listB>",,html-keyboard-response,113,3015140,0.0-13.0-1.10,32928,List2B,white,man,,,,null,,,,
null,is playing with,,html-keyboard-response,114,3017143,0.0-13.0-2.10,32928,List2B,white,man,,,,null,,,,
7048,,,survey-text,115,3024192,0.0-13.0-3.10,32928,List2B,white,man,,,,,"{""Q0"":""Mike is playing with Kate""}","<img src=""stim_listB/play3.gif""style=""height:400px;""></stim_listB>",is playing with,
null,"<div style=""font-size:60px;"">+</div>",,html-keyboard-response,116,3024694,0.0-13.0-0.11,32928,List2B,white,man,,,,null,,,,
null,"<img src=""stim_listB/kiss3.gif""style=""height:400px;""></stim_listB>",,html-keyboard-response,117,3026697,0.0-13.0-1.11,32928,List2B,white,man,,,,null,,,,
null,is kissing,,html-keyboard-response,118,3028699,0.0-13.0-2.11,32928,List2B,white,man,,,,null,,,,
6444,,,survey-text,119,3035144,0.0-13.0-3.11,32928,List2B,white,man,,,,,"{""Q0"":""Fred is kissing Beth""}","<img src=""stim_listB/kiss3.gif""style=""height:400px;""></stim_listB>",is kissing,
null,"<div style=""font-size:60px;"">+</div>",,html-keyboard-response,120,3035647,0.0-13.0-0.12,32928,List2B,white,man,,,,null,,,,
null,"<img src=""stim_listB/flirt4.gif""style=""height:400px;""></stim_listB>",,html-keyboard-response,121,3037651,0.0-13.0-1.12,32928,List2B,white,man,,,,null,,,,
null,are flirting with each other,,html-keyboard-response,122,3039652,0.0-13.0-2.12,32928,List2B,white,man,,,,null,,,,
8171,,,survey-text,123,3047824,0.0-13.0-3.12,32928,List2B,white,man,,,,,"{""Q0"":""Beth and Mike are flirting with each other""}","<img src=""stim_listB/flirt4.gif""style=""height:400px;""></stim_listB>",are flirting with each other,
null,"<div style=""font-size:60px;"">+</div>",,html-keyboard-response,124,3048326,0.0-13.0-0.13,32928,List2B,white,man,,,,null,,,,
null,"<img src=""stim_listB/marry5.gif""style=""height:400px;""></stim_listB>",,html-keyboard-response,125,3050331,0.0-13.0-1.13,32928,List2B,white,man,,,,null,,,,
null,is marrying,,html-keyboard-response,126,3052334,0.0-13.0-2.13,32928,List2B,white,man,,,,null,,,,
5345,,,survey-text,127,3057680,0.0-13.0-3.13,32928,List2B,white,man,,,,,"{""Q0"":""Fred is marrying Dave""}","<img src=""stim_listB/marry5.gif""style=""height:400px;""></stim_listB>",is marrying,
null,"<div style=""font-size:60px;"">+</div>",,html-keyboard-response,128,3058182,0.0-13.0-0.14,32928,List2B,white,man,,,,null,,,,
null,"<img src=""stim_listB/kiss6.gif""style=""height:400px;""></stim_listB>",,html-keyboard-response,129,3060185,0.0-13.0-1.14,32928,List2B,white,man,,,,null,,,,
null,are kissing each other,,html-keyboard-response,130,3062188,0.0-13.0-2.14,32928,List2B,white,man,,,,null,,,,
9196,,,survey-text,131,3071384,0.0-13.0-3.14,32928,List2B,white,man,,,,,"{""Q0"":""Dave and Mike are kissing each other""}","<img src=""stim_listB/kiss6.gif""style=""height:400px;""></stim_listB>",are kissing each other,
null,"<div style=""font-size:60px;"">+</div>",,html-keyboard-response,132,3071886,0.0-13.0-0.15,32928,List2B,white,man,,,,null,,,,
null,"<img src=""stim_listB/argue8.gif""style=""height:400px;""></stim_listB>",,html-keyboard-response,133,3073890,0.0-13.0-1.15,32928,List2B,white,man,,,,null,,,,
null,are arguing with each other,,html-keyboard-response,134,3075893,0.0-13.0-2.15,32928,List2B,white,man,,,,null,,,,
10705,,,survey-text,135,3086600,0.0-13.0-3.15,32928,List2B,white,man,,,,,"{""Q0"":""Ruth and Kate are arguing with each other""}","<img src=""stim_listB/argue8.gif""style=""height:400px;""></stim_listB>",are arguing with each other,
null,"<div style=""font-size:60px;"">+</div>",,html-keyboard-response,136,3087103,0.0-13.0-0.16,32928,List2B,white,man,,,,null,,,,
null,"<img src=""stim_listB/argue6.gif""style=""height:400px;""></stim_listB>",,html-keyboard-response,137,3089106,0.0-13.0-1.16,32928,List2B,white,man,,,,null,,,,
null,are arguing with each other,,html-keyboard-response,138,3091108,0.0-13.0-2.16,32928,List2B,white,man,,,,null,,,,
19755,,,survey-text,139,3110864,0.0-13.0-3.16,32928,List2B,white,man,,,,,"{""Q0"":""Fred and Mike are arguing with each other""}","<img src=""stim_listB/argue6.gif""style=""height:400px;""></stim_listB>",are arguing with each other,
null,"<div style=""font-size:60px;"">+</div>",,html-keyboard-response,140,3111367,0.0-13.0-0.17,32928,List2B,white,man,,,,null,,,,
null,"<img src=""stim_listB/fight7.gif""style=""height:400px;""></stim_listB>",,html-keyboard-response,141,3113372,0.0-13.0-1.17,32928,List2B,white,man,,,,null,,,,
null,is fighting,,html-keyboard-response,142,3115374,0.0-13.0-2.17,32928,List2B,white,man,,,,null,,,,
8184,,,survey-text,143,3123560,0.0-13.0-3.17,32928,List2B,white,man,,,,,"{""Q0"":""Ruth is fighting Kate""}","<img src=""stim_listB/fight7.gif""style=""height:400px;""></stim_listB>",is fighting,
null,"<div style=""font-size:60px;"">+</div>",,html-keyboard-response,144,3124063,0.0-13.0-0.18,32928,List2B,white,man,,,,null,,,,
null,"<img src=""stim_listB/fight8.gif""style=""height:400px;""></stim_listB>",,html-keyboard-response,145,3126068,0.0-13.0-1.18,32928,List2B,white,man,,,,null,,,,
null,are fighting each other,,html-keyboard-response,146,3128072,0.0-13.0-2.18,32928,List2B,white,man,,,,null,,,,
13775,,,survey-text,147,3141848,0.0-13.0-3.18,32928,List2B,white,man,,,,,"{""Q0"":""Beth and Jane are fighting each other""}","<img src=""stim_listB/fight8.gif""style=""height:400px;""></stim_listB>",are fighting each other,
null,"<div style=""font-size:60px;"">+</div>",,html-keyboard-response,148,3142351,0.0-13.0-0.19,32928,List2B,white,man,,,,null,,,,
null,"<img src=""stim_listB/kiss8.gif""style=""height:400px;""></stim_listB>",,html-keyboard-response,149,3144354,0.0-13.0-1.19,32928,List2B,white,man,,,,null,,,,
null,are kissing each other,,html-keyboard-response,150,3146356,0.0-13.0-2.19,32928,List2B,white,man,,,,null,,,,
7867,,,survey-text,151,3154224,0.0-13.0-3.19,32928,List2B,white,man,,,,,"{""Q0"":""Ruth and Kate are kissing each other""}","<img src=""stim_listB/kiss8.gif""style=""height:400px;""></stim_listB>",are kissing each other,
6823,"<img src='img/portrait_matrix_list2.jpg' style='width:900px;height:500px;''></img><p>If you have memorised all the portraits and names and are ready to start, press Continue.</p><p><strong>Please note: Your memory of these faces will be tested 4 times during this experiment.</strong></p>",0,html-button-response,152,3161048,0.0-14.0-0.0,32928,List2B,white,man,,,,,,,,
2212,"<img src=""portrait/WM1.jpg""style=""height:400px;""></img>",4,html-button-response,153,3164265,0.0-14.0-1.0,32928,List2B,white,man,,TRUE,6,,,,,
2461,"<img src=""portrait/WM1.jpg""style=""height:400px;""></img>",6,html-button-response,154,3167729,0.0-14.0-3.0-0.0,32928,List2B,white,man,,FALSE,6,,,,,
null,CORRECT,,html-keyboard-response,155,3169234,0.0-14.0-3.0-1.0-0.0,32928,List2B,white,man,,,,null,,,,
2084,"<img src=""portrait/WM2.jpg""style=""height:400px;""></img>",7,html-button-response,156,3171320,0.0-14.0-4.0,32928,List2B,white,man,,TRUE,7,,,,,
null,CORRECT,,html-keyboard-response,157,3172825,0.0-14.0-5.0-0.0,32928,List2B,white,man,,,,null,,,,
9566,"<img src=""portrait/BW2.jpg""style=""height:400px;""></img>",2,html-button-response,158,3182393,0.0-14.0-7.0,32928,List2B,white,man,,TRUE,2,,,,,
null,CORRECT,,html-keyboard-response,159,3183897,0.0-14.0-8.0-0.0,32928,List2B,white,man,,,,null,,,,
2213,"<img src=""portrait/WW2.jpg""style=""height:400px;""></img>",1,html-button-response,160,3186112,0.0-14.0-10.0,32928,List2B,white,man,,TRUE,3,,,,,
2108,"<img src=""portrait/WW2.jpg""style=""height:400px;""></img>",3,html-button-response,161,3189224,0.0-14.0-12.0-0.0,32928,List2B,white,man,,FALSE,3,,,,,
null,CORRECT,,html-keyboard-response,162,3190730,0.0-14.0-12.0-1.0-0.0,32928,List2B,white,man,,,,null,,,,
1608,"<img src=""portrait/BM2.jpg""style=""height:400px;""></img>",5,html-button-response,163,3192345,0.0-14.0-13.0,32928,List2B,white,man,,TRUE,5,,,,,
null,CORRECT,,html-keyboard-response,164,3193849,0.0-14.0-14.0-0.0,32928,List2B,white,man,,,,null,,,,
1989,"<img src=""portrait/WW1.jpg""style=""height:400px;""></img>",3,html-button-response,165,3195840,0.0-14.0-16.0,32928,List2B,white,man,,TRUE,1,,,,,
9092,"<img src=""portrait/WW1.jpg""style=""height:400px;""></img>",1,html-button-response,166,3205937,0.0-14.0-18.0-0.0,32928,List2B,white,man,,FALSE,1,,,,,
null,CORRECT,,html-keyboard-response,167,3207440,0.0-14.0-18.0-1.0-0.0,32928,List2B,white,man,,,,null,,,,
2031,"<img src=""portrait/BW1.jpg""style=""height:400px;""></img>",0,html-button-response,168,3209472,0.0-14.0-19.0,32928,List2B,white,man,,TRUE,0,,,,,
null,CORRECT,,html-keyboard-response,169,3210976,0.0-14.0-20.0-0.0,32928,List2B,white,man,,,,null,,,,
1638,"<img src=""portrait/BM1.jpg""style=""height:400px;""></img>",4,html-button-response,170,3212616,0.0-14.0-22.0,32928,List2B,white,man,,TRUE,4,,,,,
null,CORRECT,,html-keyboard-response,171,3214121,0.0-14.0-23.0-0.0,32928,List2B,white,man,,,,null,,,,
1284,<p>You got 5 out of 8 right first time. Press Continue.</p>,0,html-button-response,172,3215409,0.0-14.0-25.0,32928,List2B,white,man,,,,,,,,
2140,"As you did not score 100%, the memory game will repeat. Press Continue.",0,html-button-response,173,3218553,0.0-14.0-26.0-0.0,32928,List2B,white,man,,,,,,,,
3970,"<img src='img/portrait_matrix_list2.jpg' style='width:900px;height:500px;''></img><p>If you have memorised all the portraits and names and are ready to start, press Continue.</p><p><strong>Please note: Your memory of these faces will be tested 4 times during this experiment.</strong></p>",0,html-button-response,174,3223529,0.0-14.1-0.1,32928,List2B,white,man,,,,,,,,
1907,"<img src=""portrait/WM1.jpg""style=""height:400px;""></img>",6,html-button-response,175,3226441,0.0-14.1-1.1,32928,List2B,white,man,,TRUE,6,,,,,
null,CORRECT,,html-keyboard-response,176,3227946,0.0-14.1-2.1-0.1,32928,List2B,white,man,,,,null,,,,
1804,"<img src=""portrait/WM2.jpg""style=""height:400px;""></img>",7,html-button-response,177,3229754,0.0-14.1-4.1,32928,List2B,white,man,,TRUE,7,,,,,
null,CORRECT,,html-keyboard-response,178,3231266,0.0-14.1-5.1-0.1,32928,List2B,white,man,,,,null,,,,
6468,"<img src=""portrait/BW2.jpg""style=""height:400px;""></img>",2,html-button-response,179,3237737,0.0-14.1-7.1,32928,List2B,white,man,,TRUE,2,,,,,
null,CORRECT,,html-keyboard-response,180,3239240,0.0-14.1-8.1-0.1,32928,List2B,white,man,,,,null,,,,
2487,"<img src=""portrait/WW2.jpg""style=""height:400px;""></img>",3,html-button-response,181,3241729,0.0-14.1-10.1,32928,List2B,white,man,,TRUE,3,,,,,
null,CORRECT,,html-keyboard-response,182,3243232,0.0-14.1-11.1-0.1,32928,List2B,white,man,,,,null,,,,
2254,"<img src=""portrait/BM2.jpg""style=""height:400px;""></img>",5,html-button-response,183,3245489,0.0-14.1-13.1,32928,List2B,white,man,,TRUE,5,,,,,
null,CORRECT,,html-keyboard-response,184,3246993,0.0-14.1-14.1-0.1,32928,List2B,white,man,,,,null,,,,
2493,"<img src=""portrait/WW1.jpg""style=""height:400px;""></img>",1,html-button-response,185,3249489,0.0-14.1-16.1,32928,List2B,white,man,,TRUE,1,,,,,
null,CORRECT,,html-keyboard-response,186,3250993,0.0-14.1-17.1-0.1,32928,List2B,white,man,,,,null,,,,
1700,"<img src=""portrait/BW1.jpg""style=""height:400px;""></img>",0,html-button-response,187,3252697,0.0-14.1-19.1,32928,List2B,white,man,,TRUE,0,,,,,
null,CORRECT,,html-keyboard-response,188,3254203,0.0-14.1-20.1-0.1,32928,List2B,white,man,,,,null,,,,
1579,"<img src=""portrait/BM1.jpg""style=""height:400px;""></img>",4,html-button-response,189,3255785,0.0-14.1-22.1,32928,List2B,white,man,,TRUE,4,,,,,
null,CORRECT,,html-keyboard-response,190,3257291,0.0-14.1-23.1-0.1,32928,List2B,white,man,,,,null,,,,
1483,<p>You got 8 out of 8 right first time. Press Continue.</p>,0,html-button-response,191,3258777,0.0-14.1-25.1,32928,List2B,white,man,,,,,,,,
null,"<div style=""font-size:60px;"">+</div>",,html-keyboard-response,192,3260282,0.0-15.0-0.0,32928,List2B,white,man,,,,null,,,,
null,"<img src=""stim_listB/shout8.gif""style=""height:400px;""></stim_listB>",,html-keyboard-response,193,3262286,0.0-15.0-1.0,32928,List2B,white,man,,,,null,,,,
null,are shouting at each other,,html-keyboard-response,194,3264289,0.0-15.0-2.0,32928,List2B,white,man,,,,null,,,,
16965,,,survey-text,195,3281256,0.0-15.0-3.0,32928,List2B,white,man,,,,,"{""Q0"":""Kate and Jane are shouting at each other""}","<img src=""stim_listB/shout8.gif""style=""height:400px;""></stim_listB>",are shouting at each other,
null,"<div style=""font-size:60px;"">+</div>",,html-keyboard-response,196,3281759,0.0-15.0-0.1,32928,List2B,white,man,,,,null,,,,
null,"<img src=""stim_listB/marry1.gif""style=""height:400px;""></stim_listB>",,html-keyboard-response,197,3283762,0.0-15.0-1.1,32928,List2B,white,man,,,,null,,,,
null,is marrying,,html-keyboard-response,198,3285765,0.0-15.0-2.1,32928,List2B,white,man,,,,null,,,,
5577,,,survey-text,199,3291344,0.0-15.0-3.1,32928,List2B,white,man,,,,,"{""Q0"":""Dave is marrying Ruth""}","<img src=""stim_listB/marry1.gif""style=""height:400px;""></stim_listB>",is marrying,
null,"<div style=""font-size:60px;"">+</div>",,html-keyboard-response,200,3291846,0.0-15.0-0.2,32928,List2B,white,man,,,,null,,,,
null,"<img src=""stim_listB/flirt5.gif""style=""height:400px;""></stim_listB>",,html-keyboard-response,201,3293851,0.0-15.0-1.2,32928,List2B,white,man,,,,null,,,,
null,is flirting with,,html-keyboard-response,202,3295854,0.0-15.0-2.2,32928,List2B,white,man,,,,null,,,,
6455,,,survey-text,203,3302312,0.0-15.0-3.2,32928,List2B,white,man,,,,,"{""Q0"":""Luke is flirting with Mike""}","<img src=""stim_listB/flirt5.gif""style=""height:400px;""></stim_listB>",is flirting with,
null,"<div style=""font-size:60px;"">+</div>",,html-keyboard-response,204,3302814,0.0-15.0-0.3,32928,List2B,white,man,,,,null,,,,
null,"<img src=""stim_listB/shout2.gif""style=""height:400px;""></stim_listB>",,html-keyboard-response,205,3304818,0.0-15.0-1.3,32928,List2B,white,man,,,,null,,,,
null,are shouting at each other,,html-keyboard-response,206,3306820,0.0-15.0-2.3,32928,List2B,white,man,,,,null,,,,
13531,,,survey-text,207,3320352,0.0-15.0-3.3,32928,List2B,white,man,,,,,"{""Q0"":""Dave and Jane are shouting at each other""}","<img src=""stim_listB/shout2.gif""style=""height:400px;""></stim_listB>",are shouting at each other,
null,"<div style=""font-size:60px;"">+</div>",,html-keyboard-response,208,3320855,0.0-15.0-0.4,32928,List2B,white,man,,,,null,,,,
null,"<img src=""stim_listB/play8.gif""style=""height:400px;""></stim_listB>",,html-keyboard-response,209,3322859,0.0-15.0-1.4,32928,List2B,white,man,,,,null,,,,
null,are playing with each other,,html-keyboard-response,210,3324862,0.0-15.0-2.4,32928,List2B,white,man,,,,null,,,,
7376,,,survey-text,211,3332240,0.0-15.0-3.4,32928,List2B,white,man,,,,,"{""Q0"":""Ruth and Beth are playing with each other""}","<img src=""stim_listB/play8.gif""style=""height:400px;""></stim_listB>",are playing with each other,
null,"<div style=""font-size:60px;"">+</div>",,html-keyboard-response,212,3332742,0.0-15.0-0.5,32928,List2B,white,man,,,,null,,,,
null,"<img src=""stim_listB/fight2.gif""style=""height:400px;""></stim_listB>",,html-keyboard-response,213,3334748,0.0-15.0-1.5,32928,List2B,white,man,,,,null,,,,
null,are fighting each other,,html-keyboard-response,214,3336749,0.0-15.0-2.5,32928,List2B,white,man,,,,null,,,,
16296,,,survey-text,215,3353048,0.0-15.0-3.5,32928,List2B,white,man,,,,,"{""Q0"":""Ruth and Luke are fighting each other""}","<img src=""stim_listB/fight2.gif""style=""height:400px;""></stim_listB>",are fighting each other,
null,"<div style=""font-size:60px;"">+</div>",,html-keyboard-response,216,3353550,0.0-15.0-0.6,32928,List2B,white,man,,,,null,,,,
null,"<img src=""stim_listB/talk4.gif""style=""height:400px;""></stim_listB>",,html-keyboard-response,217,3355556,0.0-15.0-1.6,32928,List2B,white,man,,,,null,,,,
null,are talking to each other,,html-keyboard-response,218,3357559,0.0-15.0-2.6,32928,List2B,white,man,,,,null,,,,
17622,,,survey-text,219,3375184,0.0-15.0-3.6,32928,List2B,white,man,,,,,"{""Q0"":""Beth and Mike are talking to each other""}","<img src=""stim_listB/talk4.gif""style=""height:400px;""></stim_listB>",are talking to each other,
null,"<div style=""font-size:60px;"">+</div>",,html-keyboard-response,220,3375687,0.0-15.0-0.7,32928,List2B,white,man,,,,null,,,,
null,"<img src=""stim_listB/play5.gif""style=""height:400px;""></stim_listB>",,html-keyboard-response,221,3377692,0.0-15.0-1.7,32928,List2B,white,man,,,,null,,,,
null,is playing with,,html-keyboard-response,222,3379694,0.0-15.0-2.7,32928,List2B,white,man,,,,null,,,,
6800,,,survey-text,223,3386496,0.0-15.0-3.7,32928,List2B,white,man,,,,,"{""Q0"":""Dave is playing with Mike""}","<img src=""stim_listB/play5.gif""style=""height:400px;""></stim_listB>",is playing with,
null,"<div style=""font-size:60px;"">+</div>",,html-keyboard-response,224,3386998,0.0-15.0-0.8,32928,List2B,white,man,,,,null,,,,
null,"<img src=""stim_listB/argue4.gif""style=""height:400px;""></stim_listB>",,html-keyboard-response,225,3389006,0.0-15.0-1.8,32928,List2B,white,man,,,,null,,,,
null,are arguing with each other,,html-keyboard-response,226,3391009,0.0-15.0-2.8,32928,List2B,white,man,,,,null,,,,
28309,,,survey-text,227,3419320,0.0-15.0-3.8,32928,List2B,white,man,,,,,"{""Q0"":""Beth and Luke are arguing with each other""}","<img src=""stim_listB/argue4.gif""style=""height:400px;""></stim_listB>",are arguing with each other,
null,"<div style=""font-size:60px;"">+</div>",,html-keyboard-response,228,3419822,0.0-15.0-0.9,32928,List2B,white,man,,,,null,,,,
null,"<img src=""stim_listB/marry3.gif""style=""height:400px;""></stim_listB>",,html-keyboard-response,229,3421827,0.0-15.0-1.9,32928,List2B,white,man,,,,null,,,,
null,is marrying,,html-keyboard-response,230,3423829,0.0-15.0-2.9,32928,List2B,white,man,,,,null,,,,
5544,,,survey-text,231,3429376,0.0-15.0-3.9,32928,List2B,white,man,,,,,"{""Q0"":""Luke is marrying Beth""}","<img src=""stim_listB/marry3.gif""style=""height:400px;""></stim_listB>",is marrying,
null,"<div style=""font-size:60px;"">+</div>",,html-keyboard-response,232,3429878,0.0-15.0-0.10,32928,List2B,white,man,,,,null,,,,
null,"<img src=""stim_listB/dance1.gif""style=""height:400px;""></stim_listB>",,html-keyboard-response,233,3431882,0.0-15.0-1.10,32928,List2B,white,man,,,,null,,,,
null,is dancing with,,html-keyboard-response,234,3433884,0.0-15.0-2.10,32928,List2B,white,man,,,,null,,,,
6162,,,survey-text,235,3440048,0.0-15.0-3.10,32928,List2B,white,man,,,,,"{""Q0"":""Luke is dancing with Jane""}","<img src=""stim_listB/dance1.gif""style=""height:400px;""></stim_listB>",is dancing with,
null,"<div style=""font-size:60px;"">+</div>",,html-keyboard-response,236,3440550,0.0-15.0-0.11,32928,List2B,white,man,,,,null,,,,
null,"<img src=""stim_listB/argue2.gif""style=""height:400px;""></stim_listB>",,html-keyboard-response,237,3442554,0.0-15.0-1.11,32928,List2B,white,man,,,,null,,,,
null,are arguing with each other,,html-keyboard-response,238,3444557,0.0-15.0-2.11,32928,List2B,white,man,,,,null,,,,
10698,,,survey-text,239,3455257,0.0-15.0-3.11,32928,List2B,white,man,,,,,"{""Q0"":""Jane and Luke are arguing with each other""}","<img src=""stim_listB/argue2.gif""style=""height:400px;""></stim_listB>",are arguing with each other,
null,"<div style=""font-size:60px;"">+</div>",,html-keyboard-response,240,3455759,0.0-15.0-0.12,32928,List2B,white,man,,,,null,,,,
null,"<img src=""stim_listB/talk7.gif""style=""height:400px;""></stim_listB>",,html-keyboard-response,241,3457763,0.0-15.0-1.12,32928,List2B,white,man,,,,null,,,,
null,is talking to,,html-keyboard-response,242,3459765,0.0-15.0-2.12,32928,List2B,white,man,,,,null,,,,
12161,,,survey-text,243,3471928,0.0-15.0-3.12,32928,List2B,white,man,,,,,"{""Q0"":""Kate is talking to Ruth""}","<img src=""stim_listB/talk7.gif""style=""height:400px;""></stim_listB>",is talking to,
null,"<div style=""font-size:60px;"">+</div>",,html-keyboard-response,244,3472430,0.0-15.0-0.13,32928,List2B,white,man,,,,null,,,,
null,"<img src=""stim_listB/argue3.gif""style=""height:400px;""></stim_listB>",,html-keyboard-response,245,3474434,0.0-15.0-1.13,32928,List2B,white,man,,,,null,,,,
null,is arguing with,,html-keyboard-response,246,3476437,0.0-15.0-2.13,32928,List2B,white,man,,,,null,,,,
5505,,,survey-text,247,3481944,0.0-15.0-3.13,32928,List2B,white,man,,,,,"{""Q0"":""Beth is arguing with Mike""}","<img src=""stim_listB/argue3.gif""style=""height:400px;""></stim_listB>",is arguing with,
null,"<div style=""font-size:60px;"">+</div>",,html-keyboard-response,248,3482447,0.0-15.0-0.14,32928,List2B,white,man,,,,null,,,,
null,"<img src=""stim_listB/play7.gif""style=""height:400px;""></stim_listB>",,html-keyboard-response,249,3484451,0.0-15.0-1.14,32928,List2B,white,man,,,,null,,,,
null,is playing with,,html-keyboard-response,250,3486454,0.0-15.0-2.14,32928,List2B,white,man,,,,null,,,,
5096,,,survey-text,251,3491552,0.0-15.0-3.14,32928,List2B,white,man,,,,,"{""Q0"":""Jane is playing with Kate""}","<img src=""stim_listB/play7.gif""style=""height:400px;""></stim_listB>",is playing with,
null,"<div style=""font-size:60px;"">+</div>",,html-keyboard-response,252,3492054,0.0-15.0-0.15,32928,List2B,white,man,,,,null,,,,
null,"<img src=""stim_listB/dance5.gif""style=""height:400px;""></stim_listB>",,html-keyboard-response,253,3494058,0.0-15.0-1.15,32928,List2B,white,man,,,,null,,,,
null,is dancing with,,html-keyboard-response,254,3496061,0.0-15.0-2.15,32928,List2B,white,man,,,,null,,,,
6169,,,survey-text,255,3502232,0.0-15.0-3.15,32928,List2B,white,man,,,,,"{""Q0"":""Mike is dancing with Luke""}","<img src=""stim_listB/dance5.gif""style=""height:400px;""></stim_listB>",is dancing with,
null,"<div style=""font-size:60px;"">+</div>",,html-keyboard-response,256,3502733,0.0-15.0-0.16,32928,List2B,white,man,,,,null,,,,
null,"<img src=""stim_listB/shout6.gif""style=""height:400px;""></stim_listB>",,html-keyboard-response,257,3504738,0.0-15.0-1.16,32928,List2B,white,man,,,,null,,,,
null,are shouting at each other,,html-keyboard-response,258,3506739,0.0-15.0-2.16,32928,List2B,white,man,,,,null,,,,
7723,,,survey-text,259,3514464,0.0-15.0-3.16,32928,List2B,white,man,,,,,"{""Q0"":""Mike and Dave are shouting at each other""}","<img src=""stim_listB/shout6.gif""style=""height:400px;""></stim_listB>",are shouting at each other,
null,"<div style=""font-size:60px;"">+</div>",,html-keyboard-response,260,3514967,0.0-15.0-0.17,32928,List2B,white,man,,,,null,,,,
null,"<img src=""stim_listB/shout5.gif""style=""height:400px;""></stim_listB>",,html-keyboard-response,261,3516970,0.0-15.0-1.17,32928,List2B,white,man,,,,null,,,,
null,is shouting at,,html-keyboard-response,262,3518972,0.0-15.0-2.17,32928,List2B,white,man,,,,null,,,,
18898,,,survey-text,263,3537872,0.0-15.0-3.17,32928,List2B,white,man,,,,,"{""Q0"":""Mike is shouting at Fred""}","<img src=""stim_listB/shout5.gif""style=""height:400px;""></stim_listB>",is shouting at,
null,"<div style=""font-size:60px;"">+</div>",,html-keyboard-response,264,3538375,0.0-15.0-0.18,32928,List2B,white,man,,,,null,,,,
null,"<img src=""stim_listB/shout1.gif""style=""height:400px;""></stim_listB>",,html-keyboard-response,265,3540379,0.0-15.0-1.18,32928,List2B,white,man,,,,null,,,,
null,is shouting at,,html-keyboard-response,266,3542383,0.0-15.0-2.18,32928,List2B,white,man,,,,null,,,,
6271,,,survey-text,267,3548656,0.0-15.0-3.18,32928,List2B,white,man,,,,,"{""Q0"":""Luke is shouting at Ruth""}","<img src=""stim_listB/shout1.gif""style=""height:400px;""></stim_listB>",is shouting at,
null,"<div style=""font-size:60px;"">+</div>",,html-keyboard-response,268,3549159,0.0-15.0-0.19,32928,List2B,white,man,,,,null,,,,
null,"<img src=""stim_listB/touch7.gif""style=""height:400px;""></stim_listB>",,html-keyboard-response,269,3551163,0.0-15.0-1.19,32928,List2B,white,man,,,,null,,,,
null,is touching,,html-keyboard-response,270,3553166,0.0-15.0-2.19,32928,List2B,white,man,,,,null,,,,
5185,,,survey-text,271,3558352,0.0-15.0-3.19,32928,List2B,white,man,,,,,"{""Q0"":""Jane is touching Kate""}","<img src=""stim_listB/touch7.gif""style=""height:400px;""></stim_listB>",is touching,
3383,"<img src='img/portrait_matrix_list2.jpg' style='width:900px;height:500px;''></img><p>If you have memorised all the portraits and names and are ready to start, press Continue.</p><p><strong>Please note: Your memory of these faces will be tested 4 times during this experiment.</strong></p>",0,html-button-response,272,3561736,0.0-16.0-0.0,32928,List2B,white,man,,,,,,,,
2171,"<img src=""portrait/BM2.jpg""style=""height:400px;""></img>",5,html-button-response,273,3564912,0.0-16.0-1.0,32928,List2B,white,man,,TRUE,5,,,,,
null,CORRECT,,html-keyboard-response,274,3566417,0.0-16.0-2.0-0.0,32928,List2B,white,man,,,,null,,,,
1749,"<img src=""portrait/WM2.jpg""style=""height:400px;""></img>",7,html-button-response,275,3568168,0.0-16.0-4.0,32928,List2B,white,man,,TRUE,7,,,,,
null,CORRECT,,html-keyboard-response,276,3569673,0.0-16.0-5.0-0.0,32928,List2B,white,man,,,,null,,,,
2045,"<img src=""portrait/WM1.jpg""style=""height:400px;""></img>",6,html-button-response,277,3571720,0.0-16.0-7.0,32928,List2B,white,man,,TRUE,6,,,,,
null,CORRECT,,html-keyboard-response,278,3573226,0.0-16.0-8.0-0.0,32928,List2B,white,man,,,,null,,,,
2044,"<img src=""portrait/BW1.jpg""style=""height:400px;""></img>",0,html-button-response,279,3575272,0.0-16.0-10.0,32928,List2B,white,man,,TRUE,0,,,,,
null,CORRECT,,html-keyboard-response,280,3576778,0.0-16.0-11.0-0.0,32928,List2B,white,man,,,,null,,,,
3605,"<img src=""portrait/WW1.jpg""style=""height:400px;""></img>",1,html-button-response,281,3580384,0.0-16.0-13.0,32928,List2B,white,man,,TRUE,1,,,,,
null,CORRECT,,html-keyboard-response,282,3581889,0.0-16.0-14.0-0.0,32928,List2B,white,man,,,,null,,,,
2140,"<img src=""portrait/WW2.jpg""style=""height:400px;""></img>",3,html-button-response,283,3584032,0.0-16.0-16.0,32928,List2B,white,man,,TRUE,3,,,,,
null,CORRECT,,html-keyboard-response,284,3585537,0.0-16.0-17.0-0.0,32928,List2B,white,man,,,,null,,,,
2149,"<img src=""portrait/BM1.jpg""style=""height:400px;""></img>",4,html-button-response,285,3587688,0.0-16.0-19.0,32928,List2B,white,man,,TRUE,4,,,,,
null,CORRECT,,html-keyboard-response,286,3589193,0.0-16.0-20.0-0.0,32928,List2B,white,man,,,,null,,,,
1822,"<img src=""portrait/BW2.jpg""style=""height:400px;""></img>",2,html-button-response,287,3591016,0.0-16.0-22.0,32928,List2B,white,man,,TRUE,2,,,,,
null,CORRECT,,html-keyboard-response,288,3592519,0.0-16.0-23.0-0.0,32928,List2B,white,man,,,,null,,,,
1127,<p>You got 8 out of 8 right first time. Press Continue.</p>,0,html-button-response,289,3593648,0.0-16.0-25.0,32928,List2B,white,man,,,,,,,,
null,"<div style=""font-size:60px;"">+</div>",,html-keyboard-response,290,3595153,0.0-17.0-0.0,32928,List2B,white,man,,,,null,,,,
null,"<img src=""stim_listB/kiss2.gif""style=""height:400px;""></stim_listB>",,html-keyboard-response,291,3597157,0.0-17.0-1.0,32928,List2B,white,man,,,,null,,,,
null,are kissing each other,,html-keyboard-response,292,3599160,0.0-17.0-2.0,32928,List2B,white,man,,,,null,,,,
9199,,,survey-text,293,3608360,0.0-17.0-3.0,32928,List2B,white,man,,,,,"{""Q0"":""Dave and Jane are kissing each other""}","<img src=""stim_listB/kiss2.gif""style=""height:400px;""></stim_listB>",are kissing each other,
null,"<div style=""font-size:60px;"">+</div>",,html-keyboard-response,294,3608863,0.0-17.0-0.1,32928,List2B,white,man,,,,null,,,,
null,"<img src=""stim_listB/talk2.gif""style=""height:400px;""></stim_listB>",,html-keyboard-response,295,3610866,0.0-17.0-1.1,32928,List2B,white,man,,,,null,,,,
null,are talking to each other,,html-keyboard-response,296,3612869,0.0-17.0-2.1,32928,List2B,white,man,,,,null,,,,
11330,,,survey-text,297,3624201,0.0-17.0-3.1,32928,List2B,white,man,,,,,"{""Q0"":""Ruth and Dave are talking to each other""}","<img src=""stim_listB/talk2.gif""style=""height:400px;""></stim_listB>",are talking to each other,
null,"<div style=""font-size:60px;"">+</div>",,html-keyboard-response,298,3624704,0.0-17.0-0.2,32928,List2B,white,man,,,,null,,,,
null,"<img src=""stim_listB/kiss5.gif""style=""height:400px;""></stim_listB>",,html-keyboard-response,299,3626708,0.0-17.0-1.2,32928,List2B,white,man,,,,null,,,,
null,is kissing,,html-keyboard-response,300,3628710,0.0-17.0-2.2,32928,List2B,white,man,,,,null,,,,
5185,,,survey-text,301,3633896,0.0-17.0-3.2,32928,List2B,white,man,,,,,"{""Q0"":""Fred is kissing Luke""}","<img src=""stim_listB/kiss5.gif""style=""height:400px;""></stim_listB>",is kissing,
null,"<div style=""font-size:60px;"">+</div>",,html-keyboard-response,302,3634400,0.0-17.0-0.3,32928,List2B,white,man,,,,null,,,,
null,"<img src=""stim_listB/play4.gif""style=""height:400px;""></stim_listB>",,html-keyboard-response,303,3636405,0.0-17.0-1.3,32928,List2B,white,man,,,,null,,,,
null,are playing with each other,,html-keyboard-response,304,3638407,0.0-17.0-2.3,32928,List2B,white,man,,,,null,,,,
20942,,,survey-text,305,3659352,0.0-17.0-3.3,32928,List2B,white,man,,,,,"{""Q0"":""Fred and Beth are playing with each other""}","<img src=""stim_listB/play4.gif""style=""height:400px;""></stim_listB>",are playing with each other,
null,"<div style=""font-size:60px;"">+</div>",,html-keyboard-response,306,3659861,0.0-17.0-0.4,32928,List2B,white,man,,,,null,,,,
null,"<img src=""stim_listB/dance3.gif""style=""height:400px;""></stim_listB>",,html-keyboard-response,307,3661867,0.0-17.0-1.4,32928,List2B,white,man,,,,null,,,,
null,is dancing with,,html-keyboard-response,308,3663870,0.0-17.0-2.4,32928,List2B,white,man,,,,null,,,,
7551,,,survey-text,309,3671425,0.0-17.0-3.4,32928,List2B,white,man,,,,,"{""Q0"":""Fred is dancing with Jane""}","<img src=""stim_listB/dance3.gif""style=""height:400px;""></stim_listB>",is dancing with,
null,"<div style=""font-size:60px;"">+</div>",,html-keyboard-response,310,3671931,0.0-17.0-0.5,32928,List2B,white,man,,,,null,,,,
null,"<img src=""stim_listB/dance7.gif""style=""height:400px;""></stim_listB>",,html-keyboard-response,311,3673935,0.0-17.0-1.5,32928,List2B,white,man,,,,null,,,,
null,is dancing with,,html-keyboard-response,312,3675938,0.0-17.0-2.5,32928,List2B,white,man,,,,null,,,,
4850,,,survey-text,313,3680791,0.0-17.0-3.5,32928,List2B,white,man,,,,,"{""Q0"":""Jane is dancing with Ruth""}","<img src=""stim_listB/dance7.gif""style=""height:400px;""></stim_listB>",is dancing with,
null,"<div style=""font-size:60px;"">+</div>",,html-keyboard-response,314,3681294,0.0-17.0-0.6,32928,List2B,white,man,,,,null,,,,
null,"<img src=""stim_listB/fight6.gif""style=""height:400px;""></stim_listB>",,html-keyboard-response,315,3683300,0.0-17.0-1.6,32928,List2B,white,man,,,,null,,,,
null,are fighting each other,,html-keyboard-response,316,3685303,0.0-17.0-2.6,32928,List2B,white,man,,,,null,,,,
9013,,,survey-text,317,3694319,0.0-17.0-3.6,32928,List2B,white,man,,,,,"{""Q0"":""Fred and Luke are fighting each other""}","<img src=""stim_listB/fight6.gif""style=""height:400px;""></stim_listB>",are fighting each other,
null,"<div style=""font-size:60px;"">+</div>",,html-keyboard-response,318,3694822,0.0-17.0-0.7,32928,List2B,white,man,,,,null,,,,
null,"<img src=""stim_listB/touch6.gif""style=""height:400px;""></stim_listB>",,html-keyboard-response,319,3696825,0.0-17.0-1.7,32928,List2B,white,man,,,,null,,,,
null,are touching each other,,html-keyboard-response,320,3698828,0.0-17.0-2.7,32928,List2B,white,man,,,,null,,,,
6228,,,survey-text,321,3705058,0.0-17.0-3.7,32928,List2B,white,man,,,,,"{""Q0"":""Fred and Luke are touching each other""}","<img src=""stim_listB/touch6.gif""style=""height:400px;""></stim_listB>",are touching each other,
null,"<div style=""font-size:60px;"">+</div>",,html-keyboard-response,322,3705560,0.0-17.0-0.8,32928,List2B,white,man,,,,null,,,,
null,"<img src=""stim_listB/fight1.gif""style=""height:400px;""></stim_listB>",,html-keyboard-response,323,3707565,0.0-17.0-1.8,32928,List2B,white,man,,,,null,,,,
null,is fighting,,html-keyboard-response,324,3709566,0.0-17.0-2.8,32928,List2B,white,man,,,,null,,,,
17100,,,survey-text,325,3726670,0.0-17.0-3.8,32928,List2B,white,man,,,,,"{""Q0"":""Jane is fighting Mike""}","<img src=""stim_listB/fight1.gif""style=""height:400px;""></stim_listB>",is fighting,
null,"<div style=""font-size:60px;"">+</div>",,html-keyboard-response,326,3727173,0.0-17.0-0.9,32928,List2B,white,man,,,,null,,,,
null,"<img src=""stim_listB/marry2.gif""style=""height:400px;""></stim_listB>",,html-keyboard-response,327,3729178,0.0-17.0-1.9,32928,List2B,white,man,,,,null,,,,
null,are marrying each other,,html-keyboard-response,328,3731181,0.0-17.0-2.9,32928,List2B,white,man,,,,null,,,,
11121,,,survey-text,329,3742304,0.0-17.0-3.9,32928,List2B,white,man,,,,,"{""Q0"":""Jane and Luke are marrying each other""}","<img src=""stim_listB/marry2.gif""style=""height:400px;""></stim_listB>",are marrying each other,
null,"<div style=""font-size:60px;"">+</div>",,html-keyboard-response,330,3742807,0.0-17.0-0.10,32928,List2B,white,man,,,,null,,,,
null,"<img src=""stim_listB/touch3.gif""style=""height:400px;""></stim_listB>",,html-keyboard-response,331,3744810,0.0-17.0-1.10,32928,List2B,white,man,,,,null,,,,
null,is touching,,html-keyboard-response,332,3746813,0.0-17.0-2.10,32928,List2B,white,man,,,,null,,,,
4215,,,survey-text,333,3751031,0.0-17.0-3.10,32928,List2B,white,man,,,,,"{""Q0"":""Jane is touching MIke""}","<img src=""stim_listB/touch3.gif""style=""height:400px;""></stim_listB>",is touching,
null,"<div style=""font-size:60px;"">+</div>",,html-keyboard-response,334,3751535,0.0-17.0-0.11,32928,List2B,white,man,,,,null,,,,
null,"<img src=""stim_listB/play2.gif""style=""height:400px;""></stim_listB>",,html-keyboard-response,335,3753538,0.0-17.0-1.11,32928,List2B,white,man,,,,null,,,,
null,are playing with each other,,html-keyboard-response,336,3755541,0.0-17.0-2.11,32928,List2B,white,man,,,,null,,,,
8850,,,survey-text,337,3764393,0.0-17.0-3.11,32928,List2B,white,man,,,,,"{""Q0"":""Ruth and Luke are playing with each other""}","<img src=""stim_listB/play2.gif""style=""height:400px;""></stim_listB>",are playing with each other,
null,"<div style=""font-size:60px;"">+</div>",,html-keyboard-response,338,3764897,0.0-17.0-0.12,32928,List2B,white,man,,,,null,,,,
null,"<img src=""stim_listB/argue5.gif""style=""height:400px;""></stim_listB>",,html-keyboard-response,339,3766900,0.0-17.0-1.12,32928,List2B,white,man,,,,null,,,,
null,is arguing with,,html-keyboard-response,340,3768904,0.0-17.0-2.12,32928,List2B,white,man,,,,null,,,,
6053,,,survey-text,341,3774960,0.0-17.0-3.12,32928,List2B,white,man,,,,,"{""Q0"":""Fred is arguing with Dave""}","<img src=""stim_listB/argue5.gif""style=""height:400px;""></stim_listB>",is arguing with,
null,"<div style=""font-size:60px;"">+</div>",,html-keyboard-response,342,3775465,0.0-17.0-0.13,32928,List2B,white,man,,,,null,,,,
null,"<img src=""stim_listB/touch1.gif""style=""height:400px;""></stim_listB>",,html-keyboard-response,343,3777470,0.0-17.0-1.13,32928,List2B,white,man,,,,null,,,,
null,is touching,,html-keyboard-response,344,3779473,0.0-17.0-2.13,32928,List2B,white,man,,,,null,,,,
4509,,,survey-text,345,3783985,0.0-17.0-3.13,32928,List2B,white,man,,,,,"{""Q0"":""Dave is touching Jane""}","<img src=""stim_listB/touch1.gif""style=""height:400px;""></stim_listB>",is touching,
null,"<div style=""font-size:60px;"">+</div>",,html-keyboard-response,346,3784488,0.0-17.0-0.14,32928,List2B,white,man,,,,null,,,,
null,"<img src=""stim_listB/shout4.gif""style=""height:400px;""></stim_listB>",,html-keyboard-response,347,3786491,0.0-17.0-1.14,32928,List2B,white,man,,,,null,,,,
null,are shouting at each other,,html-keyboard-response,348,3788494,0.0-17.0-2.14,32928,List2B,white,man,,,,null,,,,
6561,,,survey-text,349,3795057,0.0-17.0-3.14,32928,List2B,white,man,,,,,"{""Q0"":""Jane and Mike are shouting at each other""}","<img src=""stim_listB/shout4.gif""style=""height:400px;""></stim_listB>",are shouting at each other,
null,"<div style=""font-size:60px;"">+</div>",,html-keyboard-response,350,3795561,0.0-17.0-0.15,32928,List2B,white,man,,,,null,,,,
null,"<img src=""stim_listB/argue1.gif""style=""height:400px;""></stim_listB>",,html-keyboard-response,351,3797566,0.0-17.0-1.15,32928,List2B,white,man,,,,null,,,,
null,is arguing with,,html-keyboard-response,352,3799567,0.0-17.0-2.15,32928,List2B,white,man,,,,null,,,,
6078,,,survey-text,353,3805647,0.0-17.0-3.15,32928,List2B,white,man,,,,,"{""Q0"":""Dave is arguing with Ruth""}","<img src=""stim_listB/argue1.gif""style=""height:400px;""></stim_listB>",is arguing with,
null,"<div style=""font-size:60px;"">+</div>",,html-keyboard-response,354,3806153,0.0-17.0-0.16,32928,List2B,white,man,,,,null,,,,
null,"<img src=""stim_listB/touch2.gif""style=""height:400px;""></stim_listB>",,html-keyboard-response,355,3808157,0.0-17.0-1.16,32928,List2B,white,man,,,,null,,,,
null,are touching each other,,html-keyboard-response,356,3810159,0.0-17.0-2.16,32928,List2B,white,man,,,,null,,,,
5859,,,survey-text,357,3816020,0.0-17.0-3.16,32928,List2B,white,man,,,,,"{""Q0"":""Luke and Ruth are touching each other""}","<img src=""stim_listB/touch2.gif""style=""height:400px;""></stim_listB>",are touching each other,
null,"<div style=""font-size:60px;"">+</div>",,html-keyboard-response,358,3816524,0.0-17.0-0.17,32928,List2B,white,man,,,,null,,,,
null,"<img src=""stim_listB/touch8.gif""style=""height:400px;""></stim_listB>",,html-keyboard-response,359,3818527,0.0-17.0-1.17,32928,List2B,white,man,,,,null,,,,
null,are touching each other,,html-keyboard-response,360,3820544,0.0-17.0-2.17,32928,List2B,white,man,,,,null,,,,
27936,,,survey-text,361,3848485,0.0-17.0-3.17,32928,List2B,white,man,,,,,"{""Q0"":""Mike and Ruth are touching each other""}","<img src=""stim_listB/touch8.gif""style=""height:400px;""></stim_listB>",are touching each other,
null,"<div style=""font-size:60px;"">+</div>",,html-keyboard-response,362,3848987,0.0-17.0-0.18,32928,List2B,white,man,,,,null,,,,
null,"<img src=""stim_listB/shout3.gif""style=""height:400px;""></stim_listB>",,html-keyboard-response,363,3850991,0.0-17.0-1.18,32928,List2B,white,man,,,,null,,,,
null,is shouting at,,html-keyboard-response,364,3852999,0.0-17.0-2.18,32928,List2B,white,man,,,,null,,,,
5063,,,survey-text,365,3858064,0.0-17.0-3.18,32928,List2B,white,man,,,,,"{""Q0"":""Fred is shouting at Beth""}","<img src=""stim_listB/shout3.gif""style=""height:400px;""></stim_listB>",is shouting at,
null,"<div style=""font-size:60px;"">+</div>",,html-keyboard-response,366,3858567,0.0-17.0-0.19,32928,List2B,white,man,,,,null,,,,
null,"<img src=""stim_listB/play6.gif""style=""height:400px;""></stim_listB>",,html-keyboard-response,367,3860572,0.0-17.0-1.19,32928,List2B,white,man,,,,null,,,,
null,are playing with each other,,html-keyboard-response,368,3862575,0.0-17.0-2.19,32928,List2B,white,man,,,,null,,,,
6409,,,survey-text,369,3868986,0.0-17.0-3.19,32928,List2B,white,man,,,,,"{""Q0"":""Fred and Luke are playing with each other""}","<img src=""stim_listB/play6.gif""style=""height:400px;""></stim_listB>",are playing with each other,
2093,"<img src='img/portrait_matrix_list2.jpg' style='width:900px;height:500px;''></img><p>If you have memorised all the portraits and names and are ready to start, press Continue.</p><p><strong>Please note: Your memory of these faces will be tested 4 times during this experiment.</strong></p>",0,html-button-response,370,3871083,0.0-18.0-0.0,32928,List2B,white,man,,,,,,,,
3865,"<img src=""portrait/WM2.jpg""style=""height:400px;""></img>",7,html-button-response,371,3875952,0.0-18.0-1.0,32928,List2B,white,man,,TRUE,7,,,,,
null,CORRECT,,html-keyboard-response,372,3877456,0.0-18.0-2.0-0.0,32928,List2B,white,man,,,,null,,,,
1669,"<img src=""portrait/WW2.jpg""style=""height:400px;""></img>",3,html-button-response,373,3879128,0.0-18.0-4.0,32928,List2B,white,man,,TRUE,3,,,,,
null,CORRECT,,html-keyboard-response,374,3880634,0.0-18.0-5.0-0.0,32928,List2B,white,man,,,,null,,,,
1669,"<img src=""portrait/BW2.jpg""style=""height:400px;""></img>",2,html-button-response,375,3882304,0.0-18.0-7.0,32928,List2B,white,man,,TRUE,2,,,,,
null,CORRECT,,html-keyboard-response,376,3883810,0.0-18.0-8.0-0.0,32928,List2B,white,man,,,,null,,,,
1652,"<img src=""portrait/BM1.jpg""style=""height:400px;""></img>",4,html-button-response,377,3885465,0.0-18.0-10.0,32928,List2B,white,man,,TRUE,4,,,,,
null,CORRECT,,html-keyboard-response,378,3886971,0.0-18.0-11.0-0.0,32928,List2B,white,man,,,,null,,,,
1490,"<img src=""portrait/BM2.jpg""style=""height:400px;""></img>",5,html-button-response,379,3888464,0.0-18.0-13.0,32928,List2B,white,man,,TRUE,5,,,,,
null,CORRECT,,html-keyboard-response,380,3889968,0.0-18.0-14.0-0.0,32928,List2B,white,man,,,,null,,,,
1508,"<img src=""portrait/WW1.jpg""style=""height:400px;""></img>",1,html-button-response,381,3891480,0.0-18.0-16.0,32928,List2B,white,man,,TRUE,1,,,,,
null,CORRECT,,html-keyboard-response,382,3892983,0.0-18.0-17.0-0.0,32928,List2B,white,man,,,,null,,,,
2158,"<img src=""portrait/WM1.jpg""style=""height:400px;""></img>",6,html-button-response,383,3895144,0.0-18.0-19.0,32928,List2B,white,man,,TRUE,6,,,,,
null,CORRECT,,html-keyboard-response,384,3896647,0.0-18.0-20.0-0.0,32928,List2B,white,man,,,,null,,,,
1536,"<img src=""portrait/BW1.jpg""style=""height:400px;""></img>",0,html-button-response,385,3898184,0.0-18.0-22.0,32928,List2B,white,man,,TRUE,0,,,,,
null,CORRECT,,html-keyboard-response,386,3899689,0.0-18.0-23.0-0.0,32928,List2B,white,man,,,,null,,,,
941,<p>You got 8 out of 8 right first time. Press Continue.</p>,0,html-button-response,387,3900632,0.0-18.0-25.0,32928,List2B,white,man,,,,,,,,
null,"<div style=""font-size:60px;"">+</div>",,html-keyboard-response,388,3902138,0.0-19.0-0.0,32928,List2B,white,man,,,,null,,,,
null,"<img src=""stim_listB/flirt6.gif""style=""height:400px;""></stim_listB>",,html-keyboard-response,389,3904146,0.0-19.0-1.0,32928,List2B,white,man,,,,null,,,,
null,are flirting with each other,,html-keyboard-response,390,3906149,0.0-19.0-2.0,32928,List2B,white,man,,,,null,,,,
8413,,,survey-text,391,3914563,0.0-19.0-3.0,32928,List2B,white,man,,,,,"{""Q0"":""fred and dave are flirting with each other""}","<img src=""stim_listB/flirt6.gif""style=""height:400px;""></stim_listB>",are flirting with each other,
null,"<div style=""font-size:60px;"">+</div>",,html-keyboard-response,392,3915067,0.0-19.0-0.1,32928,List2B,white,man,,,,null,,,,
null,"<img src=""stim_listB/touch4.gif""style=""height:400px;""></stim_listB>",,html-keyboard-response,393,3917070,0.0-19.0-1.1,32928,List2B,white,man,,,,null,,,,
null,are touching each other,,html-keyboard-response,394,3919073,0.0-19.0-2.1,32928,List2B,white,man,,,,null,,,,
8335,,,survey-text,395,3927411,0.0-19.0-3.1,32928,List2B,white,man,,,,,"{""Q0"":""fred and beth are touching each other""}","<img src=""stim_listB/touch4.gif""style=""height:400px;""></stim_listB>",are touching each other,
null,"<div style=""font-size:60px;"">+</div>",,html-keyboard-response,396,3927914,0.0-19.0-0.2,32928,List2B,white,man,,,,null,,,,
null,"<img src=""stim_listB/dance6.gif""style=""height:400px;""></stim_listB>",,html-keyboard-response,397,3929919,0.0-19.0-1.2,32928,List2B,white,man,,,,null,,,,
null,are dancing with each other,,html-keyboard-response,398,3931921,0.0-19.0-2.2,32928,List2B,white,man,,,,null,,,,
6843,,,survey-text,399,3938766,0.0-19.0-3.2,32928,List2B,white,man,,,,,"{""Q0"":""fred and dave are dancing with each other""}","<img src=""stim_listB/dance6.gif""style=""height:400px;""></stim_listB>",are dancing with each other,
null,"<div style=""font-size:60px;"">+</div>",,html-keyboard-response,400,3939270,0.0-19.0-0.3,32928,List2B,white,man,,,,null,,,,
null,"<img src=""stim_listB/fight5.gif""style=""height:400px;""></stim_listB>",,html-keyboard-response,401,3941275,0.0-19.0-1.3,32928,List2B,white,man,,,,null,,,,
null,is fighting,,html-keyboard-response,402,3943278,0.0-19.0-2.3,32928,List2B,white,man,,,,null,,,,
4714,,,survey-text,403,3947995,0.0-19.0-3.3,32928,List2B,white,man,,,,,"{""Q0"":""dave is fighting mike""}","<img src=""stim_listB/fight5.gif""style=""height:400px;""></stim_listB>",is fighting,
null,"<div style=""font-size:60px;"">+</div>",,html-keyboard-response,404,3948500,0.0-19.0-0.4,32928,List2B,white,man,,,,null,,,,
null,"<img src=""stim_listB/play1.gif""style=""height:400px;""></stim_listB>",,html-keyboard-response,405,3950505,0.0-19.0-1.4,32928,List2B,white,man,,,,null,,,,
null,is playing with,,html-keyboard-response,406,3952509,0.0-19.0-2.4,32928,List2B,white,man,,,,null,,,,
4475,,,survey-text,407,3956986,0.0-19.0-3.4,32928,List2B,white,man,,,,,"{""Q0"":""dave is playing with jane""}","<img src=""stim_listB/play1.gif""style=""height:400px;""></stim_listB>",is playing with,
null,"<div style=""font-size:60px;"">+</div>",,html-keyboard-response,408,3957490,0.0-19.0-0.5,32928,List2B,white,man,,,,null,,,,
null,"<img src=""stim_listB/touch5.gif""style=""height:400px;""></stim_listB>",,html-keyboard-response,409,3959495,0.0-19.0-1.5,32928,List2B,white,man,,,,null,,,,
null,is touching,,html-keyboard-response,410,3961498,0.0-19.0-2.5,32928,List2B,white,man,,,,null,,,,
4851,,,survey-text,411,3966350,0.0-19.0-3.5,32928,List2B,white,man,,,,,"{""Q0"":""dave is touching mike""}","<img src=""stim_listB/touch5.gif""style=""height:400px;""></stim_listB>",is touching,
null,"<div style=""font-size:60px;"">+</div>",,html-keyboard-response,412,3966854,0.0-19.0-0.6,32928,List2B,white,man,,,,null,,,,
null,"<img src=""stim_listB/shout7.gif""style=""height:400px;""></stim_listB>",,html-keyboard-response,413,3968861,0.0-19.0-1.6,32928,List2B,white,man,,,,null,,,,
null,is shouting at,,html-keyboard-response,414,3970863,0.0-19.0-2.6,32928,List2B,white,man,,,,null,,,,
4149,,,survey-text,415,3975015,0.0-19.0-3.6,32928,List2B,white,man,,,,,"{""Q0"":""beth is shouting at ruth""}","<img src=""stim_listB/shout7.gif""style=""height:400px;""></stim_listB>",is shouting at,
null,"<div style=""font-size:60px;"">+</div>",,html-keyboard-response,416,3975518,0.0-19.0-0.7,32928,List2B,white,man,,,,null,,,,
null,"<img src=""stim_listB/flirt1.gif""style=""height:400px;""></stim_listB>",,html-keyboard-response,417,3977522,0.0-19.0-1.7,32928,List2B,white,man,,,,null,,,,
null,is flirting with,,html-keyboard-response,418,3979525,0.0-19.0-2.7,32928,List2B,white,man,,,,null,,,,
4973,,,survey-text,419,3984502,0.0-19.0-3.7,32928,List2B,white,man,,,,,"{""Q0"":""luke is flirting with jane""}","<img src=""stim_listB/flirt1.gif""style=""height:400px;""></stim_listB>",is flirting with,
null,"<div style=""font-size:60px;"">+</div>",,html-keyboard-response,420,3985010,0.0-19.0-0.8,32928,List2B,white,man,,,,null,,,,
null,"<img src=""stim_listB/talk3.gif""style=""height:400px;""></stim_listB>",,html-keyboard-response,421,3987015,0.0-19.0-1.8,32928,List2B,white,man,,,,null,,,,
null,is talking to,,html-keyboard-response,422,3989018,0.0-19.0-2.8,32928,List2B,white,man,,,,null,,,,
5302,,,survey-text,423,3994323,0.0-19.0-3.8,32928,List2B,white,man,,,,,"{""Q0"":""kate is talking to luke""}","<img src=""stim_listB/talk3.gif""style=""height:400px;""></stim_listB>",is talking to,
null,"<div style=""font-size:60px;"">+</div>",,html-keyboard-response,424,3994829,0.0-19.0-0.9,32928,List2B,white,man,,,,null,,,,
null,"<img src=""stim_listB/fight4.gif""style=""height:400px;""></stim_listB>",,html-keyboard-response,425,3996834,0.0-19.0-1.9,32928,List2B,white,man,,,,null,,,,
null,are fighting each other,,html-keyboard-response,426,3998836,0.0-19.0-2.9,32928,List2B,white,man,,,,null,,,,
6055,,,survey-text,427,4004893,0.0-19.0-3.9,32928,List2B,white,man,,,,,"{""Q0"":""fred and beth are fighting each other""}","<img src=""stim_listB/fight4.gif""style=""height:400px;""></stim_listB>",are fighting each other,
null,"<div style=""font-size:60px;"">+</div>",,html-keyboard-response,428,4005397,0.0-19.0-0.10,32928,List2B,white,man,,,,null,,,,
null,"<img src=""stim_listB/kiss1.gif""style=""height:400px;""></stim_listB>",,html-keyboard-response,429,4007401,0.0-19.0-1.10,32928,List2B,white,man,,,,null,,,,
null,is kissing,,html-keyboard-response,430,4009404,0.0-19.0-2.10,32928,List2B,white,man,,,,null,,,,
4323,,,survey-text,431,4013730,0.0-19.0-3.10,32928,List2B,white,man,,,,,"{""Q0"":""ruth is kissing luke""}","<img src=""stim_listB/kiss1.gif""style=""height:400px;""></stim_listB>",is kissing,
null,"<div style=""font-size:60px;"">+</div>",,html-keyboard-response,432,4014232,0.0-19.0-0.11,32928,List2B,white,man,,,,null,,,,
null,"<img src=""stim_listB/marry6.gif""style=""height:400px;""></stim_listB>",,html-keyboard-response,433,4016240,0.0-19.0-1.11,32928,List2B,white,man,,,,null,,,,
null,are marrying each other,,html-keyboard-response,434,4018247,0.0-19.0-2.11,32928,List2B,white,man,,,,null,,,,
7668,,,survey-text,435,4025916,0.0-19.0-3.11,32928,List2B,white,man,,,,,"{""Q0"":""luke and mike are marrying each other""}","<img src=""stim_listB/marry6.gif""style=""height:400px;""></stim_listB>",are marrying each other,
null,"<div style=""font-size:60px;"">+</div>",,html-keyboard-response,436,4026420,0.0-19.0-0.12,32928,List2B,white,man,,,,null,,,,
null,"<img src=""stim_listB/argue7.gif""style=""height:400px;""></stim_listB>",,html-keyboard-response,437,4028426,0.0-19.0-1.12,32928,List2B,white,man,,,,null,,,,
null,is arguing with,,html-keyboard-response,438,4030429,0.0-19.0-2.12,32928,List2B,white,man,,,,null,,,,
4472,,,survey-text,439,4034902,0.0-19.0-3.12,32928,List2B,white,man,,,,,"{""Q0"":""jane is arguing with beth""}","<img src=""stim_listB/argue7.gif""style=""height:400px;""></stim_listB>",is arguing with,
null,"<div style=""font-size:60px;"">+</div>",,html-keyboard-response,440,4035408,0.0-19.0-0.13,32928,List2B,white,man,,,,null,,,,
null,"<img src=""stim_listB/kiss4.gif""style=""height:400px;""></stim_listB>",,html-keyboard-response,441,4037412,0.0-19.0-1.13,32928,List2B,white,man,,,,null,,,,
null,are kissing each other,,html-keyboard-response,442,4039415,0.0-19.0-2.13,32928,List2B,white,man,,,,null,,,,
7229,,,survey-text,443,4046647,0.0-19.0-3.13,32928,List2B,white,man,,,,,"{""Q0"":""kate and mike are kissing each other""}","<img src=""stim_listB/kiss4.gif""style=""height:400px;""></stim_listB>",are kissing each other,
null,"<div style=""font-size:60px;"">+</div>",,html-keyboard-response,444,4047151,0.0-19.0-0.14,32928,List2B,white,man,,,,null,,,,
null,"<img src=""stim_listB/fight3.gif""style=""height:400px;""></stim_listB>",,html-keyboard-response,445,4049155,0.0-19.0-1.14,32928,List2B,white,man,,,,null,,,,
null,is fighting,,html-keyboard-response,446,4051158,0.0-19.0-2.14,32928,List2B,white,man,,,,null,,,,
4174,,,survey-text,447,4055334,0.0-19.0-3.14,32928,List2B,white,man,,,,,"{""Q0"":""mike is fighting kate""}","<img src=""stim_listB/fight3.gif""style=""height:400px;""></stim_listB>",is fighting,
null,"<div style=""font-size:60px;"">+</div>",,html-keyboard-response,448,4055840,0.0-19.0-0.15,32928,List2B,white,man,,,,null,,,,
null,"<img src=""stim_listB/talk6.gif""style=""height:400px;""></stim_listB>",,html-keyboard-response,449,4057844,0.0-19.0-1.15,32928,List2B,white,man,,,,null,,,,
null,are talking to each other,,html-keyboard-response,450,4059847,0.0-19.0-2.15,32928,List2B,white,man,,,,null,,,,
6100,,,survey-text,451,4065950,0.0-19.0-3.15,32928,List2B,white,man,,,,,"{""Q0"":""fred and dave are talking to each other""}","<img src=""stim_listB/talk6.gif""style=""height:400px;""></stim_listB>",are talking to each other,
null,"<div style=""font-size:60px;"">+</div>",,html-keyboard-response,452,4066456,0.0-19.0-0.16,32928,List2B,white,man,,,,null,,,,
null,"<img src=""stim_listB/kiss7.gif""style=""height:400px;""></stim_listB>",,html-keyboard-response,453,4068462,0.0-19.0-1.16,32928,List2B,white,man,,,,null,,,,
null,is kissing,,html-keyboard-response,454,4070465,0.0-19.0-2.16,32928,List2B,white,man,,,,null,,,,
4110,,,survey-text,455,4074578,0.0-19.0-3.16,32928,List2B,white,man,,,,,"{""Q0"":""beth is kissing ruth""}","<img src=""stim_listB/kiss7.gif""style=""height:400px;""></stim_listB>",is kissing,
null,"<div style=""font-size:60px;"">+</div>",,html-keyboard-response,456,4075082,0.0-19.0-0.17,32928,List2B,white,man,,,,null,,,,
null,"<img src=""stim_listB/marry4.gif""style=""height:400px;""></stim_listB>",,html-keyboard-response,457,4077088,0.0-19.0-1.17,32928,List2B,white,man,,,,null,,,,
null,are marrying each other,,html-keyboard-response,458,4079091,0.0-19.0-2.17,32928,List2B,white,man,,,,null,,,,
8678,,,survey-text,459,4087770,0.0-19.0-3.17,32928,List2B,white,man,,,,,"{""Q0"":""fred and kate are marrying each other""}","<img src=""stim_listB/marry4.gif""style=""height:400px;""></stim_listB>",are marrying each other,
null,"<div style=""font-size:60px;"">+</div>",,html-keyboard-response,460,4088274,0.0-19.0-0.18,32928,List2B,white,man,,,,null,,,,
null,"<img src=""stim_listB/marry8.gif""style=""height:400px;""></stim_listB>",,html-keyboard-response,461,4090278,0.0-19.0-1.18,32928,List2B,white,man,,,,null,,,,
null,are marrying each other,,html-keyboard-response,462,4092281,0.0-19.0-2.18,32928,List2B,white,man,,,,null,,,,
7701,,,survey-text,463,4099986,0.0-19.0-3.18,32928,List2B,white,man,,,,,"{""Q0"":""jane and ruth are marrying each other""}","<img src=""stim_listB/marry8.gif""style=""height:400px;""></stim_listB>",are marrying each other,
null,"<div style=""font-size:60px;"">+</div>",,html-keyboard-response,464,4100489,0.0-19.0-0.19,32928,List2B,white,man,,,,null,,,,
null,"<img src=""stim_listB/dance4.gif""style=""height:400px;""></stim_listB>",,html-keyboard-response,465,4102493,0.0-19.0-1.19,32928,List2B,white,man,,,,null,,,,
null,are dancing with each other,,html-keyboard-response,466,4104495,0.0-19.0-2.19,32928,List2B,white,man,,,,null,,,,
6752,,,survey-text,467,4111250,0.0-19.0-3.19,32928,List2B,white,man,,,,,"{""Q0"":""beth and mike are dancing with each other""}","<img src=""stim_listB/dance4.gif""style=""height:400px;""></stim_listB>",are dancing with each other,
2889,<p>Thank you for completing that task.</p><p>The final part of this session is a short questionnaire.</p><p>Press Continue.</p>,0,html-button-response,468,4114142,0.0-20.0,32928,List2B,white,man,,,,,,,,
14367,,,survey-text,469,4129516,0.0-21.0,32928,List2B,white,man,,,,,"{""Q0"":""43"",""Q1"":""english"",""Q2"":""english"",""Q3"":""usa"",""Q4"":""white"",""Q5"":""male""}",,,demographics
6596,,,survey-likert,470,4136119,0.0-22.0,32928,List2B,white,man,,,,,"{""Q0"":4}",,,likert_ESS
3616,,,survey-likert,471,4139737,0.0-23.0,32928,List2B,white,man,,,,,"{""Q0"":4}",,,likert_NSSAL_Q1
2824,,,survey-likert,472,4142565,0.0-24.0,32928,List2B,white,man,,,,,"{""Q0"":4}",,,likert_NSSAL_Q2
3001,,,survey-likert,473,4145570,0.0-25.0,32928,List2B,white,man,,,,,"{""Q0"":4}",,,likert_CGRS_Q1
2225,,,survey-likert,474,4147802,0.0-26.0,32928,List2B,white,man,,,,,"{""Q0"":4}",,,likert_CGRS_Q2
1673,,,survey-likert,475,4149479,0.0-27.0,32928,List2B,white,man,,,,,"{""Q0"":4}",,,likert_CGRS_Q3
12022,,,survey-text,476,4161504,0.0-28.0,32928,List2B,white,man,,,,,"{""Q0"":""ccc""}",,,worker_id
4750,,,external-html,477,4166624,0.0-29.0,32928,List2B,white,man,debrief.html,,,,,,,
