rt,stimulus,button_pressed,trial_type,trial_index,time_elapsed,internal_node_id,subject,list,ppt_race,ppt_gender,url,first_guess,correct,key_press,responses,image_type,phrase_type,test_part
1228,Welcome to the experiment. Press Continue to begin.,0,html-button-response,0,1229,0.0-0.0,33570,List2A,white,man,,,,,,,,
9654,,,external-html,1,11927,0.0-1.0,33570,List2A,white,man,consent.html,,,,,,,
15312,"<p>On the next page, you will see portraits of 8 people and their names.</p><p>Your first task is to take a few minutes to memorise the names of these people.</p><p>You will have to recall their names during the rest of the experiment, so it is</p><p>essential that you try to memorise these people and their names as best as you can.</p><br><p><strong>You will then be tested on your memory of these names and portraits.</strong></p><br><p>The experiment will start after you have completed this memory test.</p><br><p>Ready?</p>",0,html-button-response,2,27240,0.0-2.0,33570,List2A,white,man,,,,,,,,
35869,"<img src='img/portrait_matrix_list2.jpg' style='width:900px;height:500px;''></img><p>If you have memorised all the portraits and names and are ready to start, press Continue.</p><p><strong>Please note: Your memory of these faces will be tested 4 times during this experiment.</strong></p>",0,html-button-response,3,64110,0.0-3.0-0.0,33570,List2A,white,man,,,,,,,,
5807,"<img src=""portrait/BW1.jpg""style=""height:400px;""></img>",2,html-button-response,4,70919,0.0-3.0-1.0,33570,List2A,white,man,,TRUE,0,,,,,
7751,"<img src=""portrait/BW1.jpg""style=""height:400px;""></img>",0,html-button-response,5,79672,0.0-3.0-3.0-0.0,33570,List2A,white,man,,FALSE,0,,,,,
null,CORRECT,,html-keyboard-response,6,81175,0.0-3.0-3.0-1.0-0.0,33570,List2A,white,man,,,,null,,,,
7930,"<img src=""portrait/WM1.jpg""style=""height:400px;""></img>",6,html-button-response,7,89106,0.0-3.0-4.0,33570,List2A,white,man,,TRUE,6,,,,,
null,CORRECT,,html-keyboard-response,8,90607,0.0-3.0-5.0-0.0,33570,List2A,white,man,,,,null,,,,
4898,"<img src=""portrait/WM2.jpg""style=""height:400px;""></img>",7,html-button-response,9,95506,0.0-3.0-7.0,33570,List2A,white,man,,TRUE,7,,,,,
null,CORRECT,,html-keyboard-response,10,97007,0.0-3.0-8.0-0.0,33570,List2A,white,man,,,,null,,,,
9571,"<img src=""portrait/BW2.jpg""style=""height:400px;""></img>",0,html-button-response,11,106580,0.0-3.0-10.0,33570,List2A,white,man,,TRUE,2,,,,,
2072,"<img src=""portrait/BW2.jpg""style=""height:400px;""></img>",2,html-button-response,12,109653,0.0-3.0-12.0-0.0,33570,List2A,white,man,,FALSE,2,,,,,
null,CORRECT,,html-keyboard-response,13,111154,0.0-3.0-12.0-1.0-0.0,33570,List2A,white,man,,,,null,,,,
2234,"<img src=""portrait/BM1.jpg""style=""height:400px;""></img>",4,html-button-response,14,113389,0.0-3.0-13.0,33570,List2A,white,man,,TRUE,4,,,,,
null,CORRECT,,html-keyboard-response,15,114890,0.0-3.0-14.0-0.0,33570,List2A,white,man,,,,null,,,,
5370,"<img src=""portrait/BM2.jpg""style=""height:400px;""></img>",5,html-button-response,16,120262,0.0-3.0-16.0,33570,List2A,white,man,,TRUE,5,,,,,
null,CORRECT,,html-keyboard-response,17,121764,0.0-3.0-17.0-0.0,33570,List2A,white,man,,,,null,,,,
1961,"<img src=""portrait/WW2.jpg""style=""height:400px;""></img>",3,html-button-response,18,123726,0.0-3.0-19.0,33570,List2A,white,man,,TRUE,3,,,,,
null,CORRECT,,html-keyboard-response,19,125228,0.0-3.0-20.0-0.0,33570,List2A,white,man,,,,null,,,,
2002,"<img src=""portrait/WW1.jpg""style=""height:400px;""></img>",1,html-button-response,20,127231,0.0-3.0-22.0,33570,List2A,white,man,,TRUE,1,,,,,
null,CORRECT,,html-keyboard-response,21,128733,0.0-3.0-23.0-0.0,33570,List2A,white,man,,,,null,,,,
1218,<p>You got 6 out of 8 right first time. Press Continue.</p>,0,html-button-response,22,129952,0.0-3.0-25.0,33570,List2A,white,man,,,,,,,,
2063,"As you did not score 100%, the memory game will repeat. Press Continue.",0,html-button-response,23,133015,0.0-3.0-26.0-0.0,33570,List2A,white,man,,,,,,,,
22681,"<img src='img/portrait_matrix_list2.jpg' style='width:900px;height:500px;''></img><p>If you have memorised all the portraits and names and are ready to start, press Continue.</p><p><strong>Please note: Your memory of these faces will be tested 4 times during this experiment.</strong></p>",0,html-button-response,24,156699,0.0-3.1-0.1,33570,List2A,white,man,,,,,,,,
6824,"<img src=""portrait/BW1.jpg""style=""height:400px;""></img>",0,html-button-response,25,164525,0.0-3.1-1.1,33570,List2A,white,man,,TRUE,0,,,,,
null,CORRECT,,html-keyboard-response,26,166025,0.0-3.1-2.1-0.1,33570,List2A,white,man,,,,null,,,,
5611,"<img src=""portrait/WM1.jpg""style=""height:400px;""></img>",7,html-button-response,27,171638,0.0-3.1-4.1,33570,List2A,white,man,,TRUE,6,,,,,
1726,"<img src=""portrait/WM1.jpg""style=""height:400px;""></img>",6,html-button-response,28,174366,0.0-3.1-6.1-0.1,33570,List2A,white,man,,FALSE,6,,,,,
null,CORRECT,,html-keyboard-response,29,175867,0.0-3.1-6.1-1.1-0.1,33570,List2A,white,man,,,,null,,,,
6171,"<img src=""portrait/WM2.jpg""style=""height:400px;""></img>",7,html-button-response,30,182039,0.0-3.1-7.1,33570,List2A,white,man,,TRUE,7,,,,,
null,CORRECT,,html-keyboard-response,31,183540,0.0-3.1-8.1-0.1,33570,List2A,white,man,,,,null,,,,
3474,"<img src=""portrait/BW2.jpg""style=""height:400px;""></img>",2,html-button-response,32,187015,0.0-3.1-10.1,33570,List2A,white,man,,TRUE,2,,,,,
null,CORRECT,,html-keyboard-response,33,188518,0.0-3.1-11.1-0.1,33570,List2A,white,man,,,,null,,,,
1785,"<img src=""portrait/BM1.jpg""style=""height:400px;""></img>",4,html-button-response,34,190304,0.0-3.1-13.1,33570,List2A,white,man,,TRUE,4,,,,,
null,CORRECT,,html-keyboard-response,35,191807,0.0-3.1-14.1-0.1,33570,List2A,white,man,,,,null,,,,
1457,"<img src=""portrait/BM2.jpg""style=""height:400px;""></img>",5,html-button-response,36,193264,0.0-3.1-16.1,33570,List2A,white,man,,TRUE,5,,,,,
null,CORRECT,,html-keyboard-response,37,194765,0.0-3.1-17.1-0.1,33570,List2A,white,man,,,,null,,,,
3388,"<img src=""portrait/WW2.jpg""style=""height:400px;""></img>",3,html-button-response,38,198153,0.0-3.1-19.1,33570,List2A,white,man,,TRUE,3,,,,,
null,CORRECT,,html-keyboard-response,39,199656,0.0-3.1-20.1-0.1,33570,List2A,white,man,,,,null,,,,
1650,"<img src=""portrait/WW1.jpg""style=""height:400px;""></img>",1,html-button-response,40,201306,0.0-3.1-22.1,33570,List2A,white,man,,TRUE,1,,,,,
null,CORRECT,,html-keyboard-response,41,202808,0.0-3.1-23.1-0.1,33570,List2A,white,man,,,,null,,,,
1227,<p>You got 7 out of 8 right first time. Press Continue.</p>,0,html-button-response,42,204035,0.0-3.1-25.1,33570,List2A,white,man,,,,,,,,
999,"As you did not score 100%, the memory game will repeat. Press Continue.",0,html-button-response,43,206034,0.0-3.1-26.1-0.1,33570,List2A,white,man,,,,,,,,
5680,"<img src='img/portrait_matrix_list2.jpg' style='width:900px;height:500px;''></img><p>If you have memorised all the portraits and names and are ready to start, press Continue.</p><p><strong>Please note: Your memory of these faces will be tested 4 times during this experiment.</strong></p>",0,html-button-response,44,212715,0.0-3.2-0.2,33570,List2A,white,man,,,,,,,,
3552,"<img src=""portrait/BW1.jpg""style=""height:400px;""></img>",0,html-button-response,45,217268,0.0-3.2-1.2,33570,List2A,white,man,,TRUE,0,,,,,
null,CORRECT,,html-keyboard-response,46,218769,0.0-3.2-2.2-0.2,33570,List2A,white,man,,,,null,,,,
5635,"<img src=""portrait/WM1.jpg""style=""height:400px;""></img>",6,html-button-response,47,224405,0.0-3.2-4.2,33570,List2A,white,man,,TRUE,6,,,,,
null,CORRECT,,html-keyboard-response,48,225907,0.0-3.2-5.2-0.2,33570,List2A,white,man,,,,null,,,,
1674,"<img src=""portrait/WM2.jpg""style=""height:400px;""></img>",7,html-button-response,49,227582,0.0-3.2-7.2,33570,List2A,white,man,,TRUE,7,,,,,
null,CORRECT,,html-keyboard-response,50,229083,0.0-3.2-8.2-0.2,33570,List2A,white,man,,,,null,,,,
3978,"<img src=""portrait/BW2.jpg""style=""height:400px;""></img>",2,html-button-response,51,233062,0.0-3.2-10.2,33570,List2A,white,man,,TRUE,2,,,,,
null,CORRECT,,html-keyboard-response,52,234564,0.0-3.2-11.2-0.2,33570,List2A,white,man,,,,null,,,,
1963,"<img src=""portrait/BM1.jpg""style=""height:400px;""></img>",4,html-button-response,53,236527,0.0-3.2-13.2,33570,List2A,white,man,,TRUE,4,,,,,
null,CORRECT,,html-keyboard-response,54,238028,0.0-3.2-14.2-0.2,33570,List2A,white,man,,,,null,,,,
1570,"<img src=""portrait/BM2.jpg""style=""height:400px;""></img>",5,html-button-response,55,239599,0.0-3.2-16.2,33570,List2A,white,man,,TRUE,5,,,,,
null,CORRECT,,html-keyboard-response,56,241100,0.0-3.2-17.2-0.2,33570,List2A,white,man,,,,null,,,,
1628,"<img src=""portrait/WW2.jpg""style=""height:400px;""></img>",3,html-button-response,57,242729,0.0-3.2-19.2,33570,List2A,white,man,,TRUE,3,,,,,
null,CORRECT,,html-keyboard-response,58,244229,0.0-3.2-20.2-0.2,33570,List2A,white,man,,,,null,,,,
1386,"<img src=""portrait/WW1.jpg""style=""height:400px;""></img>",1,html-button-response,59,245616,0.0-3.2-22.2,33570,List2A,white,man,,TRUE,1,,,,,
null,CORRECT,,html-keyboard-response,60,247118,0.0-3.2-23.2-0.2,33570,List2A,white,man,,,,null,,,,
1027,<p>You got 8 out of 8 right first time. Press Continue.</p>,0,html-button-response,61,248145,0.0-3.2-25.2,33570,List2A,white,man,,,,,,,,
30565,"<p>In this experiment, you will view photographs of the people from the memory game interacting.</p><p>By using the <strong>exact</strong> phrase given <i>after</i> the photograph appears and recalling the correct names of the people in the photographs, form a sentence describing the interaction. You do not need to capitalise names.</p><p>Type your answer in the space provided. Please complete every sentence before moving onto the next trial.</p><p>You will only have a few seconds to memorise each given photograph and phrase before you can respond, so try your best to focus.</p><p>An example is given below. Press 'Continue' when you are ready.</p><img src='img/speaking_example.jpg' style='width:800px;height:460px;''></img>",0,html-button-response,62,279710,0.0-4.0,33570,List2A,white,man,,,,,,,,
3080,"<p>Before the experiment starts, you will watch two example trials. Press 'Continue'.</p>",0,html-button-response,63,283790,0.0-5.0,33570,List2A,white,man,,,,,,,,
null,<img src='img/meet_eg.gif' style='height:400px;''></img>,,html-keyboard-response,64,286792,0.0-6.0,33570,List2A,white,man,,,,null,,,,
null,<p>is meeting</p>,,html-keyboard-response,65,288792,0.0-7.0,33570,List2A,white,man,,,,null,,,,
1710,<p><b>Answer:</b> jane is meeting ruth</p>,0,html-button-response,66,290503,0.0-8.0,33570,List2A,white,man,,,,,,,,
null,<img src='img/look_eg.gif' style='height:400px;''></img>,,html-keyboard-response,67,293505,0.0-9.0,33570,List2A,white,man,,,,null,,,,
null,<p>are looking at each other</p>,,html-keyboard-response,68,295505,0.0-10.0,33570,List2A,white,man,,,,null,,,,
1583,<p><b>Answer:</b> fred and mike are looking at each other</p>,0,html-button-response,69,297089,0.0-11.0,33570,List2A,white,man,,,,,,,,
6144,"<p>Ready to start the experiment?</p><br><p><strong>Remember to describe the picture using a full sentence,</strong></p><p><strong>that combines the names of the people with the <i>exact</i> phrase given.</strong></p><p><strong>To receive full payment you must do this correctly.</strong></p><p><strong> You do not need to capitalise names or use punctuation.</strong></p><br><p>Press 'Continue' to begin.</p>",0,html-button-response,70,304233,0.0-12.0,33570,List2A,white,man,,,,,,,,
null,"<div style=""font-size:60px;"">+</div>",,html-keyboard-response,71,305733,0.0-13.0-0.0,33570,List2A,white,man,,,,null,,,,
null,"<img src=""stim_listA/touch6.gif""style=""height:400px;""></stim_listA>",,html-keyboard-response,72,307734,0.0-13.0-1.0,33570,List2A,white,man,,,,null,,,,
null,are touching each other,,html-keyboard-response,73,309736,0.0-13.0-2.0,33570,List2A,white,man,,,,null,,,,
21501,,,survey-text,74,331237,0.0-13.0-3.0,33570,List2A,white,man,,,,,"{""Q0"":""Fred and Luke are touching each other ""}","<img src=""stim_listA/touch6.gif""style=""height:400px;""></stim_listA>",are touching each other,
null,"<div style=""font-size:60px;"">+</div>",,html-keyboard-response,75,331738,0.0-13.0-0.1,33570,List2A,white,man,,,,null,,,,
null,"<img src=""stim_listA/argue5.gif""style=""height:400px;""></stim_listA>",,html-keyboard-response,76,333739,0.0-13.0-1.1,33570,List2A,white,man,,,,null,,,,
null,is arguing with,,html-keyboard-response,77,335740,0.0-13.0-2.1,33570,List2A,white,man,,,,null,,,,
7883,,,survey-text,78,343623,0.0-13.0-3.1,33570,List2A,white,man,,,,,"{""Q0"":""Fred is arguing with Dave""}","<img src=""stim_listA/argue5.gif""style=""height:400px;""></stim_listA>",is arguing with,
null,"<div style=""font-size:60px;"">+</div>",,html-keyboard-response,79,344124,0.0-13.0-0.2,33570,List2A,white,man,,,,null,,,,
null,"<img src=""stim_listA/talk1.gif""style=""height:400px;""></stim_listA>",,html-keyboard-response,80,346125,0.0-13.0-1.2,33570,List2A,white,man,,,,null,,,,
null,is talking to,,html-keyboard-response,81,348126,0.0-13.0-2.2,33570,List2A,white,man,,,,null,,,,
6291,,,survey-text,82,354417,0.0-13.0-3.2,33570,List2A,white,man,,,,,"{""Q0"":""Mike is talking to Jane""}","<img src=""stim_listA/talk1.gif""style=""height:400px;""></stim_listA>",is talking to,
null,"<div style=""font-size:60px;"">+</div>",,html-keyboard-response,83,354918,0.0-13.0-0.3,33570,List2A,white,man,,,,null,,,,
null,"<img src=""stim_listA/argue8.gif""style=""height:400px;""></stim_listA>",,html-keyboard-response,84,356919,0.0-13.0-1.3,33570,List2A,white,man,,,,null,,,,
null,are arguing with each other,,html-keyboard-response,85,358920,0.0-13.0-2.3,33570,List2A,white,man,,,,null,,,,
20563,,,survey-text,86,379484,0.0-13.0-3.3,33570,List2A,white,man,,,,,"{""Q0"":""Ruth is arguing with Kate""}","<img src=""stim_listA/argue8.gif""style=""height:400px;""></stim_listA>",are arguing with each other,
null,"<div style=""font-size:60px;"">+</div>",,html-keyboard-response,87,379987,0.0-13.0-0.4,33570,List2A,white,man,,,,null,,,,
null,"<img src=""stim_listA/dance2.gif""style=""height:400px;""></stim_listA>",,html-keyboard-response,88,381987,0.0-13.0-1.4,33570,List2A,white,man,,,,null,,,,
null,are dancing with each other,,html-keyboard-response,89,383988,0.0-13.0-2.4,33570,List2A,white,man,,,,null,,,,
14890,,,survey-text,90,398879,0.0-13.0-3.4,33570,List2A,white,man,,,,,"{""Q0"":""Ruth and Dave are dancing with each other""}","<img src=""stim_listA/dance2.gif""style=""height:400px;""></stim_listA>",are dancing with each other,
null,"<div style=""font-size:60px;"">+</div>",,html-keyboard-response,91,399380,0.0-13.0-0.5,33570,List2A,white,man,,,,null,,,,
null,"<img src=""stim_listA/kiss5.gif""style=""height:400px;""></stim_listA>",,html-keyboard-response,92,401382,0.0-13.0-1.5,33570,List2A,white,man,,,,null,,,,
null,is kissing,,html-keyboard-response,93,403382,0.0-13.0-2.5,33570,List2A,white,man,,,,null,,,,
6019,,,survey-text,94,409401,0.0-13.0-3.5,33570,List2A,white,man,,,,,"{""Q0"":""Mike is Kissing Fred""}","<img src=""stim_listA/kiss5.gif""style=""height:400px;""></stim_listA>",is kissing,
null,"<div style=""font-size:60px;"">+</div>",,html-keyboard-response,95,409902,0.0-13.0-0.6,33570,List2A,white,man,,,,null,,,,
null,"<img src=""stim_listA/shout7.gif""style=""height:400px;""></stim_listA>",,html-keyboard-response,96,411903,0.0-13.0-1.6,33570,List2A,white,man,,,,null,,,,
null,is shouting at,,html-keyboard-response,97,413904,0.0-13.0-2.6,33570,List2A,white,man,,,,null,,,,
100712,,,survey-text,98,514617,0.0-13.0-3.6,33570,List2A,white,man,,,,,"{""Q0"":""Ruth is shouting at Kate""}","<img src=""stim_listA/shout7.gif""style=""height:400px;""></stim_listA>",is shouting at,
null,"<div style=""font-size:60px;"">+</div>",,html-keyboard-response,99,515117,0.0-13.0-0.7,33570,List2A,white,man,,,,null,,,,
null,"<img src=""stim_listA/play4.gif""style=""height:400px;""></stim_listA>",,html-keyboard-response,100,517118,0.0-13.0-1.7,33570,List2A,white,man,,,,null,,,,
null,are playing with each other,,html-keyboard-response,101,519119,0.0-13.0-2.7,33570,List2A,white,man,,,,null,,,,
11828,,,survey-text,102,530947,0.0-13.0-3.7,33570,List2A,white,man,,,,,"{""Q0"":""Fred and Kate are playing with each other""}","<img src=""stim_listA/play4.gif""style=""height:400px;""></stim_listA>",are playing with each other,
null,"<div style=""font-size:60px;"">+</div>",,html-keyboard-response,103,531447,0.0-13.0-0.8,33570,List2A,white,man,,,,null,,,,
null,"<img src=""stim_listA/dance8.gif""style=""height:400px;""></stim_listA>",,html-keyboard-response,104,533447,0.0-13.0-1.8,33570,List2A,white,man,,,,null,,,,
null,are dancing with each other,,html-keyboard-response,105,535448,0.0-13.0-2.8,33570,List2A,white,man,,,,null,,,,
8933,,,survey-text,106,544381,0.0-13.0-3.8,33570,List2A,white,man,,,,,"{""Q0"":""Jane is dancing with Kate""}","<img src=""stim_listA/dance8.gif""style=""height:400px;""></stim_listA>",are dancing with each other,
null,"<div style=""font-size:60px;"">+</div>",,html-keyboard-response,107,544882,0.0-13.0-0.9,33570,List2A,white,man,,,,null,,,,
null,"<img src=""stim_listA/argue2.gif""style=""height:400px;""></stim_listA>",,html-keyboard-response,108,546882,0.0-13.0-1.9,33570,List2A,white,man,,,,null,,,,
null,are arguing with each other,,html-keyboard-response,109,548884,0.0-13.0-2.9,33570,List2A,white,man,,,,null,,,,
8586,,,survey-text,110,557471,0.0-13.0-3.9,33570,List2A,white,man,,,,,"{""Q0"":""Jane and Mike are arguing with each other""}","<img src=""stim_listA/argue2.gif""style=""height:400px;""></stim_listA>",are arguing with each other,
null,"<div style=""font-size:60px;"">+</div>",,html-keyboard-response,111,557971,0.0-13.0-0.10,33570,List2A,white,man,,,,null,,,,
null,"<img src=""stim_listA/fight6.gif""style=""height:400px;""></stim_listA>",,html-keyboard-response,112,559972,0.0-13.0-1.10,33570,List2A,white,man,,,,null,,,,
null,are fighting each other,,html-keyboard-response,113,561972,0.0-13.0-2.10,33570,List2A,white,man,,,,null,,,,
7628,,,survey-text,114,569600,0.0-13.0-3.10,33570,List2A,white,man,,,,,"{""Q0"":""Fred and Mike are fighting each other""}","<img src=""stim_listA/fight6.gif""style=""height:400px;""></stim_listA>",are fighting each other,
null,"<div style=""font-size:60px;"">+</div>",,html-keyboard-response,115,570101,0.0-13.0-0.11,33570,List2A,white,man,,,,null,,,,
null,"<img src=""stim_listA/kiss1.gif""style=""height:400px;""></stim_listA>",,html-keyboard-response,116,572102,0.0-13.0-1.11,33570,List2A,white,man,,,,null,,,,
null,is kissing,,html-keyboard-response,117,574102,0.0-13.0-2.11,33570,List2A,white,man,,,,null,,,,
6308,,,survey-text,118,580410,0.0-13.0-3.11,33570,List2A,white,man,,,,,"{""Q0"":""Mike is kissing Ruth""}","<img src=""stim_listA/kiss1.gif""style=""height:400px;""></stim_listA>",is kissing,
null,"<div style=""font-size:60px;"">+</div>",,html-keyboard-response,119,580911,0.0-13.0-0.12,33570,List2A,white,man,,,,null,,,,
null,"<img src=""stim_listA/flirt4.gif""style=""height:400px;""></stim_listA>",,html-keyboard-response,120,582911,0.0-13.0-1.12,33570,List2A,white,man,,,,null,,,,
null,are flirting with each other,,html-keyboard-response,121,584911,0.0-13.0-2.12,33570,List2A,white,man,,,,null,,,,
8204,,,survey-text,122,593116,0.0-13.0-3.12,33570,List2A,white,man,,,,,"{""Q0"":""Mike and Katre are flirting with each other""}","<img src=""stim_listA/flirt4.gif""style=""height:400px;""></stim_listA>",are flirting with each other,
null,"<div style=""font-size:60px;"">+</div>",,html-keyboard-response,123,593616,0.0-13.0-0.13,33570,List2A,white,man,,,,null,,,,
null,"<img src=""stim_listA/shout2.gif""style=""height:400px;""></stim_listA>",,html-keyboard-response,124,595618,0.0-13.0-1.13,33570,List2A,white,man,,,,null,,,,
null,are shouting at each other,,html-keyboard-response,125,597617,0.0-13.0-2.13,33570,List2A,white,man,,,,null,,,,
7580,,,survey-text,126,605198,0.0-13.0-3.13,33570,List2A,white,man,,,,,"{""Q0"":""Jane and Dave are shouting at each other""}","<img src=""stim_listA/shout2.gif""style=""height:400px;""></stim_listA>",are shouting at each other,
null,"<div style=""font-size:60px;"">+</div>",,html-keyboard-response,127,605698,0.0-13.0-0.14,33570,List2A,white,man,,,,null,,,,
null,"<img src=""stim_listA/play6.gif""style=""height:400px;""></stim_listA>",,html-keyboard-response,128,607699,0.0-13.0-1.14,33570,List2A,white,man,,,,null,,,,
null,are playing with each other,,html-keyboard-response,129,609700,0.0-13.0-2.14,33570,List2A,white,man,,,,null,,,,
8395,,,survey-text,130,618096,0.0-13.0-3.14,33570,List2A,white,man,,,,,"{""Q0"":""Fred and Mike are playing with each other""}","<img src=""stim_listA/play6.gif""style=""height:400px;""></stim_listA>",are playing with each other,
null,"<div style=""font-size:60px;"">+</div>",,html-keyboard-response,131,618597,0.0-13.0-0.15,33570,List2A,white,man,,,,null,,,,
null,"<img src=""stim_listA/marry3.gif""style=""height:400px;""></stim_listA>",,html-keyboard-response,132,620599,0.0-13.0-1.15,33570,List2A,white,man,,,,null,,,,
null,is marrying,,html-keyboard-response,133,622599,0.0-13.0-2.15,33570,List2A,white,man,,,,null,,,,
6281,,,survey-text,134,628881,0.0-13.0-3.15,33570,List2A,white,man,,,,,"{""Q0"":""Mike is marrying Kate""}","<img src=""stim_listA/marry3.gif""style=""height:400px;""></stim_listA>",is marrying,
null,"<div style=""font-size:60px;"">+</div>",,html-keyboard-response,135,629382,0.0-13.0-0.16,33570,List2A,white,man,,,,null,,,,
null,"<img src=""stim_listA/dance1.gif""style=""height:400px;""></stim_listA>",,html-keyboard-response,136,631383,0.0-13.0-1.16,33570,List2A,white,man,,,,null,,,,
null,is dancing with,,html-keyboard-response,137,633383,0.0-13.0-2.16,33570,List2A,white,man,,,,null,,,,
5779,,,survey-text,138,639163,0.0-13.0-3.16,33570,List2A,white,man,,,,,"{""Q0"":""Jane is dancing with Mike""}","<img src=""stim_listA/dance1.gif""style=""height:400px;""></stim_listA>",is dancing with,
null,"<div style=""font-size:60px;"">+</div>",,html-keyboard-response,139,639664,0.0-13.0-0.17,33570,List2A,white,man,,,,null,,,,
null,"<img src=""stim_listA/marry2.gif""style=""height:400px;""></stim_listA>",,html-keyboard-response,140,641665,0.0-13.0-1.17,33570,List2A,white,man,,,,null,,,,
null,are marrying each other,,html-keyboard-response,141,643667,0.0-13.0-2.17,33570,List2A,white,man,,,,null,,,,
7321,,,survey-text,142,650989,0.0-13.0-3.17,33570,List2A,white,man,,,,,"{""Q0"":""Jane and Mike are marrying each other""}","<img src=""stim_listA/marry2.gif""style=""height:400px;""></stim_listA>",are marrying each other,
null,"<div style=""font-size:60px;"">+</div>",,html-keyboard-response,143,651489,0.0-13.0-0.18,33570,List2A,white,man,,,,null,,,,
null,"<img src=""stim_listA/marry6.gif""style=""height:400px;""></stim_listA>",,html-keyboard-response,144,653491,0.0-13.0-1.18,33570,List2A,white,man,,,,null,,,,
null,are marrying each other,,html-keyboard-response,145,655491,0.0-13.0-2.18,33570,List2A,white,man,,,,null,,,,
189214,,,survey-text,146,844705,0.0-13.0-3.18,33570,List2A,white,man,,,,,"{""Q0"":""Mike and James are marrying each other""}","<img src=""stim_listA/marry6.gif""style=""height:400px;""></stim_listA>",are marrying each other,
null,"<div style=""font-size:60px;"">+</div>",,html-keyboard-response,147,845206,0.0-13.0-0.19,33570,List2A,white,man,,,,null,,,,
null,"<img src=""stim_listA/flirt8.gif""style=""height:400px;""></stim_listA>",,html-keyboard-response,148,847207,0.0-13.0-1.19,33570,List2A,white,man,,,,null,,,,
null,are flirting with each other,,html-keyboard-response,149,849208,0.0-13.0-2.19,33570,List2A,white,man,,,,null,,,,
23133,,,survey-text,150,872341,0.0-13.0-3.19,33570,List2A,white,man,,,,,"{""Q0"":""Jane and Kate are flirting with each other""}","<img src=""stim_listA/flirt8.gif""style=""height:400px;""></stim_listA>",are flirting with each other,
41885,"<img src='img/portrait_matrix_list2.jpg' style='width:900px;height:500px;''></img><p>If you have memorised all the portraits and names and are ready to start, press Continue.</p><p><strong>Please note: Your memory of these faces will be tested 4 times during this experiment.</strong></p>",0,html-button-response,151,914228,0.0-14.0-0.0,33570,List2A,white,man,,,,,,,,
3334,"<img src=""portrait/WM1.jpg""style=""height:400px;""></img>",6,html-button-response,152,918564,0.0-14.0-1.0,33570,List2A,white,man,,TRUE,6,,,,,
null,CORRECT,,html-keyboard-response,153,920065,0.0-14.0-2.0-0.0,33570,List2A,white,man,,,,null,,,,
1396,"<img src=""portrait/WM2.jpg""style=""height:400px;""></img>",7,html-button-response,154,921461,0.0-14.0-4.0,33570,List2A,white,man,,TRUE,7,,,,,
null,CORRECT,,html-keyboard-response,155,922962,0.0-14.0-5.0-0.0,33570,List2A,white,man,,,,null,,,,
1891,"<img src=""portrait/WW1.jpg""style=""height:400px;""></img>",1,html-button-response,156,924853,0.0-14.0-7.0,33570,List2A,white,man,,TRUE,1,,,,,
null,CORRECT,,html-keyboard-response,157,926354,0.0-14.0-8.0-0.0,33570,List2A,white,man,,,,null,,,,
1876,"<img src=""portrait/BW1.jpg""style=""height:400px;""></img>",0,html-button-response,158,928230,0.0-14.0-10.0,33570,List2A,white,man,,TRUE,0,,,,,
null,CORRECT,,html-keyboard-response,159,929730,0.0-14.0-11.0-0.0,33570,List2A,white,man,,,,null,,,,
1787,"<img src=""portrait/BM1.jpg""style=""height:400px;""></img>",4,html-button-response,160,931518,0.0-14.0-13.0,33570,List2A,white,man,,TRUE,4,,,,,
null,CORRECT,,html-keyboard-response,161,933020,0.0-14.0-14.0-0.0,33570,List2A,white,man,,,,null,,,,
3971,"<img src=""portrait/BM2.jpg""style=""height:400px;""></img>",5,html-button-response,162,936991,0.0-14.0-16.0,33570,List2A,white,man,,TRUE,5,,,,,
null,CORRECT,,html-keyboard-response,163,938492,0.0-14.0-17.0-0.0,33570,List2A,white,man,,,,null,,,,
4972,"<img src=""portrait/WW2.jpg""style=""height:400px;""></img>",3,html-button-response,164,943464,0.0-14.0-19.0,33570,List2A,white,man,,TRUE,3,,,,,
null,CORRECT,,html-keyboard-response,165,944966,0.0-14.0-20.0-0.0,33570,List2A,white,man,,,,null,,,,
2515,"<img src=""portrait/BW2.jpg""style=""height:400px;""></img>",2,html-button-response,166,947481,0.0-14.0-22.0,33570,List2A,white,man,,TRUE,2,,,,,
null,CORRECT,,html-keyboard-response,167,948982,0.0-14.0-23.0-0.0,33570,List2A,white,man,,,,null,,,,
993,<p>You got 8 out of 8 right first time. Press Continue.</p>,0,html-button-response,168,949977,0.0-14.0-25.0,33570,List2A,white,man,,,,,,,,
null,"<div style=""font-size:60px;"">+</div>",,html-keyboard-response,169,951478,0.0-15.0-0.0,33570,List2A,white,man,,,,null,,,,
null,"<img src=""stim_listA/touch3.gif""style=""height:400px;""></stim_listA>",,html-keyboard-response,170,953479,0.0-15.0-1.0,33570,List2A,white,man,,,,null,,,,
null,is touching,,html-keyboard-response,171,955479,0.0-15.0-2.0,33570,List2A,white,man,,,,null,,,,
5522,,,survey-text,172,961003,0.0-15.0-3.0,33570,List2A,white,man,,,,,"{""Q0"":""Mike is touching Kate""}","<img src=""stim_listA/touch3.gif""style=""height:400px;""></stim_listA>",is touching,
null,"<div style=""font-size:60px;"">+</div>",,html-keyboard-response,173,961503,0.0-15.0-0.1,33570,List2A,white,man,,,,null,,,,
null,"<img src=""stim_listA/argue7.gif""style=""height:400px;""></stim_listA>",,html-keyboard-response,174,963504,0.0-15.0-1.1,33570,List2A,white,man,,,,null,,,,
null,is arguing with,,html-keyboard-response,175,965505,0.0-15.0-2.1,33570,List2A,white,man,,,,null,,,,
6443,,,survey-text,176,971948,0.0-15.0-3.1,33570,List2A,white,man,,,,,"{""Q0"":""Jane is arguing with Beth""}","<img src=""stim_listA/argue7.gif""style=""height:400px;""></stim_listA>",is arguing with,
null,"<div style=""font-size:60px;"">+</div>",,html-keyboard-response,177,972449,0.0-15.0-0.2,33570,List2A,white,man,,,,null,,,,
null,"<img src=""stim_listA/talk8.gif""style=""height:400px;""></stim_listA>",,html-keyboard-response,178,974449,0.0-15.0-1.2,33570,List2A,white,man,,,,null,,,,
null,are talking to each other,,html-keyboard-response,179,976450,0.0-15.0-2.2,33570,List2A,white,man,,,,null,,,,
7028,,,survey-text,180,983478,0.0-15.0-3.2,33570,List2A,white,man,,,,,"{""Q0"":""Jane and Beth are talking to each other""}","<img src=""stim_listA/talk8.gif""style=""height:400px;""></stim_listA>",are talking to each other,
null,"<div style=""font-size:60px;"">+</div>",,html-keyboard-response,181,983979,0.0-15.0-0.3,33570,List2A,white,man,,,,null,,,,
null,"<img src=""stim_listA/dance5.gif""style=""height:400px;""></stim_listA>",,html-keyboard-response,182,985980,0.0-15.0-1.3,33570,List2A,white,man,,,,null,,,,
null,is dancing with,,html-keyboard-response,183,987981,0.0-15.0-2.3,33570,List2A,white,man,,,,null,,,,
5354,,,survey-text,184,993335,0.0-15.0-3.3,33570,List2A,white,man,,,,,"{""Q0"":""Mike is dancing with Luke""}","<img src=""stim_listA/dance5.gif""style=""height:400px;""></stim_listA>",is dancing with,
null,"<div style=""font-size:60px;"">+</div>",,html-keyboard-response,185,993836,0.0-15.0-0.4,33570,List2A,white,man,,,,null,,,,
null,"<img src=""stim_listA/flirt7.gif""style=""height:400px;""></stim_listA>",,html-keyboard-response,186,995837,0.0-15.0-1.4,33570,List2A,white,man,,,,null,,,,
null,is flirting with,,html-keyboard-response,187,997838,0.0-15.0-2.4,33570,List2A,white,man,,,,null,,,,
8442,,,survey-text,188,1006281,0.0-15.0-3.4,33570,List2A,white,man,,,,,"{""Q0"":""Ruth is flirting with Kate""}","<img src=""stim_listA/flirt7.gif""style=""height:400px;""></stim_listA>",is flirting with,
null,"<div style=""font-size:60px;"">+</div>",,html-keyboard-response,189,1006782,0.0-15.0-0.5,33570,List2A,white,man,,,,null,,,,
null,"<img src=""stim_listA/talk3.gif""style=""height:400px;""></stim_listA>",,html-keyboard-response,190,1008783,0.0-15.0-1.5,33570,List2A,white,man,,,,null,,,,
null,is talking to,,html-keyboard-response,191,1010783,0.0-15.0-2.5,33570,List2A,white,man,,,,null,,,,
5140,,,survey-text,192,1015923,0.0-15.0-3.5,33570,List2A,white,man,,,,,"{""Q0"":""Fred is talking to Kate""}","<img src=""stim_listA/talk3.gif""style=""height:400px;""></stim_listA>",is talking to,
null,"<div style=""font-size:60px;"">+</div>",,html-keyboard-response,193,1016424,0.0-15.0-0.6,33570,List2A,white,man,,,,null,,,,
null,"<img src=""stim_listA/fight1.gif""style=""height:400px;""></stim_listA>",,html-keyboard-response,194,1018424,0.0-15.0-1.6,33570,List2A,white,man,,,,null,,,,
null,is fighting,,html-keyboard-response,195,1020425,0.0-15.0-2.6,33570,List2A,white,man,,,,null,,,,
5947,,,survey-text,196,1026373,0.0-15.0-3.6,33570,List2A,white,man,,,,,"{""Q0"":""Jane is fighting Dave""}","<img src=""stim_listA/fight1.gif""style=""height:400px;""></stim_listA>",is fighting,
null,"<div style=""font-size:60px;"">+</div>",,html-keyboard-response,197,1026874,0.0-15.0-0.7,33570,List2A,white,man,,,,null,,,,
null,"<img src=""stim_listA/marry4.gif""style=""height:400px;""></stim_listA>",,html-keyboard-response,198,1028874,0.0-15.0-1.7,33570,List2A,white,man,,,,null,,,,
null,are marrying each other,,html-keyboard-response,199,1030875,0.0-15.0-2.7,33570,List2A,white,man,,,,null,,,,
6050,,,survey-text,200,1036926,0.0-15.0-3.7,33570,List2A,white,man,,,,,"{""Q0"":""Fred and Kate are marrying each other""}","<img src=""stim_listA/marry4.gif""style=""height:400px;""></stim_listA>",are marrying each other,
null,"<div style=""font-size:60px;"">+</div>",,html-keyboard-response,201,1037427,0.0-15.0-0.8,33570,List2A,white,man,,,,null,,,,
null,"<img src=""stim_listA/kiss7.gif""style=""height:400px;""></stim_listA>",,html-keyboard-response,202,1039428,0.0-15.0-1.8,33570,List2A,white,man,,,,null,,,,
null,is kissing,,html-keyboard-response,203,1041429,0.0-15.0-2.8,33570,List2A,white,man,,,,null,,,,
4834,,,survey-text,204,1046264,0.0-15.0-3.8,33570,List2A,white,man,,,,,"{""Q0"":""Beth is kissing Ruth""}","<img src=""stim_listA/kiss7.gif""style=""height:400px;""></stim_listA>",is kissing,
null,"<div style=""font-size:60px;"">+</div>",,html-keyboard-response,205,1046764,0.0-15.0-0.9,33570,List2A,white,man,,,,null,,,,
null,"<img src=""stim_listA/marry8.gif""style=""height:400px;""></stim_listA>",,html-keyboard-response,206,1048764,0.0-15.0-1.9,33570,List2A,white,man,,,,null,,,,
null,are marrying each other,,html-keyboard-response,207,1050765,0.0-15.0-2.9,33570,List2A,white,man,,,,null,,,,
6659,,,survey-text,208,1057424,0.0-15.0-3.9,33570,List2A,white,man,,,,,"{""Q0"":""Ruth and Kate are marrying each other""}","<img src=""stim_listA/marry8.gif""style=""height:400px;""></stim_listA>",are marrying each other,
null,"<div style=""font-size:60px;"">+</div>",,html-keyboard-response,209,1057925,0.0-15.0-0.10,33570,List2A,white,man,,,,null,,,,
null,"<img src=""stim_listA/fight4.gif""style=""height:400px;""></stim_listA>",,html-keyboard-response,210,1059926,0.0-15.0-1.10,33570,List2A,white,man,,,,null,,,,
null,are fighting each other,,html-keyboard-response,211,1061927,0.0-15.0-2.10,33570,List2A,white,man,,,,null,,,,
6795,,,survey-text,212,1068722,0.0-15.0-3.10,33570,List2A,white,man,,,,,"{""Q0"":""Beth and Fred are fighting each other""}","<img src=""stim_listA/fight4.gif""style=""height:400px;""></stim_listA>",are fighting each other,
null,"<div style=""font-size:60px;"">+</div>",,html-keyboard-response,213,1069224,0.0-15.0-0.11,33570,List2A,white,man,,,,null,,,,
null,"<img src=""stim_listA/play2.gif""style=""height:400px;""></stim_listA>",,html-keyboard-response,214,1071226,0.0-15.0-1.11,33570,List2A,white,man,,,,null,,,,
null,are playing with each other,,html-keyboard-response,215,1073227,0.0-15.0-2.11,33570,List2A,white,man,,,,null,,,,
7273,,,survey-text,216,1080500,0.0-15.0-3.11,33570,List2A,white,man,,,,,"{""Q0"":""Ruth and Luke are playing with each other""}","<img src=""stim_listA/play2.gif""style=""height:400px;""></stim_listA>",are playing with each other,
null,"<div style=""font-size:60px;"">+</div>",,html-keyboard-response,217,1081000,0.0-15.0-0.12,33570,List2A,white,man,,,,null,,,,
null,"<img src=""stim_listA/play5.gif""style=""height:400px;""></stim_listA>",,html-keyboard-response,218,1083001,0.0-15.0-1.12,33570,List2A,white,man,,,,null,,,,
null,is playing with,,html-keyboard-response,219,1085002,0.0-15.0-2.12,33570,List2A,white,man,,,,null,,,,
5459,,,survey-text,220,1090462,0.0-15.0-3.12,33570,List2A,white,man,,,,,"{""Q0"":""Mike is playing with Dave""}","<img src=""stim_listA/play5.gif""style=""height:400px;""></stim_listA>",is playing with,
null,"<div style=""font-size:60px;"">+</div>",,html-keyboard-response,221,1090963,0.0-15.0-0.13,33570,List2A,white,man,,,,null,,,,
null,"<img src=""stim_listA/play3.gif""style=""height:400px;""></stim_listA>",,html-keyboard-response,222,1092963,0.0-15.0-1.13,33570,List2A,white,man,,,,null,,,,
null,is playing with,,html-keyboard-response,223,1094964,0.0-15.0-2.13,33570,List2A,white,man,,,,null,,,,
6379,,,survey-text,224,1101343,0.0-15.0-3.13,33570,List2A,white,man,,,,,"{""Q0"":""Mike is playing with Kate""}","<img src=""stim_listA/play3.gif""style=""height:400px;""></stim_listA>",is playing with,
null,"<div style=""font-size:60px;"">+</div>",,html-keyboard-response,225,1101844,0.0-15.0-0.14,33570,List2A,white,man,,,,null,,,,
null,"<img src=""stim_listA/argue3.gif""style=""height:400px;""></stim_listA>",,html-keyboard-response,226,1103844,0.0-15.0-1.14,33570,List2A,white,man,,,,null,,,,
null,is arguing with,,html-keyboard-response,227,1105845,0.0-15.0-2.14,33570,List2A,white,man,,,,null,,,,
5060,,,survey-text,228,1110905,0.0-15.0-3.14,33570,List2A,white,man,,,,,"{""Q0"":""Mike is arguing with Beth""}","<img src=""stim_listA/argue3.gif""style=""height:400px;""></stim_listA>",is arguing with,
null,"<div style=""font-size:60px;"">+</div>",,html-keyboard-response,229,1111405,0.0-15.0-0.15,33570,List2A,white,man,,,,null,,,,
null,"<img src=""stim_listA/flirt1.gif""style=""height:400px;""></stim_listA>",,html-keyboard-response,230,1113406,0.0-15.0-1.15,33570,List2A,white,man,,,,null,,,,
null,is flirting with,,html-keyboard-response,231,1115406,0.0-15.0-2.15,33570,List2A,white,man,,,,null,,,,
6973,,,survey-text,232,1122379,0.0-15.0-3.15,33570,List2A,white,man,,,,,"{""Q0"":""Luke is flirting with Jane""}","<img src=""stim_listA/flirt1.gif""style=""height:400px;""></stim_listA>",is flirting with,
null,"<div style=""font-size:60px;"">+</div>",,html-keyboard-response,233,1122880,0.0-15.0-0.16,33570,List2A,white,man,,,,null,,,,
null,"<img src=""stim_listA/dance6.gif""style=""height:400px;""></stim_listA>",,html-keyboard-response,234,1124880,0.0-15.0-1.16,33570,List2A,white,man,,,,null,,,,
null,are dancing with each other,,html-keyboard-response,235,1126881,0.0-15.0-2.16,33570,List2A,white,man,,,,null,,,,
8738,,,survey-text,236,1135620,0.0-15.0-3.16,33570,List2A,white,man,,,,,"{""Q0"":""Fred and Dave are dancing with each other""}","<img src=""stim_listA/dance6.gif""style=""height:400px;""></stim_listA>",are dancing with each other,
null,"<div style=""font-size:60px;"">+</div>",,html-keyboard-response,237,1136122,0.0-15.0-0.17,33570,List2A,white,man,,,,null,,,,
null,"<img src=""stim_listA/flirt5.gif""style=""height:400px;""></stim_listA>",,html-keyboard-response,238,1138122,0.0-15.0-1.17,33570,List2A,white,man,,,,null,,,,
null,is flirting with,,html-keyboard-response,239,1140123,0.0-15.0-2.17,33570,List2A,white,man,,,,null,,,,
6755,,,survey-text,240,1146878,0.0-15.0-3.17,33570,List2A,white,man,,,,,"{""Q0"":""Luke is flirting with Mike""}","<img src=""stim_listA/flirt5.gif""style=""height:400px;""></stim_listA>",is flirting with,
null,"<div style=""font-size:60px;"">+</div>",,html-keyboard-response,241,1147379,0.0-15.0-0.18,33570,List2A,white,man,,,,null,,,,
null,"<img src=""stim_listA/marry7.gif""style=""height:400px;""></stim_listA>",,html-keyboard-response,242,1149380,0.0-15.0-1.18,33570,List2A,white,man,,,,null,,,,
null,is marrying,,html-keyboard-response,243,1151380,0.0-15.0-2.18,33570,List2A,white,man,,,,null,,,,
5347,,,survey-text,244,1156727,0.0-15.0-3.18,33570,List2A,white,man,,,,,"{""Q0"":""Jane is marrying Beth""}","<img src=""stim_listA/marry7.gif""style=""height:400px;""></stim_listA>",is marrying,
null,"<div style=""font-size:60px;"">+</div>",,html-keyboard-response,245,1157228,0.0-15.0-0.19,33570,List2A,white,man,,,,null,,,,
null,"<img src=""stim_listA/shout8.gif""style=""height:400px;""></stim_listA>",,html-keyboard-response,246,1159230,0.0-15.0-1.19,33570,List2A,white,man,,,,null,,,,
null,are shouting at each other,,html-keyboard-response,247,1161229,0.0-15.0-2.19,33570,List2A,white,man,,,,null,,,,
8860,,,survey-text,248,1170090,0.0-15.0-3.19,33570,List2A,white,man,,,,,"{""Q0"":""Kate and Jane are shouting at each other""}","<img src=""stim_listA/shout8.gif""style=""height:400px;""></stim_listA>",are shouting at each other,
8608,"<img src='img/portrait_matrix_list2.jpg' style='width:900px;height:500px;''></img><p>If you have memorised all the portraits and names and are ready to start, press Continue.</p><p><strong>Please note: Your memory of these faces will be tested 4 times during this experiment.</strong></p>",0,html-button-response,249,1178698,0.0-16.0-0.0,33570,List2A,white,man,,,,,,,,
1583,"<img src=""portrait/WW2.jpg""style=""height:400px;""></img>",3,html-button-response,250,1181283,0.0-16.0-1.0,33570,List2A,white,man,,TRUE,3,,,,,
null,CORRECT,,html-keyboard-response,251,1182784,0.0-16.0-2.0-0.0,33570,List2A,white,man,,,,null,,,,
1227,"<img src=""portrait/BW2.jpg""style=""height:400px;""></img>",2,html-button-response,252,1184011,0.0-16.0-4.0,33570,List2A,white,man,,TRUE,2,,,,,
null,CORRECT,,html-keyboard-response,253,1185512,0.0-16.0-5.0-0.0,33570,List2A,white,man,,,,null,,,,
1643,"<img src=""portrait/BW1.jpg""style=""height:400px;""></img>",0,html-button-response,254,1187156,0.0-16.0-7.0,33570,List2A,white,man,,TRUE,0,,,,,
null,CORRECT,,html-keyboard-response,255,1188658,0.0-16.0-8.0-0.0,33570,List2A,white,man,,,,null,,,,
1370,"<img src=""portrait/BM1.jpg""style=""height:400px;""></img>",4,html-button-response,256,1190028,0.0-16.0-10.0,33570,List2A,white,man,,TRUE,4,,,,,
null,CORRECT,,html-keyboard-response,257,1191530,0.0-16.0-11.0-0.0,33570,List2A,white,man,,,,null,,,,
1747,"<img src=""portrait/BM2.jpg""style=""height:400px;""></img>",5,html-button-response,258,1193277,0.0-16.0-13.0,33570,List2A,white,man,,TRUE,5,,,,,
null,CORRECT,,html-keyboard-response,259,1194779,0.0-16.0-14.0-0.0,33570,List2A,white,man,,,,null,,,,
1339,"<img src=""portrait/WM2.jpg""style=""height:400px;""></img>",7,html-button-response,260,1196118,0.0-16.0-16.0,33570,List2A,white,man,,TRUE,7,,,,,
null,CORRECT,,html-keyboard-response,261,1197619,0.0-16.0-17.0-0.0,33570,List2A,white,man,,,,null,,,,
2499,"<img src=""portrait/WW1.jpg""style=""height:400px;""></img>",1,html-button-response,262,1200118,0.0-16.0-19.0,33570,List2A,white,man,,TRUE,1,,,,,
null,CORRECT,,html-keyboard-response,263,1201620,0.0-16.0-20.0-0.0,33570,List2A,white,man,,,,null,,,,
2897,"<img src=""portrait/WM1.jpg""style=""height:400px;""></img>",6,html-button-response,264,1204518,0.0-16.0-22.0,33570,List2A,white,man,,TRUE,6,,,,,
null,CORRECT,,html-keyboard-response,265,1206020,0.0-16.0-23.0-0.0,33570,List2A,white,man,,,,null,,,,
1075,<p>You got 8 out of 8 right first time. Press Continue.</p>,0,html-button-response,266,1207095,0.0-16.0-25.0,33570,List2A,white,man,,,,,,,,
null,"<div style=""font-size:60px;"">+</div>",,html-keyboard-response,267,1208596,0.0-17.0-0.0,33570,List2A,white,man,,,,null,,,,
null,"<img src=""stim_listA/kiss6.gif""style=""height:400px;""></stim_listA>",,html-keyboard-response,268,1210598,0.0-17.0-1.0,33570,List2A,white,man,,,,null,,,,
null,are kissing each other,,html-keyboard-response,269,1212599,0.0-17.0-2.0,33570,List2A,white,man,,,,null,,,,
6330,,,survey-text,270,1218929,0.0-17.0-3.0,33570,List2A,white,man,,,,,"{""Q0"":""Mike and Dave are kissing each other""}","<img src=""stim_listA/kiss6.gif""style=""height:400px;""></stim_listA>",are kissing each other,
null,"<div style=""font-size:60px;"">+</div>",,html-keyboard-response,271,1219429,0.0-17.0-0.1,33570,List2A,white,man,,,,null,,,,
null,"<img src=""stim_listA/shout6.gif""style=""height:400px;""></stim_listA>",,html-keyboard-response,272,1221430,0.0-17.0-1.1,33570,List2A,white,man,,,,null,,,,
null,are shouting at each other,,html-keyboard-response,273,1223431,0.0-17.0-2.1,33570,List2A,white,man,,,,null,,,,
6803,,,survey-text,274,1230235,0.0-17.0-3.1,33570,List2A,white,man,,,,,"{""Q0"":""Mike and dave are shouting at each other""}","<img src=""stim_listA/shout6.gif""style=""height:400px;""></stim_listA>",are shouting at each other,
null,"<div style=""font-size:60px;"">+</div>",,html-keyboard-response,275,1230736,0.0-17.0-0.2,33570,List2A,white,man,,,,null,,,,
null,"<img src=""stim_listA/shout1.gif""style=""height:400px;""></stim_listA>",,html-keyboard-response,276,1232737,0.0-17.0-1.2,33570,List2A,white,man,,,,null,,,,
null,is shouting at,,html-keyboard-response,277,1234737,0.0-17.0-2.2,33570,List2A,white,man,,,,null,,,,
6554,,,survey-text,278,1241292,0.0-17.0-3.2,33570,List2A,white,man,,,,,"{""Q0"":""Ruth is shouting at Luke""}","<img src=""stim_listA/shout1.gif""style=""height:400px;""></stim_listA>",is shouting at,
null,"<div style=""font-size:60px;"">+</div>",,html-keyboard-response,279,1241793,0.0-17.0-0.3,33570,List2A,white,man,,,,null,,,,
null,"<img src=""stim_listA/talk5.gif""style=""height:400px;""></stim_listA>",,html-keyboard-response,280,1243794,0.0-17.0-1.3,33570,List2A,white,man,,,,null,,,,
null,is talking to,,html-keyboard-response,281,1245795,0.0-17.0-2.3,33570,List2A,white,man,,,,null,,,,
5122,,,survey-text,282,1250917,0.0-17.0-3.3,33570,List2A,white,man,,,,,"{""Q0"":""Luke is talking to Mike""}","<img src=""stim_listA/talk5.gif""style=""height:400px;""></stim_listA>",is talking to,
null,"<div style=""font-size:60px;"">+</div>",,html-keyboard-response,283,1251418,0.0-17.0-0.4,33570,List2A,white,man,,,,null,,,,
null,"<img src=""stim_listA/talk6.gif""style=""height:400px;""></stim_listA>",,html-keyboard-response,284,1253419,0.0-17.0-1.4,33570,List2A,white,man,,,,null,,,,
null,are talking to each other,,html-keyboard-response,285,1255420,0.0-17.0-2.4,33570,List2A,white,man,,,,null,,,,
9483,,,survey-text,286,1264903,0.0-17.0-3.4,33570,List2A,white,man,,,,,"{""Q0"":""Fred and Dave are talking to each other""}","<img src=""stim_listA/talk6.gif""style=""height:400px;""></stim_listA>",are talking to each other,
null,"<div style=""font-size:60px;"">+</div>",,html-keyboard-response,287,1265405,0.0-17.0-0.5,33570,List2A,white,man,,,,null,,,,
null,"<img src=""stim_listA/touch4.gif""style=""height:400px;""></stim_listA>",,html-keyboard-response,288,1267406,0.0-17.0-1.5,33570,List2A,white,man,,,,null,,,,
null,are touching each other,,html-keyboard-response,289,1269407,0.0-17.0-2.5,33570,List2A,white,man,,,,null,,,,
9819,,,survey-text,290,1279226,0.0-17.0-3.5,33570,List2A,white,man,,,,,"{""Q0"":""Beth and Fred are touching each other""}","<img src=""stim_listA/touch4.gif""style=""height:400px;""></stim_listA>",are touching each other,
null,"<div style=""font-size:60px;"">+</div>",,html-keyboard-response,291,1279727,0.0-17.0-0.6,33570,List2A,white,man,,,,null,,,,
null,"<img src=""stim_listA/touch5.gif""style=""height:400px;""></stim_listA>",,html-keyboard-response,292,1281728,0.0-17.0-1.6,33570,List2A,white,man,,,,null,,,,
null,is touching,,html-keyboard-response,293,1283728,0.0-17.0-2.6,33570,List2A,white,man,,,,null,,,,
5394,,,survey-text,294,1289123,0.0-17.0-3.6,33570,List2A,white,man,,,,,"{""Q0"":""Fred is touching Mike""}","<img src=""stim_listA/touch5.gif""style=""height:400px;""></stim_listA>",is touching,
null,"<div style=""font-size:60px;"">+</div>",,html-keyboard-response,295,1289625,0.0-17.0-0.7,33570,List2A,white,man,,,,null,,,,
null,"<img src=""stim_listA/touch7.gif""style=""height:400px;""></stim_listA>",,html-keyboard-response,296,1291626,0.0-17.0-1.7,33570,List2A,white,man,,,,null,,,,
null,is touching,,html-keyboard-response,297,1293625,0.0-17.0-2.7,33570,List2A,white,man,,,,null,,,,
5178,,,survey-text,298,1298804,0.0-17.0-3.7,33570,List2A,white,man,,,,,"{""Q0"":""Jane is touching Kate""}","<img src=""stim_listA/touch7.gif""style=""height:400px;""></stim_listA>",is touching,
null,"<div style=""font-size:60px;"">+</div>",,html-keyboard-response,299,1299307,0.0-17.0-0.8,33570,List2A,white,man,,,,null,,,,
null,"<img src=""stim_listA/marry5.gif""style=""height:400px;""></stim_listA>",,html-keyboard-response,300,1301308,0.0-17.0-1.8,33570,List2A,white,man,,,,null,,,,
null,is marrying,,html-keyboard-response,301,1303308,0.0-17.0-2.8,33570,List2A,white,man,,,,null,,,,
4833,,,survey-text,302,1308143,0.0-17.0-3.8,33570,List2A,white,man,,,,,"{""Q0"":""Dave is marrying Fred""}","<img src=""stim_listA/marry5.gif""style=""height:400px;""></stim_listA>",is marrying,
null,"<div style=""font-size:60px;"">+</div>",,html-keyboard-response,303,1308643,0.0-17.0-0.9,33570,List2A,white,man,,,,null,,,,
null,"<img src=""stim_listA/talk2.gif""style=""height:400px;""></stim_listA>",,html-keyboard-response,304,1310644,0.0-17.0-1.9,33570,List2A,white,man,,,,null,,,,
null,are talking to each other,,html-keyboard-response,305,1312645,0.0-17.0-2.9,33570,List2A,white,man,,,,null,,,,
6755,,,survey-text,306,1319400,0.0-17.0-3.9,33570,List2A,white,man,,,,,"{""Q0"":""Ruth and Dave are talking to each other""}","<img src=""stim_listA/talk2.gif""style=""height:400px;""></stim_listA>",are talking to each other,
null,"<div style=""font-size:60px;"">+</div>",,html-keyboard-response,307,1319900,0.0-17.0-0.10,33570,List2A,white,man,,,,null,,,,
null,"<img src=""stim_listA/argue6.gif""style=""height:400px;""></stim_listA>",,html-keyboard-response,308,1321900,0.0-17.0-1.10,33570,List2A,white,man,,,,null,,,,
null,are arguing with each other,,html-keyboard-response,309,1323901,0.0-17.0-2.10,33570,List2A,white,man,,,,null,,,,
7077,,,survey-text,310,1330978,0.0-17.0-3.10,33570,List2A,white,man,,,,,"{""Q0"":""Luke and Mike are arguing with each other""}","<img src=""stim_listA/argue6.gif""style=""height:400px;""></stim_listA>",are arguing with each other,
null,"<div style=""font-size:60px;"">+</div>",,html-keyboard-response,311,1331478,0.0-17.0-0.11,33570,List2A,white,man,,,,null,,,,
null,"<img src=""stim_listA/kiss3.gif""style=""height:400px;""></stim_listA>",,html-keyboard-response,312,1333478,0.0-17.0-1.11,33570,List2A,white,man,,,,null,,,,
null,is kissing,,html-keyboard-response,313,1335479,0.0-17.0-2.11,33570,List2A,white,man,,,,null,,,,
4779,,,survey-text,314,1340258,0.0-17.0-3.11,33570,List2A,white,man,,,,,"{""Q0"":""Fred is kissing Beth""}","<img src=""stim_listA/kiss3.gif""style=""height:400px;""></stim_listA>",is kissing,
null,"<div style=""font-size:60px;"">+</div>",,html-keyboard-response,315,1340760,0.0-17.0-0.12,33570,List2A,white,man,,,,null,,,,
null,"<img src=""stim_listA/touch2.gif""style=""height:400px;""></stim_listA>",,html-keyboard-response,316,1342761,0.0-17.0-1.12,33570,List2A,white,man,,,,null,,,,
null,are touching each other,,html-keyboard-response,317,1344762,0.0-17.0-2.12,33570,List2A,white,man,,,,null,,,,
6674,,,survey-text,318,1351436,0.0-17.0-3.12,33570,List2A,white,man,,,,,"{""Q0"":""Luke and Ruth are touching each other""}","<img src=""stim_listA/touch2.gif""style=""height:400px;""></stim_listA>",are touching each other,
null,"<div style=""font-size:60px;"">+</div>",,html-keyboard-response,319,1351937,0.0-17.0-0.13,33570,List2A,white,man,,,,null,,,,
null,"<img src=""stim_listA/dance3.gif""style=""height:400px;""></stim_listA>",,html-keyboard-response,320,1353938,0.0-17.0-1.13,33570,List2A,white,man,,,,null,,,,
null,is dancing with,,html-keyboard-response,321,1355939,0.0-17.0-2.13,33570,List2A,white,man,,,,null,,,,
6571,,,survey-text,322,1362510,0.0-17.0-3.13,33570,List2A,white,man,,,,,"{""Q0"":""Kate is dancing with Fred""}","<img src=""stim_listA/dance3.gif""style=""height:400px;""></stim_listA>",is dancing with,
null,"<div style=""font-size:60px;"">+</div>",,html-keyboard-response,323,1363011,0.0-17.0-0.14,33570,List2A,white,man,,,,null,,,,
null,"<img src=""stim_listA/flirt3.gif""style=""height:400px;""></stim_listA>",,html-keyboard-response,324,1365012,0.0-17.0-1.14,33570,List2A,white,man,,,,null,,,,
null,is flirting with,,html-keyboard-response,325,1367013,0.0-17.0-2.14,33570,List2A,white,man,,,,null,,,,
6122,,,survey-text,326,1373135,0.0-17.0-3.14,33570,List2A,white,man,,,,,"{""Q0"":""Fred is flirting with Kate""}","<img src=""stim_listA/flirt3.gif""style=""height:400px;""></stim_listA>",is flirting with,
null,"<div style=""font-size:60px;"">+</div>",,html-keyboard-response,327,1373636,0.0-17.0-0.15,33570,List2A,white,man,,,,null,,,,
null,"<img src=""stim_listA/talk7.gif""style=""height:400px;""></stim_listA>",,html-keyboard-response,328,1375636,0.0-17.0-1.15,33570,List2A,white,man,,,,null,,,,
null,is talking to,,html-keyboard-response,329,1377637,0.0-17.0-2.15,33570,List2A,white,man,,,,null,,,,
5172,,,survey-text,330,1382809,0.0-17.0-3.15,33570,List2A,white,man,,,,,"{""Q0"":""Ruth is talking to Kate""}","<img src=""stim_listA/talk7.gif""style=""height:400px;""></stim_listA>",is talking to,
null,"<div style=""font-size:60px;"">+</div>",,html-keyboard-response,331,1383309,0.0-17.0-0.16,33570,List2A,white,man,,,,null,,,,
null,"<img src=""stim_listA/flirt6.gif""style=""height:400px;""></stim_listA>",,html-keyboard-response,332,1385310,0.0-17.0-1.16,33570,List2A,white,man,,,,null,,,,
null,are flirting with each other,,html-keyboard-response,333,1387311,0.0-17.0-2.16,33570,List2A,white,man,,,,null,,,,
8795,,,survey-text,334,1396107,0.0-17.0-3.16,33570,List2A,white,man,,,,,"{""Q0"":""Dave and Fred are flirting with each other""}","<img src=""stim_listA/flirt6.gif""style=""height:400px;""></stim_listA>",are flirting with each other,
null,"<div style=""font-size:60px;"">+</div>",,html-keyboard-response,335,1396608,0.0-17.0-0.17,33570,List2A,white,man,,,,null,,,,
null,"<img src=""stim_listA/fight3.gif""style=""height:400px;""></stim_listA>",,html-keyboard-response,336,1398609,0.0-17.0-1.17,33570,List2A,white,man,,,,null,,,,
null,is fighting,,html-keyboard-response,337,1400609,0.0-17.0-2.17,33570,List2A,white,man,,,,null,,,,
5676,,,survey-text,338,1406285,0.0-17.0-3.17,33570,List2A,white,man,,,,,"{""Q0"":""Mike is fighting Kate""}","<img src=""stim_listA/fight3.gif""style=""height:400px;""></stim_listA>",is fighting,
null,"<div style=""font-size:60px;"">+</div>",,html-keyboard-response,339,1406786,0.0-17.0-0.18,33570,List2A,white,man,,,,null,,,,
null,"<img src=""stim_listA/shout3.gif""style=""height:400px;""></stim_listA>",,html-keyboard-response,340,1408786,0.0-17.0-1.18,33570,List2A,white,man,,,,null,,,,
null,is shouting at,,html-keyboard-response,341,1410786,0.0-17.0-2.18,33570,List2A,white,man,,,,null,,,,
4764,,,survey-text,342,1415550,0.0-17.0-3.18,33570,List2A,white,man,,,,,"{""Q0"":""Beth is shouting at Fred""}","<img src=""stim_listA/shout3.gif""style=""height:400px;""></stim_listA>",is shouting at,
null,"<div style=""font-size:60px;"">+</div>",,html-keyboard-response,343,1416051,0.0-17.0-0.19,33570,List2A,white,man,,,,null,,,,
null,"<img src=""stim_listA/argue1.gif""style=""height:400px;""></stim_listA>",,html-keyboard-response,344,1418052,0.0-17.0-1.19,33570,List2A,white,man,,,,null,,,,
null,is arguing with,,html-keyboard-response,345,1420052,0.0-17.0-2.19,33570,List2A,white,man,,,,null,,,,
8164,,,survey-text,346,1428216,0.0-17.0-3.19,33570,List2A,white,man,,,,,"{""Q0"":""Dave is arguing with Ruth""}","<img src=""stim_listA/argue1.gif""style=""height:400px;""></stim_listA>",is arguing with,
1439,"<img src='img/portrait_matrix_list2.jpg' style='width:900px;height:500px;''></img><p>If you have memorised all the portraits and names and are ready to start, press Continue.</p><p><strong>Please note: Your memory of these faces will be tested 4 times during this experiment.</strong></p>",0,html-button-response,347,1429656,0.0-18.0-0.0,33570,List2A,white,man,,,,,,,,
2815,"<img src=""portrait/WM2.jpg""style=""height:400px;""></img>",7,html-button-response,348,1433472,0.0-18.0-1.0,33570,List2A,white,man,,TRUE,7,,,,,
null,CORRECT,,html-keyboard-response,349,1434973,0.0-18.0-2.0-0.0,33570,List2A,white,man,,,,null,,,,
1252,"<img src=""portrait/WW2.jpg""style=""height:400px;""></img>",3,html-button-response,350,1436225,0.0-18.0-4.0,33570,List2A,white,man,,TRUE,3,,,,,
null,CORRECT,,html-keyboard-response,351,1437726,0.0-18.0-5.0-0.0,33570,List2A,white,man,,,,null,,,,
1475,"<img src=""portrait/BM2.jpg""style=""height:400px;""></img>",5,html-button-response,352,1439202,0.0-18.0-7.0,33570,List2A,white,man,,TRUE,5,,,,,
null,CORRECT,,html-keyboard-response,353,1440702,0.0-18.0-8.0-0.0,33570,List2A,white,man,,,,null,,,,
2155,"<img src=""portrait/WW1.jpg""style=""height:400px;""></img>",1,html-button-response,354,1442858,0.0-18.0-10.0,33570,List2A,white,man,,TRUE,1,,,,,
null,CORRECT,,html-keyboard-response,355,1444359,0.0-18.0-11.0-0.0,33570,List2A,white,man,,,,null,,,,
1161,"<img src=""portrait/BM1.jpg""style=""height:400px;""></img>",4,html-button-response,356,1445522,0.0-18.0-13.0,33570,List2A,white,man,,TRUE,4,,,,,
null,CORRECT,,html-keyboard-response,357,1447024,0.0-18.0-14.0-0.0,33570,List2A,white,man,,,,null,,,,
2066,"<img src=""portrait/BW2.jpg""style=""height:400px;""></img>",2,html-button-response,358,1449091,0.0-18.0-16.0,33570,List2A,white,man,,TRUE,2,,,,,
null,CORRECT,,html-keyboard-response,359,1450593,0.0-18.0-17.0-0.0,33570,List2A,white,man,,,,null,,,,
2019,"<img src=""portrait/BW1.jpg""style=""height:400px;""></img>",0,html-button-response,360,1452612,0.0-18.0-19.0,33570,List2A,white,man,,TRUE,0,,,,,
null,CORRECT,,html-keyboard-response,361,1454114,0.0-18.0-20.0-0.0,33570,List2A,white,man,,,,null,,,,
3329,"<img src=""portrait/WM1.jpg""style=""height:400px;""></img>",6,html-button-response,362,1457444,0.0-18.0-22.0,33570,List2A,white,man,,TRUE,6,,,,,
null,CORRECT,,html-keyboard-response,363,1458946,0.0-18.0-23.0-0.0,33570,List2A,white,man,,,,null,,,,
1122,<p>You got 8 out of 8 right first time. Press Continue.</p>,0,html-button-response,364,1460069,0.0-18.0-25.0,33570,List2A,white,man,,,,,,,,
null,"<div style=""font-size:60px;"">+</div>",,html-keyboard-response,365,1461569,0.0-19.0-0.0,33570,List2A,white,man,,,,null,,,,
null,"<img src=""stim_listA/marry1.gif""style=""height:400px;""></stim_listA>",,html-keyboard-response,366,1463570,0.0-19.0-1.0,33570,List2A,white,man,,,,null,,,,
null,is marrying,,html-keyboard-response,367,1465571,0.0-19.0-2.0,33570,List2A,white,man,,,,null,,,,
4899,,,survey-text,368,1470470,0.0-19.0-3.0,33570,List2A,white,man,,,,,"{""Q0"":""Dave is marrying Ruth""}","<img src=""stim_listA/marry1.gif""style=""height:400px;""></stim_listA>",is marrying,
null,"<div style=""font-size:60px;"">+</div>",,html-keyboard-response,369,1470970,0.0-19.0-0.1,33570,List2A,white,man,,,,null,,,,
null,"<img src=""stim_listA/fight2.gif""style=""height:400px;""></stim_listA>",,html-keyboard-response,370,1472972,0.0-19.0-1.1,33570,List2A,white,man,,,,null,,,,
null,are fighting each other,,html-keyboard-response,371,1474972,0.0-19.0-2.1,33570,List2A,white,man,,,,null,,,,
6707,,,survey-text,372,1481680,0.0-19.0-3.1,33570,List2A,white,man,,,,,"{""Q0"":""Ruth and Luke are fighting each other""}","<img src=""stim_listA/fight2.gif""style=""height:400px;""></stim_listA>",are fighting each other,
null,"<div style=""font-size:60px;"">+</div>",,html-keyboard-response,373,1482182,0.0-19.0-0.2,33570,List2A,white,man,,,,null,,,,
null,"<img src=""stim_listA/fight8.gif""style=""height:400px;""></stim_listA>",,html-keyboard-response,374,1484182,0.0-19.0-1.2,33570,List2A,white,man,,,,null,,,,
null,are fighting each other,,html-keyboard-response,375,1486183,0.0-19.0-2.2,33570,List2A,white,man,,,,null,,,,
5473,,,survey-text,376,1491657,0.0-19.0-3.2,33570,List2A,white,man,,,,,"{""Q0"":""Ruth and Beth are fighting each other""}","<img src=""stim_listA/fight8.gif""style=""height:400px;""></stim_listA>",are fighting each other,
null,"<div style=""font-size:60px;"">+</div>",,html-keyboard-response,377,1492159,0.0-19.0-0.3,33570,List2A,white,man,,,,null,,,,
null,"<img src=""stim_listA/shout4.gif""style=""height:400px;""></stim_listA>",,html-keyboard-response,378,1494161,0.0-19.0-1.3,33570,List2A,white,man,,,,null,,,,
null,are shouting at each other,,html-keyboard-response,379,1496162,0.0-19.0-2.3,33570,List2A,white,man,,,,null,,,,
7072,,,survey-text,380,1503234,0.0-19.0-3.3,33570,List2A,white,man,,,,,"{""Q0"":""Mike and Kate are shouting at each other""}","<img src=""stim_listA/shout4.gif""style=""height:400px;""></stim_listA>",are shouting at each other,
null,"<div style=""font-size:60px;"">+</div>",,html-keyboard-response,381,1503736,0.0-19.0-0.4,33570,List2A,white,man,,,,null,,,,
null,"<img src=""stim_listA/talk4.gif""style=""height:400px;""></stim_listA>",,html-keyboard-response,382,1505737,0.0-19.0-1.4,33570,List2A,white,man,,,,null,,,,
null,are talking to each other,,html-keyboard-response,383,1507737,0.0-19.0-2.4,33570,List2A,white,man,,,,null,,,,
6202,,,survey-text,384,1513940,0.0-19.0-3.4,33570,List2A,white,man,,,,,"{""Q0"":""Mike and Beth are talking to each other""}","<img src=""stim_listA/talk4.gif""style=""height:400px;""></stim_listA>",are talking to each other,
null,"<div style=""font-size:60px;"">+</div>",,html-keyboard-response,385,1514442,0.0-19.0-0.5,33570,List2A,white,man,,,,null,,,,
null,"<img src=""stim_listA/kiss4.gif""style=""height:400px;""></stim_listA>",,html-keyboard-response,386,1516443,0.0-19.0-1.5,33570,List2A,white,man,,,,null,,,,
null,are kissing each other,,html-keyboard-response,387,1518445,0.0-19.0-2.5,33570,List2A,white,man,,,,null,,,,
6217,,,survey-text,388,1524662,0.0-19.0-3.5,33570,List2A,white,man,,,,,"{""Q0"":""Kate and Mike are kissing each other""}","<img src=""stim_listA/kiss4.gif""style=""height:400px;""></stim_listA>",are kissing each other,
null,"<div style=""font-size:60px;"">+</div>",,html-keyboard-response,389,1525164,0.0-19.0-0.6,33570,List2A,white,man,,,,null,,,,
null,"<img src=""stim_listA/touch1.gif""style=""height:400px;""></stim_listA>",,html-keyboard-response,390,1527165,0.0-19.0-1.6,33570,List2A,white,man,,,,null,,,,
null,is touching,,html-keyboard-response,391,1529166,0.0-19.0-2.6,33570,List2A,white,man,,,,null,,,,
6114,,,survey-text,392,1535280,0.0-19.0-3.6,33570,List2A,white,man,,,,,"{""Q0"":""Jane is touching Dave""}","<img src=""stim_listA/touch1.gif""style=""height:400px;""></stim_listA>",is touching,
null,"<div style=""font-size:60px;"">+</div>",,html-keyboard-response,393,1535781,0.0-19.0-0.7,33570,List2A,white,man,,,,null,,,,
null,"<img src=""stim_listA/touch8.gif""style=""height:400px;""></stim_listA>",,html-keyboard-response,394,1537782,0.0-19.0-1.7,33570,List2A,white,man,,,,null,,,,
null,are touching each other,,html-keyboard-response,395,1539782,0.0-19.0-2.7,33570,List2A,white,man,,,,null,,,,
11379,,,survey-text,396,1551162,0.0-19.0-3.7,33570,List2A,white,man,,,,,"{""Q0"":""Ruth is touching Beth""}","<img src=""stim_listA/touch8.gif""style=""height:400px;""></stim_listA>",are touching each other,
null,"<div style=""font-size:60px;"">+</div>",,html-keyboard-response,397,1551664,0.0-19.0-0.8,33570,List2A,white,man,,,,null,,,,
null,"<img src=""stim_listA/shout5.gif""style=""height:400px;""></stim_listA>",,html-keyboard-response,398,1553665,0.0-19.0-1.8,33570,List2A,white,man,,,,null,,,,
null,is shouting at,,html-keyboard-response,399,1555666,0.0-19.0-2.8,33570,List2A,white,man,,,,null,,,,
6849,,,survey-text,400,1562516,0.0-19.0-3.8,33570,List2A,white,man,,,,,"{""Q0"":""Luke is shouting at Fred""}","<img src=""stim_listA/shout5.gif""style=""height:400px;""></stim_listA>",is shouting at,
null,"<div style=""font-size:60px;"">+</div>",,html-keyboard-response,401,1563016,0.0-19.0-0.9,33570,List2A,white,man,,,,null,,,,
null,"<img src=""stim_listA/play1.gif""style=""height:400px;""></stim_listA>",,html-keyboard-response,402,1565017,0.0-19.0-1.9,33570,List2A,white,man,,,,null,,,,
null,is playing with,,html-keyboard-response,403,1567018,0.0-19.0-2.9,33570,List2A,white,man,,,,null,,,,
5771,,,survey-text,404,1572789,0.0-19.0-3.9,33570,List2A,white,man,,,,,"{""Q0"":""Dave is playing with Jane""}","<img src=""stim_listA/play1.gif""style=""height:400px;""></stim_listA>",is playing with,
null,"<div style=""font-size:60px;"">+</div>",,html-keyboard-response,405,1573290,0.0-19.0-0.10,33570,List2A,white,man,,,,null,,,,
null,"<img src=""stim_listA/argue4.gif""style=""height:400px;""></stim_listA>",,html-keyboard-response,406,1575291,0.0-19.0-1.10,33570,List2A,white,man,,,,null,,,,
null,are arguing with each other,,html-keyboard-response,407,1577292,0.0-19.0-2.10,33570,List2A,white,man,,,,null,,,,
6898,,,survey-text,408,1584191,0.0-19.0-3.10,33570,List2A,white,man,,,,,"{""Q0"":""Fred and Kate are arguing with each other""}","<img src=""stim_listA/argue4.gif""style=""height:400px;""></stim_listA>",are arguing with each other,
null,"<div style=""font-size:60px;"">+</div>",,html-keyboard-response,409,1584692,0.0-19.0-0.11,33570,List2A,white,man,,,,null,,,,
null,"<img src=""stim_listA/dance7.gif""style=""height:400px;""></stim_listA>",,html-keyboard-response,410,1586693,0.0-19.0-1.11,33570,List2A,white,man,,,,null,,,,
null,is dancing with,,html-keyboard-response,411,1588694,0.0-19.0-2.11,33570,List2A,white,man,,,,null,,,,
4881,,,survey-text,412,1593576,0.0-19.0-3.11,33570,List2A,white,man,,,,,"{""Q0"":""Kate is dancing with Ruth""}","<img src=""stim_listA/dance7.gif""style=""height:400px;""></stim_listA>",is dancing with,
null,"<div style=""font-size:60px;"">+</div>",,html-keyboard-response,413,1594078,0.0-19.0-0.12,33570,List2A,white,man,,,,null,,,,
null,"<img src=""stim_listA/fight5.gif""style=""height:400px;""></stim_listA>",,html-keyboard-response,414,1596079,0.0-19.0-1.12,33570,List2A,white,man,,,,null,,,,
null,is fighting,,html-keyboard-response,415,1598079,0.0-19.0-2.12,33570,List2A,white,man,,,,null,,,,
6235,,,survey-text,416,1604314,0.0-19.0-3.12,33570,List2A,white,man,,,,,"{""Q0"":""Dave is fighting Mike""}","<img src=""stim_listA/fight5.gif""style=""height:400px;""></stim_listA>",is fighting,
null,"<div style=""font-size:60px;"">+</div>",,html-keyboard-response,417,1604816,0.0-19.0-0.13,33570,List2A,white,man,,,,null,,,,
null,"<img src=""stim_listA/fight7.gif""style=""height:400px;""></stim_listA>",,html-keyboard-response,418,1606817,0.0-19.0-1.13,33570,List2A,white,man,,,,null,,,,
null,is fighting,,html-keyboard-response,419,1608818,0.0-19.0-2.13,33570,List2A,white,man,,,,null,,,,
4873,,,survey-text,420,1613691,0.0-19.0-3.13,33570,List2A,white,man,,,,,"{""Q0"":""Jane is fighting Kate""}","<img src=""stim_listA/fight7.gif""style=""height:400px;""></stim_listA>",is fighting,
null,"<div style=""font-size:60px;"">+</div>",,html-keyboard-response,421,1614192,0.0-19.0-0.14,33570,List2A,white,man,,,,null,,,,
null,"<img src=""stim_listA/play8.gif""style=""height:400px;""></stim_listA>",,html-keyboard-response,422,1616193,0.0-19.0-1.14,33570,List2A,white,man,,,,null,,,,
null,are playing with each other,,html-keyboard-response,423,1618194,0.0-19.0-2.14,33570,List2A,white,man,,,,null,,,,
7451,,,survey-text,424,1625645,0.0-19.0-3.14,33570,List2A,white,man,,,,,"{""Q0"":""Beth and Ruth are playing with each other""}","<img src=""stim_listA/play8.gif""style=""height:400px;""></stim_listA>",are playing with each other,
null,"<div style=""font-size:60px;"">+</div>",,html-keyboard-response,425,1626146,0.0-19.0-0.15,33570,List2A,white,man,,,,null,,,,
null,"<img src=""stim_listA/kiss2.gif""style=""height:400px;""></stim_listA>",,html-keyboard-response,426,1628146,0.0-19.0-1.15,33570,List2A,white,man,,,,null,,,,
null,are kissing each other,,html-keyboard-response,427,1630147,0.0-19.0-2.15,33570,List2A,white,man,,,,null,,,,
6370,,,survey-text,428,1636519,0.0-19.0-3.15,33570,List2A,white,man,,,,,"{""Q0"":""Dave and Jane are kissing each other""}","<img src=""stim_listA/kiss2.gif""style=""height:400px;""></stim_listA>",are kissing each other,
null,"<div style=""font-size:60px;"">+</div>",,html-keyboard-response,429,1637020,0.0-19.0-0.16,33570,List2A,white,man,,,,null,,,,
null,"<img src=""stim_listA/flirt2.gif""style=""height:400px;""></stim_listA>",,html-keyboard-response,430,1639022,0.0-19.0-1.16,33570,List2A,white,man,,,,null,,,,
null,are flirting with each other,,html-keyboard-response,431,1641022,0.0-19.0-2.16,33570,List2A,white,man,,,,null,,,,
7713,,,survey-text,432,1648737,0.0-19.0-3.16,33570,List2A,white,man,,,,,"{""Q0"":""Ruth and Dave are flirting with each other""}","<img src=""stim_listA/flirt2.gif""style=""height:400px;""></stim_listA>",are flirting with each other,
null,"<div style=""font-size:60px;"">+</div>",,html-keyboard-response,433,1649237,0.0-19.0-0.17,33570,List2A,white,man,,,,null,,,,
null,"<img src=""stim_listA/play7.gif""style=""height:400px;""></stim_listA>",,html-keyboard-response,434,1651237,0.0-19.0-1.17,33570,List2A,white,man,,,,null,,,,
null,is playing with,,html-keyboard-response,435,1653238,0.0-19.0-2.17,33570,List2A,white,man,,,,null,,,,
5844,,,survey-text,436,1659082,0.0-19.0-3.17,33570,List2A,white,man,,,,,"{""Q0"":""Jane is playing with Kate""}","<img src=""stim_listA/play7.gif""style=""height:400px;""></stim_listA>",is playing with,
null,"<div style=""font-size:60px;"">+</div>",,html-keyboard-response,437,1659582,0.0-19.0-0.18,33570,List2A,white,man,,,,null,,,,
null,"<img src=""stim_listA/dance4.gif""style=""height:400px;""></stim_listA>",,html-keyboard-response,438,1661583,0.0-19.0-1.18,33570,List2A,white,man,,,,null,,,,
null,are dancing with each other,,html-keyboard-response,439,1663584,0.0-19.0-2.18,33570,List2A,white,man,,,,null,,,,
6468,,,survey-text,440,1670052,0.0-19.0-3.18,33570,List2A,white,man,,,,,"{""Q0"":""Mike and Beth are dancing with each other""}","<img src=""stim_listA/dance4.gif""style=""height:400px;""></stim_listA>",are dancing with each other,
null,"<div style=""font-size:60px;"">+</div>",,html-keyboard-response,441,1670552,0.0-19.0-0.19,33570,List2A,white,man,,,,null,,,,
null,"<img src=""stim_listA/kiss8.gif""style=""height:400px;""></stim_listA>",,html-keyboard-response,442,1672553,0.0-19.0-1.19,33570,List2A,white,man,,,,null,,,,
null,are kissing each other,,html-keyboard-response,443,1674554,0.0-19.0-2.19,33570,List2A,white,man,,,,null,,,,
6491,,,survey-text,444,1681045,0.0-19.0-3.19,33570,List2A,white,man,,,,,"{""Q0"":""Kate and Jane are kissing each other""}","<img src=""stim_listA/kiss8.gif""style=""height:400px;""></stim_listA>",are kissing each other,
1792,<p>Thank you for completing that task.</p><p>The final part of this session is a short questionnaire.</p><p>Press Continue.</p>,0,html-button-response,445,1682838,0.0-20.0,33570,List2A,white,man,,,,,,,,
29395,,,survey-text,446,1713234,0.0-21.0,33570,List2A,white,man,,,,,"{""Q0"":""21"",""Q1"":""English"",""Q2"":""English"",""Q3"":""Northern Ireland"",""Q4"":""White"",""Q5"":""Male""}",,,demographics
6593,,,survey-likert,447,1719829,0.0-22.0,33570,List2A,white,man,,,,,"{""Q0"":4}",,,likert_ESS
6183,,,survey-likert,448,1726013,0.0-23.0,33570,List2A,white,man,,,,,"{""Q0"":4}",,,likert_NSSAL_Q1
2735,,,survey-likert,449,1728750,0.0-24.0,33570,List2A,white,man,,,,,"{""Q0"":4}",,,likert_NSSAL_Q2
6151,,,survey-likert,450,1734902,0.0-25.0,33570,List2A,white,man,,,,,"{""Q0"":4}",,,likert_CGRS_Q1
3983,,,survey-likert,451,1738886,0.0-26.0,33570,List2A,white,man,,,,,"{""Q0"":4}",,,likert_CGRS_Q2
2296,,,survey-likert,452,1741183,0.0-27.0,33570,List2A,white,man,,,,,"{""Q0"":4}",,,likert_CGRS_Q3
6440,,,survey-text,453,1747623,0.0-28.0,33570,List2A,white,man,,,,,"{""Q0"":""ccc""}",,,worker_id
29316,,,external-html,454,1777020,0.0-29.0,33570,List2A,white,man,debrief.html,,,,,,,
