rt,stimulus,button_pressed,trial_type,trial_index,time_elapsed,internal_node_id,subject,list,ppt_race,ppt_gender,url,first_guess,correct,key_press,responses,image_type,phrase_type,test_part
2171,Welcome to the experiment. Press Continue to begin.,0,html-button-response,0,2177,0.0-0.0,33694,List2B,white,woman,,,,,,,,
35114,,,external-html,1,38336,0.0-1.0,33694,List2B,white,woman,consent.html,,,,,,,
9285,"<p>On the next page, you will see portraits of 8 people and their names.</p><p>Your first task is to take a few minutes to memorise the names of these people.</p><p>You will have to recall their names during the rest of the experiment, so it is</p><p>essential that you try to memorise these people and their names as best as you can.</p><br><p><strong>You will then be tested on your memory of these names and portraits.</strong></p><br><p>The experiment will start after you have completed this memory test.</p><br><p>Ready?</p>",0,html-button-response,2,47623,0.0-2.0,33694,List2B,white,woman,,,,,,,,
34773,"<img src='img/portrait_matrix_list2.jpg' style='width:900px;height:500px;''></img><p>If you have memorised all the portraits and names and are ready to start, press Continue.</p><p><strong>Please note: Your memory of these faces will be tested 4 times during this experiment.</strong></p>",0,html-button-response,3,83399,0.0-3.0-0.0,33694,List2B,white,woman,,,,,,,,
1670,"<img src=""portrait/WW1.jpg""style=""height:400px;""></img>",1,html-button-response,4,86072,0.0-3.0-1.0,33694,List2B,white,woman,,TRUE,1,,,,,
null,CORRECT,,html-keyboard-response,5,87578,0.0-3.0-2.0-0.0,33694,List2B,white,woman,,,,null,,,,
2254,"<img src=""portrait/BM1.jpg""style=""height:400px;""></img>",4,html-button-response,6,89835,0.0-3.0-4.0,33694,List2B,white,woman,,TRUE,4,,,,,
null,CORRECT,,html-keyboard-response,7,91340,0.0-3.0-5.0-0.0,33694,List2B,white,woman,,,,null,,,,
3321,"<img src=""portrait/WM1.jpg""style=""height:400px;""></img>",4,html-button-response,8,94664,0.0-3.0-7.0,33694,List2B,white,woman,,TRUE,6,,,,,
3805,"<img src=""portrait/WM1.jpg""style=""height:400px;""></img>",6,html-button-response,9,99472,0.0-3.0-9.0-0.0,33694,List2B,white,woman,,FALSE,6,,,,,
null,CORRECT,,html-keyboard-response,10,100977,0.0-3.0-9.0-1.0-0.0,33694,List2B,white,woman,,,,null,,,,
3862,"<img src=""portrait/BM2.jpg""style=""height:400px;""></img>",5,html-button-response,11,104842,0.0-3.0-10.0,33694,List2B,white,woman,,TRUE,5,,,,,
null,CORRECT,,html-keyboard-response,12,106344,0.0-3.0-11.0-0.0,33694,List2B,white,woman,,,,null,,,,
5161,"<img src=""portrait/BW1.jpg""style=""height:400px;""></img>",0,html-button-response,13,111508,0.0-3.0-13.0,33694,List2B,white,woman,,TRUE,0,,,,,
null,CORRECT,,html-keyboard-response,14,113011,0.0-3.0-14.0-0.0,33694,List2B,white,woman,,,,null,,,,
2005,"<img src=""portrait/WM2.jpg""style=""height:400px;""></img>",7,html-button-response,15,115019,0.0-3.0-16.0,33694,List2B,white,woman,,TRUE,7,,,,,
null,CORRECT,,html-keyboard-response,16,116523,0.0-3.0-17.0-0.0,33694,List2B,white,woman,,,,null,,,,
2286,"<img src=""portrait/WW2.jpg""style=""height:400px;""></img>",3,html-button-response,17,118811,0.0-3.0-19.0,33694,List2B,white,woman,,TRUE,3,,,,,
null,CORRECT,,html-keyboard-response,18,120316,0.0-3.0-20.0-0.0,33694,List2B,white,woman,,,,null,,,,
1954,"<img src=""portrait/BW2.jpg""style=""height:400px;""></img>",2,html-button-response,19,122271,0.0-3.0-22.0,33694,List2B,white,woman,,TRUE,2,,,,,
null,CORRECT,,html-keyboard-response,20,123775,0.0-3.0-23.0-0.0,33694,List2B,white,woman,,,,null,,,,
1544,<p>You got 7 out of 8 right first time. Press Continue.</p>,0,html-button-response,21,125320,0.0-3.0-25.0,33694,List2B,white,woman,,,,,,,,
2590,"As you did not score 100%, the memory game will repeat. Press Continue.",0,html-button-response,22,128914,0.0-3.0-26.0-0.0,33694,List2B,white,woman,,,,,,,,
8437,"<img src='img/portrait_matrix_list2.jpg' style='width:900px;height:500px;''></img><p>If you have memorised all the portraits and names and are ready to start, press Continue.</p><p><strong>Please note: Your memory of these faces will be tested 4 times during this experiment.</strong></p>",0,html-button-response,23,138354,0.0-3.1-0.1,33694,List2B,white,woman,,,,,,,,
1977,"<img src=""portrait/WW1.jpg""style=""height:400px;""></img>",1,html-button-response,24,141335,0.0-3.1-1.1,33694,List2B,white,woman,,TRUE,1,,,,,
null,CORRECT,,html-keyboard-response,25,142840,0.0-3.1-2.1-0.1,33694,List2B,white,woman,,,,null,,,,
2797,"<img src=""portrait/BM1.jpg""style=""height:400px;""></img>",4,html-button-response,26,145640,0.0-3.1-4.1,33694,List2B,white,woman,,TRUE,4,,,,,
null,CORRECT,,html-keyboard-response,27,147143,0.0-3.1-5.1-0.1,33694,List2B,white,woman,,,,null,,,,
2684,"<img src=""portrait/WM1.jpg""style=""height:400px;""></img>",6,html-button-response,28,149829,0.0-3.1-7.1,33694,List2B,white,woman,,TRUE,6,,,,,
null,CORRECT,,html-keyboard-response,29,151333,0.0-3.1-8.1-0.1,33694,List2B,white,woman,,,,null,,,,
2846,"<img src=""portrait/BM2.jpg""style=""height:400px;""></img>",5,html-button-response,30,154181,0.0-3.1-10.1,33694,List2B,white,woman,,TRUE,5,,,,,
null,CORRECT,,html-keyboard-response,31,155686,0.0-3.1-11.1-0.1,33694,List2B,white,woman,,,,null,,,,
4228,"<img src=""portrait/BW1.jpg""style=""height:400px;""></img>",0,html-button-response,32,159916,0.0-3.1-13.1,33694,List2B,white,woman,,TRUE,0,,,,,
null,CORRECT,,html-keyboard-response,33,161421,0.0-3.1-14.1-0.1,33694,List2B,white,woman,,,,null,,,,
1619,"<img src=""portrait/WM2.jpg""style=""height:400px;""></img>",7,html-button-response,34,163042,0.0-3.1-16.1,33694,List2B,white,woman,,TRUE,7,,,,,
null,CORRECT,,html-keyboard-response,35,164547,0.0-3.1-17.1-0.1,33694,List2B,white,woman,,,,null,,,,
1318,"<img src=""portrait/WW2.jpg""style=""height:400px;""></img>",3,html-button-response,36,165866,0.0-3.1-19.1,33694,List2B,white,woman,,TRUE,3,,,,,
null,CORRECT,,html-keyboard-response,37,167370,0.0-3.1-20.1-0.1,33694,List2B,white,woman,,,,null,,,,
1438,"<img src=""portrait/BW2.jpg""style=""height:400px;""></img>",2,html-button-response,38,168811,0.0-3.1-22.1,33694,List2B,white,woman,,TRUE,2,,,,,
null,CORRECT,,html-keyboard-response,39,170316,0.0-3.1-23.1-0.1,33694,List2B,white,woman,,,,null,,,,
1213,<p>You got 8 out of 8 right first time. Press Continue.</p>,0,html-button-response,40,171531,0.0-3.1-25.1,33694,List2B,white,woman,,,,,,,,
16703,"<p>In this experiment, you will view photographs of the people from the memory game interacting.</p><p>By using the <strong>exact</strong> phrase given <i>after</i> the photograph appears and recalling the correct names of the people in the photographs, form a sentence describing the interaction. You do not need to capitalise names.</p><p>Type your answer in the space provided. Please complete every sentence before moving onto the next trial.</p><p>You will only have a few seconds to memorise each given photograph and phrase before you can respond, so try your best to focus.</p><p>An example is given below. Press 'Continue' when you are ready.</p><img src='img/speaking_example.jpg' style='width:800px;height:460px;''></img>",0,html-button-response,41,189237,0.0-4.0,33694,List2B,white,woman,,,,,,,,
1933,"<p>Before the experiment starts, you will watch two example trials. Press 'Continue'.</p>",0,html-button-response,42,192173,0.0-5.0,33694,List2B,white,woman,,,,,,,,
null,<img src='img/meet_eg.gif' style='height:400px;''></img>,,html-keyboard-response,43,195177,0.0-6.0,33694,List2B,white,woman,,,,null,,,,
null,<p>is meeting</p>,,html-keyboard-response,44,197180,0.0-7.0,33694,List2B,white,woman,,,,null,,,,
1727,<p><b>Answer:</b> jane is meeting ruth</p>,0,html-button-response,45,198910,0.0-8.0,33694,List2B,white,woman,,,,,,,,
null,<img src='img/look_eg.gif' style='height:400px;''></img>,,html-keyboard-response,46,201915,0.0-9.0,33694,List2B,white,woman,,,,null,,,,
null,<p>are looking at each other</p>,,html-keyboard-response,47,203919,0.0-10.0,33694,List2B,white,woman,,,,null,,,,
5517,<p><b>Answer:</b> fred and mike are looking at each other</p>,0,html-button-response,48,209437,0.0-11.0,33694,List2B,white,woman,,,,,,,,
7879,"<p>Ready to start the experiment?</p><br><p><strong>Remember to describe the picture using a full sentence,</strong></p><p><strong>that combines the names of the people with the <i>exact</i> phrase given.</strong></p><p><strong>To receive full payment you must do this correctly.</strong></p><p><strong> You do not need to capitalise names or use punctuation.</strong></p><br><p>Press 'Continue' to begin.</p>",0,html-button-response,49,218318,0.0-12.0,33694,List2B,white,woman,,,,,,,,
null,"<div style=""font-size:60px;"">+</div>",,html-keyboard-response,50,219822,0.0-13.0-0.0,33694,List2B,white,woman,,,,null,,,,
null,"<img src=""stim_listB/marry8.gif""style=""height:400px;""></stim_listB>",,html-keyboard-response,51,221826,0.0-13.0-1.0,33694,List2B,white,woman,,,,null,,,,
null,are marrying each other,,html-keyboard-response,52,223829,0.0-13.0-2.0,33694,List2B,white,woman,,,,null,,,,
15588,,,survey-text,53,239418,0.0-13.0-3.0,33694,List2B,white,woman,,,,,"{""Q0"":""Kate and ruth are marrying each other""}","<img src=""stim_listB/marry8.gif""style=""height:400px;""></stim_listB>",are marrying each other,
null,"<div style=""font-size:60px;"">+</div>",,html-keyboard-response,54,239922,0.0-13.0-0.1,33694,List2B,white,woman,,,,null,,,,
null,"<img src=""stim_listB/talk5.gif""style=""height:400px;""></stim_listB>",,html-keyboard-response,55,241925,0.0-13.0-1.1,33694,List2B,white,woman,,,,null,,,,
null,is talking to,,html-keyboard-response,56,243929,0.0-13.0-2.1,33694,List2B,white,woman,,,,null,,,,
17995,,,survey-text,57,261926,0.0-13.0-3.1,33694,List2B,white,woman,,,,,"{""Q0"":""Luke is talking to mike""}","<img src=""stim_listB/talk5.gif""style=""height:400px;""></stim_listB>",is talking to,
null,"<div style=""font-size:60px;"">+</div>",,html-keyboard-response,58,262430,0.0-13.0-0.2,33694,List2B,white,woman,,,,null,,,,
null,"<img src=""stim_listB/talk2.gif""style=""height:400px;""></stim_listB>",,html-keyboard-response,59,264432,0.0-13.0-1.2,33694,List2B,white,woman,,,,null,,,,
null,are talking to each other,,html-keyboard-response,60,266435,0.0-13.0-2.2,33694,List2B,white,woman,,,,null,,,,
11016,,,survey-text,61,277452,0.0-13.0-3.2,33694,List2B,white,woman,,,,,"{""Q0"":""Dave and ruth are talking to each other""}","<img src=""stim_listB/talk2.gif""style=""height:400px;""></stim_listB>",are talking to each other,
null,"<div style=""font-size:60px;"">+</div>",,html-keyboard-response,62,277955,0.0-13.0-0.3,33694,List2B,white,woman,,,,null,,,,
null,"<img src=""stim_listB/play8.gif""style=""height:400px;""></stim_listB>",,html-keyboard-response,63,279959,0.0-13.0-1.3,33694,List2B,white,woman,,,,null,,,,
null,are playing with each other,,html-keyboard-response,64,281962,0.0-13.0-2.3,33694,List2B,white,woman,,,,null,,,,
10327,,,survey-text,65,292290,0.0-13.0-3.3,33694,List2B,white,woman,,,,,"{""Q0"":""Beth and ruth are playing together""}","<img src=""stim_listB/play8.gif""style=""height:400px;""></stim_listB>",are playing with each other,
null,"<div style=""font-size:60px;"">+</div>",,html-keyboard-response,66,292794,0.0-13.0-0.4,33694,List2B,white,woman,,,,null,,,,
null,"<img src=""stim_listB/shout8.gif""style=""height:400px;""></stim_listB>",,html-keyboard-response,67,294797,0.0-13.0-1.4,33694,List2B,white,woman,,,,null,,,,
null,are shouting at each other,,html-keyboard-response,68,296801,0.0-13.0-2.4,33694,List2B,white,woman,,,,null,,,,
11405,,,survey-text,69,308208,0.0-13.0-3.4,33694,List2B,white,woman,,,,,"{""Q0"":""Jane and Kate are shouting at each other""}","<img src=""stim_listB/shout8.gif""style=""height:400px;""></stim_listB>",are shouting at each other,
null,"<div style=""font-size:60px;"">+</div>",,html-keyboard-response,70,308711,0.0-13.0-0.5,33694,List2B,white,woman,,,,null,,,,
null,"<img src=""stim_listB/flirt5.gif""style=""height:400px;""></stim_listB>",,html-keyboard-response,71,310715,0.0-13.0-1.5,33694,List2B,white,woman,,,,null,,,,
null,is flirting with,,html-keyboard-response,72,312718,0.0-13.0-2.5,33694,List2B,white,woman,,,,null,,,,
14335,,,survey-text,73,327055,0.0-13.0-3.5,33694,List2B,white,woman,,,,,"{""Q0"":""Luke is flirting with mike""}","<img src=""stim_listB/flirt5.gif""style=""height:400px;""></stim_listB>",is flirting with,
null,"<div style=""font-size:60px;"">+</div>",,html-keyboard-response,74,327558,0.0-13.0-0.6,33694,List2B,white,woman,,,,null,,,,
null,"<img src=""stim_listB/fight2.gif""style=""height:400px;""></stim_listB>",,html-keyboard-response,75,329564,0.0-13.0-1.6,33694,List2B,white,woman,,,,null,,,,
null,are fighting each other,,html-keyboard-response,76,331568,0.0-13.0-2.6,33694,List2B,white,woman,,,,null,,,,
9438,,,survey-text,77,341007,0.0-13.0-3.6,33694,List2B,white,woman,,,,,"{""Q0"":""ruth and Luke are fighting each other""}","<img src=""stim_listB/fight2.gif""style=""height:400px;""></stim_listB>",are fighting each other,
null,"<div style=""font-size:60px;"">+</div>",,html-keyboard-response,78,341510,0.0-13.0-0.7,33694,List2B,white,woman,,,,null,,,,
null,"<img src=""stim_listB/play3.gif""style=""height:400px;""></stim_listB>",,html-keyboard-response,79,343514,0.0-13.0-1.7,33694,List2B,white,woman,,,,null,,,,
null,is playing with,,html-keyboard-response,80,345517,0.0-13.0-2.7,33694,List2B,white,woman,,,,null,,,,
6449,,,survey-text,81,351967,0.0-13.0-3.7,33694,List2B,white,woman,,,,,"{""Q0"":""Kate is playing with mike""}","<img src=""stim_listB/play3.gif""style=""height:400px;""></stim_listB>",is playing with,
null,"<div style=""font-size:60px;"">+</div>",,html-keyboard-response,82,352470,0.0-13.0-0.8,33694,List2B,white,woman,,,,null,,,,
null,"<img src=""stim_listB/talk6.gif""style=""height:400px;""></stim_listB>",,html-keyboard-response,83,354474,0.0-13.0-1.8,33694,List2B,white,woman,,,,null,,,,
null,are talking to each other,,html-keyboard-response,84,356477,0.0-13.0-2.8,33694,List2B,white,woman,,,,null,,,,
17366,,,survey-text,85,373845,0.0-13.0-3.8,33694,List2B,white,woman,,,,,"{""Q0"":""Dave and read are talking together""}","<img src=""stim_listB/talk6.gif""style=""height:400px;""></stim_listB>",are talking to each other,
null,"<div style=""font-size:60px;"">+</div>",,html-keyboard-response,86,374348,0.0-13.0-0.9,33694,List2B,white,woman,,,,null,,,,
null,"<img src=""stim_listB/play5.gif""style=""height:400px;""></stim_listB>",,html-keyboard-response,87,376352,0.0-13.0-1.9,33694,List2B,white,woman,,,,null,,,,
null,is playing with,,html-keyboard-response,88,378355,0.0-13.0-2.9,33694,List2B,white,woman,,,,null,,,,
6820,,,survey-text,89,385179,0.0-13.0-3.9,33694,List2B,white,woman,,,,,"{""Q0"":""mike is playing with Dave""}","<img src=""stim_listB/play5.gif""style=""height:400px;""></stim_listB>",is playing with,
null,"<div style=""font-size:60px;"">+</div>",,html-keyboard-response,90,385682,0.0-13.0-0.10,33694,List2B,white,woman,,,,null,,,,
null,"<img src=""stim_listB/marry7.gif""style=""height:400px;""></stim_listB>",,html-keyboard-response,91,387686,0.0-13.0-1.10,33694,List2B,white,woman,,,,null,,,,
null,is marrying,,html-keyboard-response,92,389689,0.0-13.0-2.10,33694,List2B,white,woman,,,,null,,,,
12822,,,survey-text,93,402513,0.0-13.0-3.10,33694,List2B,white,woman,,,,,"{""Q0"":""Beth nd Jane are marrying each other""}","<img src=""stim_listB/marry7.gif""style=""height:400px;""></stim_listB>",is marrying,
null,"<div style=""font-size:60px;"">+</div>",,html-keyboard-response,94,403016,0.0-13.0-0.11,33694,List2B,white,woman,,,,null,,,,
null,"<img src=""stim_listB/argue8.gif""style=""height:400px;""></stim_listB>",,html-keyboard-response,95,405020,0.0-13.0-1.11,33694,List2B,white,woman,,,,null,,,,
null,are arguing with each other,,html-keyboard-response,96,407022,0.0-13.0-2.11,33694,List2B,white,woman,,,,null,,,,
14124,,,survey-text,97,421147,0.0-13.0-3.11,33694,List2B,white,woman,,,,,"{""Q0"":""Kate and ruth are arguing with each other""}","<img src=""stim_listB/argue8.gif""style=""height:400px;""></stim_listB>",are arguing with each other,
null,"<div style=""font-size:60px;"">+</div>",,html-keyboard-response,98,421651,0.0-13.0-0.12,33694,List2B,white,woman,,,,null,,,,
null,"<img src=""stim_listB/fight5.gif""style=""height:400px;""></stim_listB>",,html-keyboard-response,99,423654,0.0-13.0-1.12,33694,List2B,white,woman,,,,null,,,,
null,is fighting,,html-keyboard-response,100,425657,0.0-13.0-2.12,33694,List2B,white,woman,,,,null,,,,
8312,,,survey-text,101,433972,0.0-13.0-3.12,33694,List2B,white,woman,,,,,"{""Q0"":""Dave is fighting mike""}","<img src=""stim_listB/fight5.gif""style=""height:400px;""></stim_listB>",is fighting,
null,"<div style=""font-size:60px;"">+</div>",,html-keyboard-response,102,434475,0.0-13.0-0.13,33694,List2B,white,woman,,,,null,,,,
null,"<img src=""stim_listB/kiss5.gif""style=""height:400px;""></stim_listB>",,html-keyboard-response,103,436479,0.0-13.0-1.13,33694,List2B,white,woman,,,,null,,,,
null,is kissing,,html-keyboard-response,104,438483,0.0-13.0-2.13,33694,List2B,white,woman,,,,null,,,,
7573,,,survey-text,105,446056,0.0-13.0-3.13,33694,List2B,white,woman,,,,,"{""Q0"":""fred is kissing Luke""}","<img src=""stim_listB/kiss5.gif""style=""height:400px;""></stim_listB>",is kissing,
null,"<div style=""font-size:60px;"">+</div>",,html-keyboard-response,106,446559,0.0-13.0-0.14,33694,List2B,white,woman,,,,null,,,,
null,"<img src=""stim_listB/kiss8.gif""style=""height:400px;""></stim_listB>",,html-keyboard-response,107,448563,0.0-13.0-1.14,33694,List2B,white,woman,,,,null,,,,
null,are kissing each other,,html-keyboard-response,108,450566,0.0-13.0-2.14,33694,List2B,white,woman,,,,null,,,,
8934,,,survey-text,109,459501,0.0-13.0-3.14,33694,List2B,white,woman,,,,,"{""Q0"":""Jane and Kate are kissing each other""}","<img src=""stim_listB/kiss8.gif""style=""height:400px;""></stim_listB>",are kissing each other,
null,"<div style=""font-size:60px;"">+</div>",,html-keyboard-response,110,460004,0.0-13.0-0.15,33694,List2B,white,woman,,,,null,,,,
null,"<img src=""stim_listB/argue6.gif""style=""height:400px;""></stim_listB>",,html-keyboard-response,111,462008,0.0-13.0-1.15,33694,List2B,white,woman,,,,null,,,,
null,are arguing with each other,,html-keyboard-response,112,464010,0.0-13.0-2.15,33694,List2B,white,woman,,,,null,,,,
12005,,,survey-text,113,476019,0.0-13.0-3.15,33694,List2B,white,woman,,,,,"{""Q0"":""Luke and mike are fighting with each other""}","<img src=""stim_listB/argue6.gif""style=""height:400px;""></stim_listB>",are arguing with each other,
null,"<div style=""font-size:60px;"">+</div>",,html-keyboard-response,114,476522,0.0-13.0-0.16,33694,List2B,white,woman,,,,null,,,,
null,"<img src=""stim_listB/play2.gif""style=""height:400px;""></stim_listB>",,html-keyboard-response,115,478526,0.0-13.0-1.16,33694,List2B,white,woman,,,,null,,,,
null,are playing with each other,,html-keyboard-response,116,480529,0.0-13.0-2.16,33694,List2B,white,woman,,,,null,,,,
12069,,,survey-text,117,492601,0.0-13.0-3.16,33694,List2B,white,woman,,,,,"{""Q0"":""Luke and ruth are playing together""}","<img src=""stim_listB/play2.gif""style=""height:400px;""></stim_listB>",are playing with each other,
null,"<div style=""font-size:60px;"">+</div>",,html-keyboard-response,118,493104,0.0-13.0-0.17,33694,List2B,white,woman,,,,null,,,,
null,"<img src=""stim_listB/argue1.gif""style=""height:400px;""></stim_listB>",,html-keyboard-response,119,495107,0.0-13.0-1.17,33694,List2B,white,woman,,,,null,,,,
null,is arguing with,,html-keyboard-response,120,497112,0.0-13.0-2.17,33694,List2B,white,woman,,,,null,,,,
10055,,,survey-text,121,507169,0.0-13.0-3.17,33694,List2B,white,woman,,,,,"{""Q0"":""ruth is arguing with Dave""}","<img src=""stim_listB/argue1.gif""style=""height:400px;""></stim_listB>",is arguing with,
null,"<div style=""font-size:60px;"">+</div>",,html-keyboard-response,122,507673,0.0-13.0-0.18,33694,List2B,white,woman,,,,null,,,,
null,"<img src=""stim_listB/dance4.gif""style=""height:400px;""></stim_listB>",,html-keyboard-response,123,509676,0.0-13.0-1.18,33694,List2B,white,woman,,,,null,,,,
null,are dancing with each other,,html-keyboard-response,124,511680,0.0-13.0-2.18,33694,List2B,white,woman,,,,null,,,,
10905,,,survey-text,125,522588,0.0-13.0-3.18,33694,List2B,white,woman,,,,,"{""Q0"":""Beth and mike are dancing with each other""}","<img src=""stim_listB/dance4.gif""style=""height:400px;""></stim_listB>",are dancing with each other,
null,"<div style=""font-size:60px;"">+</div>",,html-keyboard-response,126,523091,0.0-13.0-0.19,33694,List2B,white,woman,,,,null,,,,
null,"<img src=""stim_listB/shout2.gif""style=""height:400px;""></stim_listB>",,html-keyboard-response,127,525095,0.0-13.0-1.19,33694,List2B,white,woman,,,,null,,,,
null,are shouting at each other,,html-keyboard-response,128,527100,0.0-13.0-2.19,33694,List2B,white,woman,,,,null,,,,
9953,,,survey-text,129,537055,0.0-13.0-3.19,33694,List2B,white,woman,,,,,"{""Q0"":""Dave and Jane are shouting at each other""}","<img src=""stim_listB/shout2.gif""style=""height:400px;""></stim_listB>",are shouting at each other,
7335,"<img src='img/portrait_matrix_list2.jpg' style='width:900px;height:500px;''></img><p>If you have memorised all the portraits and names and are ready to start, press Continue.</p><p><strong>Please note: Your memory of these faces will be tested 4 times during this experiment.</strong></p>",0,html-button-response,130,544394,0.0-14.0-0.0,33694,List2B,white,woman,,,,,,,,
2313,"<img src=""portrait/WW1.jpg""style=""height:400px;""></img>",1,html-button-response,131,547712,0.0-14.0-1.0,33694,List2B,white,woman,,TRUE,1,,,,,
null,CORRECT,,html-keyboard-response,132,549217,0.0-14.0-2.0-0.0,33694,List2B,white,woman,,,,null,,,,
2284,"<img src=""portrait/WM1.jpg""style=""height:400px;""></img>",6,html-button-response,133,551504,0.0-14.0-4.0,33694,List2B,white,woman,,TRUE,6,,,,,
null,CORRECT,,html-keyboard-response,134,553008,0.0-14.0-5.0-0.0,33694,List2B,white,woman,,,,null,,,,
1355,"<img src=""portrait/WM2.jpg""style=""height:400px;""></img>",7,html-button-response,135,554366,0.0-14.0-7.0,33694,List2B,white,woman,,TRUE,7,,,,,
null,CORRECT,,html-keyboard-response,136,555871,0.0-14.0-8.0-0.0,33694,List2B,white,woman,,,,null,,,,
1640,"<img src=""portrait/BW2.jpg""style=""height:400px;""></img>",2,html-button-response,137,557514,0.0-14.0-10.0,33694,List2B,white,woman,,TRUE,2,,,,,
null,CORRECT,,html-keyboard-response,138,559019,0.0-14.0-11.0-0.0,33694,List2B,white,woman,,,,null,,,,
1947,"<img src=""portrait/WW2.jpg""style=""height:400px;""></img>",3,html-button-response,139,560968,0.0-14.0-13.0,33694,List2B,white,woman,,TRUE,3,,,,,
null,CORRECT,,html-keyboard-response,140,562472,0.0-14.0-14.0-0.0,33694,List2B,white,woman,,,,null,,,,
1855,"<img src=""portrait/BW1.jpg""style=""height:400px;""></img>",0,html-button-response,141,564331,0.0-14.0-16.0,33694,List2B,white,woman,,TRUE,0,,,,,
null,CORRECT,,html-keyboard-response,142,565835,0.0-14.0-17.0-0.0,33694,List2B,white,woman,,,,null,,,,
2042,"<img src=""portrait/BM2.jpg""style=""height:400px;""></img>",5,html-button-response,143,567881,0.0-14.0-19.0,33694,List2B,white,woman,,TRUE,5,,,,,
null,CORRECT,,html-keyboard-response,144,569385,0.0-14.0-20.0-0.0,33694,List2B,white,woman,,,,null,,,,
1285,"<img src=""portrait/BM1.jpg""style=""height:400px;""></img>",4,html-button-response,145,570671,0.0-14.0-22.0,33694,List2B,white,woman,,TRUE,4,,,,,
null,CORRECT,,html-keyboard-response,146,572175,0.0-14.0-23.0-0.0,33694,List2B,white,woman,,,,null,,,,
1521,<p>You got 8 out of 8 right first time. Press Continue.</p>,0,html-button-response,147,573698,0.0-14.0-25.0,33694,List2B,white,woman,,,,,,,,
null,"<div style=""font-size:60px;"">+</div>",,html-keyboard-response,148,575201,0.0-15.0-0.0,33694,List2B,white,woman,,,,null,,,,
null,"<img src=""stim_listB/marry2.gif""style=""height:400px;""></stim_listB>",,html-keyboard-response,149,577205,0.0-15.0-1.0,33694,List2B,white,woman,,,,null,,,,
null,are marrying each other,,html-keyboard-response,150,579208,0.0-15.0-2.0,33694,List2B,white,woman,,,,null,,,,
9070,,,survey-text,151,588280,0.0-15.0-3.0,33694,List2B,white,woman,,,,,"{""Q0"":""Luke and Jane are marrying each other""}","<img src=""stim_listB/marry2.gif""style=""height:400px;""></stim_listB>",are marrying each other,
null,"<div style=""font-size:60px;"">+</div>",,html-keyboard-response,152,588783,0.0-15.0-0.1,33694,List2B,white,woman,,,,null,,,,
null,"<img src=""stim_listB/touch3.gif""style=""height:400px;""></stim_listB>",,html-keyboard-response,153,590786,0.0-15.0-1.1,33694,List2B,white,woman,,,,null,,,,
null,is touching,,html-keyboard-response,154,592789,0.0-15.0-2.1,33694,List2B,white,woman,,,,null,,,,
11425,,,survey-text,155,604215,0.0-15.0-3.1,33694,List2B,white,woman,,,,,"{""Q0"":""mike and Kate are touching each other""}","<img src=""stim_listB/touch3.gif""style=""height:400px;""></stim_listB>",is touching,
null,"<div style=""font-size:60px;"">+</div>",,html-keyboard-response,156,604719,0.0-15.0-0.2,33694,List2B,white,woman,,,,null,,,,
null,"<img src=""stim_listB/fight8.gif""style=""height:400px;""></stim_listB>",,html-keyboard-response,157,606722,0.0-15.0-1.2,33694,List2B,white,woman,,,,null,,,,
null,are fighting each other,,html-keyboard-response,158,608726,0.0-15.0-2.2,33694,List2B,white,woman,,,,null,,,,
8183,,,survey-text,159,616909,0.0-15.0-3.2,33694,List2B,white,woman,,,,,"{""Q0"":""ruth and Beth are fighting each other""}","<img src=""stim_listB/fight8.gif""style=""height:400px;""></stim_listB>",are fighting each other,
null,"<div style=""font-size:60px;"">+</div>",,html-keyboard-response,160,617412,0.0-15.0-0.3,33694,List2B,white,woman,,,,null,,,,
null,"<img src=""stim_listB/shout7.gif""style=""height:400px;""></stim_listB>",,html-keyboard-response,161,619415,0.0-15.0-1.3,33694,List2B,white,woman,,,,null,,,,
null,is shouting at,,html-keyboard-response,162,621419,0.0-15.0-2.3,33694,List2B,white,woman,,,,null,,,,
5775,,,survey-text,163,627196,0.0-15.0-3.3,33694,List2B,white,woman,,,,,"{""Q0"":""ruth is shouting at Beth""}","<img src=""stim_listB/shout7.gif""style=""height:400px;""></stim_listB>",is shouting at,
null,"<div style=""font-size:60px;"">+</div>",,html-keyboard-response,164,627700,0.0-15.0-0.4,33694,List2B,white,woman,,,,null,,,,
null,"<img src=""stim_listB/talk8.gif""style=""height:400px;""></stim_listB>",,html-keyboard-response,165,629702,0.0-15.0-1.4,33694,List2B,white,woman,,,,null,,,,
null,are talking to each other,,html-keyboard-response,166,631705,0.0-15.0-2.4,33694,List2B,white,woman,,,,null,,,,
11464,,,survey-text,167,643170,0.0-15.0-3.4,33694,List2B,white,woman,,,,,"{""Q0"":""Beth and Jane are talking to each other""}","<img src=""stim_listB/talk8.gif""style=""height:400px;""></stim_listB>",are talking to each other,
null,"<div style=""font-size:60px;"">+</div>",,html-keyboard-response,168,643674,0.0-15.0-0.5,33694,List2B,white,woman,,,,null,,,,
null,"<img src=""stim_listB/talk7.gif""style=""height:400px;""></stim_listB>",,html-keyboard-response,169,645678,0.0-15.0-1.5,33694,List2B,white,woman,,,,null,,,,
null,is talking to,,html-keyboard-response,170,647680,0.0-15.0-2.5,33694,List2B,white,woman,,,,null,,,,
6848,,,survey-text,171,654530,0.0-15.0-3.5,33694,List2B,white,woman,,,,,"{""Q0"":""Kate is talking to ruth""}","<img src=""stim_listB/talk7.gif""style=""height:400px;""></stim_listB>",is talking to,
null,"<div style=""font-size:60px;"">+</div>",,html-keyboard-response,172,655033,0.0-15.0-0.6,33694,List2B,white,woman,,,,null,,,,
null,"<img src=""stim_listB/fight3.gif""style=""height:400px;""></stim_listB>",,html-keyboard-response,173,657037,0.0-15.0-1.6,33694,List2B,white,woman,,,,null,,,,
null,is fighting,,html-keyboard-response,174,659040,0.0-15.0-2.6,33694,List2B,white,woman,,,,null,,,,
5897,,,survey-text,175,664938,0.0-15.0-3.6,33694,List2B,white,woman,,,,,"{""Q0"":""Kate is fighting mike ""}","<img src=""stim_listB/fight3.gif""style=""height:400px;""></stim_listB>",is fighting,
null,"<div style=""font-size:60px;"">+</div>",,html-keyboard-response,176,665443,0.0-15.0-0.7,33694,List2B,white,woman,,,,null,,,,
null,"<img src=""stim_listB/kiss4.gif""style=""height:400px;""></stim_listB>",,html-keyboard-response,177,667451,0.0-15.0-1.7,33694,List2B,white,woman,,,,null,,,,
null,are kissing each other,,html-keyboard-response,178,669457,0.0-15.0-2.7,33694,List2B,white,woman,,,,null,,,,
7975,,,survey-text,179,677434,0.0-15.0-3.7,33694,List2B,white,woman,,,,,"{""Q0"":""Kate and mike are kissing each other""}","<img src=""stim_listB/kiss4.gif""style=""height:400px;""></stim_listB>",are kissing each other,
null,"<div style=""font-size:60px;"">+</div>",,html-keyboard-response,180,677938,0.0-15.0-0.8,33694,List2B,white,woman,,,,null,,,,
null,"<img src=""stim_listB/flirt7.gif""style=""height:400px;""></stim_listB>",,html-keyboard-response,181,679943,0.0-15.0-1.8,33694,List2B,white,woman,,,,null,,,,
null,is flirting with,,html-keyboard-response,182,681946,0.0-15.0-2.8,33694,List2B,white,woman,,,,null,,,,
7774,,,survey-text,183,689721,0.0-15.0-3.8,33694,List2B,white,woman,,,,,"{""Q0"":""ruth is flirting with Kate""}","<img src=""stim_listB/flirt7.gif""style=""height:400px;""></stim_listB>",is flirting with,
null,"<div style=""font-size:60px;"">+</div>",,html-keyboard-response,184,690225,0.0-15.0-0.9,33694,List2B,white,woman,,,,null,,,,
null,"<img src=""stim_listB/dance1.gif""style=""height:400px;""></stim_listB>",,html-keyboard-response,185,692230,0.0-15.0-1.9,33694,List2B,white,woman,,,,null,,,,
null,is dancing with,,html-keyboard-response,186,694233,0.0-15.0-2.9,33694,List2B,white,woman,,,,null,,,,
7900,,,survey-text,187,702134,0.0-15.0-3.9,33694,List2B,white,woman,,,,,"{""Q0"":""Luke is dancing with Jane""}","<img src=""stim_listB/dance1.gif""style=""height:400px;""></stim_listB>",is dancing with,
null,"<div style=""font-size:60px;"">+</div>",,html-keyboard-response,188,702640,0.0-15.0-0.10,33694,List2B,white,woman,,,,null,,,,
null,"<img src=""stim_listB/fight7.gif""style=""height:400px;""></stim_listB>",,html-keyboard-response,189,704645,0.0-15.0-1.10,33694,List2B,white,woman,,,,null,,,,
null,is fighting,,html-keyboard-response,190,706648,0.0-15.0-2.10,33694,List2B,white,woman,,,,null,,,,
5710,,,survey-text,191,712359,0.0-15.0-3.10,33694,List2B,white,woman,,,,,"{""Q0"":""Kate is fighting Jane""}","<img src=""stim_listB/fight7.gif""style=""height:400px;""></stim_listB>",is fighting,
null,"<div style=""font-size:60px;"">+</div>",,html-keyboard-response,192,712862,0.0-15.0-0.11,33694,List2B,white,woman,,,,null,,,,
null,"<img src=""stim_listB/dance5.gif""style=""height:400px;""></stim_listB>",,html-keyboard-response,193,714866,0.0-15.0-1.11,33694,List2B,white,woman,,,,null,,,,
null,is dancing with,,html-keyboard-response,194,716870,0.0-15.0-2.11,33694,List2B,white,woman,,,,null,,,,
7873,,,survey-text,195,724745,0.0-15.0-3.11,33694,List2B,white,woman,,,,,"{""Q0"":""mike is dancing with Luke""}","<img src=""stim_listB/dance5.gif""style=""height:400px;""></stim_listB>",is dancing with,
null,"<div style=""font-size:60px;"">+</div>",,html-keyboard-response,196,725249,0.0-15.0-0.12,33694,List2B,white,woman,,,,null,,,,
null,"<img src=""stim_listB/talk4.gif""style=""height:400px;""></stim_listB>",,html-keyboard-response,197,727252,0.0-15.0-1.12,33694,List2B,white,woman,,,,null,,,,
null,are talking to each other,,html-keyboard-response,198,729256,0.0-15.0-2.12,33694,List2B,white,woman,,,,null,,,,
9365,,,survey-text,199,738622,0.0-15.0-3.12,33694,List2B,white,woman,,,,,"{""Q0"":""mike and beth are talking to each other""}","<img src=""stim_listB/talk4.gif""style=""height:400px;""></stim_listB>",are talking to each other,
null,"<div style=""font-size:60px;"">+</div>",,html-keyboard-response,200,739125,0.0-15.0-0.13,33694,List2B,white,woman,,,,null,,,,
null,"<img src=""stim_listB/flirt3.gif""style=""height:400px;""></stim_listB>",,html-keyboard-response,201,741129,0.0-15.0-1.13,33694,List2B,white,woman,,,,null,,,,
null,is flirting with,,html-keyboard-response,202,743132,0.0-15.0-2.13,33694,List2B,white,woman,,,,null,,,,
7939,,,survey-text,203,751073,0.0-15.0-3.13,33694,List2B,white,woman,,,,,"{""Q0"":""Luke is flirting with Kate""}","<img src=""stim_listB/flirt3.gif""style=""height:400px;""></stim_listB>",is flirting with,
null,"<div style=""font-size:60px;"">+</div>",,html-keyboard-response,204,751576,0.0-15.0-0.14,33694,List2B,white,woman,,,,null,,,,
null,"<img src=""stim_listB/touch8.gif""style=""height:400px;""></stim_listB>",,html-keyboard-response,205,753580,0.0-15.0-1.14,33694,List2B,white,woman,,,,null,,,,
null,are touching each other,,html-keyboard-response,206,755583,0.0-15.0-2.14,33694,List2B,white,woman,,,,null,,,,
10515,,,survey-text,207,766099,0.0-15.0-3.14,33694,List2B,white,woman,,,,,"{""Q0"":""Beth nd ruth are touching each other""}","<img src=""stim_listB/touch8.gif""style=""height:400px;""></stim_listB>",are touching each other,
null,"<div style=""font-size:60px;"">+</div>",,html-keyboard-response,208,766603,0.0-15.0-0.15,33694,List2B,white,woman,,,,null,,,,
null,"<img src=""stim_listB/argue5.gif""style=""height:400px;""></stim_listB>",,html-keyboard-response,209,768606,0.0-15.0-1.15,33694,List2B,white,woman,,,,null,,,,
null,is arguing with,,html-keyboard-response,210,770609,0.0-15.0-2.15,33694,List2B,white,woman,,,,null,,,,
18529,,,survey-text,211,789142,0.0-15.0-3.15,33694,List2B,white,woman,,,,,"{""Q0"":""fred is arguing with Dave""}","<img src=""stim_listB/argue5.gif""style=""height:400px;""></stim_listB>",is arguing with,
null,"<div style=""font-size:60px;"">+</div>",,html-keyboard-response,212,789645,0.0-15.0-0.16,33694,List2B,white,woman,,,,null,,,,
null,"<img src=""stim_listB/marry4.gif""style=""height:400px;""></stim_listB>",,html-keyboard-response,213,791649,0.0-15.0-1.16,33694,List2B,white,woman,,,,null,,,,
null,are marrying each other,,html-keyboard-response,214,793654,0.0-15.0-2.16,33694,List2B,white,woman,,,,null,,,,
9859,,,survey-text,215,803516,0.0-15.0-3.16,33694,List2B,white,woman,,,,,"{""Q0"":""Kate and fred are marrying each other""}","<img src=""stim_listB/marry4.gif""style=""height:400px;""></stim_listB>",are marrying each other,
null,"<div style=""font-size:60px;"">+</div>",,html-keyboard-response,216,804020,0.0-15.0-0.17,33694,List2B,white,woman,,,,null,,,,
null,"<img src=""stim_listB/kiss2.gif""style=""height:400px;""></stim_listB>",,html-keyboard-response,217,806023,0.0-15.0-1.17,33694,List2B,white,woman,,,,null,,,,
null,are kissing each other,,html-keyboard-response,218,808027,0.0-15.0-2.17,33694,List2B,white,woman,,,,null,,,,
7947,,,survey-text,219,815975,0.0-15.0-3.17,33694,List2B,white,woman,,,,,"{""Q0"":""Jane and Dave are kissing each other""}","<img src=""stim_listB/kiss2.gif""style=""height:400px;""></stim_listB>",are kissing each other,
null,"<div style=""font-size:60px;"">+</div>",,html-keyboard-response,220,816478,0.0-15.0-0.18,33694,List2B,white,woman,,,,null,,,,
null,"<img src=""stim_listB/kiss6.gif""style=""height:400px;""></stim_listB>",,html-keyboard-response,221,818482,0.0-15.0-1.18,33694,List2B,white,woman,,,,null,,,,
null,are kissing each other,,html-keyboard-response,222,820484,0.0-15.0-2.18,33694,List2B,white,woman,,,,null,,,,
9227,,,survey-text,223,829714,0.0-15.0-3.18,33694,List2B,white,woman,,,,,"{""Q0"":""dave and mike are kissing each other""}","<img src=""stim_listB/kiss6.gif""style=""height:400px;""></stim_listB>",are kissing each other,
null,"<div style=""font-size:60px;"">+</div>",,html-keyboard-response,224,830218,0.0-15.0-0.19,33694,List2B,white,woman,,,,null,,,,
null,"<img src=""stim_listB/shout4.gif""style=""height:400px;""></stim_listB>",,html-keyboard-response,225,832221,0.0-15.0-1.19,33694,List2B,white,woman,,,,null,,,,
null,are shouting at each other,,html-keyboard-response,226,834224,0.0-15.0-2.19,33694,List2B,white,woman,,,,null,,,,
8077,,,survey-text,227,842303,0.0-15.0-3.19,33694,List2B,white,woman,,,,,"{""Q0"":""mike and Kate are shouting at each other""}","<img src=""stim_listB/shout4.gif""style=""height:400px;""></stim_listB>",are shouting at each other,
5434,"<img src='img/portrait_matrix_list2.jpg' style='width:900px;height:500px;''></img><p>If you have memorised all the portraits and names and are ready to start, press Continue.</p><p><strong>Please note: Your memory of these faces will be tested 4 times during this experiment.</strong></p>",0,html-button-response,228,847740,0.0-16.0-0.0,33694,List2B,white,woman,,,,,,,,
2212,"<img src=""portrait/WM1.jpg""style=""height:400px;""></img>",6,html-button-response,229,850955,0.0-16.0-1.0,33694,List2B,white,woman,,TRUE,6,,,,,
null,CORRECT,,html-keyboard-response,230,852460,0.0-16.0-2.0-0.0,33694,List2B,white,woman,,,,null,,,,
1736,"<img src=""portrait/BM2.jpg""style=""height:400px;""></img>",5,html-button-response,231,854199,0.0-16.0-4.0,33694,List2B,white,woman,,TRUE,5,,,,,
null,CORRECT,,html-keyboard-response,232,855703,0.0-16.0-5.0-0.0,33694,List2B,white,woman,,,,null,,,,
1640,"<img src=""portrait/WM2.jpg""style=""height:400px;""></img>",7,html-button-response,233,857346,0.0-16.0-7.0,33694,List2B,white,woman,,TRUE,7,,,,,
null,CORRECT,,html-keyboard-response,234,858849,0.0-16.0-8.0-0.0,33694,List2B,white,woman,,,,null,,,,
1397,"<img src=""portrait/WW1.jpg""style=""height:400px;""></img>",1,html-button-response,235,860249,0.0-16.0-10.0,33694,List2B,white,woman,,TRUE,1,,,,,
null,CORRECT,,html-keyboard-response,236,861754,0.0-16.0-11.0-0.0,33694,List2B,white,woman,,,,null,,,,
1630,"<img src=""portrait/WW2.jpg""style=""height:400px;""></img>",3,html-button-response,237,863386,0.0-16.0-13.0,33694,List2B,white,woman,,TRUE,3,,,,,
null,CORRECT,,html-keyboard-response,238,864890,0.0-16.0-14.0-0.0,33694,List2B,white,woman,,,,null,,,,
2022,"<img src=""portrait/BW1.jpg""style=""height:400px;""></img>",0,html-button-response,239,866914,0.0-16.0-16.0,33694,List2B,white,woman,,TRUE,0,,,,,
null,CORRECT,,html-keyboard-response,240,868418,0.0-16.0-17.0-0.0,33694,List2B,white,woman,,,,null,,,,
1466,"<img src=""portrait/BW2.jpg""style=""height:400px;""></img>",2,html-button-response,241,869887,0.0-16.0-19.0,33694,List2B,white,woman,,TRUE,2,,,,,
null,CORRECT,,html-keyboard-response,242,871390,0.0-16.0-20.0-0.0,33694,List2B,white,woman,,,,null,,,,
1827,"<img src=""portrait/BM1.jpg""style=""height:400px;""></img>",4,html-button-response,243,873220,0.0-16.0-22.0,33694,List2B,white,woman,,TRUE,4,,,,,
null,CORRECT,,html-keyboard-response,244,874725,0.0-16.0-23.0-0.0,33694,List2B,white,woman,,,,null,,,,
1563,<p>You got 8 out of 8 right first time. Press Continue.</p>,0,html-button-response,245,876291,0.0-16.0-25.0,33694,List2B,white,woman,,,,,,,,
null,"<div style=""font-size:60px;"">+</div>",,html-keyboard-response,246,877795,0.0-17.0-0.0,33694,List2B,white,woman,,,,null,,,,
null,"<img src=""stim_listB/shout1.gif""style=""height:400px;""></stim_listB>",,html-keyboard-response,247,879798,0.0-17.0-1.0,33694,List2B,white,woman,,,,null,,,,
null,is shouting at,,html-keyboard-response,248,881802,0.0-17.0-2.0,33694,List2B,white,woman,,,,null,,,,
10215,,,survey-text,249,892019,0.0-17.0-3.0,33694,List2B,white,woman,,,,,"{""Q0"":""ruth is shouting at Luke""}","<img src=""stim_listB/shout1.gif""style=""height:400px;""></stim_listB>",is shouting at,
null,"<div style=""font-size:60px;"">+</div>",,html-keyboard-response,250,892523,0.0-17.0-0.1,33694,List2B,white,woman,,,,null,,,,
null,"<img src=""stim_listB/dance7.gif""style=""height:400px;""></stim_listB>",,html-keyboard-response,251,894527,0.0-17.0-1.1,33694,List2B,white,woman,,,,null,,,,
null,is dancing with,,html-keyboard-response,252,896529,0.0-17.0-2.1,33694,List2B,white,woman,,,,null,,,,
6874,,,survey-text,253,903404,0.0-17.0-3.1,33694,List2B,white,woman,,,,,"{""Q0"":""ruth is dancing with Kate""}","<img src=""stim_listB/dance7.gif""style=""height:400px;""></stim_listB>",is dancing with,
null,"<div style=""font-size:60px;"">+</div>",,html-keyboard-response,254,903908,0.0-17.0-0.2,33694,List2B,white,woman,,,,null,,,,
null,"<img src=""stim_listB/play6.gif""style=""height:400px;""></stim_listB>",,html-keyboard-response,255,905911,0.0-17.0-1.2,33694,List2B,white,woman,,,,null,,,,
null,are playing with each other,,html-keyboard-response,256,907914,0.0-17.0-2.2,33694,List2B,white,woman,,,,null,,,,
11303,,,survey-text,257,919219,0.0-17.0-3.2,33694,List2B,white,woman,,,,,"{""Q0"":""Luke and fred are playing with each other""}","<img src=""stim_listB/play6.gif""style=""height:400px;""></stim_listB>",are playing with each other,
null,"<div style=""font-size:60px;"">+</div>",,html-keyboard-response,258,919722,0.0-17.0-0.3,33694,List2B,white,woman,,,,null,,,,
null,"<img src=""stim_listB/argue4.gif""style=""height:400px;""></stim_listB>",,html-keyboard-response,259,921725,0.0-17.0-1.3,33694,List2B,white,woman,,,,null,,,,
null,are arguing with each other,,html-keyboard-response,260,923729,0.0-17.0-2.3,33694,List2B,white,woman,,,,null,,,,
8949,,,survey-text,261,932681,0.0-17.0-3.3,33694,List2B,white,woman,,,,,"{""Q0"":""fred and Kate are arguing with each other""}","<img src=""stim_listB/argue4.gif""style=""height:400px;""></stim_listB>",are arguing with each other,
null,"<div style=""font-size:60px;"">+</div>",,html-keyboard-response,262,933184,0.0-17.0-0.4,33694,List2B,white,woman,,,,null,,,,
null,"<img src=""stim_listB/marry1.gif""style=""height:400px;""></stim_listB>",,html-keyboard-response,263,935188,0.0-17.0-1.4,33694,List2B,white,woman,,,,null,,,,
null,is marrying,,html-keyboard-response,264,937191,0.0-17.0-2.4,33694,List2B,white,woman,,,,null,,,,
5974,,,survey-text,265,943166,0.0-17.0-3.4,33694,List2B,white,woman,,,,,"{""Q0"":""Dave is marrying ruth""}","<img src=""stim_listB/marry1.gif""style=""height:400px;""></stim_listB>",is marrying,
null,"<div style=""font-size:60px;"">+</div>",,html-keyboard-response,266,943670,0.0-17.0-0.5,33694,List2B,white,woman,,,,null,,,,
null,"<img src=""stim_listB/flirt4.gif""style=""height:400px;""></stim_listB>",,html-keyboard-response,267,945674,0.0-17.0-1.5,33694,List2B,white,woman,,,,null,,,,
null,are flirting with each other,,html-keyboard-response,268,947677,0.0-17.0-2.5,33694,List2B,white,woman,,,,null,,,,
9701,,,survey-text,269,957380,0.0-17.0-3.5,33694,List2B,white,woman,,,,,"{""Q0"":""Beth and mike are flirting""}","<img src=""stim_listB/flirt4.gif""style=""height:400px;""></stim_listB>",are flirting with each other,
null,"<div style=""font-size:60px;"">+</div>",,html-keyboard-response,270,957883,0.0-17.0-0.6,33694,List2B,white,woman,,,,null,,,,
null,"<img src=""stim_listB/marry5.gif""style=""height:400px;""></stim_listB>",,html-keyboard-response,271,959887,0.0-17.0-1.6,33694,List2B,white,woman,,,,null,,,,
null,is marrying,,html-keyboard-response,272,961890,0.0-17.0-2.6,33694,List2B,white,woman,,,,null,,,,
7671,,,survey-text,273,969562,0.0-17.0-3.6,33694,List2B,white,woman,,,,,"{""Q0"":""Dave is marrying fred""}","<img src=""stim_listB/marry5.gif""style=""height:400px;""></stim_listB>",is marrying,
null,"<div style=""font-size:60px;"">+</div>",,html-keyboard-response,274,970066,0.0-17.0-0.7,33694,List2B,white,woman,,,,null,,,,
null,"<img src=""stim_listB/dance3.gif""style=""height:400px;""></stim_listB>",,html-keyboard-response,275,972069,0.0-17.0-1.7,33694,List2B,white,woman,,,,null,,,,
null,is dancing with,,html-keyboard-response,276,974073,0.0-17.0-2.7,33694,List2B,white,woman,,,,null,,,,
10357,,,survey-text,277,984434,0.0-17.0-3.7,33694,List2B,white,woman,,,,,"{""Q0"":""Kate is dancing with fred""}","<img src=""stim_listB/dance3.gif""style=""height:400px;""></stim_listB>",is dancing with,
null,"<div style=""font-size:60px;"">+</div>",,html-keyboard-response,278,984938,0.0-17.0-0.8,33694,List2B,white,woman,,,,null,,,,
null,"<img src=""stim_listB/dance8.gif""style=""height:400px;""></stim_listB>",,html-keyboard-response,279,986941,0.0-17.0-1.8,33694,List2B,white,woman,,,,null,,,,
null,are dancing with each other,,html-keyboard-response,280,988944,0.0-17.0-2.8,33694,List2B,white,woman,,,,null,,,,
7006,,,survey-text,281,995952,0.0-17.0-3.8,33694,List2B,white,woman,,,,,"{""Q0"":""Beth and Jane are dancing""}","<img src=""stim_listB/dance8.gif""style=""height:400px;""></stim_listB>",are dancing with each other,
null,"<div style=""font-size:60px;"">+</div>",,html-keyboard-response,282,996455,0.0-17.0-0.9,33694,List2B,white,woman,,,,null,,,,
null,"<img src=""stim_listB/flirt6.gif""style=""height:400px;""></stim_listB>",,html-keyboard-response,283,998459,0.0-17.0-1.9,33694,List2B,white,woman,,,,null,,,,
null,are flirting with each other,,html-keyboard-response,284,1000462,0.0-17.0-2.9,33694,List2B,white,woman,,,,null,,,,
17348,,,survey-text,285,1017812,0.0-17.0-3.9,33694,List2B,white,woman,,,,,"{""Q0"":""Dave and fred are flirting with each other""}","<img src=""stim_listB/flirt6.gif""style=""height:400px;""></stim_listB>",are flirting with each other,
null,"<div style=""font-size:60px;"">+</div>",,html-keyboard-response,286,1018315,0.0-17.0-0.10,33694,List2B,white,woman,,,,null,,,,
null,"<img src=""stim_listB/marry6.gif""style=""height:400px;""></stim_listB>",,html-keyboard-response,287,1020318,0.0-17.0-1.10,33694,List2B,white,woman,,,,null,,,,
null,are marrying each other,,html-keyboard-response,288,1022321,0.0-17.0-2.10,33694,List2B,white,woman,,,,null,,,,
9102,,,survey-text,289,1031424,0.0-17.0-3.10,33694,List2B,white,woman,,,,,"{""Q0"":""luke and mike are marrying each other""}","<img src=""stim_listB/marry6.gif""style=""height:400px;""></stim_listB>",are marrying each other,
null,"<div style=""font-size:60px;"">+</div>",,html-keyboard-response,290,1031927,0.0-17.0-0.11,33694,List2B,white,woman,,,,null,,,,
null,"<img src=""stim_listB/fight4.gif""style=""height:400px;""></stim_listB>",,html-keyboard-response,291,1033931,0.0-17.0-1.11,33694,List2B,white,woman,,,,null,,,,
null,are fighting each other,,html-keyboard-response,292,1035933,0.0-17.0-2.11,33694,List2B,white,woman,,,,null,,,,
8668,,,survey-text,293,1044603,0.0-17.0-3.11,33694,List2B,white,woman,,,,,"{""Q0"":""Beth nd fred are fighting each other""}","<img src=""stim_listB/fight4.gif""style=""height:400px;""></stim_listB>",are fighting each other,
null,"<div style=""font-size:60px;"">+</div>",,html-keyboard-response,294,1045106,0.0-17.0-0.12,33694,List2B,white,woman,,,,null,,,,
null,"<img src=""stim_listB/shout5.gif""style=""height:400px;""></stim_listB>",,html-keyboard-response,295,1047110,0.0-17.0-1.12,33694,List2B,white,woman,,,,null,,,,
null,is shouting at,,html-keyboard-response,296,1049113,0.0-17.0-2.12,33694,List2B,white,woman,,,,null,,,,
9280,,,survey-text,297,1058395,0.0-17.0-3.12,33694,List2B,white,woman,,,,,"{""Q0"":""Luke is shouting at fred""}","<img src=""stim_listB/shout5.gif""style=""height:400px;""></stim_listB>",is shouting at,
null,"<div style=""font-size:60px;"">+</div>",,html-keyboard-response,298,1058897,0.0-17.0-0.13,33694,List2B,white,woman,,,,null,,,,
null,"<img src=""stim_listB/shout6.gif""style=""height:400px;""></stim_listB>",,html-keyboard-response,299,1060901,0.0-17.0-1.13,33694,List2B,white,woman,,,,null,,,,
null,are shouting at each other,,html-keyboard-response,300,1062904,0.0-17.0-2.13,33694,List2B,white,woman,,,,null,,,,
7885,,,survey-text,301,1070790,0.0-17.0-3.13,33694,List2B,white,woman,,,,,"{""Q0"":""mike and Dave are shouting at each other""}","<img src=""stim_listB/shout6.gif""style=""height:400px;""></stim_listB>",are shouting at each other,
null,"<div style=""font-size:60px;"">+</div>",,html-keyboard-response,302,1071293,0.0-17.0-0.14,33694,List2B,white,woman,,,,null,,,,
null,"<img src=""stim_listB/argue7.gif""style=""height:400px;""></stim_listB>",,html-keyboard-response,303,1073297,0.0-17.0-1.14,33694,List2B,white,woman,,,,null,,,,
null,is arguing with,,html-keyboard-response,304,1075300,0.0-17.0-2.14,33694,List2B,white,woman,,,,null,,,,
7433,,,survey-text,305,1082734,0.0-17.0-3.14,33694,List2B,white,woman,,,,,"{""Q0"":""Jane is arguing with Beth""}","<img src=""stim_listB/argue7.gif""style=""height:400px;""></stim_listB>",is arguing with,
null,"<div style=""font-size:60px;"">+</div>",,html-keyboard-response,306,1083238,0.0-17.0-0.15,33694,List2B,white,woman,,,,null,,,,
null,"<img src=""stim_listB/touch1.gif""style=""height:400px;""></stim_listB>",,html-keyboard-response,307,1085241,0.0-17.0-1.15,33694,List2B,white,woman,,,,null,,,,
null,is touching,,html-keyboard-response,308,1087245,0.0-17.0-2.15,33694,List2B,white,woman,,,,null,,,,
9291,,,survey-text,309,1096537,0.0-17.0-3.15,33694,List2B,white,woman,,,,,"{""Q0"":""Jane is touching Dave""}","<img src=""stim_listB/touch1.gif""style=""height:400px;""></stim_listB>",is touching,
null,"<div style=""font-size:60px;"">+</div>",,html-keyboard-response,310,1097041,0.0-17.0-0.16,33694,List2B,white,woman,,,,null,,,,
null,"<img src=""stim_listB/argue3.gif""style=""height:400px;""></stim_listB>",,html-keyboard-response,311,1099045,0.0-17.0-1.16,33694,List2B,white,woman,,,,null,,,,
null,is arguing with,,html-keyboard-response,312,1101048,0.0-17.0-2.16,33694,List2B,white,woman,,,,null,,,,
6146,,,survey-text,313,1107195,0.0-17.0-3.16,33694,List2B,white,woman,,,,,"{""Q0"":""mike is arguing with Beth""}","<img src=""stim_listB/argue3.gif""style=""height:400px;""></stim_listB>",is arguing with,
null,"<div style=""font-size:60px;"">+</div>",,html-keyboard-response,314,1107699,0.0-17.0-0.17,33694,List2B,white,woman,,,,null,,,,
null,"<img src=""stim_listB/touch5.gif""style=""height:400px;""></stim_listB>",,html-keyboard-response,315,1109703,0.0-17.0-1.17,33694,List2B,white,woman,,,,null,,,,
null,is touching,,html-keyboard-response,316,1111706,0.0-17.0-2.17,33694,List2B,white,woman,,,,null,,,,
10696,,,survey-text,317,1122403,0.0-17.0-3.17,33694,List2B,white,woman,,,,,"{""Q0"":""Dave is toucan mike""}","<img src=""stim_listB/touch5.gif""style=""height:400px;""></stim_listB>",is touching,
null,"<div style=""font-size:60px;"">+</div>",,html-keyboard-response,318,1122906,0.0-17.0-0.18,33694,List2B,white,woman,,,,null,,,,
null,"<img src=""stim_listB/flirt2.gif""style=""height:400px;""></stim_listB>",,html-keyboard-response,319,1124910,0.0-17.0-1.18,33694,List2B,white,woman,,,,null,,,,
null,are flirting with each other,,html-keyboard-response,320,1126913,0.0-17.0-2.18,33694,List2B,white,woman,,,,null,,,,
7408,,,survey-text,321,1134322,0.0-17.0-3.18,33694,List2B,white,woman,,,,,"{""Q0"":""Dave and ruth are flirting""}","<img src=""stim_listB/flirt2.gif""style=""height:400px;""></stim_listB>",are flirting with each other,
null,"<div style=""font-size:60px;"">+</div>",,html-keyboard-response,322,1134826,0.0-17.0-0.19,33694,List2B,white,woman,,,,null,,,,
null,"<img src=""stim_listB/kiss3.gif""style=""height:400px;""></stim_listB>",,html-keyboard-response,323,1136828,0.0-17.0-1.19,33694,List2B,white,woman,,,,null,,,,
null,is kissing,,html-keyboard-response,324,1138832,0.0-17.0-2.19,33694,List2B,white,woman,,,,null,,,,
6040,,,survey-text,325,1144872,0.0-17.0-3.19,33694,List2B,white,woman,,,,,"{""Q0"":""Beth is kissing fred""}","<img src=""stim_listB/kiss3.gif""style=""height:400px;""></stim_listB>",is kissing,
2131,"<img src='img/portrait_matrix_list2.jpg' style='width:900px;height:500px;''></img><p>If you have memorised all the portraits and names and are ready to start, press Continue.</p><p><strong>Please note: Your memory of these faces will be tested 4 times during this experiment.</strong></p>",0,html-button-response,326,1147005,0.0-18.0-0.0,33694,List2B,white,woman,,,,,,,,
2069,"<img src=""portrait/WM1.jpg""style=""height:400px;""></img>",6,html-button-response,327,1150079,0.0-18.0-1.0,33694,List2B,white,woman,,TRUE,6,,,,,
null,CORRECT,,html-keyboard-response,328,1151583,0.0-18.0-2.0-0.0,33694,List2B,white,woman,,,,null,,,,
1827,"<img src=""portrait/WW2.jpg""style=""height:400px;""></img>",3,html-button-response,329,1153413,0.0-18.0-4.0,33694,List2B,white,woman,,TRUE,3,,,,,
null,CORRECT,,html-keyboard-response,330,1154917,0.0-18.0-5.0-0.0,33694,List2B,white,woman,,,,null,,,,
1207,"<img src=""portrait/BW2.jpg""style=""height:400px;""></img>",2,html-button-response,331,1156126,0.0-18.0-7.0,33694,List2B,white,woman,,TRUE,2,,,,,
null,CORRECT,,html-keyboard-response,332,1157630,0.0-18.0-8.0-0.0,33694,List2B,white,woman,,,,null,,,,
2041,"<img src=""portrait/BM1.jpg""style=""height:400px;""></img>",4,html-button-response,333,1159674,0.0-18.0-10.0,33694,List2B,white,woman,,TRUE,4,,,,,
null,CORRECT,,html-keyboard-response,334,1161179,0.0-18.0-11.0-0.0,33694,List2B,white,woman,,,,null,,,,
1883,"<img src=""portrait/BM2.jpg""style=""height:400px;""></img>",5,html-button-response,335,1163068,0.0-18.0-13.0,33694,List2B,white,woman,,TRUE,5,,,,,
null,CORRECT,,html-keyboard-response,336,1164572,0.0-18.0-14.0-0.0,33694,List2B,white,woman,,,,null,,,,
1243,"<img src=""portrait/WM2.jpg""style=""height:400px;""></img>",7,html-button-response,337,1165819,0.0-18.0-16.0,33694,List2B,white,woman,,TRUE,7,,,,,
null,CORRECT,,html-keyboard-response,338,1167323,0.0-18.0-17.0-0.0,33694,List2B,white,woman,,,,null,,,,
2414,"<img src=""portrait/WW1.jpg""style=""height:400px;""></img>",1,html-button-response,339,1169740,0.0-18.0-19.0,33694,List2B,white,woman,,TRUE,1,,,,,
null,CORRECT,,html-keyboard-response,340,1171244,0.0-18.0-20.0-0.0,33694,List2B,white,woman,,,,null,,,,
1462,"<img src=""portrait/BW1.jpg""style=""height:400px;""></img>",0,html-button-response,341,1172708,0.0-18.0-22.0,33694,List2B,white,woman,,TRUE,0,,,,,
null,CORRECT,,html-keyboard-response,342,1174213,0.0-18.0-23.0-0.0,33694,List2B,white,woman,,,,null,,,,
1438,<p>You got 8 out of 8 right first time. Press Continue.</p>,0,html-button-response,343,1175653,0.0-18.0-25.0,33694,List2B,white,woman,,,,,,,,
null,"<div style=""font-size:60px;"">+</div>",,html-keyboard-response,344,1177158,0.0-19.0-0.0,33694,List2B,white,woman,,,,null,,,,
null,"<img src=""stim_listB/flirt1.gif""style=""height:400px;""></stim_listB>",,html-keyboard-response,345,1179163,0.0-19.0-1.0,33694,List2B,white,woman,,,,null,,,,
null,is flirting with,,html-keyboard-response,346,1181167,0.0-19.0-2.0,33694,List2B,white,woman,,,,null,,,,
7350,,,survey-text,347,1188518,0.0-19.0-3.0,33694,List2B,white,woman,,,,,"{""Q0"":""Luke is flirting with Jane""}","<img src=""stim_listB/flirt1.gif""style=""height:400px;""></stim_listB>",is flirting with,
null,"<div style=""font-size:60px;"">+</div>",,html-keyboard-response,348,1189022,0.0-19.0-0.1,33694,List2B,white,woman,,,,null,,,,
null,"<img src=""stim_listB/kiss1.gif""style=""height:400px;""></stim_listB>",,html-keyboard-response,349,1191024,0.0-19.0-1.1,33694,List2B,white,woman,,,,null,,,,
null,is kissing,,html-keyboard-response,350,1193030,0.0-19.0-2.1,33694,List2B,white,woman,,,,null,,,,
5692,,,survey-text,351,1198723,0.0-19.0-3.1,33694,List2B,white,woman,,,,,"{""Q0"":""Luke is kissing ruth""}","<img src=""stim_listB/kiss1.gif""style=""height:400px;""></stim_listB>",is kissing,
null,"<div style=""font-size:60px;"">+</div>",,html-keyboard-response,352,1199226,0.0-19.0-0.2,33694,List2B,white,woman,,,,null,,,,
null,"<img src=""stim_listB/play4.gif""style=""height:400px;""></stim_listB>",,html-keyboard-response,353,1201230,0.0-19.0-1.2,33694,List2B,white,woman,,,,null,,,,
null,are playing with each other,,html-keyboard-response,354,1203233,0.0-19.0-2.2,33694,List2B,white,woman,,,,null,,,,
9610,,,survey-text,355,1212845,0.0-19.0-3.2,33694,List2B,white,woman,,,,,"{""Q0"":""Beth nd fred are playing each other""}","<img src=""stim_listB/play4.gif""style=""height:400px;""></stim_listB>",are playing with each other,
null,"<div style=""font-size:60px;"">+</div>",,html-keyboard-response,356,1213348,0.0-19.0-0.3,33694,List2B,white,woman,,,,null,,,,
null,"<img src=""stim_listB/touch7.gif""style=""height:400px;""></stim_listB>",,html-keyboard-response,357,1215352,0.0-19.0-1.3,33694,List2B,white,woman,,,,null,,,,
null,is touching,,html-keyboard-response,358,1217355,0.0-19.0-2.3,33694,List2B,white,woman,,,,null,,,,
5799,,,survey-text,359,1223155,0.0-19.0-3.3,33694,List2B,white,woman,,,,,"{""Q0"":""Kate is touching Jane""}","<img src=""stim_listB/touch7.gif""style=""height:400px;""></stim_listB>",is touching,
null,"<div style=""font-size:60px;"">+</div>",,html-keyboard-response,360,1223658,0.0-19.0-0.4,33694,List2B,white,woman,,,,null,,,,
null,"<img src=""stim_listB/kiss7.gif""style=""height:400px;""></stim_listB>",,html-keyboard-response,361,1225662,0.0-19.0-1.4,33694,List2B,white,woman,,,,null,,,,
null,is kissing,,html-keyboard-response,362,1227665,0.0-19.0-2.4,33694,List2B,white,woman,,,,null,,,,
6024,,,survey-text,363,1233690,0.0-19.0-3.4,33694,List2B,white,woman,,,,,"{""Q0"":""ruth is kissing Beth""}","<img src=""stim_listB/kiss7.gif""style=""height:400px;""></stim_listB>",is kissing,
null,"<div style=""font-size:60px;"">+</div>",,html-keyboard-response,364,1234194,0.0-19.0-0.5,33694,List2B,white,woman,,,,null,,,,
null,"<img src=""stim_listB/argue2.gif""style=""height:400px;""></stim_listB>",,html-keyboard-response,365,1236198,0.0-19.0-1.5,33694,List2B,white,woman,,,,null,,,,
null,are arguing with each other,,html-keyboard-response,366,1238200,0.0-19.0-2.5,33694,List2B,white,woman,,,,null,,,,
9641,,,survey-text,367,1247843,0.0-19.0-3.5,33694,List2B,white,woman,,,,,"{""Q0"":""Jane and mike are arguing with each other""}","<img src=""stim_listB/argue2.gif""style=""height:400px;""></stim_listB>",are arguing with each other,
null,"<div style=""font-size:60px;"">+</div>",,html-keyboard-response,368,1248346,0.0-19.0-0.6,33694,List2B,white,woman,,,,null,,,,
null,"<img src=""stim_listB/flirt8.gif""style=""height:400px;""></stim_listB>",,html-keyboard-response,369,1250350,0.0-19.0-1.6,33694,List2B,white,woman,,,,null,,,,
null,are flirting with each other,,html-keyboard-response,370,1252353,0.0-19.0-2.6,33694,List2B,white,woman,,,,null,,,,
8233,,,survey-text,371,1260587,0.0-19.0-3.6,33694,List2B,white,woman,,,,,"{""Q0"":""Beth and Jane are flirting with each other""}","<img src=""stim_listB/flirt8.gif""style=""height:400px;""></stim_listB>",are flirting with each other,
null,"<div style=""font-size:60px;"">+</div>",,html-keyboard-response,372,1261091,0.0-19.0-0.7,33694,List2B,white,woman,,,,null,,,,
null,"<img src=""stim_listB/touch2.gif""style=""height:400px;""></stim_listB>",,html-keyboard-response,373,1263094,0.0-19.0-1.7,33694,List2B,white,woman,,,,null,,,,
null,are touching each other,,html-keyboard-response,374,1265098,0.0-19.0-2.7,33694,List2B,white,woman,,,,null,,,,
9833,,,survey-text,375,1274932,0.0-19.0-3.7,33694,List2B,white,woman,,,,,"{""Q0"":""Luke and ruth are touching each other""}","<img src=""stim_listB/touch2.gif""style=""height:400px;""></stim_listB>",are touching each other,
null,"<div style=""font-size:60px;"">+</div>",,html-keyboard-response,376,1275435,0.0-19.0-0.8,33694,List2B,white,woman,,,,null,,,,
null,"<img src=""stim_listB/touch4.gif""style=""height:400px;""></stim_listB>",,html-keyboard-response,377,1277438,0.0-19.0-1.8,33694,List2B,white,woman,,,,null,,,,
null,are touching each other,,html-keyboard-response,378,1279442,0.0-19.0-2.8,33694,List2B,white,woman,,,,null,,,,
10848,,,survey-text,379,1290292,0.0-19.0-3.8,33694,List2B,white,woman,,,,,"{""Q0"":""fred and Beth are toucjing""}","<img src=""stim_listB/touch4.gif""style=""height:400px;""></stim_listB>",are touching each other,
null,"<div style=""font-size:60px;"">+</div>",,html-keyboard-response,380,1290796,0.0-19.0-0.9,33694,List2B,white,woman,,,,null,,,,
null,"<img src=""stim_listB/dance2.gif""style=""height:400px;""></stim_listB>",,html-keyboard-response,381,1292799,0.0-19.0-1.9,33694,List2B,white,woman,,,,null,,,,
null,are dancing with each other,,html-keyboard-response,382,1294803,0.0-19.0-2.9,33694,List2B,white,woman,,,,null,,,,
8730,,,survey-text,383,1303536,0.0-19.0-3.9,33694,List2B,white,woman,,,,,"{""Q0"":""ruth and Dave are dancing with each other""}","<img src=""stim_listB/dance2.gif""style=""height:400px;""></stim_listB>",are dancing with each other,
null,"<div style=""font-size:60px;"">+</div>",,html-keyboard-response,384,1304040,0.0-19.0-0.10,33694,List2B,white,woman,,,,null,,,,
null,"<img src=""stim_listB/dance6.gif""style=""height:400px;""></stim_listB>",,html-keyboard-response,385,1306043,0.0-19.0-1.10,33694,List2B,white,woman,,,,null,,,,
null,are dancing with each other,,html-keyboard-response,386,1308047,0.0-19.0-2.10,33694,List2B,white,woman,,,,null,,,,
9074,,,survey-text,387,1317123,0.0-19.0-3.10,33694,List2B,white,woman,,,,,"{""Q0"":""fred and Dave are dancing with each other""}","<img src=""stim_listB/dance6.gif""style=""height:400px;""></stim_listB>",are dancing with each other,
null,"<div style=""font-size:60px;"">+</div>",,html-keyboard-response,388,1317626,0.0-19.0-0.11,33694,List2B,white,woman,,,,null,,,,
null,"<img src=""stim_listB/play7.gif""style=""height:400px;""></stim_listB>",,html-keyboard-response,389,1319630,0.0-19.0-1.11,33694,List2B,white,woman,,,,null,,,,
null,is playing with,,html-keyboard-response,390,1321633,0.0-19.0-2.11,33694,List2B,white,woman,,,,null,,,,
7006,,,survey-text,391,1328643,0.0-19.0-3.11,33694,List2B,white,woman,,,,,"{""Q0"":""Jane is playing with Kate""}","<img src=""stim_listB/play7.gif""style=""height:400px;""></stim_listB>",is playing with,
null,"<div style=""font-size:60px;"">+</div>",,html-keyboard-response,392,1329148,0.0-19.0-0.12,33694,List2B,white,woman,,,,null,,,,
null,"<img src=""stim_listB/talk1.gif""style=""height:400px;""></stim_listB>",,html-keyboard-response,393,1331151,0.0-19.0-1.12,33694,List2B,white,woman,,,,null,,,,
null,is talking to,,html-keyboard-response,394,1333154,0.0-19.0-2.12,33694,List2B,white,woman,,,,null,,,,
6364,,,survey-text,395,1339519,0.0-19.0-3.12,33694,List2B,white,woman,,,,,"{""Q0"":""Jane is talking to Luke""}","<img src=""stim_listB/talk1.gif""style=""height:400px;""></stim_listB>",is talking to,
null,"<div style=""font-size:60px;"">+</div>",,html-keyboard-response,396,1340022,0.0-19.0-0.13,33694,List2B,white,woman,,,,null,,,,
null,"<img src=""stim_listB/touch6.gif""style=""height:400px;""></stim_listB>",,html-keyboard-response,397,1342025,0.0-19.0-1.13,33694,List2B,white,woman,,,,null,,,,
null,are touching each other,,html-keyboard-response,398,1344028,0.0-19.0-2.13,33694,List2B,white,woman,,,,null,,,,
13602,,,survey-text,399,1357631,0.0-19.0-3.13,33694,List2B,white,woman,,,,,"{""Q0"":""Luke and fred are touching each other""}","<img src=""stim_listB/touch6.gif""style=""height:400px;""></stim_listB>",are touching each other,
null,"<div style=""font-size:60px;"">+</div>",,html-keyboard-response,400,1358135,0.0-19.0-0.14,33694,List2B,white,woman,,,,null,,,,
null,"<img src=""stim_listB/play1.gif""style=""height:400px;""></stim_listB>",,html-keyboard-response,401,1360139,0.0-19.0-1.14,33694,List2B,white,woman,,,,null,,,,
null,is playing with,,html-keyboard-response,402,1362145,0.0-19.0-2.14,33694,List2B,white,woman,,,,null,,,,
7021,,,survey-text,403,1369167,0.0-19.0-3.14,33694,List2B,white,woman,,,,,"{""Q0"":""Jane is playing with dave""}","<img src=""stim_listB/play1.gif""style=""height:400px;""></stim_listB>",is playing with,
null,"<div style=""font-size:60px;"">+</div>",,html-keyboard-response,404,1369670,0.0-19.0-0.15,33694,List2B,white,woman,,,,null,,,,
null,"<img src=""stim_listB/shout3.gif""style=""height:400px;""></stim_listB>",,html-keyboard-response,405,1371674,0.0-19.0-1.15,33694,List2B,white,woman,,,,null,,,,
null,is shouting at,,html-keyboard-response,406,1373677,0.0-19.0-2.15,33694,List2B,white,woman,,,,null,,,,
5864,,,survey-text,407,1379543,0.0-19.0-3.15,33694,List2B,white,woman,,,,,"{""Q0"":""fred is shouting at Beth""}","<img src=""stim_listB/shout3.gif""style=""height:400px;""></stim_listB>",is shouting at,
null,"<div style=""font-size:60px;"">+</div>",,html-keyboard-response,408,1380046,0.0-19.0-0.16,33694,List2B,white,woman,,,,null,,,,
null,"<img src=""stim_listB/talk3.gif""style=""height:400px;""></stim_listB>",,html-keyboard-response,409,1382049,0.0-19.0-1.16,33694,List2B,white,woman,,,,null,,,,
null,is talking to,,html-keyboard-response,410,1384053,0.0-19.0-2.16,33694,List2B,white,woman,,,,null,,,,
5587,,,survey-text,411,1389643,0.0-19.0-3.16,33694,List2B,white,woman,,,,,"{""Q0"":""fred is talking to Kate""}","<img src=""stim_listB/talk3.gif""style=""height:400px;""></stim_listB>",is talking to,
null,"<div style=""font-size:60px;"">+</div>",,html-keyboard-response,412,1390146,0.0-19.0-0.17,33694,List2B,white,woman,,,,null,,,,
null,"<img src=""stim_listB/fight1.gif""style=""height:400px;""></stim_listB>",,html-keyboard-response,413,1392150,0.0-19.0-1.17,33694,List2B,white,woman,,,,null,,,,
null,is fighting,,html-keyboard-response,414,1394153,0.0-19.0-2.17,33694,List2B,white,woman,,,,null,,,,
5004,,,survey-text,415,1399159,0.0-19.0-3.17,33694,List2B,white,woman,,,,,"{""Q0"":""Jane is fighting Dave""}","<img src=""stim_listB/fight1.gif""style=""height:400px;""></stim_listB>",is fighting,
null,"<div style=""font-size:60px;"">+</div>",,html-keyboard-response,416,1399662,0.0-19.0-0.18,33694,List2B,white,woman,,,,null,,,,
null,"<img src=""stim_listB/marry3.gif""style=""height:400px;""></stim_listB>",,html-keyboard-response,417,1401666,0.0-19.0-1.18,33694,List2B,white,woman,,,,null,,,,
null,is marrying,,html-keyboard-response,418,1403670,0.0-19.0-2.18,33694,List2B,white,woman,,,,null,,,,
5267,,,survey-text,419,1408938,0.0-19.0-3.18,33694,List2B,white,woman,,,,,"{""Q0"":""mike is marrying Beth""}","<img src=""stim_listB/marry3.gif""style=""height:400px;""></stim_listB>",is marrying,
null,"<div style=""font-size:60px;"">+</div>",,html-keyboard-response,420,1409442,0.0-19.0-0.19,33694,List2B,white,woman,,,,null,,,,
null,"<img src=""stim_listB/fight6.gif""style=""height:400px;""></stim_listB>",,html-keyboard-response,421,1411446,0.0-19.0-1.19,33694,List2B,white,woman,,,,null,,,,
null,are fighting each other,,html-keyboard-response,422,1413449,0.0-19.0-2.19,33694,List2B,white,woman,,,,null,,,,
7416,,,survey-text,423,1420866,0.0-19.0-3.19,33694,List2B,white,woman,,,,,"{""Q0"":""fred and Luke are fighting each other""}","<img src=""stim_listB/fight6.gif""style=""height:400px;""></stim_listB>",are fighting each other,
1576,<p>Thank you for completing that task.</p><p>The final part of this session is a short questionnaire.</p><p>Press Continue.</p>,0,html-button-response,424,1422444,0.0-20.0,33694,List2B,white,woman,,,,,,,,
34605,,,survey-text,425,1458053,0.0-21.0,33694,List2B,white,woman,,,,,"{""Q0"":""36"",""Q1"":""english"",""Q2"":""English"",""Q3"":""england"",""Q4"":""White British"",""Q5"":""female""}",,,demographics
6753,,,survey-likert,426,1464810,0.0-22.0,33694,List2B,white,woman,,,,,"{""Q0"":4}",,,likert_ESS
4892,,,survey-likert,427,1469707,0.0-23.0,33694,List2B,white,woman,,,,,"{""Q0"":4}",,,likert_NSSAL_Q1
2980,,,survey-likert,428,1472691,0.0-24.0,33694,List2B,white,woman,,,,,"{""Q0"":4}",,,likert_NSSAL_Q2
3963,,,survey-likert,429,1476660,0.0-25.0,33694,List2B,white,woman,,,,,"{""Q0"":4}",,,likert_CGRS_Q1
2746,,,survey-likert,430,1479410,0.0-26.0,33694,List2B,white,woman,,,,,"{""Q0"":4}",,,likert_CGRS_Q2
3260,,,survey-likert,431,1482675,0.0-27.0,33694,List2B,white,woman,,,,,"{""Q0"":4}",,,likert_CGRS_Q3
3857,,,survey-text,432,1486534,0.0-28.0,33694,List2B,white,woman,,,,,"{""Q0"":""ccc""}",,,worker_id
21223,,,external-html,433,1507829,0.0-29.0,33694,List2B,white,woman,debrief.html,,,,,,,
