rt,stimulus,button_pressed,trial_type,trial_index,time_elapsed,internal_node_id,subject,list,ppt_race,ppt_gender,url,first_guess,correct,key_press,responses,image_type,phrase_type,test_part
4303,Welcome to the experiment. Press Continue to begin.,0,html-button-response,0,4311,0.0-0.0,34419,List1B,white,woman,,,,,,,,
82283,,,external-html,1,87754,0.0-1.0,34419,List1B,white,woman,consent.html,,,,,,,
22474,"<p>On the next page, you will see portraits of 8 people and their names.</p><p>Your first task is to take a few minutes to memorise the names of these people.</p><p>You will have to recall their names during the rest of the experiment, so it is</p><p>essential that you try to memorise these people and their names as best as you can.</p><br><p><strong>You will then be tested on your memory of these names and portraits.</strong></p><br><p>The experiment will start after you have completed this memory test.</p><br><p>Ready?</p>",0,html-button-response,2,110230,0.0-2.0,34419,List1B,white,woman,,,,,,,,
255117,"<img src='img/portrait_matrix_list1.jpg' style='width:900px;height:500px;''></img><p>If you have memorised all the portraits and names and are ready to start, press Continue.</p><p><strong>Please note: Your memory of these faces will be tested 4 times during this experiment.</strong></p>",0,html-button-response,3,366351,0.0-3.0-0.0,34419,List1B,white,woman,,,,,,,,
10506,"<img src=""portrait/BW1.jpg""style=""height:400px;""></img>",0,html-button-response,4,377868,0.0-3.0-1.0,34419,List1B,white,woman,,TRUE,0,,,,,
null,CORRECT,,html-keyboard-response,5,379391,0.0-3.0-2.0-0.0,34419,List1B,white,woman,,,,null,,,,
4799,"<img src=""portrait/BM1.jpg""style=""height:400px;""></img>",4,html-button-response,6,384194,0.0-3.0-4.0,34419,List1B,white,woman,,TRUE,4,,,,,
null,CORRECT,,html-keyboard-response,7,385698,0.0-3.0-5.0-0.0,34419,List1B,white,woman,,,,null,,,,
6436,"<img src=""portrait/BM2.jpg""style=""height:400px;""></img>",5,html-button-response,8,392138,0.0-3.0-7.0,34419,List1B,white,woman,,TRUE,5,,,,,
null,CORRECT,,html-keyboard-response,9,393645,0.0-3.0-8.0-0.0,34419,List1B,white,woman,,,,null,,,,
3363,"<img src=""portrait/WM2.jpg""style=""height:400px;""></img>",7,html-button-response,10,397012,0.0-3.0-10.0,34419,List1B,white,woman,,TRUE,7,,,,,
null,CORRECT,,html-keyboard-response,11,398525,0.0-3.0-11.0-0.0,34419,List1B,white,woman,,,,null,,,,
3092,"<img src=""portrait/WM1.jpg""style=""height:400px;""></img>",6,html-button-response,12,401620,0.0-3.0-13.0,34419,List1B,white,woman,,TRUE,6,,,,,
null,CORRECT,,html-keyboard-response,13,403139,0.0-3.0-14.0-0.0,34419,List1B,white,woman,,,,null,,,,
4136,"<img src=""portrait/WW2.jpg""style=""height:400px;""></img>",3,html-button-response,14,407279,0.0-3.0-16.0,34419,List1B,white,woman,,TRUE,3,,,,,
null,CORRECT,,html-keyboard-response,15,408782,0.0-3.0-17.0-0.0,34419,List1B,white,woman,,,,null,,,,
4416,"<img src=""portrait/WW1.jpg""style=""height:400px;""></img>",1,html-button-response,16,413200,0.0-3.0-19.0,34419,List1B,white,woman,,TRUE,1,,,,,
null,CORRECT,,html-keyboard-response,17,414724,0.0-3.0-20.0-0.0,34419,List1B,white,woman,,,,null,,,,
2730,"<img src=""portrait/BW2.jpg""style=""height:400px;""></img>",2,html-button-response,18,417456,0.0-3.0-22.0,34419,List1B,white,woman,,TRUE,2,,,,,
null,CORRECT,,html-keyboard-response,19,418972,0.0-3.0-23.0-0.0,34419,List1B,white,woman,,,,null,,,,
3412,<p>You got 8 out of 8 right first time. Press Continue.</p>,0,html-button-response,20,422388,0.0-3.0-25.0,34419,List1B,white,woman,,,,,,,,
50580,"<p>In this experiment, you will view photographs of the people from the memory game interacting.</p><p>By using the <strong>exact</strong> phrase given <i>after</i> the photograph appears and recalling the correct names of the people in the photographs, form a sentence describing the interaction. You do not need to capitalise names.</p><p>Type your answer in the space provided. Please complete every sentence before moving onto the next trial.</p><p>You will only have a few seconds to memorise each given photograph and phrase before you can respond, so try your best to focus.</p><p>An example is given below. Press 'Continue' when you are ready.</p><img src='img/speaking_example.jpg' style='width:800px;height:460px;''></img>",0,html-button-response,21,473975,0.0-4.0,34419,List1B,white,woman,,,,,,,,
5954,"<p>Before the experiment starts, you will watch two example trials. Press 'Continue'.</p>",0,html-button-response,22,480939,0.0-5.0,34419,List1B,white,woman,,,,,,,,
null,<img src='img/meet_eg.gif' style='height:400px;''></img>,,html-keyboard-response,23,483943,0.0-6.0,34419,List1B,white,woman,,,,null,,,,
null,<p>is meeting</p>,,html-keyboard-response,24,485947,0.0-7.0,34419,List1B,white,woman,,,,null,,,,
17170,<p><b>Answer:</b> kate is meeting beth</p>,0,html-button-response,25,503120,0.0-8.0,34419,List1B,white,woman,,,,,,,,
null,<img src='img/look_eg.gif' style='height:400px;''></img>,,html-keyboard-response,26,506124,0.0-9.0,34419,List1B,white,woman,,,,null,,,,
null,<p>are looking at each other</p>,,html-keyboard-response,27,508128,0.0-10.0,34419,List1B,white,woman,,,,null,,,,
9071,<p><b>Answer:</b> luke and dave are looking at each other</p>,0,html-button-response,28,517201,0.0-11.0,34419,List1B,white,woman,,,,,,,,
58934,"<p>Ready to start the experiment?</p><br><p><strong>Remember to describe the picture using a full sentence,</strong></p><p><strong>that combines the names of the people with the <i>exact</i> phrase given.</strong></p><p><strong>To receive full payment you must do this correctly.</strong></p><p><strong> You do not need to capitalise names or use punctuation.</strong></p><br><p>Press 'Continue' to begin.</p>",0,html-button-response,29,577139,0.0-12.0,34419,List1B,white,woman,,,,,,,,
null,"<div style=""font-size:60px;"">+</div>",,html-keyboard-response,30,578643,0.0-13.0-0.0,34419,List1B,white,woman,,,,null,,,,
null,"<img src=""stim_listB/marry6.gif""style=""height:400px;""></stim_listB>",,html-keyboard-response,31,580648,0.0-13.0-1.0,34419,List1B,white,woman,,,,null,,,,
null,are marrying each other,,html-keyboard-response,32,582667,0.0-13.0-2.0,34419,List1B,white,woman,,,,null,,,,
34192,,,survey-text,33,616862,0.0-13.0-3.0,34419,List1B,white,woman,,,,,"{""Q0"":""Fred is talking to Dave""}","<img src=""stim_listB/marry6.gif""style=""height:400px;""></stim_listB>",are marrying each other,
null,"<div style=""font-size:60px;"">+</div>",,html-keyboard-response,34,617365,0.0-13.0-0.1,34419,List1B,white,woman,,,,null,,,,
null,"<img src=""stim_listB/flirt6.gif""style=""height:400px;""></stim_listB>",,html-keyboard-response,35,619367,0.0-13.0-1.1,34419,List1B,white,woman,,,,null,,,,
null,are flirting with each other,,html-keyboard-response,36,621369,0.0-13.0-2.1,34419,List1B,white,woman,,,,null,,,,
45640,,,survey-text,37,667011,0.0-13.0-3.1,34419,List1B,white,woman,,,,,"{""Q0"":""Dave and mike are talking to each other""}","<img src=""stim_listB/flirt6.gif""style=""height:400px;""></stim_listB>",are flirting with each other,
null,"<div style=""font-size:60px;"">+</div>",,html-keyboard-response,38,667530,0.0-13.0-0.2,34419,List1B,white,woman,,,,null,,,,
null,"<img src=""stim_listB/talk3.gif""style=""height:400px;""></stim_listB>",,html-keyboard-response,39,669536,0.0-13.0-1.2,34419,List1B,white,woman,,,,null,,,,
null,is talking to,,html-keyboard-response,40,671540,0.0-13.0-2.2,34419,List1B,white,woman,,,,null,,,,
23165,,,survey-text,41,694707,0.0-13.0-3.2,34419,List1B,white,woman,,,,,"{""Q0"":""Jane is talking to Luke""}","<img src=""stim_listB/talk3.gif""style=""height:400px;""></stim_listB>",is talking to,
null,"<div style=""font-size:60px;"">+</div>",,html-keyboard-response,42,695222,0.0-13.0-0.3,34419,List1B,white,woman,,,,null,,,,
null,"<img src=""stim_listB/touch5.gif""style=""height:400px;""></stim_listB>",,html-keyboard-response,43,697225,0.0-13.0-1.3,34419,List1B,white,woman,,,,null,,,,
null,is touching,,html-keyboard-response,44,699240,0.0-13.0-2.3,34419,List1B,white,woman,,,,null,,,,
17175,,,survey-text,45,716417,0.0-13.0-3.3,34419,List1B,white,woman,,,,,"{""Q0"":""Mike is touching dave""}","<img src=""stim_listB/touch5.gif""style=""height:400px;""></stim_listB>",is touching,
null,"<div style=""font-size:60px;"">+</div>",,html-keyboard-response,46,716920,0.0-13.0-0.4,34419,List1B,white,woman,,,,null,,,,
null,"<img src=""stim_listB/marry2.gif""style=""height:400px;""></stim_listB>",,html-keyboard-response,47,718924,0.0-13.0-1.4,34419,List1B,white,woman,,,,null,,,,
null,are marrying each other,,html-keyboard-response,48,720926,0.0-13.0-2.4,34419,List1B,white,woman,,,,null,,,,
20929,,,survey-text,49,741857,0.0-13.0-3.4,34419,List1B,white,woman,,,,,"{""Q0"":""Fred and Jane are marrying each other""}","<img src=""stim_listB/marry2.gif""style=""height:400px;""></stim_listB>",are marrying each other,
null,"<div style=""font-size:60px;"">+</div>",,html-keyboard-response,50,742358,0.0-13.0-0.5,34419,List1B,white,woman,,,,null,,,,
null,"<img src=""stim_listB/kiss3.gif""style=""height:400px;""></stim_listB>",,html-keyboard-response,51,744371,0.0-13.0-1.5,34419,List1B,white,woman,,,,null,,,,
null,is kissing,,html-keyboard-response,52,746373,0.0-13.0-2.5,34419,List1B,white,woman,,,,null,,,,
28429,,,survey-text,53,774805,0.0-13.0-3.5,34419,List1B,white,woman,,,,,"{""Q0"":""Luke and Jane are kissing each other""}","<img src=""stim_listB/kiss3.gif""style=""height:400px;""></stim_listB>",is kissing,
null,"<div style=""font-size:60px;"">+</div>",,html-keyboard-response,54,775318,0.0-13.0-0.6,34419,List1B,white,woman,,,,null,,,,
null,"<img src=""stim_listB/play6.gif""style=""height:400px;""></stim_listB>",,html-keyboard-response,55,777330,0.0-13.0-1.6,34419,List1B,white,woman,,,,null,,,,
null,are playing with each other,,html-keyboard-response,56,779339,0.0-13.0-2.6,34419,List1B,white,woman,,,,null,,,,
25754,,,survey-text,57,805096,0.0-13.0-3.6,34419,List1B,white,woman,,,,,"{""Q0"":""Fred and Luke are playing with each other""}","<img src=""stim_listB/play6.gif""style=""height:400px;""></stim_listB>",are playing with each other,
null,"<div style=""font-size:60px;"">+</div>",,html-keyboard-response,58,805599,0.0-13.0-0.7,34419,List1B,white,woman,,,,null,,,,
null,"<img src=""stim_listB/talk6.gif""style=""height:400px;""></stim_listB>",,html-keyboard-response,59,807602,0.0-13.0-1.7,34419,List1B,white,woman,,,,null,,,,
null,are talking to each other,,html-keyboard-response,60,809604,0.0-13.0-2.7,34419,List1B,white,woman,,,,null,,,,
26575,,,survey-text,61,836182,0.0-13.0-3.7,34419,List1B,white,woman,,,,,"{""Q0"":""Luke and Mike are talking to each other""}","<img src=""stim_listB/talk6.gif""style=""height:400px;""></stim_listB>",are talking to each other,
null,"<div style=""font-size:60px;"">+</div>",,html-keyboard-response,62,836685,0.0-13.0-0.8,34419,List1B,white,woman,,,,null,,,,
null,"<img src=""stim_listB/kiss7.gif""style=""height:400px;""></stim_listB>",,html-keyboard-response,63,838706,0.0-13.0-1.8,34419,List1B,white,woman,,,,null,,,,
null,is kissing,,html-keyboard-response,64,840723,0.0-13.0-2.8,34419,List1B,white,woman,,,,null,,,,
19299,,,survey-text,65,860024,0.0-13.0-3.8,34419,List1B,white,woman,,,,,"{""Q0"":""Beth is kissing Jane""}","<img src=""stim_listB/kiss7.gif""style=""height:400px;""></stim_listB>",is kissing,
null,"<div style=""font-size:60px;"">+</div>",,html-keyboard-response,66,860530,0.0-13.0-0.9,34419,List1B,white,woman,,,,null,,,,
null,"<img src=""stim_listB/kiss6.gif""style=""height:400px;""></stim_listB>",,html-keyboard-response,67,862534,0.0-13.0-1.9,34419,List1B,white,woman,,,,null,,,,
null,are kissing each other,,html-keyboard-response,68,864537,0.0-13.0-2.9,34419,List1B,white,woman,,,,null,,,,
34396,,,survey-text,69,898935,0.0-13.0-3.9,34419,List1B,white,woman,,,,,"{""Q0"":""Mike and luke are kissing each other""}","<img src=""stim_listB/kiss6.gif""style=""height:400px;""></stim_listB>",are kissing each other,
null,"<div style=""font-size:60px;"">+</div>",,html-keyboard-response,70,899453,0.0-13.0-0.10,34419,List1B,white,woman,,,,null,,,,
null,"<img src=""stim_listB/marry1.gif""style=""height:400px;""></stim_listB>",,html-keyboard-response,71,901456,0.0-13.0-1.10,34419,List1B,white,woman,,,,null,,,,
null,is marrying,,html-keyboard-response,72,903473,0.0-13.0-2.10,34419,List1B,white,woman,,,,null,,,,
17309,,,survey-text,73,920784,0.0-13.0-3.10,34419,List1B,white,woman,,,,,"{""Q0"":""Beth is marrying Luke""}","<img src=""stim_listB/marry1.gif""style=""height:400px;""></stim_listB>",is marrying,
null,"<div style=""font-size:60px;"">+</div>",,html-keyboard-response,74,921287,0.0-13.0-0.11,34419,List1B,white,woman,,,,null,,,,
null,"<img src=""stim_listB/play3.gif""style=""height:400px;""></stim_listB>",,html-keyboard-response,75,923291,0.0-13.0-1.11,34419,List1B,white,woman,,,,null,,,,
null,is playing with,,html-keyboard-response,76,925296,0.0-13.0-2.11,34419,List1B,white,woman,,,,null,,,,
20247,,,survey-text,77,945545,0.0-13.0-3.11,34419,List1B,white,woman,,,,,"{""Q0"":""Jane is playing with dave""}","<img src=""stim_listB/play3.gif""style=""height:400px;""></stim_listB>",is playing with,
null,"<div style=""font-size:60px;"">+</div>",,html-keyboard-response,78,946049,0.0-13.0-0.12,34419,List1B,white,woman,,,,null,,,,
null,"<img src=""stim_listB/talk2.gif""style=""height:400px;""></stim_listB>",,html-keyboard-response,79,948056,0.0-13.0-1.12,34419,List1B,white,woman,,,,null,,,,
null,are talking to each other,,html-keyboard-response,80,950058,0.0-13.0-2.12,34419,List1B,white,woman,,,,null,,,,
28314,,,survey-text,81,978374,0.0-13.0-3.12,34419,List1B,white,woman,,,,,"{""Q0"":""luke and beth are talking to each other""}","<img src=""stim_listB/talk2.gif""style=""height:400px;""></stim_listB>",are talking to each other,
null,"<div style=""font-size:60px;"">+</div>",,html-keyboard-response,82,978885,0.0-13.0-0.13,34419,List1B,white,woman,,,,null,,,,
null,"<img src=""stim_listB/fight1.gif""style=""height:400px;""></stim_listB>",,html-keyboard-response,83,980888,0.0-13.0-1.13,34419,List1B,white,woman,,,,null,,,,
null,is fighting,,html-keyboard-response,84,982890,0.0-13.0-2.13,34419,List1B,white,woman,,,,null,,,,
22877,,,survey-text,85,1005769,0.0-13.0-3.13,34419,List1B,white,woman,,,,,"{""Q0"":""Mike is fighting kate""}","<img src=""stim_listB/fight1.gif""style=""height:400px;""></stim_listB>",is fighting,
null,"<div style=""font-size:60px;"">+</div>",,html-keyboard-response,86,1006271,0.0-13.0-0.14,34419,List1B,white,woman,,,,null,,,,
null,"<img src=""stim_listB/play7.gif""style=""height:400px;""></stim_listB>",,html-keyboard-response,87,1008275,0.0-13.0-1.14,34419,List1B,white,woman,,,,null,,,,
null,is playing with,,html-keyboard-response,88,1010279,0.0-13.0-2.14,34419,List1B,white,woman,,,,null,,,,
17043,,,survey-text,89,1027324,0.0-13.0-3.14,34419,List1B,white,woman,,,,,"{""Q0"":""Kate is playing with Jane""}","<img src=""stim_listB/play7.gif""style=""height:400px;""></stim_listB>",is playing with,
null,"<div style=""font-size:60px;"">+</div>",,html-keyboard-response,90,1027829,0.0-13.0-0.15,34419,List1B,white,woman,,,,null,,,,
null,"<img src=""stim_listB/fight5.gif""style=""height:400px;""></stim_listB>",,html-keyboard-response,91,1029847,0.0-13.0-1.15,34419,List1B,white,woman,,,,null,,,,
null,is fighting,,html-keyboard-response,92,1031854,0.0-13.0-2.15,34419,List1B,white,woman,,,,null,,,,
23301,,,survey-text,93,1055157,0.0-13.0-3.15,34419,List1B,white,woman,,,,,"{""Q0"":""dave is fighting mike""}","<img src=""stim_listB/fight5.gif""style=""height:400px;""></stim_listB>",is fighting,
null,"<div style=""font-size:60px;"">+</div>",,html-keyboard-response,94,1055667,0.0-13.0-0.16,34419,List1B,white,woman,,,,null,,,,
null,"<img src=""stim_listB/argue4.gif""style=""height:400px;""></stim_listB>",,html-keyboard-response,95,1057670,0.0-13.0-1.16,34419,List1B,white,woman,,,,null,,,,
null,are arguing with each other,,html-keyboard-response,96,1059672,0.0-13.0-2.16,34419,List1B,white,woman,,,,null,,,,
28064,,,survey-text,97,1087738,0.0-13.0-3.16,34419,List1B,white,woman,,,,,"{""Q0"":""jane and luke are arguing with each other""}","<img src=""stim_listB/argue4.gif""style=""height:400px;""></stim_listB>",are arguing with each other,
null,"<div style=""font-size:60px;"">+</div>",,html-keyboard-response,98,1088253,0.0-13.0-0.17,34419,List1B,white,woman,,,,null,,,,
null,"<img src=""stim_listB/shout7.gif""style=""height:400px;""></stim_listB>",,html-keyboard-response,99,1090258,0.0-13.0-1.17,34419,List1B,white,woman,,,,null,,,,
null,is shouting at,,html-keyboard-response,100,1092264,0.0-13.0-2.17,34419,List1B,white,woman,,,,null,,,,
17214,,,survey-text,101,1109480,0.0-13.0-3.17,34419,List1B,white,woman,,,,,"{""Q0"":""beth is shouting at jane""}","<img src=""stim_listB/shout7.gif""style=""height:400px;""></stim_listB>",is shouting at,
null,"<div style=""font-size:60px;"">+</div>",,html-keyboard-response,102,1109983,0.0-13.0-0.18,34419,List1B,white,woman,,,,null,,,,
null,"<img src=""stim_listB/talk4.gif""style=""height:400px;""></stim_listB>",,html-keyboard-response,103,1111986,0.0-13.0-1.18,34419,List1B,white,woman,,,,null,,,,
null,are talking to each other,,html-keyboard-response,104,1113989,0.0-13.0-2.18,34419,List1B,white,woman,,,,null,,,,
19892,,,survey-text,105,1133883,0.0-13.0-3.18,34419,List1B,white,woman,,,,,"{""Q0"":""jane and Dave are talking to each other""}","<img src=""stim_listB/talk4.gif""style=""height:400px;""></stim_listB>",are talking to each other,
null,"<div style=""font-size:60px;"">+</div>",,html-keyboard-response,106,1134385,0.0-13.0-0.19,34419,List1B,white,woman,,,,null,,,,
null,"<img src=""stim_listB/shout2.gif""style=""height:400px;""></stim_listB>",,html-keyboard-response,107,1136389,0.0-13.0-1.19,34419,List1B,white,woman,,,,null,,,,
null,are shouting at each other,,html-keyboard-response,108,1138405,0.0-13.0-2.19,34419,List1B,white,woman,,,,null,,,,
19029,,,survey-text,109,1157436,0.0-13.0-3.19,34419,List1B,white,woman,,,,,"{""Q0"":""mike and kate are shouting at each other""}","<img src=""stim_listB/shout2.gif""style=""height:400px;""></stim_listB>",are shouting at each other,
140787,"<img src='img/portrait_matrix_list1.jpg' style='width:900px;height:500px;''></img><p>If you have memorised all the portraits and names and are ready to start, press Continue.</p><p><strong>Please note: Your memory of these faces will be tested 4 times during this experiment.</strong></p>",0,html-button-response,110,1298226,0.0-14.0-0.0,34419,List1B,white,woman,,,,,,,,
4357,"<img src=""portrait/BW1.jpg""style=""height:400px;""></img>",0,html-button-response,111,1303593,0.0-14.0-1.0,34419,List1B,white,woman,,TRUE,0,,,,,
null,CORRECT,,html-keyboard-response,112,1305099,0.0-14.0-2.0-0.0,34419,List1B,white,woman,,,,null,,,,
2565,"<img src=""portrait/WW1.jpg""style=""height:400px;""></img>",1,html-button-response,113,1307666,0.0-14.0-4.0,34419,List1B,white,woman,,TRUE,1,,,,,
null,CORRECT,,html-keyboard-response,114,1309170,0.0-14.0-5.0-0.0,34419,List1B,white,woman,,,,null,,,,
3330,"<img src=""portrait/WM1.jpg""style=""height:400px;""></img>",6,html-button-response,115,1312503,0.0-14.0-7.0,34419,List1B,white,woman,,TRUE,6,,,,,
null,CORRECT,,html-keyboard-response,116,1314007,0.0-14.0-8.0-0.0,34419,List1B,white,woman,,,,null,,,,
3135,"<img src=""portrait/BW2.jpg""style=""height:400px;""></img>",2,html-button-response,117,1317144,0.0-14.0-10.0,34419,List1B,white,woman,,TRUE,2,,,,,
null,CORRECT,,html-keyboard-response,118,1318648,0.0-14.0-11.0-0.0,34419,List1B,white,woman,,,,null,,,,
3957,"<img src=""portrait/WM2.jpg""style=""height:400px;""></img>",7,html-button-response,119,1322609,0.0-14.0-13.0,34419,List1B,white,woman,,TRUE,7,,,,,
null,CORRECT,,html-keyboard-response,120,1324130,0.0-14.0-14.0-0.0,34419,List1B,white,woman,,,,null,,,,
5305,"<img src=""portrait/BM1.jpg""style=""height:400px;""></img>",4,html-button-response,121,1329437,0.0-14.0-16.0,34419,List1B,white,woman,,TRUE,4,,,,,
null,CORRECT,,html-keyboard-response,122,1330958,0.0-14.0-17.0-0.0,34419,List1B,white,woman,,,,null,,,,
2979,"<img src=""portrait/BM2.jpg""style=""height:400px;""></img>",5,html-button-response,123,1333941,0.0-14.0-19.0,34419,List1B,white,woman,,TRUE,5,,,,,
null,CORRECT,,html-keyboard-response,124,1335452,0.0-14.0-20.0-0.0,34419,List1B,white,woman,,,,null,,,,
3665,"<img src=""portrait/WW2.jpg""style=""height:400px;""></img>",3,html-button-response,125,1339119,0.0-14.0-22.0,34419,List1B,white,woman,,TRUE,3,,,,,
null,CORRECT,,html-keyboard-response,126,1340623,0.0-14.0-23.0-0.0,34419,List1B,white,woman,,,,null,,,,
3458,<p>You got 8 out of 8 right first time. Press Continue.</p>,0,html-button-response,127,1344084,0.0-14.0-25.0,34419,List1B,white,woman,,,,,,,,
null,"<div style=""font-size:60px;"">+</div>",,html-keyboard-response,128,1345590,0.0-15.0-0.0,34419,List1B,white,woman,,,,null,,,,
null,"<img src=""stim_listB/flirt3.gif""style=""height:400px;""></stim_listB>",,html-keyboard-response,129,1347596,0.0-15.0-1.0,34419,List1B,white,woman,,,,null,,,,
null,is flirting with,,html-keyboard-response,130,1349599,0.0-15.0-2.0,34419,List1B,white,woman,,,,null,,,,
16253,,,survey-text,131,1365853,0.0-15.0-3.0,34419,List1B,white,woman,,,,,"{""Q0"":""Luke is flirting with jane""}","<img src=""stim_listB/flirt3.gif""style=""height:400px;""></stim_listB>",is flirting with,
null,"<div style=""font-size:60px;"">+</div>",,html-keyboard-response,132,1366356,0.0-15.0-0.1,34419,List1B,white,woman,,,,null,,,,
null,"<img src=""stim_listB/kiss5.gif""style=""height:400px;""></stim_listB>",,html-keyboard-response,133,1368360,0.0-15.0-1.1,34419,List1B,white,woman,,,,null,,,,
null,is kissing,,html-keyboard-response,134,1370373,0.0-15.0-2.1,34419,List1B,white,woman,,,,null,,,,
33067,,,survey-text,135,1403442,0.0-15.0-3.1,34419,List1B,white,woman,,,,,"{""Q0"":""Fred is kissing luke""}","<img src=""stim_listB/kiss5.gif""style=""height:400px;""></stim_listB>",is kissing,
null,"<div style=""font-size:60px;"">+</div>",,html-keyboard-response,136,1403944,0.0-15.0-0.2,34419,List1B,white,woman,,,,null,,,,
null,"<img src=""stim_listB/dance2.gif""style=""height:400px;""></stim_listB>",,html-keyboard-response,137,1405948,0.0-15.0-1.2,34419,List1B,white,woman,,,,null,,,,
null,are dancing with each other,,html-keyboard-response,138,1407951,0.0-15.0-2.2,34419,List1B,white,woman,,,,null,,,,
25574,,,survey-text,139,1433527,0.0-15.0-3.2,34419,List1B,white,woman,,,,,"{""Q0"":""beth and mike are dancing with each other""}","<img src=""stim_listB/dance2.gif""style=""height:400px;""></stim_listB>",are dancing with each other,
null,"<div style=""font-size:60px;"">+</div>",,html-keyboard-response,140,1434030,0.0-15.0-0.3,34419,List1B,white,woman,,,,null,,,,
null,"<img src=""stim_listB/play4.gif""style=""height:400px;""></stim_listB>",,html-keyboard-response,141,1436035,0.0-15.0-1.3,34419,List1B,white,woman,,,,null,,,,
null,are playing with each other,,html-keyboard-response,142,1438038,0.0-15.0-2.3,34419,List1B,white,woman,,,,null,,,,
55177,,,survey-text,143,1493217,0.0-15.0-3.3,34419,List1B,white,woman,,,,,"{""Q0"":""Jane and Luke are playing with each other""}","<img src=""stim_listB/play4.gif""style=""height:400px;""></stim_listB>",are playing with each other,
null,"<div style=""font-size:60px;"">+</div>",,html-keyboard-response,144,1493720,0.0-15.0-0.4,34419,List1B,white,woman,,,,null,,,,
null,"<img src=""stim_listB/fight6.gif""style=""height:400px;""></stim_listB>",,html-keyboard-response,145,1495723,0.0-15.0-1.4,34419,List1B,white,woman,,,,null,,,,
null,are fighting each other,,html-keyboard-response,146,1497731,0.0-15.0-2.4,34419,List1B,white,woman,,,,null,,,,
18769,,,survey-text,147,1516502,0.0-15.0-3.4,34419,List1B,white,woman,,,,,"{""Q0"":""Fred and luke are fighting  each other""}","<img src=""stim_listB/fight6.gif""style=""height:400px;""></stim_listB>",are fighting each other,
null,"<div style=""font-size:60px;"">+</div>",,html-keyboard-response,148,1517012,0.0-15.0-0.5,34419,List1B,white,woman,,,,null,,,,
null,"<img src=""stim_listB/argue8.gif""style=""height:400px;""></stim_listB>",,html-keyboard-response,149,1519014,0.0-15.0-1.5,34419,List1B,white,woman,,,,null,,,,
null,are arguing with each other,,html-keyboard-response,150,1521016,0.0-15.0-2.5,34419,List1B,white,woman,,,,null,,,,
20779,,,survey-text,151,1541796,0.0-15.0-3.5,34419,List1B,white,woman,,,,,"{""Q0"":""beth and jane are arguing with each other""}","<img src=""stim_listB/argue8.gif""style=""height:400px;""></stim_listB>",are arguing with each other,
null,"<div style=""font-size:60px;"">+</div>",,html-keyboard-response,152,1542307,0.0-15.0-0.6,34419,List1B,white,woman,,,,null,,,,
null,"<img src=""stim_listB/touch4.gif""style=""height:400px;""></stim_listB>",,html-keyboard-response,153,1544310,0.0-15.0-1.6,34419,List1B,white,woman,,,,null,,,,
null,are touching each other,,html-keyboard-response,154,1546312,0.0-15.0-2.6,34419,List1B,white,woman,,,,null,,,,
64364,,,survey-text,155,1610678,0.0-15.0-3.6,34419,List1B,white,woman,,,,,"{""Q0"":""jane and luke are touching each other""}","<img src=""stim_listB/touch4.gif""style=""height:400px;""></stim_listB>",are touching each other,
null,"<div style=""font-size:60px;"">+</div>",,html-keyboard-response,156,1611197,0.0-15.0-0.7,34419,List1B,white,woman,,,,null,,,,
null,"<img src=""stim_listB/flirt5.gif""style=""height:400px;""></stim_listB>",,html-keyboard-response,157,1613201,0.0-15.0-1.7,34419,List1B,white,woman,,,,null,,,,
null,is flirting with,,html-keyboard-response,158,1615203,0.0-15.0-2.7,34419,List1B,white,woman,,,,null,,,,
14660,,,survey-text,159,1629866,0.0-15.0-3.7,34419,List1B,white,woman,,,,,"{""Q0"":""fred is flirting with dave""}","<img src=""stim_listB/flirt5.gif""style=""height:400px;""></stim_listB>",is flirting with,
null,"<div style=""font-size:60px;"">+</div>",,html-keyboard-response,160,1630371,0.0-15.0-0.8,34419,List1B,white,woman,,,,null,,,,
null,"<img src=""stim_listB/touch7.gif""style=""height:400px;""></stim_listB>",,html-keyboard-response,161,1632380,0.0-15.0-1.8,34419,List1B,white,woman,,,,null,,,,
null,is touching,,html-keyboard-response,162,1634385,0.0-15.0-2.8,34419,List1B,white,woman,,,,null,,,,
14656,,,survey-text,163,1649043,0.0-15.0-3.8,34419,List1B,white,woman,,,,,"{""Q0"":""jane is touching kate""}","<img src=""stim_listB/touch7.gif""style=""height:400px;""></stim_listB>",is touching,
null,"<div style=""font-size:60px;"">+</div>",,html-keyboard-response,164,1649546,0.0-15.0-0.9,34419,List1B,white,woman,,,,null,,,,
null,"<img src=""stim_listB/touch1.gif""style=""height:400px;""></stim_listB>",,html-keyboard-response,165,1651549,0.0-15.0-1.9,34419,List1B,white,woman,,,,null,,,,
null,is touching,,html-keyboard-response,166,1653552,0.0-15.0-2.9,34419,List1B,white,woman,,,,null,,,,
18254,,,survey-text,167,1671808,0.0-15.0-3.9,34419,List1B,white,woman,,,,,"{""Q0"":""kate is touching Mike""}","<img src=""stim_listB/touch1.gif""style=""height:400px;""></stim_listB>",is touching,
null,"<div style=""font-size:60px;"">+</div>",,html-keyboard-response,168,1672310,0.0-15.0-0.10,34419,List1B,white,woman,,,,null,,,,
null,"<img src=""stim_listB/shout8.gif""style=""height:400px;""></stim_listB>",,html-keyboard-response,169,1674316,0.0-15.0-1.10,34419,List1B,white,woman,,,,null,,,,
null,are shouting at each other,,html-keyboard-response,170,1676318,0.0-15.0-2.10,34419,List1B,white,woman,,,,null,,,,
21094,,,survey-text,171,1697414,0.0-15.0-3.10,34419,List1B,white,woman,,,,,"{""Q0"":""kate and jane are shouting at each other""}","<img src=""stim_listB/shout8.gif""style=""height:400px;""></stim_listB>",are shouting at each other,
null,"<div style=""font-size:60px;"">+</div>",,html-keyboard-response,172,1697917,0.0-15.0-0.11,34419,List1B,white,woman,,,,null,,,,
null,"<img src=""stim_listB/talk8.gif""style=""height:400px;""></stim_listB>",,html-keyboard-response,173,1699921,0.0-15.0-1.11,34419,List1B,white,woman,,,,null,,,,
null,are talking to each other,,html-keyboard-response,174,1701923,0.0-15.0-2.11,34419,List1B,white,woman,,,,null,,,,
20256,,,survey-text,175,1722181,0.0-15.0-3.11,34419,List1B,white,woman,,,,,"{""Q0"":""kate and jane are talking to each other""}","<img src=""stim_listB/talk8.gif""style=""height:400px;""></stim_listB>",are talking to each other,
null,"<div style=""font-size:60px;"">+</div>",,html-keyboard-response,176,1722686,0.0-15.0-0.12,34419,List1B,white,woman,,,,null,,,,
null,"<img src=""stim_listB/argue7.gif""style=""height:400px;""></stim_listB>",,html-keyboard-response,177,1724691,0.0-15.0-1.12,34419,List1B,white,woman,,,,null,,,,
null,is arguing with,,html-keyboard-response,178,1726713,0.0-15.0-2.12,34419,List1B,white,woman,,,,null,,,,
22262,,,survey-text,179,1748976,0.0-15.0-3.12,34419,List1B,white,woman,,,,,"{""Q0"":""jane is arguing with kate""}","<img src=""stim_listB/argue7.gif""style=""height:400px;""></stim_listB>",is arguing with,
null,"<div style=""font-size:60px;"">+</div>",,html-keyboard-response,180,1749479,0.0-15.0-0.13,34419,List1B,white,woman,,,,null,,,,
null,"<img src=""stim_listB/play8.gif""style=""height:400px;""></stim_listB>",,html-keyboard-response,181,1751483,0.0-15.0-1.13,34419,List1B,white,woman,,,,null,,,,
null,are playing with each other,,html-keyboard-response,182,1753486,0.0-15.0-2.13,34419,List1B,white,woman,,,,null,,,,
103912,,,survey-text,183,1857400,0.0-15.0-3.13,34419,List1B,white,woman,,,,,"{""Q0"":""my screen went blank are playing with each other""}","<img src=""stim_listB/play8.gif""style=""height:400px;""></stim_listB>",are playing with each other,
null,"<div style=""font-size:60px;"">+</div>",,html-keyboard-response,184,1857903,0.0-15.0-0.14,34419,List1B,white,woman,,,,null,,,,
null,"<img src=""stim_listB/flirt7.gif""style=""height:400px;""></stim_listB>",,html-keyboard-response,185,1859935,0.0-15.0-1.14,34419,List1B,white,woman,,,,null,,,,
null,is flirting with,,html-keyboard-response,186,1861939,0.0-15.0-2.14,34419,List1B,white,woman,,,,null,,,,
18312,,,survey-text,187,1880253,0.0-15.0-3.14,34419,List1B,white,woman,,,,,"{""Q0"":""beth is flirting with jane""}","<img src=""stim_listB/flirt7.gif""style=""height:400px;""></stim_listB>",is flirting with,
null,"<div style=""font-size:60px;"">+</div>",,html-keyboard-response,188,1880772,0.0-15.0-0.15,34419,List1B,white,woman,,,,null,,,,
null,"<img src=""stim_listB/argue1.gif""style=""height:400px;""></stim_listB>",,html-keyboard-response,189,1882791,0.0-15.0-1.15,34419,List1B,white,woman,,,,null,,,,
null,is arguing with,,html-keyboard-response,190,1884793,0.0-15.0-2.15,34419,List1B,white,woman,,,,null,,,,
95461,,,survey-text,191,1980256,0.0-15.0-3.15,34419,List1B,white,woman,,,,,"{""Q0"":""beth is arguing with mike""}","<img src=""stim_listB/argue1.gif""style=""height:400px;""></stim_listB>",is arguing with,
null,"<div style=""font-size:60px;"">+</div>",,html-keyboard-response,192,1980759,0.0-15.0-0.16,34419,List1B,white,woman,,,,null,,,,
null,"<img src=""stim_listB/argue6.gif""style=""height:400px;""></stim_listB>",,html-keyboard-response,193,1982768,0.0-15.0-1.16,34419,List1B,white,woman,,,,null,,,,
null,are arguing with each other,,html-keyboard-response,194,1984772,0.0-15.0-2.16,34419,List1B,white,woman,,,,null,,,,
20312,,,survey-text,195,2005085,0.0-15.0-3.16,34419,List1B,white,woman,,,,,"{""Q0"":""fred and dave are arguing with each other""}","<img src=""stim_listB/argue6.gif""style=""height:400px;""></stim_listB>",are arguing with each other,
null,"<div style=""font-size:60px;"">+</div>",,html-keyboard-response,196,2005589,0.0-15.0-0.17,34419,List1B,white,woman,,,,null,,,,
null,"<img src=""stim_listB/flirt1.gif""style=""height:400px;""></stim_listB>",,html-keyboard-response,197,2007603,0.0-15.0-1.17,34419,List1B,white,woman,,,,null,,,,
null,is flirting with,,html-keyboard-response,198,2009617,0.0-15.0-2.17,34419,List1B,white,woman,,,,null,,,,
13514,,,survey-text,199,2023133,0.0-15.0-3.17,34419,List1B,white,woman,,,,,"{""Q0"":""kate is flirting with fred""}","<img src=""stim_listB/flirt1.gif""style=""height:400px;""></stim_listB>",is flirting with,
null,"<div style=""font-size:60px;"">+</div>",,html-keyboard-response,200,2023636,0.0-15.0-0.18,34419,List1B,white,woman,,,,null,,,,
null,"<img src=""stim_listB/play5.gif""style=""height:400px;""></stim_listB>",,html-keyboard-response,201,2025640,0.0-15.0-1.18,34419,List1B,white,woman,,,,null,,,,
null,is playing with,,html-keyboard-response,202,2027643,0.0-15.0-2.18,34419,List1B,white,woman,,,,null,,,,
14740,,,survey-text,203,2042385,0.0-15.0-3.18,34419,List1B,white,woman,,,,,"{""Q0"":""dave is playing with mike""}","<img src=""stim_listB/play5.gif""style=""height:400px;""></stim_listB>",is playing with,
null,"<div style=""font-size:60px;"">+</div>",,html-keyboard-response,204,2042890,0.0-15.0-0.19,34419,List1B,white,woman,,,,null,,,,
null,"<img src=""stim_listB/argue3.gif""style=""height:400px;""></stim_listB>",,html-keyboard-response,205,2044893,0.0-15.0-1.19,34419,List1B,white,woman,,,,null,,,,
null,is arguing with,,html-keyboard-response,206,2046904,0.0-15.0-2.19,34419,List1B,white,woman,,,,null,,,,
17353,,,survey-text,207,2064259,0.0-15.0-3.19,34419,List1B,white,woman,,,,,"{""Q0"":""jane is arguing with dave""}","<img src=""stim_listB/argue3.gif""style=""height:400px;""></stim_listB>",is arguing with,
108975,"<img src='img/portrait_matrix_list1.jpg' style='width:900px;height:500px;''></img><p>If you have memorised all the portraits and names and are ready to start, press Continue.</p><p><strong>Please note: Your memory of these faces will be tested 4 times during this experiment.</strong></p>",0,html-button-response,208,2173236,0.0-16.0-0.0,34419,List1B,white,woman,,,,,,,,
4197,"<img src=""portrait/WM1.jpg""style=""height:400px;""></img>",6,html-button-response,209,2178438,0.0-16.0-1.0,34419,List1B,white,woman,,TRUE,6,,,,,
null,CORRECT,,html-keyboard-response,210,2179965,0.0-16.0-2.0-0.0,34419,List1B,white,woman,,,,null,,,,
2739,"<img src=""portrait/BM2.jpg""style=""height:400px;""></img>",5,html-button-response,211,2182707,0.0-16.0-4.0,34419,List1B,white,woman,,TRUE,5,,,,,
null,CORRECT,,html-keyboard-response,212,2184244,0.0-16.0-5.0-0.0,34419,List1B,white,woman,,,,null,,,,
3033,"<img src=""portrait/BW2.jpg""style=""height:400px;""></img>",2,html-button-response,213,2187279,0.0-16.0-7.0,34419,List1B,white,woman,,TRUE,2,,,,,
null,CORRECT,,html-keyboard-response,214,2188783,0.0-16.0-8.0-0.0,34419,List1B,white,woman,,,,null,,,,
5804,"<img src=""portrait/BM1.jpg""style=""height:400px;""></img>",4,html-button-response,215,2194589,0.0-16.0-10.0,34419,List1B,white,woman,,TRUE,4,,,,,
null,CORRECT,,html-keyboard-response,216,2196094,0.0-16.0-11.0-0.0,34419,List1B,white,woman,,,,null,,,,
5243,"<img src=""portrait/BW1.jpg""style=""height:400px;""></img>",0,html-button-response,217,2201339,0.0-16.0-13.0,34419,List1B,white,woman,,TRUE,0,,,,,
null,CORRECT,,html-keyboard-response,218,2202843,0.0-16.0-14.0-0.0,34419,List1B,white,woman,,,,null,,,,
2536,"<img src=""portrait/WW1.jpg""style=""height:400px;""></img>",1,html-button-response,219,2205381,0.0-16.0-16.0,34419,List1B,white,woman,,TRUE,1,,,,,
null,CORRECT,,html-keyboard-response,220,2206909,0.0-16.0-17.0-0.0,34419,List1B,white,woman,,,,null,,,,
2982,"<img src=""portrait/WM2.jpg""style=""height:400px;""></img>",7,html-button-response,221,2209893,0.0-16.0-19.0,34419,List1B,white,woman,,TRUE,7,,,,,
null,CORRECT,,html-keyboard-response,222,2211397,0.0-16.0-20.0-0.0,34419,List1B,white,woman,,,,null,,,,
2947,"<img src=""portrait/WW2.jpg""style=""height:400px;""></img>",3,html-button-response,223,2214348,0.0-16.0-22.0,34419,List1B,white,woman,,TRUE,3,,,,,
null,CORRECT,,html-keyboard-response,224,2215866,0.0-16.0-23.0-0.0,34419,List1B,white,woman,,,,null,,,,
3609,<p>You got 8 out of 8 right first time. Press Continue.</p>,0,html-button-response,225,2219478,0.0-16.0-25.0,34419,List1B,white,woman,,,,,,,,
null,"<div style=""font-size:60px;"">+</div>",,html-keyboard-response,226,2220982,0.0-17.0-0.0,34419,List1B,white,woman,,,,null,,,,
null,"<img src=""stim_listB/argue5.gif""style=""height:400px;""></stim_listB>",,html-keyboard-response,227,2222985,0.0-17.0-1.0,34419,List1B,white,woman,,,,null,,,,
null,is arguing with,,html-keyboard-response,228,2224987,0.0-17.0-2.0,34419,List1B,white,woman,,,,null,,,,
23888,,,survey-text,229,2248877,0.0-17.0-3.0,34419,List1B,white,woman,,,,,"{""Q0"":""mike is arguing with luke""}","<img src=""stim_listB/argue5.gif""style=""height:400px;""></stim_listB>",is arguing with,
null,"<div style=""font-size:60px;"">+</div>",,html-keyboard-response,230,2249382,0.0-17.0-0.1,34419,List1B,white,woman,,,,null,,,,
null,"<img src=""stim_listB/marry5.gif""style=""height:400px;""></stim_listB>",,html-keyboard-response,231,2251385,0.0-17.0-1.1,34419,List1B,white,woman,,,,null,,,,
null,is marrying,,html-keyboard-response,232,2253962,0.0-17.0-2.1,34419,List1B,white,woman,,,,null,,,,
3115,,,survey-text,233,2257079,0.0-17.0-3.1,34419,List1B,white,woman,,,,,"{""Q0"":""""}","<img src=""stim_listB/marry5.gif""style=""height:400px;""></stim_listB>",is marrying,
null,"<div style=""font-size:60px;"">+</div>",,html-keyboard-response,234,2257586,0.0-17.0-0.2,34419,List1B,white,woman,,,,null,,,,
null,"<img src=""stim_listB/touch2.gif""style=""height:400px;""></stim_listB>",,html-keyboard-response,235,2259589,0.0-17.0-1.2,34419,List1B,white,woman,,,,null,,,,
null,are touching each other,,html-keyboard-response,236,2261599,0.0-17.0-2.2,34419,List1B,white,woman,,,,null,,,,
61348,,,survey-text,237,2322950,0.0-17.0-3.2,34419,List1B,white,woman,,,,,"{""Q0"":""beth and fred are touching each other""}","<img src=""stim_listB/touch2.gif""style=""height:400px;""></stim_listB>",are touching each other,
null,"<div style=""font-size:60px;"">+</div>",,html-keyboard-response,238,2323454,0.0-17.0-0.3,34419,List1B,white,woman,,,,null,,,,
null,"<img src=""stim_listB/kiss2.gif""style=""height:400px;""></stim_listB>",,html-keyboard-response,239,2325458,0.0-17.0-1.3,34419,List1B,white,woman,,,,null,,,,
null,are kissing each other,,html-keyboard-response,240,2327461,0.0-17.0-2.3,34419,List1B,white,woman,,,,null,,,,
22353,,,survey-text,241,2349816,0.0-17.0-3.3,34419,List1B,white,woman,,,,,"{""Q0"":""mike and kate are kissing each other""}","<img src=""stim_listB/kiss2.gif""style=""height:400px;""></stim_listB>",are kissing each other,
null,"<div style=""font-size:60px;"">+</div>",,html-keyboard-response,242,2350332,0.0-17.0-0.4,34419,List1B,white,woman,,,,null,,,,
null,"<img src=""stim_listB/fight3.gif""style=""height:400px;""></stim_listB>",,html-keyboard-response,243,2352335,0.0-17.0-1.4,34419,List1B,white,woman,,,,null,,,,
null,is fighting,,html-keyboard-response,244,2354347,0.0-17.0-2.4,34419,List1B,white,woman,,,,null,,,,
13713,,,survey-text,245,2368062,0.0-17.0-3.4,34419,List1B,white,woman,,,,,"{""Q0"":""jane is fighting Dave""}","<img src=""stim_listB/fight3.gif""style=""height:400px;""></stim_listB>",is fighting,
null,"<div style=""font-size:60px;"">+</div>",,html-keyboard-response,246,2368574,0.0-17.0-0.5,34419,List1B,white,woman,,,,null,,,,
null,"<img src=""stim_listB/dance5.gif""style=""height:400px;""></stim_listB>",,html-keyboard-response,247,2370578,0.0-17.0-1.5,34419,List1B,white,woman,,,,null,,,,
null,is dancing with,,html-keyboard-response,248,2372580,0.0-17.0-2.5,34419,List1B,white,woman,,,,null,,,,
14221,,,survey-text,249,2386803,0.0-17.0-3.5,34419,List1B,white,woman,,,,,"{""Q0"":""dave is dancing with Fred""}","<img src=""stim_listB/dance5.gif""style=""height:400px;""></stim_listB>",is dancing with,
null,"<div style=""font-size:60px;"">+</div>",,html-keyboard-response,250,2387320,0.0-17.0-0.6,34419,List1B,white,woman,,,,null,,,,
null,"<img src=""stim_listB/touch3.gif""style=""height:400px;""></stim_listB>",,html-keyboard-response,251,2389337,0.0-17.0-1.6,34419,List1B,white,woman,,,,null,,,,
null,is touching,,html-keyboard-response,252,2391342,0.0-17.0-2.6,34419,List1B,white,woman,,,,null,,,,
12648,,,survey-text,253,2403992,0.0-17.0-3.6,34419,List1B,white,woman,,,,,"{""Q0"":""jane is touching dave""}","<img src=""stim_listB/touch3.gif""style=""height:400px;""></stim_listB>",is touching,
null,"<div style=""font-size:60px;"">+</div>",,html-keyboard-response,254,2404505,0.0-17.0-0.7,34419,List1B,white,woman,,,,null,,,,
null,"<img src=""stim_listB/dance8.gif""style=""height:400px;""></stim_listB>",,html-keyboard-response,255,2406526,0.0-17.0-1.7,34419,List1B,white,woman,,,,null,,,,
null,are dancing with each other,,html-keyboard-response,256,2408540,0.0-17.0-2.7,34419,List1B,white,woman,,,,null,,,,
27453,,,survey-text,257,2435995,0.0-17.0-3.7,34419,List1B,white,woman,,,,,"{""Q0"":""kate and jane are dancing with each other""}","<img src=""stim_listB/dance8.gif""style=""height:400px;""></stim_listB>",are dancing with each other,
null,"<div style=""font-size:60px;"">+</div>",,html-keyboard-response,258,2436503,0.0-17.0-0.8,34419,List1B,white,woman,,,,null,,,,
null,"<img src=""stim_listB/talk7.gif""style=""height:400px;""></stim_listB>",,html-keyboard-response,259,2438506,0.0-17.0-1.8,34419,List1B,white,woman,,,,null,,,,
null,is talking to,,html-keyboard-response,260,2440509,0.0-17.0-2.8,34419,List1B,white,woman,,,,null,,,,
15979,,,survey-text,261,2456490,0.0-17.0-3.8,34419,List1B,white,woman,,,,,"{""Q0"":""jane is talking to beth""}","<img src=""stim_listB/talk7.gif""style=""height:400px;""></stim_listB>",is talking to,
null,"<div style=""font-size:60px;"">+</div>",,html-keyboard-response,262,2457000,0.0-17.0-0.9,34419,List1B,white,woman,,,,null,,,,
null,"<img src=""stim_listB/fight4.gif""style=""height:400px;""></stim_listB>",,html-keyboard-response,263,2459002,0.0-17.0-1.9,34419,List1B,white,woman,,,,null,,,,
null,are fighting each other,,html-keyboard-response,264,2461019,0.0-17.0-2.9,34419,List1B,white,woman,,,,null,,,,
18209,,,survey-text,265,2479232,0.0-17.0-3.9,34419,List1B,white,woman,,,,,"{""Q0"":""jane and luke are fighting each other""}","<img src=""stim_listB/fight4.gif""style=""height:400px;""></stim_listB>",are fighting each other,
null,"<div style=""font-size:60px;"">+</div>",,html-keyboard-response,266,2479739,0.0-17.0-0.10,34419,List1B,white,woman,,,,null,,,,
null,"<img src=""stim_listB/touch6.gif""style=""height:400px;""></stim_listB>",,html-keyboard-response,267,2481742,0.0-17.0-1.10,34419,List1B,white,woman,,,,null,,,,
null,are touching each other,,html-keyboard-response,268,2483749,0.0-17.0-2.10,34419,List1B,white,woman,,,,null,,,,
22317,,,survey-text,269,2506068,0.0-17.0-3.10,34419,List1B,white,woman,,,,,"{""Q0"":""fred and luke are touching each other""}","<img src=""stim_listB/touch6.gif""style=""height:400px;""></stim_listB>",are touching each other,
null,"<div style=""font-size:60px;"">+</div>",,html-keyboard-response,270,2506582,0.0-17.0-0.11,34419,List1B,white,woman,,,,null,,,,
null,"<img src=""stim_listB/dance7.gif""style=""height:400px;""></stim_listB>",,html-keyboard-response,271,2508586,0.0-17.0-1.11,34419,List1B,white,woman,,,,null,,,,
null,is dancing with,,html-keyboard-response,272,2510598,0.0-17.0-2.11,34419,List1B,white,woman,,,,null,,,,
13310,,,survey-text,273,2523910,0.0-17.0-3.11,34419,List1B,white,woman,,,,,"{""Q0"":""beth is dancing with jane""}","<img src=""stim_listB/dance7.gif""style=""height:400px;""></stim_listB>",is dancing with,
null,"<div style=""font-size:60px;"">+</div>",,html-keyboard-response,274,2524417,0.0-17.0-0.12,34419,List1B,white,woman,,,,null,,,,
null,"<img src=""stim_listB/dance3.gif""style=""height:400px;""></stim_listB>",,html-keyboard-response,275,2526422,0.0-17.0-1.12,34419,List1B,white,woman,,,,null,,,,
null,is dancing with,,html-keyboard-response,276,2528428,0.0-17.0-2.12,34419,List1B,white,woman,,,,null,,,,
13999,,,survey-text,277,2542429,0.0-17.0-3.12,34419,List1B,white,woman,,,,,"{""Q0"":""jane is dancing with luke""}","<img src=""stim_listB/dance3.gif""style=""height:400px;""></stim_listB>",is dancing with,
null,"<div style=""font-size:60px;"">+</div>",,html-keyboard-response,278,2542943,0.0-17.0-0.13,34419,List1B,white,woman,,,,null,,,,
null,"<img src=""stim_listB/dance1.gif""style=""height:400px;""></stim_listB>",,html-keyboard-response,279,2544969,0.0-17.0-1.13,34419,List1B,white,woman,,,,null,,,,
null,is dancing with,,html-keyboard-response,280,2546975,0.0-17.0-2.13,34419,List1B,white,woman,,,,null,,,,
17815,,,survey-text,281,2564792,0.0-17.0-3.13,34419,List1B,white,woman,,,,,"{""Q0"":""kate is dancing with fred""}","<img src=""stim_listB/dance1.gif""style=""height:400px;""></stim_listB>",is dancing with,
null,"<div style=""font-size:60px;"">+</div>",,html-keyboard-response,282,2565308,0.0-17.0-0.14,34419,List1B,white,woman,,,,null,,,,
null,"<img src=""stim_listB/fight8.gif""style=""height:400px;""></stim_listB>",,html-keyboard-response,283,2567318,0.0-17.0-1.14,34419,List1B,white,woman,,,,null,,,,
null,are fighting each other,,html-keyboard-response,284,2569320,0.0-17.0-2.14,34419,List1B,white,woman,,,,null,,,,
17018,,,survey-text,285,2586340,0.0-17.0-3.14,34419,List1B,white,woman,,,,,"{""Q0"":""beth and jane are fighting each other""}","<img src=""stim_listB/fight8.gif""style=""height:400px;""></stim_listB>",are fighting each other,
null,"<div style=""font-size:60px;"">+</div>",,html-keyboard-response,286,2586855,0.0-17.0-0.15,34419,List1B,white,woman,,,,null,,,,
null,"<img src=""stim_listB/shout1.gif""style=""height:400px;""></stim_listB>",,html-keyboard-response,287,2588860,0.0-17.0-1.15,34419,List1B,white,woman,,,,null,,,,
null,is shouting at,,html-keyboard-response,288,2590877,0.0-17.0-2.15,34419,List1B,white,woman,,,,null,,,,
15598,,,survey-text,289,2606477,0.0-17.0-3.15,34419,List1B,white,woman,,,,,"{""Q0"":""beth is shouting at fred""}","<img src=""stim_listB/shout1.gif""style=""height:400px;""></stim_listB>",is shouting at,
null,"<div style=""font-size:60px;"">+</div>",,html-keyboard-response,290,2606989,0.0-17.0-0.16,34419,List1B,white,woman,,,,null,,,,
null,"<img src=""stim_listB/dance6.gif""style=""height:400px;""></stim_listB>",,html-keyboard-response,291,2608991,0.0-17.0-1.16,34419,List1B,white,woman,,,,null,,,,
null,are dancing with each other,,html-keyboard-response,292,2611014,0.0-17.0-2.16,34419,List1B,white,woman,,,,null,,,,
20633,,,survey-text,293,2631649,0.0-17.0-3.16,34419,List1B,white,woman,,,,,"{""Q0"":""mike and luke are dancing with each other""}","<img src=""stim_listB/dance6.gif""style=""height:400px;""></stim_listB>",are dancing with each other,
null,"<div style=""font-size:60px;"">+</div>",,html-keyboard-response,294,2632167,0.0-17.0-0.17,34419,List1B,white,woman,,,,null,,,,
null,"<img src=""stim_listB/kiss1.gif""style=""height:400px;""></stim_listB>",,html-keyboard-response,295,2634174,0.0-17.0-1.17,34419,List1B,white,woman,,,,null,,,,
null,is kissing,,html-keyboard-response,296,2636181,0.0-17.0-2.17,34419,List1B,white,woman,,,,null,,,,
18318,,,survey-text,297,2654502,0.0-17.0-3.17,34419,List1B,white,woman,,,,,"{""Q0"":""fred is kissing beth""}","<img src=""stim_listB/kiss1.gif""style=""height:400px;""></stim_listB>",is kissing,
null,"<div style=""font-size:60px;"">+</div>",,html-keyboard-response,298,2655009,0.0-17.0-0.18,34419,List1B,white,woman,,,,null,,,,
null,"<img src=""stim_listB/marry3.gif""style=""height:400px;""></stim_listB>",,html-keyboard-response,299,2657030,0.0-17.0-1.18,34419,List1B,white,woman,,,,null,,,,
null,is marrying,,html-keyboard-response,300,2659044,0.0-17.0-2.18,34419,List1B,white,woman,,,,null,,,,
14867,,,survey-text,301,2673913,0.0-17.0-3.18,34419,List1B,white,woman,,,,,"{""Q0"":""jane is marrying dave""}","<img src=""stim_listB/marry3.gif""style=""height:400px;""></stim_listB>",is marrying,
null,"<div style=""font-size:60px;"">+</div>",,html-keyboard-response,302,2674425,0.0-17.0-0.19,34419,List1B,white,woman,,,,null,,,,
null,"<img src=""stim_listB/marry8.gif""style=""height:400px;""></stim_listB>",,html-keyboard-response,303,2676441,0.0-17.0-1.19,34419,List1B,white,woman,,,,null,,,,
null,are marrying each other,,html-keyboard-response,304,2678460,0.0-17.0-2.19,34419,List1B,white,woman,,,,null,,,,
24421,,,survey-text,305,2702883,0.0-17.0-3.19,34419,List1B,white,woman,,,,,"{""Q0"":""beth and jane are marrying each other""}","<img src=""stim_listB/marry8.gif""style=""height:400px;""></stim_listB>",are marrying each other,
47670,"<img src='img/portrait_matrix_list1.jpg' style='width:900px;height:500px;''></img><p>If you have memorised all the portraits and names and are ready to start, press Continue.</p><p><strong>Please note: Your memory of these faces will be tested 4 times during this experiment.</strong></p>",0,html-button-response,306,2750556,0.0-18.0-0.0,34419,List1B,white,woman,,,,,,,,
3571,"<img src=""portrait/BM1.jpg""style=""height:400px;""></img>",4,html-button-response,307,2755137,0.0-18.0-1.0,34419,List1B,white,woman,,TRUE,4,,,,,
null,CORRECT,,html-keyboard-response,308,2756657,0.0-18.0-2.0-0.0,34419,List1B,white,woman,,,,null,,,,
5527,"<img src=""portrait/BW1.jpg""style=""height:400px;""></img>",0,html-button-response,309,2762187,0.0-18.0-4.0,34419,List1B,white,woman,,TRUE,0,,,,,
null,CORRECT,,html-keyboard-response,310,2763704,0.0-18.0-5.0-0.0,34419,List1B,white,woman,,,,null,,,,
2914,"<img src=""portrait/WW2.jpg""style=""height:400px;""></img>",3,html-button-response,311,2766620,0.0-18.0-7.0,34419,List1B,white,woman,,TRUE,3,,,,,
null,CORRECT,,html-keyboard-response,312,2768131,0.0-18.0-8.0-0.0,34419,List1B,white,woman,,,,null,,,,
3263,"<img src=""portrait/WM2.jpg""style=""height:400px;""></img>",7,html-button-response,313,2771397,0.0-18.0-10.0,34419,List1B,white,woman,,TRUE,7,,,,,
null,CORRECT,,html-keyboard-response,314,2772910,0.0-18.0-11.0-0.0,34419,List1B,white,woman,,,,null,,,,
3830,"<img src=""portrait/BW2.jpg""style=""height:400px;""></img>",2,html-button-response,315,2776744,0.0-18.0-13.0,34419,List1B,white,woman,,TRUE,2,,,,,
null,CORRECT,,html-keyboard-response,316,2778251,0.0-18.0-14.0-0.0,34419,List1B,white,woman,,,,null,,,,
3561,"<img src=""portrait/BM2.jpg""style=""height:400px;""></img>",5,html-button-response,317,2781815,0.0-18.0-16.0,34419,List1B,white,woman,,TRUE,5,,,,,
null,CORRECT,,html-keyboard-response,318,2783321,0.0-18.0-17.0-0.0,34419,List1B,white,woman,,,,null,,,,
2844,"<img src=""portrait/WW1.jpg""style=""height:400px;""></img>",1,html-button-response,319,2786168,0.0-18.0-19.0,34419,List1B,white,woman,,TRUE,1,,,,,
null,CORRECT,,html-keyboard-response,320,2787684,0.0-18.0-20.0-0.0,34419,List1B,white,woman,,,,null,,,,
2757,"<img src=""portrait/WM1.jpg""style=""height:400px;""></img>",6,html-button-response,321,2790444,0.0-18.0-22.0,34419,List1B,white,woman,,TRUE,6,,,,,
null,CORRECT,,html-keyboard-response,322,2791961,0.0-18.0-23.0-0.0,34419,List1B,white,woman,,,,null,,,,
3844,<p>You got 8 out of 8 right first time. Press Continue.</p>,0,html-button-response,323,2795807,0.0-18.0-25.0,34419,List1B,white,woman,,,,,,,,
null,"<div style=""font-size:60px;"">+</div>",,html-keyboard-response,324,2797323,0.0-19.0-0.0,34419,List1B,white,woman,,,,null,,,,
null,"<img src=""stim_listB/kiss4.gif""style=""height:400px;""></stim_listB>",,html-keyboard-response,325,2799326,0.0-19.0-1.0,34419,List1B,white,woman,,,,null,,,,
null,are kissing each other,,html-keyboard-response,326,2801337,0.0-19.0-2.0,34419,List1B,white,woman,,,,null,,,,
20374,,,survey-text,327,2821713,0.0-19.0-3.0,34419,List1B,white,woman,,,,,"{""Q0"":""luke and jane are kissing each other""}","<img src=""stim_listB/kiss4.gif""style=""height:400px;""></stim_listB>",are kissing each other,
null,"<div style=""font-size:60px;"">+</div>",,html-keyboard-response,328,2822220,0.0-19.0-0.1,34419,List1B,white,woman,,,,null,,,,
null,"<img src=""stim_listB/shout6.gif""style=""height:400px;""></stim_listB>",,html-keyboard-response,329,2824231,0.0-19.0-1.1,34419,List1B,white,woman,,,,null,,,,
null,are shouting at each other,,html-keyboard-response,330,2826241,0.0-19.0-2.1,34419,List1B,white,woman,,,,null,,,,
29220,,,survey-text,331,2855463,0.0-19.0-3.1,34419,List1B,white,woman,,,,,"{""Q0"":""dave and mike are shouting at each other""}","<img src=""stim_listB/shout6.gif""style=""height:400px;""></stim_listB>",are shouting at each other,
null,"<div style=""font-size:60px;"">+</div>",,html-keyboard-response,332,2855968,0.0-19.0-0.2,34419,List1B,white,woman,,,,null,,,,
null,"<img src=""stim_listB/talk1.gif""style=""height:400px;""></stim_listB>",,html-keyboard-response,333,2857979,0.0-19.0-1.2,34419,List1B,white,woman,,,,null,,,,
null,is talking to,,html-keyboard-response,334,2859993,0.0-19.0-2.2,34419,List1B,white,woman,,,,null,,,,
16335,,,survey-text,335,2876330,0.0-19.0-3.2,34419,List1B,white,woman,,,,,"{""Q0"":""kate is talking to fred""}","<img src=""stim_listB/talk1.gif""style=""height:400px;""></stim_listB>",is talking to,
null,"<div style=""font-size:60px;"">+</div>",,html-keyboard-response,336,2876839,0.0-19.0-0.3,34419,List1B,white,woman,,,,null,,,,
null,"<img src=""stim_listB/shout3.gif""style=""height:400px;""></stim_listB>",,html-keyboard-response,337,2878842,0.0-19.0-1.3,34419,List1B,white,woman,,,,null,,,,
null,is shouting at,,html-keyboard-response,338,2880854,0.0-19.0-2.3,34419,List1B,white,woman,,,,null,,,,
17774,,,survey-text,339,2898631,0.0-19.0-3.3,34419,List1B,white,woman,,,,,"{""Q0"":""jane is shouting  at luke""}","<img src=""stim_listB/shout3.gif""style=""height:400px;""></stim_listB>",is shouting at,
null,"<div style=""font-size:60px;"">+</div>",,html-keyboard-response,340,2899137,0.0-19.0-0.4,34419,List1B,white,woman,,,,null,,,,
null,"<img src=""stim_listB/shout5.gif""style=""height:400px;""></stim_listB>",,html-keyboard-response,341,2901141,0.0-19.0-1.4,34419,List1B,white,woman,,,,null,,,,
null,is shouting at,,html-keyboard-response,342,2903149,0.0-19.0-2.4,34419,List1B,white,woman,,,,null,,,,
14106,,,survey-text,343,2917257,0.0-19.0-3.4,34419,List1B,white,woman,,,,,"{""Q0"":""luke is shouting at fred""}","<img src=""stim_listB/shout5.gif""style=""height:400px;""></stim_listB>",is shouting at,
null,"<div style=""font-size:60px;"">+</div>",,html-keyboard-response,344,2917769,0.0-19.0-0.5,34419,List1B,white,woman,,,,null,,,,
null,"<img src=""stim_listB/talk5.gif""style=""height:400px;""></stim_listB>",,html-keyboard-response,345,2919772,0.0-19.0-1.5,34419,List1B,white,woman,,,,null,,,,
null,is talking to,,html-keyboard-response,346,2921784,0.0-19.0-2.5,34419,List1B,white,woman,,,,null,,,,
13073,,,survey-text,347,2934860,0.0-19.0-3.5,34419,List1B,white,woman,,,,,"{""Q0"":""fred is talking to luke""}","<img src=""stim_listB/talk5.gif""style=""height:400px;""></stim_listB>",is talking to,
null,"<div style=""font-size:60px;"">+</div>",,html-keyboard-response,348,2935370,0.0-19.0-0.6,34419,List1B,white,woman,,,,null,,,,
null,"<img src=""stim_listB/fight7.gif""style=""height:400px;""></stim_listB>",,html-keyboard-response,349,2937382,0.0-19.0-1.6,34419,List1B,white,woman,,,,null,,,,
null,is fighting,,html-keyboard-response,350,2939399,0.0-19.0-2.6,34419,List1B,white,woman,,,,null,,,,
25997,,,survey-text,351,2965399,0.0-19.0-3.6,34419,List1B,white,woman,,,,,"{""Q0"":""kate is fighting jane""}","<img src=""stim_listB/fight7.gif""style=""height:400px;""></stim_listB>",is fighting,
null,"<div style=""font-size:60px;"">+</div>",,html-keyboard-response,352,2965909,0.0-19.0-0.7,34419,List1B,white,woman,,,,null,,,,
null,"<img src=""stim_listB/marry4.gif""style=""height:400px;""></stim_listB>",,html-keyboard-response,353,2967919,0.0-19.0-1.7,34419,List1B,white,woman,,,,null,,,,
null,are marrying each other,,html-keyboard-response,354,2969936,0.0-19.0-2.7,34419,List1B,white,woman,,,,null,,,,
22113,,,survey-text,355,2992051,0.0-19.0-3.7,34419,List1B,white,woman,,,,,"{""Q0"":""luke and jane are marrying each other""}","<img src=""stim_listB/marry4.gif""style=""height:400px;""></stim_listB>",are marrying each other,
null,"<div style=""font-size:60px;"">+</div>",,html-keyboard-response,356,2992556,0.0-19.0-0.8,34419,List1B,white,woman,,,,null,,,,
null,"<img src=""stim_listB/argue2.gif""style=""height:400px;""></stim_listB>",,html-keyboard-response,357,2994560,0.0-19.0-1.8,34419,List1B,white,woman,,,,null,,,,
null,are arguing with each other,,html-keyboard-response,358,2996561,0.0-19.0-2.8,34419,List1B,white,woman,,,,null,,,,
18330,,,survey-text,359,3014894,0.0-19.0-3.8,34419,List1B,white,woman,,,,,"{""Q0"":""fred and kate are arguing with each other""}","<img src=""stim_listB/argue2.gif""style=""height:400px;""></stim_listB>",are arguing with each other,
null,"<div style=""font-size:60px;"">+</div>",,html-keyboard-response,360,3015405,0.0-19.0-0.9,34419,List1B,white,woman,,,,null,,,,
null,"<img src=""stim_listB/play2.gif""style=""height:400px;""></stim_listB>",,html-keyboard-response,361,3017409,0.0-19.0-1.9,34419,List1B,white,woman,,,,null,,,,
null,are playing with each other,,html-keyboard-response,362,3019412,0.0-19.0-2.9,34419,List1B,white,woman,,,,null,,,,
20268,,,survey-text,363,3039682,0.0-19.0-3.9,34419,List1B,white,woman,,,,,"{""Q0"":""fred and beth are playing with each other""}","<img src=""stim_listB/play2.gif""style=""height:400px;""></stim_listB>",are playing with each other,
null,"<div style=""font-size:60px;"">+</div>",,html-keyboard-response,364,3040195,0.0-19.0-0.10,34419,List1B,white,woman,,,,null,,,,
null,"<img src=""stim_listB/flirt8.gif""style=""height:400px;""></stim_listB>",,html-keyboard-response,365,3042216,0.0-19.0-1.10,34419,List1B,white,woman,,,,null,,,,
null,are flirting with each other,,html-keyboard-response,366,3044231,0.0-19.0-2.10,34419,List1B,white,woman,,,,null,,,,
19051,,,survey-text,367,3063283,0.0-19.0-3.10,34419,List1B,white,woman,,,,,"{""Q0"":""kate and jane are flirting with each other""}","<img src=""stim_listB/flirt8.gif""style=""height:400px;""></stim_listB>",are flirting with each other,
null,"<div style=""font-size:60px;"">+</div>",,html-keyboard-response,368,3063792,0.0-19.0-0.11,34419,List1B,white,woman,,,,null,,,,
null,"<img src=""stim_listB/kiss8.gif""style=""height:400px;""></stim_listB>",,html-keyboard-response,369,3065816,0.0-19.0-1.11,34419,List1B,white,woman,,,,null,,,,
null,are kissing each other,,html-keyboard-response,370,3067835,0.0-19.0-2.11,34419,List1B,white,woman,,,,null,,,,
17059,,,survey-text,371,3084896,0.0-19.0-3.11,34419,List1B,white,woman,,,,,"{""Q0"":""kate and jane are kissing each other""}","<img src=""stim_listB/kiss8.gif""style=""height:400px;""></stim_listB>",are kissing each other,
null,"<div style=""font-size:60px;"">+</div>",,html-keyboard-response,372,3085415,0.0-19.0-0.12,34419,List1B,white,woman,,,,null,,,,
null,"<img src=""stim_listB/fight2.gif""style=""height:400px;""></stim_listB>",,html-keyboard-response,373,3087419,0.0-19.0-1.12,34419,List1B,white,woman,,,,null,,,,
null,are fighting each other,,html-keyboard-response,374,3089420,0.0-19.0-2.12,34419,List1B,white,woman,,,,null,,,,
15917,,,survey-text,375,3105340,0.0-19.0-3.12,34419,List1B,white,woman,,,,,"{""Q0"":""beth and fred are fighting each other""}","<img src=""stim_listB/fight2.gif""style=""height:400px;""></stim_listB>",are fighting each other,
null,"<div style=""font-size:60px;"">+</div>",,html-keyboard-response,376,3105849,0.0-19.0-0.13,34419,List1B,white,woman,,,,null,,,,
null,"<img src=""stim_listB/shout4.gif""style=""height:400px;""></stim_listB>",,html-keyboard-response,377,3107852,0.0-19.0-1.13,34419,List1B,white,woman,,,,null,,,,
null,are shouting at each other,,html-keyboard-response,378,3109863,0.0-19.0-2.13,34419,List1B,white,woman,,,,null,,,,
18997,,,survey-text,379,3128862,0.0-19.0-3.13,34419,List1B,white,woman,,,,,"{""Q0"":""jane and dave are shouting at each other""}","<img src=""stim_listB/shout4.gif""style=""height:400px;""></stim_listB>",are shouting at each other,
null,"<div style=""font-size:60px;"">+</div>",,html-keyboard-response,380,3129375,0.0-19.0-0.14,34419,List1B,white,woman,,,,null,,,,
null,"<img src=""stim_listB/dance4.gif""style=""height:400px;""></stim_listB>",,html-keyboard-response,381,3131422,0.0-19.0-1.14,34419,List1B,white,woman,,,,null,,,,
null,are dancing with each other,,html-keyboard-response,382,3133436,0.0-19.0-2.14,34419,List1B,white,woman,,,,null,,,,
17818,,,survey-text,383,3151256,0.0-19.0-3.14,34419,List1B,white,woman,,,,,"{""Q0"":""dave and jane are dancing with each other""}","<img src=""stim_listB/dance4.gif""style=""height:400px;""></stim_listB>",are dancing with each other,
null,"<div style=""font-size:60px;"">+</div>",,html-keyboard-response,384,3151768,0.0-19.0-0.15,34419,List1B,white,woman,,,,null,,,,
null,"<img src=""stim_listB/touch8.gif""style=""height:400px;""></stim_listB>",,html-keyboard-response,385,3153772,0.0-19.0-1.15,34419,List1B,white,woman,,,,null,,,,
null,are touching each other,,html-keyboard-response,386,3155778,0.0-19.0-2.15,34419,List1B,white,woman,,,,null,,,,
16605,,,survey-text,387,3172385,0.0-19.0-3.15,34419,List1B,white,woman,,,,,"{""Q0"":""beth and jane are touching each other""}","<img src=""stim_listB/touch8.gif""style=""height:400px;""></stim_listB>",are touching each other,
null,"<div style=""font-size:60px;"">+</div>",,html-keyboard-response,388,3172901,0.0-19.0-0.16,34419,List1B,white,woman,,,,null,,,,
null,"<img src=""stim_listB/marry7.gif""style=""height:400px;""></stim_listB>",,html-keyboard-response,389,3174905,0.0-19.0-1.16,34419,List1B,white,woman,,,,null,,,,
null,is marrying,,html-keyboard-response,390,3176916,0.0-19.0-2.16,34419,List1B,white,woman,,,,null,,,,
11657,,,survey-text,391,3188575,0.0-19.0-3.16,34419,List1B,white,woman,,,,,"{""Q0"":""jane is marrying kate""}","<img src=""stim_listB/marry7.gif""style=""height:400px;""></stim_listB>",is marrying,
null,"<div style=""font-size:60px;"">+</div>",,html-keyboard-response,392,3189087,0.0-19.0-0.17,34419,List1B,white,woman,,,,null,,,,
null,"<img src=""stim_listB/flirt2.gif""style=""height:400px;""></stim_listB>",,html-keyboard-response,393,3191098,0.0-19.0-1.17,34419,List1B,white,woman,,,,null,,,,
null,are flirting with each other,,html-keyboard-response,394,3193112,0.0-19.0-2.17,34419,List1B,white,woman,,,,null,,,,
26126,,,survey-text,395,3219240,0.0-19.0-3.17,34419,List1B,white,woman,,,,,"{""Q0"":""mike and beth are flirting with each other""}","<img src=""stim_listB/flirt2.gif""style=""height:400px;""></stim_listB>",are flirting with each other,
null,"<div style=""font-size:60px;"">+</div>",,html-keyboard-response,396,3219754,0.0-19.0-0.18,34419,List1B,white,woman,,,,null,,,,
null,"<img src=""stim_listB/play1.gif""style=""height:400px;""></stim_listB>",,html-keyboard-response,397,3221775,0.0-19.0-1.18,34419,List1B,white,woman,,,,null,,,,
null,is playing with,,html-keyboard-response,398,3223779,0.0-19.0-2.18,34419,List1B,white,woman,,,,null,,,,
13194,,,survey-text,399,3236975,0.0-19.0-3.18,34419,List1B,white,woman,,,,,"{""Q0"":""kate is playing with mike""}","<img src=""stim_listB/play1.gif""style=""height:400px;""></stim_listB>",is playing with,
null,"<div style=""font-size:60px;"">+</div>",,html-keyboard-response,400,3237488,0.0-19.0-0.19,34419,List1B,white,woman,,,,null,,,,
null,"<img src=""stim_listB/flirt4.gif""style=""height:400px;""></stim_listB>",,html-keyboard-response,401,3239507,0.0-19.0-1.19,34419,List1B,white,woman,,,,null,,,,
null,are flirting with each other,,html-keyboard-response,402,3241520,0.0-19.0-2.19,34419,List1B,white,woman,,,,null,,,,
25458,,,survey-text,403,3266980,0.0-19.0-3.19,34419,List1B,white,woman,,,,,"{""Q0"":""dave and jane are flirting with each other""}","<img src=""stim_listB/flirt4.gif""style=""height:400px;""></stim_listB>",are flirting with each other,
4987,<p>Thank you for completing that task.</p><p>The final part of this session is a short questionnaire.</p><p>Press Continue.</p>,0,html-button-response,404,3271969,0.0-20.0,34419,List1B,white,woman,,,,,,,,
45740,,,survey-text,405,3318721,0.0-21.0,34419,List1B,white,woman,,,,,"{""Q0"":""62"",""Q1"":""english"",""Q2"":""english"",""Q3"":""UK"",""Q4"":""white british"",""Q5"":""female""}",,,demographics
11533,,,survey-likert,406,3330260,0.0-22.0,34419,List1B,white,woman,,,,,"{""Q0"":3}",,,likert_ESS
19450,,,survey-likert,407,3349715,0.0-23.0,34419,List1B,white,woman,,,,,"{""Q0"":3}",,,likert_NSSAL_Q1
5918,,,survey-likert,408,3355637,0.0-24.0,34419,List1B,white,woman,,,,,"{""Q0"":3}",,,likert_NSSAL_Q2
8721,,,survey-likert,409,3364361,0.0-25.0,34419,List1B,white,woman,,,,,"{""Q0"":3}",,,likert_CGRS_Q1
5966,,,survey-likert,410,3370331,0.0-26.0,34419,List1B,white,woman,,,,,"{""Q0"":3}",,,likert_CGRS_Q2
5378,,,survey-likert,411,3375713,0.0-27.0,34419,List1B,white,woman,,,,,"{""Q0"":3}",,,likert_CGRS_Q3
12575,,,survey-text,412,3388292,0.0-28.0,34419,List1B,white,woman,,,,,"{""Q0"":""ccc""}",,,worker_id
43768,,,external-html,413,3432184,0.0-29.0,34419,List1B,white,woman,debrief.html,,,,,,,
