rt,stimulus,button_pressed,trial_type,trial_index,time_elapsed,internal_node_id,subject,list,ppt_race,ppt_gender,url,first_guess,correct,key_press,responses,image_type,phrase_type,test_part
2797,Welcome to the experiment. Press Continue to begin.,0,html-button-response,0,2805,0.0-0.0,34507,List1B,black,woman,,,,,,,,
63123,,,external-html,1,66971,0.0-1.0,34507,List1B,black,woman,consent.html,,,,,,,
60773,"<p>On the next page, you will see portraits of 8 people and their names.</p><p>Your first task is to take a few minutes to memorise the names of these people.</p><p>You will have to recall their names during the rest of the experiment, so it is</p><p>essential that you try to memorise these people and their names as best as you can.</p><br><p><strong>You will then be tested on your memory of these names and portraits.</strong></p><br><p>The experiment will start after you have completed this memory test.</p><br><p>Ready?</p>",0,html-button-response,2,127748,0.0-2.0,34507,List1B,black,woman,,,,,,,,
133209,"<img src='img/portrait_matrix_list1.jpg' style='width:900px;height:500px;''></img><p>If you have memorised all the portraits and names and are ready to start, press Continue.</p><p><strong>Please note: Your memory of these faces will be tested 4 times during this experiment.</strong></p>",0,html-button-response,3,261962,0.0-3.0-0.0,34507,List1B,black,woman,,,,,,,,
19552,"<img src=""portrait/BW2.jpg""style=""height:400px;""></img>",2,html-button-response,4,282522,0.0-3.0-1.0,34507,List1B,black,woman,,TRUE,2,,,,,
null,CORRECT,,html-keyboard-response,5,284038,0.0-3.0-2.0-0.0,34507,List1B,black,woman,,,,null,,,,
5373,"<img src=""portrait/WW1.jpg""style=""height:400px;""></img>",1,html-button-response,6,289419,0.0-3.0-4.0,34507,List1B,black,woman,,TRUE,1,,,,,
null,CORRECT,,html-keyboard-response,7,290923,0.0-3.0-5.0-0.0,34507,List1B,black,woman,,,,null,,,,
10775,"<img src=""portrait/BM2.jpg""style=""height:400px;""></img>",5,html-button-response,8,301703,0.0-3.0-7.0,34507,List1B,black,woman,,TRUE,5,,,,,
null,CORRECT,,html-keyboard-response,9,303207,0.0-3.0-8.0-0.0,34507,List1B,black,woman,,,,null,,,,
6007,"<img src=""portrait/WW2.jpg""style=""height:400px;""></img>",3,html-button-response,10,309219,0.0-3.0-10.0,34507,List1B,black,woman,,TRUE,3,,,,,
null,CORRECT,,html-keyboard-response,11,310723,0.0-3.0-11.0-0.0,34507,List1B,black,woman,,,,null,,,,
3689,"<img src=""portrait/BM1.jpg""style=""height:400px;""></img>",4,html-button-response,12,314417,0.0-3.0-13.0,34507,List1B,black,woman,,TRUE,4,,,,,
null,CORRECT,,html-keyboard-response,13,315922,0.0-3.0-14.0-0.0,34507,List1B,black,woman,,,,null,,,,
7525,"<img src=""portrait/BW1.jpg""style=""height:400px;""></img>",0,html-button-response,14,323454,0.0-3.0-16.0,34507,List1B,black,woman,,TRUE,0,,,,,
null,CORRECT,,html-keyboard-response,15,324958,0.0-3.0-17.0-0.0,34507,List1B,black,woman,,,,null,,,,
19142,"<img src=""portrait/WM1.jpg""style=""height:400px;""></img>",6,html-button-response,16,344105,0.0-3.0-19.0,34507,List1B,black,woman,,TRUE,6,,,,,
null,CORRECT,,html-keyboard-response,17,345610,0.0-3.0-20.0-0.0,34507,List1B,black,woman,,,,null,,,,
12625,"<img src=""portrait/WM2.jpg""style=""height:400px;""></img>",7,html-button-response,18,358242,0.0-3.0-22.0,34507,List1B,black,woman,,TRUE,7,,,,,
null,CORRECT,,html-keyboard-response,19,359745,0.0-3.0-23.0-0.0,34507,List1B,black,woman,,,,null,,,,
4123,<p>You got 8 out of 8 right first time. Press Continue.</p>,0,html-button-response,20,363873,0.0-3.0-25.0,34507,List1B,black,woman,,,,,,,,
161332,"<p>In this experiment, you will view photographs of the people from the memory game interacting.</p><p>By using the <strong>exact</strong> phrase given <i>after</i> the photograph appears and recalling the correct names of the people in the photographs, form a sentence describing the interaction. You do not need to capitalise names.</p><p>Type your answer in the space provided. Please complete every sentence before moving onto the next trial.</p><p>You will only have a few seconds to memorise each given photograph and phrase before you can respond, so try your best to focus.</p><p>An example is given below. Press 'Continue' when you are ready.</p><img src='img/speaking_example.jpg' style='width:800px;height:460px;''></img>",0,html-button-response,21,526211,0.0-4.0,34507,List1B,black,woman,,,,,,,,
2578,"<p>Before the experiment starts, you will watch two example trials. Press 'Continue'.</p>",0,html-button-response,22,529793,0.0-5.0,34507,List1B,black,woman,,,,,,,,
null,<img src='img/meet_eg.gif' style='height:400px;''></img>,,html-keyboard-response,23,532798,0.0-6.0,34507,List1B,black,woman,,,,null,,,,
null,<p>is meeting</p>,,html-keyboard-response,24,534801,0.0-7.0,34507,List1B,black,woman,,,,null,,,,
5158,<p><b>Answer:</b> kate is meeting beth</p>,0,html-button-response,25,539962,0.0-8.0,34507,List1B,black,woman,,,,,,,,
null,<img src='img/look_eg.gif' style='height:400px;''></img>,,html-keyboard-response,26,542966,0.0-9.0,34507,List1B,black,woman,,,,null,,,,
null,<p>are looking at each other</p>,,html-keyboard-response,27,544970,0.0-10.0,34507,List1B,black,woman,,,,null,,,,
1676,<p><b>Answer:</b> luke and dave are looking at each other</p>,0,html-button-response,28,546647,0.0-11.0,34507,List1B,black,woman,,,,,,,,
10831,"<p>Ready to start the experiment?</p><br><p><strong>Remember to describe the picture using a full sentence,</strong></p><p><strong>that combines the names of the people with the <i>exact</i> phrase given.</strong></p><p><strong>To receive full payment you must do this correctly.</strong></p><p><strong> You do not need to capitalise names or use punctuation.</strong></p><br><p>Press 'Continue' to begin.</p>",0,html-button-response,29,558483,0.0-12.0,34507,List1B,black,woman,,,,,,,,
null,"<div style=""font-size:60px;"">+</div>",,html-keyboard-response,30,559987,0.0-13.0-0.0,34507,List1B,black,woman,,,,null,,,,
null,"<img src=""stim_listB/shout8.gif""style=""height:400px;""></stim_listB>",,html-keyboard-response,31,561993,0.0-13.0-1.0,34507,List1B,black,woman,,,,null,,,,
null,are shouting at each other,,html-keyboard-response,32,563998,0.0-13.0-2.0,34507,List1B,black,woman,,,,null,,,,
25404,,,survey-text,33,589409,0.0-13.0-3.0,34507,List1B,black,woman,,,,,"{""Q0"":""Kate and Jane""}","<img src=""stim_listB/shout8.gif""style=""height:400px;""></stim_listB>",are shouting at each other,
null,"<div style=""font-size:60px;"">+</div>",,html-keyboard-response,34,589920,0.0-13.0-0.1,34507,List1B,black,woman,,,,null,,,,
null,"<img src=""stim_listB/argue3.gif""style=""height:400px;""></stim_listB>",,html-keyboard-response,35,591925,0.0-13.0-1.1,34507,List1B,black,woman,,,,null,,,,
null,is arguing with,,html-keyboard-response,36,593929,0.0-13.0-2.1,34507,List1B,black,woman,,,,null,,,,
33358,,,survey-text,37,627295,0.0-13.0-3.1,34507,List1B,black,woman,,,,,"{""Q0"":""Dave is arguing with Ruth""}","<img src=""stim_listB/argue3.gif""style=""height:400px;""></stim_listB>",is arguing with,
null,"<div style=""font-size:60px;"">+</div>",,html-keyboard-response,38,627806,0.0-13.0-0.2,34507,List1B,black,woman,,,,null,,,,
null,"<img src=""stim_listB/touch8.gif""style=""height:400px;""></stim_listB>",,html-keyboard-response,39,629812,0.0-13.0-1.2,34507,List1B,black,woman,,,,null,,,,
null,are touching each other,,html-keyboard-response,40,631816,0.0-13.0-2.2,34507,List1B,black,woman,,,,null,,,,
27143,,,survey-text,41,658968,0.0-13.0-3.2,34507,List1B,black,woman,,,,,"{""Q0"":""Ruth and Beth are touching each other""}","<img src=""stim_listB/touch8.gif""style=""height:400px;""></stim_listB>",are touching each other,
null,"<div style=""font-size:60px;"">+</div>",,html-keyboard-response,42,659478,0.0-13.0-0.3,34507,List1B,black,woman,,,,null,,,,
null,"<img src=""stim_listB/touch3.gif""style=""height:400px;""></stim_listB>",,html-keyboard-response,43,661484,0.0-13.0-1.3,34507,List1B,black,woman,,,,null,,,,
null,is touching,,html-keyboard-response,44,663488,0.0-13.0-2.3,34507,List1B,black,woman,,,,null,,,,
18305,,,survey-text,45,681802,0.0-13.0-3.3,34507,List1B,black,woman,,,,,"{""Q0"":""Dave is touching Jane""}","<img src=""stim_listB/touch3.gif""style=""height:400px;""></stim_listB>",is touching,
null,"<div style=""font-size:60px;"">+</div>",,html-keyboard-response,46,682312,0.0-13.0-0.4,34507,List1B,black,woman,,,,null,,,,
null,"<img src=""stim_listB/kiss1.gif""style=""height:400px;""></stim_listB>",,html-keyboard-response,47,684317,0.0-13.0-1.4,34507,List1B,black,woman,,,,null,,,,
null,is kissing,,html-keyboard-response,48,686321,0.0-13.0-2.4,34507,List1B,black,woman,,,,null,,,,
15558,,,survey-text,49,701888,0.0-13.0-3.4,34507,List1B,black,woman,,,,,"{""Q0"":""Fred is kissing Beth ""}","<img src=""stim_listB/kiss1.gif""style=""height:400px;""></stim_listB>",is kissing,
null,"<div style=""font-size:60px;"">+</div>",,html-keyboard-response,50,702399,0.0-13.0-0.5,34507,List1B,black,woman,,,,null,,,,
null,"<img src=""stim_listB/fight4.gif""style=""height:400px;""></stim_listB>",,html-keyboard-response,51,704404,0.0-13.0-1.5,34507,List1B,black,woman,,,,null,,,,
null,are fighting each other,,html-keyboard-response,52,706408,0.0-13.0-2.5,34507,List1B,black,woman,,,,null,,,,
22062,,,survey-text,53,728476,0.0-13.0-3.5,34507,List1B,black,woman,,,,,"{""Q0"":""Ruth and Luke are fighting each other ""}","<img src=""stim_listB/fight4.gif""style=""height:400px;""></stim_listB>",are fighting each other,
null,"<div style=""font-size:60px;"">+</div>",,html-keyboard-response,54,728986,0.0-13.0-0.6,34507,List1B,black,woman,,,,null,,,,
null,"<img src=""stim_listB/touch6.gif""style=""height:400px;""></stim_listB>",,html-keyboard-response,55,730992,0.0-13.0-1.6,34507,List1B,black,woman,,,,null,,,,
null,are touching each other,,html-keyboard-response,56,732996,0.0-13.0-2.6,34507,List1B,black,woman,,,,null,,,,
26176,,,survey-text,57,759179,0.0-13.0-3.6,34507,List1B,black,woman,,,,,"{""Q0"":""Free and Luke are touching each other""}","<img src=""stim_listB/touch6.gif""style=""height:400px;""></stim_listB>",are touching each other,
null,"<div style=""font-size:60px;"">+</div>",,html-keyboard-response,58,759690,0.0-13.0-0.7,34507,List1B,black,woman,,,,null,,,,
null,"<img src=""stim_listB/play1.gif""style=""height:400px;""></stim_listB>",,html-keyboard-response,59,761696,0.0-13.0-1.7,34507,List1B,black,woman,,,,null,,,,
null,is playing with,,html-keyboard-response,60,763700,0.0-13.0-2.7,34507,List1B,black,woman,,,,null,,,,
32393,,,survey-text,61,796100,0.0-13.0-3.7,34507,List1B,black,woman,,,,,"{""Q0"":""Kate is playing with mike""}","<img src=""stim_listB/play1.gif""style=""height:400px;""></stim_listB>",is playing with,
null,"<div style=""font-size:60px;"">+</div>",,html-keyboard-response,62,796612,0.0-13.0-0.8,34507,List1B,black,woman,,,,null,,,,
null,"<img src=""stim_listB/dance5.gif""style=""height:400px;""></stim_listB>",,html-keyboard-response,63,798618,0.0-13.0-1.8,34507,List1B,black,woman,,,,null,,,,
null,is dancing with,,html-keyboard-response,64,800622,0.0-13.0-2.8,34507,List1B,black,woman,,,,null,,,,
17239,,,survey-text,65,817869,0.0-13.0-3.8,34507,List1B,black,woman,,,,,"{""Q0"":""Fred is dancing with Beth""}","<img src=""stim_listB/dance5.gif""style=""height:400px;""></stim_listB>",is dancing with,
null,"<div style=""font-size:60px;"">+</div>",,html-keyboard-response,66,818380,0.0-13.0-0.9,34507,List1B,black,woman,,,,null,,,,
null,"<img src=""stim_listB/marry8.gif""style=""height:400px;""></stim_listB>",,html-keyboard-response,67,820386,0.0-13.0-1.9,34507,List1B,black,woman,,,,null,,,,
null,are marrying each other,,html-keyboard-response,68,822390,0.0-13.0-2.9,34507,List1B,black,woman,,,,null,,,,
30460,,,survey-text,69,852858,0.0-13.0-3.9,34507,List1B,black,woman,,,,,"{""Q0"":""Beth and mike are marrying each other""}","<img src=""stim_listB/marry8.gif""style=""height:400px;""></stim_listB>",are marrying each other,
null,"<div style=""font-size:60px;"">+</div>",,html-keyboard-response,70,853369,0.0-13.0-0.10,34507,List1B,black,woman,,,,null,,,,
null,"<img src=""stim_listB/argue5.gif""style=""height:400px;""></stim_listB>",,html-keyboard-response,71,855374,0.0-13.0-1.10,34507,List1B,black,woman,,,,null,,,,
null,is arguing with,,html-keyboard-response,72,857378,0.0-13.0-2.10,34507,List1B,black,woman,,,,null,,,,
36572,,,survey-text,73,893955,0.0-13.0-3.10,34507,List1B,black,woman,,,,,"{""Q0"":""Luke is arguing with mike""}","<img src=""stim_listB/argue5.gif""style=""height:400px;""></stim_listB>",is arguing with,
null,"<div style=""font-size:60px;"">+</div>",,html-keyboard-response,74,894463,0.0-13.0-0.11,34507,List1B,black,woman,,,,null,,,,
null,"<img src=""stim_listB/play7.gif""style=""height:400px;""></stim_listB>",,html-keyboard-response,75,896470,0.0-13.0-1.11,34507,List1B,black,woman,,,,null,,,,
null,is playing with,,html-keyboard-response,76,898474,0.0-13.0-2.11,34507,List1B,black,woman,,,,null,,,,
30090,,,survey-text,77,928569,0.0-13.0-3.11,34507,List1B,black,woman,,,,,"{""Q0"":""Kate is playing with Jane ""}","<img src=""stim_listB/play7.gif""style=""height:400px;""></stim_listB>",is playing with,
null,"<div style=""font-size:60px;"">+</div>",,html-keyboard-response,78,929081,0.0-13.0-0.12,34507,List1B,black,woman,,,,null,,,,
null,"<img src=""stim_listB/shout6.gif""style=""height:400px;""></stim_listB>",,html-keyboard-response,79,931086,0.0-13.0-1.12,34507,List1B,black,woman,,,,null,,,,
null,are shouting at each other,,html-keyboard-response,80,933091,0.0-13.0-2.12,34507,List1B,black,woman,,,,null,,,,
32724,,,survey-text,81,965822,0.0-13.0-3.12,34507,List1B,black,woman,,,,,"{""Q0"":""Dave and mike are shouting at each other""}","<img src=""stim_listB/shout6.gif""style=""height:400px;""></stim_listB>",are shouting at each other,
null,"<div style=""font-size:60px;"">+</div>",,html-keyboard-response,82,966333,0.0-13.0-0.13,34507,List1B,black,woman,,,,null,,,,
null,"<img src=""stim_listB/fight3.gif""style=""height:400px;""></stim_listB>",,html-keyboard-response,83,968339,0.0-13.0-1.13,34507,List1B,black,woman,,,,null,,,,
null,is fighting,,html-keyboard-response,84,970344,0.0-13.0-2.13,34507,List1B,black,woman,,,,null,,,,
18641,,,survey-text,85,988992,0.0-13.0-3.13,34507,List1B,black,woman,,,,,"{""Q0"":""Dave is fighting Jane ""}","<img src=""stim_listB/fight3.gif""style=""height:400px;""></stim_listB>",is fighting,
null,"<div style=""font-size:60px;"">+</div>",,html-keyboard-response,86,989503,0.0-13.0-0.14,34507,List1B,black,woman,,,,null,,,,
null,"<img src=""stim_listB/flirt8.gif""style=""height:400px;""></stim_listB>",,html-keyboard-response,87,991508,0.0-13.0-1.14,34507,List1B,black,woman,,,,null,,,,
null,are flirting with each other,,html-keyboard-response,88,993513,0.0-13.0-2.14,34507,List1B,black,woman,,,,null,,,,
29457,,,survey-text,89,1022977,0.0-13.0-3.14,34507,List1B,black,woman,,,,,"{""Q0"":""Ruth and Kate are flirting with each other ""}","<img src=""stim_listB/flirt8.gif""style=""height:400px;""></stim_listB>",are flirting with each other,
null,"<div style=""font-size:60px;"">+</div>",,html-keyboard-response,90,1023488,0.0-13.0-0.15,34507,List1B,black,woman,,,,null,,,,
null,"<img src=""stim_listB/dance1.gif""style=""height:400px;""></stim_listB>",,html-keyboard-response,91,1025494,0.0-13.0-1.15,34507,List1B,black,woman,,,,null,,,,
null,is dancing with,,html-keyboard-response,92,1027499,0.0-13.0-2.15,34507,List1B,black,woman,,,,null,,,,
23909,,,survey-text,93,1051415,0.0-13.0-3.15,34507,List1B,black,woman,,,,,"{""Q0"":""Fred is dancing with Beth ""}","<img src=""stim_listB/dance1.gif""style=""height:400px;""></stim_listB>",is dancing with,
null,"<div style=""font-size:60px;"">+</div>",,html-keyboard-response,94,1051926,0.0-13.0-0.16,34507,List1B,black,woman,,,,null,,,,
null,"<img src=""stim_listB/flirt7.gif""style=""height:400px;""></stim_listB>",,html-keyboard-response,95,1053931,0.0-13.0-1.16,34507,List1B,black,woman,,,,null,,,,
null,is flirting with,,html-keyboard-response,96,1055934,0.0-13.0-2.16,34507,List1B,black,woman,,,,null,,,,
87436,,,survey-text,97,1143378,0.0-13.0-3.16,34507,List1B,black,woman,,,,,"{""Q0"":""Beth is flirting with Jane ""}","<img src=""stim_listB/flirt7.gif""style=""height:400px;""></stim_listB>",is flirting with,
null,"<div style=""font-size:60px;"">+</div>",,html-keyboard-response,98,1143889,0.0-13.0-0.17,34507,List1B,black,woman,,,,null,,,,
null,"<img src=""stim_listB/touch1.gif""style=""height:400px;""></stim_listB>",,html-keyboard-response,99,1145895,0.0-13.0-1.17,34507,List1B,black,woman,,,,null,,,,
null,is touching,,html-keyboard-response,100,1147900,0.0-13.0-2.17,34507,List1B,black,woman,,,,null,,,,
18256,,,survey-text,101,1166163,0.0-13.0-3.17,34507,List1B,black,woman,,,,,"{""Q0"":""Kate is touching mike""}","<img src=""stim_listB/touch1.gif""style=""height:400px;""></stim_listB>",is touching,
null,"<div style=""font-size:60px;"">+</div>",,html-keyboard-response,102,1166674,0.0-13.0-0.18,34507,List1B,black,woman,,,,null,,,,
null,"<img src=""stim_listB/play3.gif""style=""height:400px;""></stim_listB>",,html-keyboard-response,103,1168679,0.0-13.0-1.18,34507,List1B,black,woman,,,,null,,,,
null,is playing with,,html-keyboard-response,104,1170684,0.0-13.0-2.18,34507,List1B,black,woman,,,,null,,,,
16357,,,survey-text,105,1187046,0.0-13.0-3.18,34507,List1B,black,woman,,,,,"{""Q0"":""Dave is playing with Jane""}","<img src=""stim_listB/play3.gif""style=""height:400px;""></stim_listB>",is playing with,
null,"<div style=""font-size:60px;"">+</div>",,html-keyboard-response,106,1187556,0.0-13.0-0.19,34507,List1B,black,woman,,,,null,,,,
null,"<img src=""stim_listB/dance2.gif""style=""height:400px;""></stim_listB>",,html-keyboard-response,107,1189563,0.0-13.0-1.19,34507,List1B,black,woman,,,,null,,,,
null,are dancing with each other,,html-keyboard-response,108,1191568,0.0-13.0-2.19,34507,List1B,black,woman,,,,null,,,,
24841,,,survey-text,109,1216415,0.0-13.0-3.19,34507,List1B,black,woman,,,,,"{""Q0"":""Beth and mike are dancing with each other""}","<img src=""stim_listB/dance2.gif""style=""height:400px;""></stim_listB>",are dancing with each other,
19232,"<img src='img/portrait_matrix_list1.jpg' style='width:900px;height:500px;''></img><p>If you have memorised all the portraits and names and are ready to start, press Continue.</p><p><strong>Please note: Your memory of these faces will be tested 4 times during this experiment.</strong></p>",0,html-button-response,110,1235656,0.0-14.0-0.0,34507,List1B,black,woman,,,,,,,,
12592,"<img src=""portrait/BW1.jpg""style=""height:400px;""></img>",0,html-button-response,111,1249253,0.0-14.0-1.0,34507,List1B,black,woman,,TRUE,0,,,,,
null,CORRECT,,html-keyboard-response,112,1250764,0.0-14.0-2.0-0.0,34507,List1B,black,woman,,,,null,,,,
4717,"<img src=""portrait/WM2.jpg""style=""height:400px;""></img>",7,html-button-response,113,1255487,0.0-14.0-4.0,34507,List1B,black,woman,,TRUE,7,,,,,
null,CORRECT,,html-keyboard-response,114,1256991,0.0-14.0-5.0-0.0,34507,List1B,black,woman,,,,null,,,,
7813,"<img src=""portrait/BM1.jpg""style=""height:400px;""></img>",4,html-button-response,115,1264811,0.0-14.0-7.0,34507,List1B,black,woman,,TRUE,4,,,,,
null,CORRECT,,html-keyboard-response,116,1266326,0.0-14.0-8.0-0.0,34507,List1B,black,woman,,,,null,,,,
5541,"<img src=""portrait/BM2.jpg""style=""height:400px;""></img>",5,html-button-response,117,1271875,0.0-14.0-10.0,34507,List1B,black,woman,,TRUE,5,,,,,
null,CORRECT,,html-keyboard-response,118,1273379,0.0-14.0-11.0-0.0,34507,List1B,black,woman,,,,null,,,,
5022,"<img src=""portrait/WW1.jpg""style=""height:400px;""></img>",1,html-button-response,119,1278406,0.0-14.0-13.0,34507,List1B,black,woman,,TRUE,1,,,,,
null,CORRECT,,html-keyboard-response,120,1279910,0.0-14.0-14.0-0.0,34507,List1B,black,woman,,,,null,,,,
6209,"<img src=""portrait/WW2.jpg""style=""height:400px;""></img>",3,html-button-response,121,1286124,0.0-14.0-16.0,34507,List1B,black,woman,,TRUE,3,,,,,
null,CORRECT,,html-keyboard-response,122,1287629,0.0-14.0-17.0-0.0,34507,List1B,black,woman,,,,null,,,,
6691,"<img src=""portrait/BW2.jpg""style=""height:400px;""></img>",2,html-button-response,123,1294326,0.0-14.0-19.0,34507,List1B,black,woman,,TRUE,2,,,,,
null,CORRECT,,html-keyboard-response,124,1295830,0.0-14.0-20.0-0.0,34507,List1B,black,woman,,,,null,,,,
5291,"<img src=""portrait/WM1.jpg""style=""height:400px;""></img>",6,html-button-response,125,1301126,0.0-14.0-22.0,34507,List1B,black,woman,,TRUE,6,,,,,
null,CORRECT,,html-keyboard-response,126,1302631,0.0-14.0-23.0-0.0,34507,List1B,black,woman,,,,null,,,,
2088,<p>You got 8 out of 8 right first time. Press Continue.</p>,0,html-button-response,127,1304726,0.0-14.0-25.0,34507,List1B,black,woman,,,,,,,,
null,"<div style=""font-size:60px;"">+</div>",,html-keyboard-response,128,1306234,0.0-15.0-0.0,34507,List1B,black,woman,,,,null,,,,
null,"<img src=""stim_listB/fight8.gif""style=""height:400px;""></stim_listB>",,html-keyboard-response,129,1308239,0.0-15.0-1.0,34507,List1B,black,woman,,,,null,,,,
null,are fighting each other,,html-keyboard-response,130,1310243,0.0-15.0-2.0,34507,List1B,black,woman,,,,null,,,,
20453,,,survey-text,131,1330703,0.0-15.0-3.0,34507,List1B,black,woman,,,,,"{""Q0"":""Ruth and Beth are fighting each other ""}","<img src=""stim_listB/fight8.gif""style=""height:400px;""></stim_listB>",are fighting each other,
null,"<div style=""font-size:60px;"">+</div>",,html-keyboard-response,132,1331209,0.0-15.0-0.1,34507,List1B,black,woman,,,,null,,,,
null,"<img src=""stim_listB/marry1.gif""style=""height:400px;""></stim_listB>",,html-keyboard-response,133,1333214,0.0-15.0-1.1,34507,List1B,black,woman,,,,null,,,,
null,is marrying,,html-keyboard-response,134,1335218,0.0-15.0-2.1,34507,List1B,black,woman,,,,null,,,,
17514,,,survey-text,135,1352738,0.0-15.0-3.1,34507,List1B,black,woman,,,,,"{""Q0"":""Mike is marrying Beth ""}","<img src=""stim_listB/marry1.gif""style=""height:400px;""></stim_listB>",is marrying,
null,"<div style=""font-size:60px;"">+</div>",,html-keyboard-response,136,1353249,0.0-15.0-0.2,34507,List1B,black,woman,,,,null,,,,
null,"<img src=""stim_listB/kiss8.gif""style=""height:400px;""></stim_listB>",,html-keyboard-response,137,1355254,0.0-15.0-1.2,34507,List1B,black,woman,,,,null,,,,
null,are kissing each other,,html-keyboard-response,138,1357259,0.0-15.0-2.2,34507,List1B,black,woman,,,,null,,,,
17494,,,survey-text,139,1374758,0.0-15.0-3.2,34507,List1B,black,woman,,,,,"{""Q0"":""Kate and Jane are kissing each other ""}","<img src=""stim_listB/kiss8.gif""style=""height:400px;""></stim_listB>",are kissing each other,
null,"<div style=""font-size:60px;"">+</div>",,html-keyboard-response,140,1375262,0.0-15.0-0.3,34507,List1B,black,woman,,,,null,,,,
null,"<img src=""stim_listB/dance7.gif""style=""height:400px;""></stim_listB>",,html-keyboard-response,141,1377267,0.0-15.0-1.3,34507,List1B,black,woman,,,,null,,,,
null,is dancing with,,html-keyboard-response,142,1379271,0.0-15.0-2.3,34507,List1B,black,woman,,,,null,,,,
19732,,,survey-text,143,1399006,0.0-15.0-3.3,34507,List1B,black,woman,,,,,"{""Q0"":""Jane is dancing with Beth ""}","<img src=""stim_listB/dance7.gif""style=""height:400px;""></stim_listB>",is dancing with,
null,"<div style=""font-size:60px;"">+</div>",,html-keyboard-response,144,1399510,0.0-15.0-0.4,34507,List1B,black,woman,,,,null,,,,
null,"<img src=""stim_listB/dance4.gif""style=""height:400px;""></stim_listB>",,html-keyboard-response,145,1401515,0.0-15.0-1.4,34507,List1B,black,woman,,,,null,,,,
null,are dancing with each other,,html-keyboard-response,146,1403519,0.0-15.0-2.4,34507,List1B,black,woman,,,,null,,,,
16610,,,survey-text,147,1420133,0.0-15.0-3.4,34507,List1B,black,woman,,,,,"{""Q0"":""Dave and Ruth are dancing with each other""}","<img src=""stim_listB/dance4.gif""style=""height:400px;""></stim_listB>",are dancing with each other,
null,"<div style=""font-size:60px;"">+</div>",,html-keyboard-response,148,1420645,0.0-15.0-0.5,34507,List1B,black,woman,,,,null,,,,
null,"<img src=""stim_listB/kiss5.gif""style=""height:400px;""></stim_listB>",,html-keyboard-response,149,1422650,0.0-15.0-1.5,34507,List1B,black,woman,,,,null,,,,
null,is kissing,,html-keyboard-response,150,1424656,0.0-15.0-2.5,34507,List1B,black,woman,,,,null,,,,
11203,,,survey-text,151,1435867,0.0-15.0-3.5,34507,List1B,black,woman,,,,,"{""Q0"":""Fred is kissing Luke""}","<img src=""stim_listB/kiss5.gif""style=""height:400px;""></stim_listB>",is kissing,
null,"<div style=""font-size:60px;"">+</div>",,html-keyboard-response,152,1436377,0.0-15.0-0.6,34507,List1B,black,woman,,,,null,,,,
null,"<img src=""stim_listB/kiss7.gif""style=""height:400px;""></stim_listB>",,html-keyboard-response,153,1438383,0.0-15.0-1.6,34507,List1B,black,woman,,,,null,,,,
null,is kissing,,html-keyboard-response,154,1440388,0.0-15.0-2.6,34507,List1B,black,woman,,,,null,,,,
16641,,,survey-text,155,1457034,0.0-15.0-3.6,34507,List1B,black,woman,,,,,"{""Q0"":""Beth is kissing Ruth ""}","<img src=""stim_listB/kiss7.gif""style=""height:400px;""></stim_listB>",is kissing,
null,"<div style=""font-size:60px;"">+</div>",,html-keyboard-response,156,1457546,0.0-15.0-0.7,34507,List1B,black,woman,,,,null,,,,
null,"<img src=""stim_listB/marry4.gif""style=""height:400px;""></stim_listB>",,html-keyboard-response,157,1459552,0.0-15.0-1.7,34507,List1B,black,woman,,,,null,,,,
null,are marrying each other,,html-keyboard-response,158,1461556,0.0-15.0-2.7,34507,List1B,black,woman,,,,null,,,,
23262,,,survey-text,159,1484823,0.0-15.0-3.7,34507,List1B,black,woman,,,,,"{""Q0"":""Luke and Jane are marrying each other""}","<img src=""stim_listB/marry4.gif""style=""height:400px;""></stim_listB>",are marrying each other,
null,"<div style=""font-size:60px;"">+</div>",,html-keyboard-response,160,1485335,0.0-15.0-0.8,34507,List1B,black,woman,,,,null,,,,
null,"<img src=""stim_listB/fight1.gif""style=""height:400px;""></stim_listB>",,html-keyboard-response,161,1487341,0.0-15.0-1.8,34507,List1B,black,woman,,,,null,,,,
null,is fighting,,html-keyboard-response,162,1489345,0.0-15.0-2.8,34507,List1B,black,woman,,,,null,,,,
16389,,,survey-text,163,1505740,0.0-15.0-3.8,34507,List1B,black,woman,,,,,"{""Q0"":""Mike is fighting kate""}","<img src=""stim_listB/fight1.gif""style=""height:400px;""></stim_listB>",is fighting,
null,"<div style=""font-size:60px;"">+</div>",,html-keyboard-response,164,1506251,0.0-15.0-0.9,34507,List1B,black,woman,,,,null,,,,
null,"<img src=""stim_listB/dance8.gif""style=""height:400px;""></stim_listB>",,html-keyboard-response,165,1508257,0.0-15.0-1.9,34507,List1B,black,woman,,,,null,,,,
null,are dancing with each other,,html-keyboard-response,166,1510261,0.0-15.0-2.9,34507,List1B,black,woman,,,,null,,,,
18380,,,survey-text,167,1528645,0.0-15.0-3.9,34507,List1B,black,woman,,,,,"{""Q0"":""Ruth and Kate are dancing with each other""}","<img src=""stim_listB/dance8.gif""style=""height:400px;""></stim_listB>",are dancing with each other,
null,"<div style=""font-size:60px;"">+</div>",,html-keyboard-response,168,1529156,0.0-15.0-0.10,34507,List1B,black,woman,,,,null,,,,
null,"<img src=""stim_listB/talk2.gif""style=""height:400px;""></stim_listB>",,html-keyboard-response,169,1531163,0.0-15.0-1.10,34507,List1B,black,woman,,,,null,,,,
null,are talking to each other,,html-keyboard-response,170,1533167,0.0-15.0-2.10,34507,List1B,black,woman,,,,null,,,,
18723,,,survey-text,171,1551899,0.0-15.0-3.10,34507,List1B,black,woman,,,,,"{""Q0"":""Mike and Beth are taking to each other""}","<img src=""stim_listB/talk2.gif""style=""height:400px;""></stim_listB>",are talking to each other,
null,"<div style=""font-size:60px;"">+</div>",,html-keyboard-response,172,1552411,0.0-15.0-0.11,34507,List1B,black,woman,,,,null,,,,
null,"<img src=""stim_listB/shout1.gif""style=""height:400px;""></stim_listB>",,html-keyboard-response,173,1554417,0.0-15.0-1.11,34507,List1B,black,woman,,,,null,,,,
null,is shouting at,,html-keyboard-response,174,1556421,0.0-15.0-2.11,34507,List1B,black,woman,,,,null,,,,
14407,,,survey-text,175,1570830,0.0-15.0-3.11,34507,List1B,black,woman,,,,,"{""Q0"":""Beth is shouting at Fred""}","<img src=""stim_listB/shout1.gif""style=""height:400px;""></stim_listB>",is shouting at,
null,"<div style=""font-size:60px;"">+</div>",,html-keyboard-response,176,1571336,0.0-15.0-0.12,34507,List1B,black,woman,,,,null,,,,
null,"<img src=""stim_listB/shout3.gif""style=""height:400px;""></stim_listB>",,html-keyboard-response,177,1573340,0.0-15.0-1.12,34507,List1B,black,woman,,,,null,,,,
null,is shouting at,,html-keyboard-response,178,1575344,0.0-15.0-2.12,34507,List1B,black,woman,,,,null,,,,
18570,,,survey-text,179,1593919,0.0-15.0-3.12,34507,List1B,black,woman,,,,,"{""Q0"":""Luke is shouting at Ruth""}","<img src=""stim_listB/shout3.gif""style=""height:400px;""></stim_listB>",is shouting at,
null,"<div style=""font-size:60px;"">+</div>",,html-keyboard-response,180,1594430,0.0-15.0-0.13,34507,List1B,black,woman,,,,null,,,,
null,"<img src=""stim_listB/play6.gif""style=""height:400px;""></stim_listB>",,html-keyboard-response,181,1596436,0.0-15.0-1.13,34507,List1B,black,woman,,,,null,,,,
null,are playing with each other,,html-keyboard-response,182,1598441,0.0-15.0-2.13,34507,List1B,black,woman,,,,null,,,,
18274,,,survey-text,183,1616722,0.0-15.0-3.13,34507,List1B,black,woman,,,,,"{""Q0"":""Fred and like are playing with each other""}","<img src=""stim_listB/play6.gif""style=""height:400px;""></stim_listB>",are playing with each other,
null,"<div style=""font-size:60px;"">+</div>",,html-keyboard-response,184,1617232,0.0-15.0-0.14,34507,List1B,black,woman,,,,null,,,,
null,"<img src=""stim_listB/shout4.gif""style=""height:400px;""></stim_listB>",,html-keyboard-response,185,1619239,0.0-15.0-1.14,34507,List1B,black,woman,,,,null,,,,
null,are shouting at each other,,html-keyboard-response,186,1621243,0.0-15.0-2.14,34507,List1B,black,woman,,,,null,,,,
20957,,,survey-text,187,1642207,0.0-15.0-3.14,34507,List1B,black,woman,,,,,"{""Q0"":""Dave and Jane are shouting at each other""}","<img src=""stim_listB/shout4.gif""style=""height:400px;""></stim_listB>",are shouting at each other,
null,"<div style=""font-size:60px;"">+</div>",,html-keyboard-response,188,1642711,0.0-15.0-0.15,34507,List1B,black,woman,,,,null,,,,
null,"<img src=""stim_listB/kiss4.gif""style=""height:400px;""></stim_listB>",,html-keyboard-response,189,1644716,0.0-15.0-1.15,34507,List1B,black,woman,,,,null,,,,
null,are kissing each other,,html-keyboard-response,190,1646720,0.0-15.0-2.15,34507,List1B,black,woman,,,,null,,,,
20020,,,survey-text,191,1666742,0.0-15.0-3.15,34507,List1B,black,woman,,,,,"{""Q0"":""Dave and Ruth are kissing each other ""}","<img src=""stim_listB/kiss4.gif""style=""height:400px;""></stim_listB>",are kissing each other,
null,"<div style=""font-size:60px;"">+</div>",,html-keyboard-response,192,1667246,0.0-15.0-0.16,34507,List1B,black,woman,,,,null,,,,
null,"<img src=""stim_listB/marry5.gif""style=""height:400px;""></stim_listB>",,html-keyboard-response,193,1669251,0.0-15.0-1.16,34507,List1B,black,woman,,,,null,,,,
null,is marrying,,html-keyboard-response,194,1671255,0.0-15.0-2.16,34507,List1B,black,woman,,,,null,,,,
22921,,,survey-text,195,1694182,0.0-15.0-3.16,34507,List1B,black,woman,,,,,"{""Q0"":""Mike is marrying luke""}","<img src=""stim_listB/marry5.gif""style=""height:400px;""></stim_listB>",is marrying,
null,"<div style=""font-size:60px;"">+</div>",,html-keyboard-response,196,1694693,0.0-15.0-0.17,34507,List1B,black,woman,,,,null,,,,
null,"<img src=""stim_listB/touch5.gif""style=""height:400px;""></stim_listB>",,html-keyboard-response,197,1696700,0.0-15.0-1.17,34507,List1B,black,woman,,,,null,,,,
null,is touching,,html-keyboard-response,198,1698704,0.0-15.0-2.17,34507,List1B,black,woman,,,,null,,,,
18490,,,survey-text,199,1717200,0.0-15.0-3.17,34507,List1B,black,woman,,,,,"{""Q0"":""Mike is touching Dave""}","<img src=""stim_listB/touch5.gif""style=""height:400px;""></stim_listB>",is touching,
null,"<div style=""font-size:60px;"">+</div>",,html-keyboard-response,200,1717712,0.0-15.0-0.18,34507,List1B,black,woman,,,,null,,,,
null,"<img src=""stim_listB/marry6.gif""style=""height:400px;""></stim_listB>",,html-keyboard-response,201,1719718,0.0-15.0-1.18,34507,List1B,black,woman,,,,null,,,,
null,are marrying each other,,html-keyboard-response,202,1721722,0.0-15.0-2.18,34507,List1B,black,woman,,,,null,,,,
19642,,,survey-text,203,1741370,0.0-15.0-3.18,34507,List1B,black,woman,,,,,"{""Q0"":""Dave and Fred are marrying each other""}","<img src=""stim_listB/marry6.gif""style=""height:400px;""></stim_listB>",are marrying each other,
null,"<div style=""font-size:60px;"">+</div>",,html-keyboard-response,204,1741875,0.0-15.0-0.19,34507,List1B,black,woman,,,,null,,,,
null,"<img src=""stim_listB/talk8.gif""style=""height:400px;""></stim_listB>",,html-keyboard-response,205,1743880,0.0-15.0-1.19,34507,List1B,black,woman,,,,null,,,,
null,are talking to each other,,html-keyboard-response,206,1745885,0.0-15.0-2.19,34507,List1B,black,woman,,,,null,,,,
51387,,,survey-text,207,1797276,0.0-15.0-3.19,34507,List1B,black,woman,,,,,"{""Q0"":""Ruth and Kate are talking to each other""}","<img src=""stim_listB/talk8.gif""style=""height:400px;""></stim_listB>",are talking to each other,
6378,"<img src='img/portrait_matrix_list1.jpg' style='width:900px;height:500px;''></img><p>If you have memorised all the portraits and names and are ready to start, press Continue.</p><p><strong>Please note: Your memory of these faces will be tested 4 times during this experiment.</strong></p>",0,html-button-response,208,1803662,0.0-16.0-0.0,34507,List1B,black,woman,,,,,,,,
3190,"<img src=""portrait/WM2.jpg""style=""height:400px;""></img>",7,html-button-response,209,1807857,0.0-16.0-1.0,34507,List1B,black,woman,,TRUE,7,,,,,
null,CORRECT,,html-keyboard-response,210,1809367,0.0-16.0-2.0-0.0,34507,List1B,black,woman,,,,null,,,,
2819,"<img src=""portrait/WM1.jpg""style=""height:400px;""></img>",6,html-button-response,211,1812192,0.0-16.0-4.0,34507,List1B,black,woman,,TRUE,6,,,,,
null,CORRECT,,html-keyboard-response,212,1813697,0.0-16.0-5.0-0.0,34507,List1B,black,woman,,,,null,,,,
5039,"<img src=""portrait/BW2.jpg""style=""height:400px;""></img>",2,html-button-response,213,1818742,0.0-16.0-7.0,34507,List1B,black,woman,,TRUE,2,,,,,
null,CORRECT,,html-keyboard-response,214,1820246,0.0-16.0-8.0-0.0,34507,List1B,black,woman,,,,null,,,,
8975,"<img src=""portrait/BM1.jpg""style=""height:400px;""></img>",4,html-button-response,215,1829226,0.0-16.0-10.0,34507,List1B,black,woman,,TRUE,4,,,,,
null,CORRECT,,html-keyboard-response,216,1830730,0.0-16.0-11.0-0.0,34507,List1B,black,woman,,,,null,,,,
3743,"<img src=""portrait/WW2.jpg""style=""height:400px;""></img>",3,html-button-response,217,1834478,0.0-16.0-13.0,34507,List1B,black,woman,,TRUE,3,,,,,
null,CORRECT,,html-keyboard-response,218,1835983,0.0-16.0-14.0-0.0,34507,List1B,black,woman,,,,null,,,,
5473,"<img src=""portrait/BM2.jpg""style=""height:400px;""></img>",5,html-button-response,219,1841461,0.0-16.0-16.0,34507,List1B,black,woman,,TRUE,5,,,,,
null,CORRECT,,html-keyboard-response,220,1842965,0.0-16.0-17.0-0.0,34507,List1B,black,woman,,,,null,,,,
3708,"<img src=""portrait/WW1.jpg""style=""height:400px;""></img>",2,html-button-response,221,1846679,0.0-16.0-19.0,34507,List1B,black,woman,,TRUE,1,,,,,
8995,"<img src=""portrait/WW1.jpg""style=""height:400px;""></img>",1,html-button-response,222,1856679,0.0-16.0-21.0-0.0,34507,List1B,black,woman,,FALSE,1,,,,,
null,CORRECT,,html-keyboard-response,223,1858185,0.0-16.0-21.0-1.0-0.0,34507,List1B,black,woman,,,,null,,,,
5209,"<img src=""portrait/BW1.jpg""style=""height:400px;""></img>",0,html-button-response,224,1863401,0.0-16.0-22.0,34507,List1B,black,woman,,TRUE,0,,,,,
null,CORRECT,,html-keyboard-response,225,1864905,0.0-16.0-23.0-0.0,34507,List1B,black,woman,,,,null,,,,
5539,<p>You got 7 out of 8 right first time. Press Continue.</p>,0,html-button-response,226,1870449,0.0-16.0-25.0,34507,List1B,black,woman,,,,,,,,
8047,"As you did not score 100%, the memory game will repeat. Press Continue.",0,html-button-response,227,1879501,0.0-16.0-26.0-0.0,34507,List1B,black,woman,,,,,,,,
2222,"<img src='img/portrait_matrix_list1.jpg' style='width:900px;height:500px;''></img><p>If you have memorised all the portraits and names and are ready to start, press Continue.</p><p><strong>Please note: Your memory of these faces will be tested 4 times during this experiment.</strong></p>",0,html-button-response,228,1882732,0.0-16.1-0.1,34507,List1B,black,woman,,,,,,,,
2097,"<img src=""portrait/WM2.jpg""style=""height:400px;""></img>",7,html-button-response,229,1885834,0.0-16.1-1.1,34507,List1B,black,woman,,TRUE,7,,,,,
null,CORRECT,,html-keyboard-response,230,1887340,0.0-16.1-2.1-0.1,34507,List1B,black,woman,,,,null,,,,
3041,"<img src=""portrait/WM1.jpg""style=""height:400px;""></img>",6,html-button-response,231,1890387,0.0-16.1-4.1,34507,List1B,black,woman,,TRUE,6,,,,,
null,CORRECT,,html-keyboard-response,232,1891891,0.0-16.1-5.1-0.1,34507,List1B,black,woman,,,,null,,,,
4707,"<img src=""portrait/BW2.jpg""style=""height:400px;""></img>",2,html-button-response,233,1896603,0.0-16.1-7.1,34507,List1B,black,woman,,TRUE,2,,,,,
null,CORRECT,,html-keyboard-response,234,1898108,0.0-16.1-8.1-0.1,34507,List1B,black,woman,,,,null,,,,
4988,"<img src=""portrait/BM1.jpg""style=""height:400px;""></img>",4,html-button-response,235,1903102,0.0-16.1-10.1,34507,List1B,black,woman,,TRUE,4,,,,,
null,CORRECT,,html-keyboard-response,236,1904607,0.0-16.1-11.1-0.1,34507,List1B,black,woman,,,,null,,,,
3941,"<img src=""portrait/WW2.jpg""style=""height:400px;""></img>",3,html-button-response,237,1908553,0.0-16.1-13.1,34507,List1B,black,woman,,TRUE,3,,,,,
null,CORRECT,,html-keyboard-response,238,1910057,0.0-16.1-14.1-0.1,34507,List1B,black,woman,,,,null,,,,
4563,"<img src=""portrait/BM2.jpg""style=""height:400px;""></img>",5,html-button-response,239,1914624,0.0-16.1-16.1,34507,List1B,black,woman,,TRUE,5,,,,,
null,CORRECT,,html-keyboard-response,240,1916136,0.0-16.1-17.1-0.1,34507,List1B,black,woman,,,,null,,,,
5263,"<img src=""portrait/WW1.jpg""style=""height:400px;""></img>",1,html-button-response,241,1921404,0.0-16.1-19.1,34507,List1B,black,woman,,TRUE,1,,,,,
null,CORRECT,,html-keyboard-response,242,1922910,0.0-16.1-20.1-0.1,34507,List1B,black,woman,,,,null,,,,
3523,"<img src=""portrait/BW1.jpg""style=""height:400px;""></img>",0,html-button-response,243,1926438,0.0-16.1-22.1,34507,List1B,black,woman,,TRUE,0,,,,,
null,CORRECT,,html-keyboard-response,244,1927942,0.0-16.1-23.1-0.1,34507,List1B,black,woman,,,,null,,,,
2104,<p>You got 8 out of 8 right first time. Press Continue.</p>,0,html-button-response,245,1930057,0.0-16.1-25.1,34507,List1B,black,woman,,,,,,,,
null,"<div style=""font-size:60px;"">+</div>",,html-keyboard-response,246,1931564,0.0-17.0-0.0,34507,List1B,black,woman,,,,null,,,,
null,"<img src=""stim_listB/flirt2.gif""style=""height:400px;""></stim_listB>",,html-keyboard-response,247,1933569,0.0-17.0-1.0,34507,List1B,black,woman,,,,null,,,,
null,are flirting with each other,,html-keyboard-response,248,1935573,0.0-17.0-2.0,34507,List1B,black,woman,,,,null,,,,
22705,,,survey-text,249,1958284,0.0-17.0-3.0,34507,List1B,black,woman,,,,,"{""Q0"":""Fred and Beth are flirting with each other""}","<img src=""stim_listB/flirt2.gif""style=""height:400px;""></stim_listB>",are flirting with each other,
null,"<div style=""font-size:60px;"">+</div>",,html-keyboard-response,250,1958795,0.0-17.0-0.1,34507,List1B,black,woman,,,,null,,,,
null,"<img src=""stim_listB/dance3.gif""style=""height:400px;""></stim_listB>",,html-keyboard-response,251,1960802,0.0-17.0-1.1,34507,List1B,black,woman,,,,null,,,,
null,is dancing with,,html-keyboard-response,252,1962807,0.0-17.0-2.1,34507,List1B,black,woman,,,,null,,,,
34958,,,survey-text,253,1997772,0.0-17.0-3.1,34507,List1B,black,woman,,,,,"{""Q0"":""Jane and like are dancing with each other""}","<img src=""stim_listB/dance3.gif""style=""height:400px;""></stim_listB>",is dancing with,
null,"<div style=""font-size:60px;"">+</div>",,html-keyboard-response,254,1998284,0.0-17.0-0.2,34507,List1B,black,woman,,,,null,,,,
null,"<img src=""stim_listB/argue1.gif""style=""height:400px;""></stim_listB>",,html-keyboard-response,255,2000290,0.0-17.0-1.2,34507,List1B,black,woman,,,,null,,,,
null,is arguing with,,html-keyboard-response,256,2002295,0.0-17.0-2.2,34507,List1B,black,woman,,,,null,,,,
47809,,,survey-text,257,2050111,0.0-17.0-3.2,34507,List1B,black,woman,,,,,"{""Q0"":""Mike and Beth are dancing with each other ""}","<img src=""stim_listB/argue1.gif""style=""height:400px;""></stim_listB>",is arguing with,
null,"<div style=""font-size:60px;"">+</div>",,html-keyboard-response,258,2050622,0.0-17.0-0.3,34507,List1B,black,woman,,,,null,,,,
null,"<img src=""stim_listB/dance6.gif""style=""height:400px;""></stim_listB>",,html-keyboard-response,259,2052628,0.0-17.0-1.3,34507,List1B,black,woman,,,,null,,,,
null,are dancing with each other,,html-keyboard-response,260,2054632,0.0-17.0-2.3,34507,List1B,black,woman,,,,null,,,,
31645,,,survey-text,261,2086285,0.0-17.0-3.3,34507,List1B,black,woman,,,,,"{""Q0"":""Mike and like are dancing with each other ""}","<img src=""stim_listB/dance6.gif""style=""height:400px;""></stim_listB>",are dancing with each other,
null,"<div style=""font-size:60px;"">+</div>",,html-keyboard-response,262,2086798,0.0-17.0-0.4,34507,List1B,black,woman,,,,null,,,,
null,"<img src=""stim_listB/touch7.gif""style=""height:400px;""></stim_listB>",,html-keyboard-response,263,2088803,0.0-17.0-1.4,34507,List1B,black,woman,,,,null,,,,
null,is touching,,html-keyboard-response,264,2090808,0.0-17.0-2.4,34507,List1B,black,woman,,,,null,,,,
130279,,,survey-text,265,2221096,0.0-17.0-3.4,34507,List1B,black,woman,,,,,"{""Q0"":""Jane is touching Kate ""}","<img src=""stim_listB/touch7.gif""style=""height:400px;""></stim_listB>",is touching,
null,"<div style=""font-size:60px;"">+</div>",,html-keyboard-response,266,2221607,0.0-17.0-0.5,34507,List1B,black,woman,,,,null,,,,
null,"<img src=""stim_listB/argue6.gif""style=""height:400px;""></stim_listB>",,html-keyboard-response,267,2223613,0.0-17.0-1.5,34507,List1B,black,woman,,,,null,,,,
null,are arguing with each other,,html-keyboard-response,268,2225617,0.0-17.0-2.5,34507,List1B,black,woman,,,,null,,,,
45744,,,survey-text,269,2271371,0.0-17.0-3.5,34507,List1B,black,woman,,,,,"{""Q0"":""Fred and Dave are arguing with each other ""}","<img src=""stim_listB/argue6.gif""style=""height:400px;""></stim_listB>",are arguing with each other,
null,"<div style=""font-size:60px;"">+</div>",,html-keyboard-response,270,2271875,0.0-17.0-0.6,34507,List1B,black,woman,,,,null,,,,
null,"<img src=""stim_listB/talk6.gif""style=""height:400px;""></stim_listB>",,html-keyboard-response,271,2273880,0.0-17.0-1.6,34507,List1B,black,woman,,,,null,,,,
null,are talking to each other,,html-keyboard-response,272,2275884,0.0-17.0-2.6,34507,List1B,black,woman,,,,null,,,,
55474,,,survey-text,273,2331363,0.0-17.0-3.6,34507,List1B,black,woman,,,,,"{""Q0"":""Mike and like are talking to each other""}","<img src=""stim_listB/talk6.gif""style=""height:400px;""></stim_listB>",are talking to each other,
null,"<div style=""font-size:60px;"">+</div>",,html-keyboard-response,274,2331875,0.0-17.0-0.7,34507,List1B,black,woman,,,,null,,,,
null,"<img src=""stim_listB/marry2.gif""style=""height:400px;""></stim_listB>",,html-keyboard-response,275,2333881,0.0-17.0-1.7,34507,List1B,black,woman,,,,null,,,,
null,are marrying each other,,html-keyboard-response,276,2335886,0.0-17.0-2.7,34507,List1B,black,woman,,,,null,,,,
65683,,,survey-text,277,2401572,0.0-17.0-3.7,34507,List1B,black,woman,,,,,"{""Q0"":""Fred and Beth are marrying each other""}","<img src=""stim_listB/marry2.gif""style=""height:400px;""></stim_listB>",are marrying each other,
null,"<div style=""font-size:60px;"">+</div>",,html-keyboard-response,278,2402076,0.0-17.0-0.8,34507,List1B,black,woman,,,,null,,,,
null,"<img src=""stim_listB/fight6.gif""style=""height:400px;""></stim_listB>",,html-keyboard-response,279,2404081,0.0-17.0-1.8,34507,List1B,black,woman,,,,null,,,,
null,are fighting each other,,html-keyboard-response,280,2406084,0.0-17.0-2.8,34507,List1B,black,woman,,,,null,,,,
22135,,,survey-text,281,2428224,0.0-17.0-3.8,34507,List1B,black,woman,,,,,"{""Q0"":""Fred and mike are fighting each other ""}","<img src=""stim_listB/fight6.gif""style=""height:400px;""></stim_listB>",are fighting each other,
null,"<div style=""font-size:60px;"">+</div>",,html-keyboard-response,282,2428729,0.0-17.0-0.9,34507,List1B,black,woman,,,,null,,,,
null,"<img src=""stim_listB/shout2.gif""style=""height:400px;""></stim_listB>",,html-keyboard-response,283,2430734,0.0-17.0-1.9,34507,List1B,black,woman,,,,null,,,,
null,are shouting at each other,,html-keyboard-response,284,2432737,0.0-17.0-2.9,34507,List1B,black,woman,,,,null,,,,
18838,,,survey-text,285,2451580,0.0-17.0-3.9,34507,List1B,black,woman,,,,,"{""Q0"":""Mike and Kate are shouting at each other""}","<img src=""stim_listB/shout2.gif""style=""height:400px;""></stim_listB>",are shouting at each other,
null,"<div style=""font-size:60px;"">+</div>",,html-keyboard-response,286,2452091,0.0-17.0-0.10,34507,List1B,black,woman,,,,null,,,,
null,"<img src=""stim_listB/play5.gif""style=""height:400px;""></stim_listB>",,html-keyboard-response,287,2454098,0.0-17.0-1.10,34507,List1B,black,woman,,,,null,,,,
null,is playing with,,html-keyboard-response,288,2456103,0.0-17.0-2.10,34507,List1B,black,woman,,,,null,,,,
80696,,,survey-text,289,2536805,0.0-17.0-3.10,34507,List1B,black,woman,,,,,"{""Q0"":""Dave and mike are playing with each other ""}","<img src=""stim_listB/play5.gif""style=""height:400px;""></stim_listB>",is playing with,
null,"<div style=""font-size:60px;"">+</div>",,html-keyboard-response,290,2537317,0.0-17.0-0.11,34507,List1B,black,woman,,,,null,,,,
null,"<img src=""stim_listB/kiss3.gif""style=""height:400px;""></stim_listB>",,html-keyboard-response,291,2539325,0.0-17.0-1.11,34507,List1B,black,woman,,,,null,,,,
null,is kissing,,html-keyboard-response,292,2541329,0.0-17.0-2.11,34507,List1B,black,woman,,,,null,,,,
20359,,,survey-text,293,2561696,0.0-17.0-3.11,34507,List1B,black,woman,,,,,"{""Q0"":""Ruth is kissing Luke ""}","<img src=""stim_listB/kiss3.gif""style=""height:400px;""></stim_listB>",is kissing,
null,"<div style=""font-size:60px;"">+</div>",,html-keyboard-response,294,2562207,0.0-17.0-0.12,34507,List1B,black,woman,,,,null,,,,
null,"<img src=""stim_listB/argue8.gif""style=""height:400px;""></stim_listB>",,html-keyboard-response,295,2564214,0.0-17.0-1.12,34507,List1B,black,woman,,,,null,,,,
null,are arguing with each other,,html-keyboard-response,296,2566218,0.0-17.0-2.12,34507,List1B,black,woman,,,,null,,,,
26959,,,survey-text,297,2593180,0.0-17.0-3.12,34507,List1B,black,woman,,,,,"{""Q0"":""Jane and Beth are arguing with each other""}","<img src=""stim_listB/argue8.gif""style=""height:400px;""></stim_listB>",are arguing with each other,
null,"<div style=""font-size:60px;"">+</div>",,html-keyboard-response,298,2593685,0.0-17.0-0.13,34507,List1B,black,woman,,,,null,,,,
null,"<img src=""stim_listB/shout7.gif""style=""height:400px;""></stim_listB>",,html-keyboard-response,299,2595690,0.0-17.0-1.13,34507,List1B,black,woman,,,,null,,,,
null,is shouting at,,html-keyboard-response,300,2597694,0.0-17.0-2.13,34507,List1B,black,woman,,,,null,,,,
33353,,,survey-text,301,2631052,0.0-17.0-3.13,34507,List1B,black,woman,,,,,"{""Q0"":""Beth is shouting at Fred ""}","<img src=""stim_listB/shout7.gif""style=""height:400px;""></stim_listB>",is shouting at,
null,"<div style=""font-size:60px;"">+</div>",,html-keyboard-response,302,2631556,0.0-17.0-0.14,34507,List1B,black,woman,,,,null,,,,
null,"<img src=""stim_listB/flirt6.gif""style=""height:400px;""></stim_listB>",,html-keyboard-response,303,2633561,0.0-17.0-1.14,34507,List1B,black,woman,,,,null,,,,
null,are flirting with each other,,html-keyboard-response,304,2635566,0.0-17.0-2.14,34507,List1B,black,woman,,,,null,,,,
32202,,,survey-text,305,2667774,0.0-17.0-3.14,34507,List1B,black,woman,,,,,"{""Q0"":""Mike and Luke are flirting with each other""}","<img src=""stim_listB/flirt6.gif""style=""height:400px;""></stim_listB>",are flirting with each other,
null,"<div style=""font-size:60px;"">+</div>",,html-keyboard-response,306,2668286,0.0-17.0-0.15,34507,List1B,black,woman,,,,null,,,,
null,"<img src=""stim_listB/argue2.gif""style=""height:400px;""></stim_listB>",,html-keyboard-response,307,2670292,0.0-17.0-1.15,34507,List1B,black,woman,,,,null,,,,
null,are arguing with each other,,html-keyboard-response,308,2672297,0.0-17.0-2.15,34507,List1B,black,woman,,,,null,,,,
19591,,,survey-text,309,2691894,0.0-17.0-3.15,34507,List1B,black,woman,,,,,"{""Q0"":""Kate and Fred are arguing with each other""}","<img src=""stim_listB/argue2.gif""style=""height:400px;""></stim_listB>",are arguing with each other,
null,"<div style=""font-size:60px;"">+</div>",,html-keyboard-response,310,2692399,0.0-17.0-0.16,34507,List1B,black,woman,,,,null,,,,
null,"<img src=""stim_listB/marry7.gif""style=""height:400px;""></stim_listB>",,html-keyboard-response,311,2694405,0.0-17.0-1.16,34507,List1B,black,woman,,,,null,,,,
null,is marrying,,html-keyboard-response,312,2696410,0.0-17.0-2.16,34507,List1B,black,woman,,,,null,,,,
17785,,,survey-text,313,2714199,0.0-17.0-3.16,34507,List1B,black,woman,,,,,"{""Q0"":""Kate is marrying Ruth.""}","<img src=""stim_listB/marry7.gif""style=""height:400px;""></stim_listB>",is marrying,
null,"<div style=""font-size:60px;"">+</div>",,html-keyboard-response,314,2714704,0.0-17.0-0.17,34507,List1B,black,woman,,,,null,,,,
null,"<img src=""stim_listB/shout5.gif""style=""height:400px;""></stim_listB>",,html-keyboard-response,315,2716709,0.0-17.0-1.17,34507,List1B,black,woman,,,,null,,,,
null,is shouting at,,html-keyboard-response,316,2718713,0.0-17.0-2.17,34507,List1B,black,woman,,,,null,,,,
22250,,,survey-text,317,2740967,0.0-17.0-3.17,34507,List1B,black,woman,,,,,"{""Q0"":""Fred is shouting at Luke ""}","<img src=""stim_listB/shout5.gif""style=""height:400px;""></stim_listB>",is shouting at,
null,"<div style=""font-size:60px;"">+</div>",,html-keyboard-response,318,2741479,0.0-17.0-0.18,34507,List1B,black,woman,,,,null,,,,
null,"<img src=""stim_listB/argue4.gif""style=""height:400px;""></stim_listB>",,html-keyboard-response,319,2743486,0.0-17.0-1.18,34507,List1B,black,woman,,,,null,,,,
null,are arguing with each other,,html-keyboard-response,320,2745490,0.0-17.0-2.18,34507,List1B,black,woman,,,,null,,,,
30579,,,survey-text,321,2776072,0.0-17.0-3.18,34507,List1B,black,woman,,,,,"{""Q0"":""Jane and like are arguing with each other""}","<img src=""stim_listB/argue4.gif""style=""height:400px;""></stim_listB>",are arguing with each other,
null,"<div style=""font-size:60px;"">+</div>",,html-keyboard-response,322,2776576,0.0-17.0-0.19,34507,List1B,black,woman,,,,null,,,,
null,"<img src=""stim_listB/talk1.gif""style=""height:400px;""></stim_listB>",,html-keyboard-response,323,2778581,0.0-17.0-1.19,34507,List1B,black,woman,,,,null,,,,
null,is talking to,,html-keyboard-response,324,2780585,0.0-17.0-2.19,34507,List1B,black,woman,,,,null,,,,
16735,,,survey-text,325,2797325,0.0-17.0-3.19,34507,List1B,black,woman,,,,,"{""Q0"":""Fred is talking to Kate ""}","<img src=""stim_listB/talk1.gif""style=""height:400px;""></stim_listB>",is talking to,
6827,"<img src='img/portrait_matrix_list1.jpg' style='width:900px;height:500px;''></img><p>If you have memorised all the portraits and names and are ready to start, press Continue.</p><p><strong>Please note: Your memory of these faces will be tested 4 times during this experiment.</strong></p>",0,html-button-response,326,2804160,0.0-18.0-0.0,34507,List1B,black,woman,,,,,,,,
5017,"<img src=""portrait/BW2.jpg""style=""height:400px;""></img>",2,html-button-response,327,2810188,0.0-18.0-1.0,34507,List1B,black,woman,,TRUE,2,,,,,
null,CORRECT,,html-keyboard-response,328,2811698,0.0-18.0-2.0-0.0,34507,List1B,black,woman,,,,null,,,,
1799,"<img src=""portrait/WM2.jpg""style=""height:400px;""></img>",7,html-button-response,329,2813505,0.0-18.0-4.0,34507,List1B,black,woman,,TRUE,7,,,,,
null,CORRECT,,html-keyboard-response,330,2815010,0.0-18.0-5.0-0.0,34507,List1B,black,woman,,,,null,,,,
4241,"<img src=""portrait/BW1.jpg""style=""height:400px;""></img>",0,html-button-response,331,2819257,0.0-18.0-7.0,34507,List1B,black,woman,,TRUE,0,,,,,
null,CORRECT,,html-keyboard-response,332,2820761,0.0-18.0-8.0-0.0,34507,List1B,black,woman,,,,null,,,,
3007,"<img src=""portrait/WM1.jpg""style=""height:400px;""></img>",6,html-button-response,333,2823774,0.0-18.0-10.0,34507,List1B,black,woman,,TRUE,6,,,,,
null,CORRECT,,html-keyboard-response,334,2825279,0.0-18.0-11.0-0.0,34507,List1B,black,woman,,,,null,,,,
3491,"<img src=""portrait/BM2.jpg""style=""height:400px;""></img>",5,html-button-response,335,2828775,0.0-18.0-13.0,34507,List1B,black,woman,,TRUE,5,,,,,
null,CORRECT,,html-keyboard-response,336,2830280,0.0-18.0-14.0-0.0,34507,List1B,black,woman,,,,null,,,,
1924,"<img src=""portrait/BM1.jpg""style=""height:400px;""></img>",4,html-button-response,337,2832208,0.0-18.0-16.0,34507,List1B,black,woman,,TRUE,4,,,,,
null,CORRECT,,html-keyboard-response,338,2833713,0.0-18.0-17.0-0.0,34507,List1B,black,woman,,,,null,,,,
3623,"<img src=""portrait/WW2.jpg""style=""height:400px;""></img>",3,html-button-response,339,2837341,0.0-18.0-19.0,34507,List1B,black,woman,,TRUE,3,,,,,
null,CORRECT,,html-keyboard-response,340,2838844,0.0-18.0-20.0-0.0,34507,List1B,black,woman,,,,null,,,,
4042,"<img src=""portrait/WW1.jpg""style=""height:400px;""></img>",1,html-button-response,341,2842892,0.0-18.0-22.0,34507,List1B,black,woman,,TRUE,1,,,,,
null,CORRECT,,html-keyboard-response,342,2844396,0.0-18.0-23.0-0.0,34507,List1B,black,woman,,,,null,,,,
2274,<p>You got 8 out of 8 right first time. Press Continue.</p>,0,html-button-response,343,2846677,0.0-18.0-25.0,34507,List1B,black,woman,,,,,,,,
null,"<div style=""font-size:60px;"">+</div>",,html-keyboard-response,344,2848187,0.0-19.0-0.0,34507,List1B,black,woman,,,,null,,,,
null,"<img src=""stim_listB/argue7.gif""style=""height:400px;""></stim_listB>",,html-keyboard-response,345,2850191,0.0-19.0-1.0,34507,List1B,black,woman,,,,null,,,,
null,is arguing with,,html-keyboard-response,346,2852196,0.0-19.0-2.0,34507,List1B,black,woman,,,,null,,,,
29234,,,survey-text,347,2881435,0.0-19.0-3.0,34507,List1B,black,woman,,,,,"{""Q0"":""Kate is arguing with Ruth ""}","<img src=""stim_listB/argue7.gif""style=""height:400px;""></stim_listB>",is arguing with,
null,"<div style=""font-size:60px;"">+</div>",,html-keyboard-response,348,2881939,0.0-19.0-0.1,34507,List1B,black,woman,,,,null,,,,
null,"<img src=""stim_listB/flirt5.gif""style=""height:400px;""></stim_listB>",,html-keyboard-response,349,2883944,0.0-19.0-1.1,34507,List1B,black,woman,,,,null,,,,
null,is flirting with,,html-keyboard-response,350,2885949,0.0-19.0-2.1,34507,List1B,black,woman,,,,null,,,,
20433,,,survey-text,351,2906387,0.0-19.0-3.1,34507,List1B,black,woman,,,,,"{""Q0"":""Fred is flirting with Dave ""}","<img src=""stim_listB/flirt5.gif""style=""height:400px;""></stim_listB>",is flirting with,
null,"<div style=""font-size:60px;"">+</div>",,html-keyboard-response,352,2906891,0.0-19.0-0.2,34507,List1B,black,woman,,,,null,,,,
null,"<img src=""stim_listB/talk4.gif""style=""height:400px;""></stim_listB>",,html-keyboard-response,353,2908897,0.0-19.0-1.2,34507,List1B,black,woman,,,,null,,,,
null,are talking to each other,,html-keyboard-response,354,2910901,0.0-19.0-2.2,34507,List1B,black,woman,,,,null,,,,
36907,,,survey-text,355,2947810,0.0-19.0-3.2,34507,List1B,black,woman,,,,,"{""Q0"":""Dave and Ruth are taking to each other""}","<img src=""stim_listB/talk4.gif""style=""height:400px;""></stim_listB>",are talking to each other,
null,"<div style=""font-size:60px;"">+</div>",,html-keyboard-response,356,2948314,0.0-19.0-0.3,34507,List1B,black,woman,,,,null,,,,
null,"<img src=""stim_listB/touch4.gif""style=""height:400px;""></stim_listB>",,html-keyboard-response,357,2950319,0.0-19.0-1.3,34507,List1B,black,woman,,,,null,,,,
null,are touching each other,,html-keyboard-response,358,2952323,0.0-19.0-2.3,34507,List1B,black,woman,,,,null,,,,
30322,,,survey-text,359,2982649,0.0-19.0-3.3,34507,List1B,black,woman,,,,,"{""Q0"":""Ruth and Luke are touching each other""}","<img src=""stim_listB/touch4.gif""style=""height:400px;""></stim_listB>",are touching each other,
null,"<div style=""font-size:60px;"">+</div>",,html-keyboard-response,360,2983161,0.0-19.0-0.4,34507,List1B,black,woman,,,,null,,,,
null,"<img src=""stim_listB/fight2.gif""style=""height:400px;""></stim_listB>",,html-keyboard-response,361,2985168,0.0-19.0-1.4,34507,List1B,black,woman,,,,null,,,,
null,are fighting each other,,html-keyboard-response,362,2987173,0.0-19.0-2.4,34507,List1B,black,woman,,,,null,,,,
35095,,,survey-text,363,3022275,0.0-19.0-3.4,34507,List1B,black,woman,,,,,"{""Q0"":""Beth and Fred and fighting each other""}","<img src=""stim_listB/fight2.gif""style=""height:400px;""></stim_listB>",are fighting each other,
null,"<div style=""font-size:60px;"">+</div>",,html-keyboard-response,364,3022788,0.0-19.0-0.5,34507,List1B,black,woman,,,,null,,,,
null,"<img src=""stim_listB/play2.gif""style=""height:400px;""></stim_listB>",,html-keyboard-response,365,3024795,0.0-19.0-1.5,34507,List1B,black,woman,,,,null,,,,
null,are playing with each other,,html-keyboard-response,366,3026800,0.0-19.0-2.5,34507,List1B,black,woman,,,,null,,,,
18118,,,survey-text,367,3044924,0.0-19.0-3.5,34507,List1B,black,woman,,,,,"{""Q0"":""Fred and Beth are playing with each other""}","<img src=""stim_listB/play2.gif""style=""height:400px;""></stim_listB>",are playing with each other,
null,"<div style=""font-size:60px;"">+</div>",,html-keyboard-response,368,3045428,0.0-19.0-0.6,34507,List1B,black,woman,,,,null,,,,
null,"<img src=""stim_listB/kiss2.gif""style=""height:400px;""></stim_listB>",,html-keyboard-response,369,3047433,0.0-19.0-1.6,34507,List1B,black,woman,,,,null,,,,
null,are kissing each other,,html-keyboard-response,370,3049437,0.0-19.0-2.6,34507,List1B,black,woman,,,,null,,,,
15784,,,survey-text,371,3065224,0.0-19.0-3.6,34507,List1B,black,woman,,,,,"{""Q0"":""Mike and Kate are kissing each other""}","<img src=""stim_listB/kiss2.gif""style=""height:400px;""></stim_listB>",are kissing each other,
null,"<div style=""font-size:60px;"">+</div>",,html-keyboard-response,372,3065729,0.0-19.0-0.7,34507,List1B,black,woman,,,,null,,,,
null,"<img src=""stim_listB/play4.gif""style=""height:400px;""></stim_listB>",,html-keyboard-response,373,3067734,0.0-19.0-1.7,34507,List1B,black,woman,,,,null,,,,
null,are playing with each other,,html-keyboard-response,374,3069738,0.0-19.0-2.7,34507,List1B,black,woman,,,,null,,,,
40087,,,survey-text,375,3109832,0.0-19.0-3.7,34507,List1B,black,woman,,,,,"{""Q0"":""Ruth and Luke are kissing each other""}","<img src=""stim_listB/play4.gif""style=""height:400px;""></stim_listB>",are playing with each other,
null,"<div style=""font-size:60px;"">+</div>",,html-keyboard-response,376,3110344,0.0-19.0-0.8,34507,List1B,black,woman,,,,null,,,,
null,"<img src=""stim_listB/flirt1.gif""style=""height:400px;""></stim_listB>",,html-keyboard-response,377,3112352,0.0-19.0-1.8,34507,List1B,black,woman,,,,null,,,,
null,is flirting with,,html-keyboard-response,378,3114356,0.0-19.0-2.8,34507,List1B,black,woman,,,,null,,,,
23294,,,survey-text,379,3137655,0.0-19.0-3.8,34507,List1B,black,woman,,,,,"{""Q0"":""Kate and Fred are flirting with each other""}","<img src=""stim_listB/flirt1.gif""style=""height:400px;""></stim_listB>",is flirting with,
null,"<div style=""font-size:60px;"">+</div>",,html-keyboard-response,380,3138167,0.0-19.0-0.9,34507,List1B,black,woman,,,,null,,,,
null,"<img src=""stim_listB/talk5.gif""style=""height:400px;""></stim_listB>",,html-keyboard-response,381,3140173,0.0-19.0-1.9,34507,List1B,black,woman,,,,null,,,,
null,is talking to,,html-keyboard-response,382,3142178,0.0-19.0-2.9,34507,List1B,black,woman,,,,null,,,,
40444,,,survey-text,383,3182626,0.0-19.0-3.9,34507,List1B,black,woman,,,,,"{""Q0"":""Fred is talking to Dave""}","<img src=""stim_listB/talk5.gif""style=""height:400px;""></stim_listB>",is talking to,
null,"<div style=""font-size:60px;"">+</div>",,html-keyboard-response,384,3183130,0.0-19.0-0.10,34507,List1B,black,woman,,,,null,,,,
null,"<img src=""stim_listB/marry3.gif""style=""height:400px;""></stim_listB>",,html-keyboard-response,385,3185135,0.0-19.0-1.10,34507,List1B,black,woman,,,,null,,,,
null,is marrying,,html-keyboard-response,386,3187140,0.0-19.0-2.10,34507,List1B,black,woman,,,,null,,,,
22151,,,survey-text,387,3209295,0.0-19.0-3.10,34507,List1B,black,woman,,,,,"{""Q0"":""Dave is marrying Ruth ""}","<img src=""stim_listB/marry3.gif""style=""height:400px;""></stim_listB>",is marrying,
null,"<div style=""font-size:60px;"">+</div>",,html-keyboard-response,388,3209801,0.0-19.0-0.11,34507,List1B,black,woman,,,,null,,,,
null,"<img src=""stim_listB/flirt4.gif""style=""height:400px;""></stim_listB>",,html-keyboard-response,389,3211806,0.0-19.0-1.11,34507,List1B,black,woman,,,,null,,,,
null,are flirting with each other,,html-keyboard-response,390,3213810,0.0-19.0-2.11,34507,List1B,black,woman,,,,null,,,,
18516,,,survey-text,391,3232329,0.0-19.0-3.11,34507,List1B,black,woman,,,,,"{""Q0"":""Dave is flirting with Ruth""}","<img src=""stim_listB/flirt4.gif""style=""height:400px;""></stim_listB>",are flirting with each other,
null,"<div style=""font-size:60px;"">+</div>",,html-keyboard-response,392,3232833,0.0-19.0-0.12,34507,List1B,black,woman,,,,null,,,,
null,"<img src=""stim_listB/fight7.gif""style=""height:400px;""></stim_listB>",,html-keyboard-response,393,3234838,0.0-19.0-1.12,34507,List1B,black,woman,,,,null,,,,
null,is fighting,,html-keyboard-response,394,3236842,0.0-19.0-2.12,34507,List1B,black,woman,,,,null,,,,
16906,,,survey-text,395,3253753,0.0-19.0-3.12,34507,List1B,black,woman,,,,,"{""Q0"":""Kate is fighting Jane""}","<img src=""stim_listB/fight7.gif""style=""height:400px;""></stim_listB>",is fighting,
null,"<div style=""font-size:60px;"">+</div>",,html-keyboard-response,396,3254264,0.0-19.0-0.13,34507,List1B,black,woman,,,,null,,,,
null,"<img src=""stim_listB/talk3.gif""style=""height:400px;""></stim_listB>",,html-keyboard-response,397,3256272,0.0-19.0-1.13,34507,List1B,black,woman,,,,null,,,,
null,is talking to,,html-keyboard-response,398,3258277,0.0-19.0-2.13,34507,List1B,black,woman,,,,null,,,,
16118,,,survey-text,399,3274400,0.0-19.0-3.13,34507,List1B,black,woman,,,,,"{""Q0"":""Jane is talking to Ruth""}","<img src=""stim_listB/talk3.gif""style=""height:400px;""></stim_listB>",is talking to,
null,"<div style=""font-size:60px;"">+</div>",,html-keyboard-response,400,3274904,0.0-19.0-0.14,34507,List1B,black,woman,,,,null,,,,
null,"<img src=""stim_listB/flirt3.gif""style=""height:400px;""></stim_listB>",,html-keyboard-response,401,3276909,0.0-19.0-1.14,34507,List1B,black,woman,,,,null,,,,
null,is flirting with,,html-keyboard-response,402,3278913,0.0-19.0-2.14,34507,List1B,black,woman,,,,null,,,,
45075,,,survey-text,403,3323994,0.0-19.0-3.14,34507,List1B,black,woman,,,,,"{""Q0"":""Luke is flirting with Jane""}","<img src=""stim_listB/flirt3.gif""style=""height:400px;""></stim_listB>",is flirting with,
null,"<div style=""font-size:60px;"">+</div>",,html-keyboard-response,404,3324506,0.0-19.0-0.15,34507,List1B,black,woman,,,,null,,,,
null,"<img src=""stim_listB/touch2.gif""style=""height:400px;""></stim_listB>",,html-keyboard-response,405,3326512,0.0-19.0-1.15,34507,List1B,black,woman,,,,null,,,,
null,are touching each other,,html-keyboard-response,406,3328517,0.0-19.0-2.15,34507,List1B,black,woman,,,,null,,,,
15876,,,survey-text,407,3344395,0.0-19.0-3.15,34507,List1B,black,woman,,,,,"{""Q0"":""Fred and Beth are touching each other""}","<img src=""stim_listB/touch2.gif""style=""height:400px;""></stim_listB>",are touching each other,
null,"<div style=""font-size:60px;"">+</div>",,html-keyboard-response,408,3344900,0.0-19.0-0.16,34507,List1B,black,woman,,,,null,,,,
null,"<img src=""stim_listB/talk7.gif""style=""height:400px;""></stim_listB>",,html-keyboard-response,409,3346905,0.0-19.0-1.16,34507,List1B,black,woman,,,,null,,,,
null,is talking to,,html-keyboard-response,410,3348909,0.0-19.0-2.16,34507,List1B,black,woman,,,,null,,,,
19054,,,survey-text,411,3367967,0.0-19.0-3.16,34507,List1B,black,woman,,,,,"{""Q0"":""Beth is talking to Jane ""}","<img src=""stim_listB/talk7.gif""style=""height:400px;""></stim_listB>",is talking to,
null,"<div style=""font-size:60px;"">+</div>",,html-keyboard-response,412,3368471,0.0-19.0-0.17,34507,List1B,black,woman,,,,null,,,,
null,"<img src=""stim_listB/play8.gif""style=""height:400px;""></stim_listB>",,html-keyboard-response,413,3370476,0.0-19.0-1.17,34507,List1B,black,woman,,,,null,,,,
null,are playing with each other,,html-keyboard-response,414,3372481,0.0-19.0-2.17,34507,List1B,black,woman,,,,null,,,,
37621,,,survey-text,415,3410104,0.0-19.0-3.17,34507,List1B,black,woman,,,,,"{""Q0"":""Beth and Ruth are playing with each other ""}","<img src=""stim_listB/play8.gif""style=""height:400px;""></stim_listB>",are playing with each other,
null,"<div style=""font-size:60px;"">+</div>",,html-keyboard-response,416,3410609,0.0-19.0-0.18,34507,List1B,black,woman,,,,null,,,,
null,"<img src=""stim_listB/kiss6.gif""style=""height:400px;""></stim_listB>",,html-keyboard-response,417,3412614,0.0-19.0-1.18,34507,List1B,black,woman,,,,null,,,,
null,are kissing each other,,html-keyboard-response,418,3414618,0.0-19.0-2.18,34507,List1B,black,woman,,,,null,,,,
14968,,,survey-text,419,3429589,0.0-19.0-3.18,34507,List1B,black,woman,,,,,"{""Q0"":""Mike and Dave are kissing each other""}","<img src=""stim_listB/kiss6.gif""style=""height:400px;""></stim_listB>",are kissing each other,
null,"<div style=""font-size:60px;"">+</div>",,html-keyboard-response,420,3430093,0.0-19.0-0.19,34507,List1B,black,woman,,,,null,,,,
null,"<img src=""stim_listB/fight5.gif""style=""height:400px;""></stim_listB>",,html-keyboard-response,421,3432099,0.0-19.0-1.19,34507,List1B,black,woman,,,,null,,,,
null,is fighting,,html-keyboard-response,422,3434102,0.0-19.0-2.19,34507,List1B,black,woman,,,,null,,,,
12354,,,survey-text,423,3446461,0.0-19.0-3.19,34507,List1B,black,woman,,,,,"{""Q0"":""Mike is fighting Dave""}","<img src=""stim_listB/fight5.gif""style=""height:400px;""></stim_listB>",is fighting,
2755,<p>Thank you for completing that task.</p><p>The final part of this session is a short questionnaire.</p><p>Press Continue.</p>,0,html-button-response,424,3449226,0.0-20.0,34507,List1B,black,woman,,,,,,,,
30965,,,survey-text,425,3481200,0.0-21.0,34507,List1B,black,woman,,,,,"{""Q0"":""29"",""Q1"":""English "",""Q2"":""English "",""Q3"":""England "",""Q4"":""Black"",""Q5"":""Female""}",,,demographics
14246,,,survey-likert,426,3495460,0.0-22.0,34507,List1B,black,woman,,,,,"{""Q0"":2}",,,likert_ESS
7690,,,survey-likert,427,3503157,0.0-23.0,34507,List1B,black,woman,,,,,"{""Q0"":5}",,,likert_NSSAL_Q1
9193,,,survey-likert,428,3512357,0.0-24.0,34507,List1B,black,woman,,,,,"{""Q0"":1}",,,likert_NSSAL_Q2
10561,,,survey-likert,429,3522925,0.0-25.0,34507,List1B,black,woman,,,,,"{""Q0"":4}",,,likert_CGRS_Q1
5960,,,survey-likert,430,3528892,0.0-26.0,34507,List1B,black,woman,,,,,"{""Q0"":4}",,,likert_CGRS_Q2
3643,,,survey-likert,431,3532542,0.0-27.0,34507,List1B,black,woman,,,,,"{""Q0"":4}",,,likert_CGRS_Q3
5591,,,survey-text,432,3538141,0.0-28.0,34507,List1B,black,woman,,,,,"{""Q0"":""ccc""}",,,worker_id
26847,,,external-html,433,3565087,0.0-29.0,34507,List1B,black,woman,debrief.html,,,,,,,
