rt,stimulus,button_pressed,trial_type,trial_index,time_elapsed,internal_node_id,subject,list,ppt_race,ppt_gender,url,first_guess,correct,key_press,responses,image_type,phrase_type,test_part
18656,Welcome to the experiment. Press Continue to begin.,0,html-button-response,0,18658,0.0-0.0,34661,List1B,white,woman,,,,,,,,
7855,,,external-html,1,27621,0.0-1.0,34661,List1B,white,woman,consent.html,,,,,,,
11263,"<p>On the next page, you will see portraits of 8 people and their names.</p><p>Your first task is to take a few minutes to memorise the names of these people.</p><p>You will have to recall their names during the rest of the experiment, so it is</p><p>essential that you try to memorise these people and their names as best as you can.</p><br><p><strong>You will then be tested on your memory of these names and portraits.</strong></p><br><p>The experiment will start after you have completed this memory test.</p><br><p>Ready?</p>",0,html-button-response,2,38884,0.0-2.0,34661,List1B,white,woman,,,,,,,,
64653,"<img src='img/portrait_matrix_list1.jpg' style='width:900px;height:500px;''></img><p>If you have memorised all the portraits and names and are ready to start, press Continue.</p><p><strong>Please note: Your memory of these faces will be tested 4 times during this experiment.</strong></p>",0,html-button-response,3,104540,0.0-3.0-0.0,34661,List1B,white,woman,,,,,,,,
2599,"<img src=""portrait/BM2.jpg""style=""height:400px;""></img>",5,html-button-response,4,108140,0.0-3.0-1.0,34661,List1B,white,woman,,TRUE,5,,,,,
null,CORRECT,,html-keyboard-response,5,109647,0.0-3.0-2.0-0.0,34661,List1B,white,woman,,,,null,,,,
1707,"<img src=""portrait/WM2.jpg""style=""height:400px;""></img>",7,html-button-response,6,111356,0.0-3.0-4.0,34661,List1B,white,woman,,TRUE,7,,,,,
null,CORRECT,,html-keyboard-response,7,112860,0.0-3.0-5.0-0.0,34661,List1B,white,woman,,,,null,,,,
1983,"<img src=""portrait/WW2.jpg""style=""height:400px;""></img>",3,html-button-response,8,114844,0.0-3.0-7.0,34661,List1B,white,woman,,TRUE,3,,,,,
null,CORRECT,,html-keyboard-response,9,116348,0.0-3.0-8.0-0.0,34661,List1B,white,woman,,,,null,,,,
2477,"<img src=""portrait/BM1.jpg""style=""height:400px;""></img>",4,html-button-response,10,118828,0.0-3.0-10.0,34661,List1B,white,woman,,TRUE,4,,,,,
null,CORRECT,,html-keyboard-response,11,120331,0.0-3.0-11.0-0.0,34661,List1B,white,woman,,,,null,,,,
3533,"<img src=""portrait/WW1.jpg""style=""height:400px;""></img>",1,html-button-response,12,123867,0.0-3.0-13.0,34661,List1B,white,woman,,TRUE,1,,,,,
null,CORRECT,,html-keyboard-response,13,125370,0.0-3.0-14.0-0.0,34661,List1B,white,woman,,,,null,,,,
5216,"<img src=""portrait/BW1.jpg""style=""height:400px;""></img>",0,html-button-response,14,130587,0.0-3.0-16.0,34661,List1B,white,woman,,TRUE,0,,,,,
null,CORRECT,,html-keyboard-response,15,132092,0.0-3.0-17.0-0.0,34661,List1B,white,woman,,,,null,,,,
4093,"<img src=""portrait/WM1.jpg""style=""height:400px;""></img>",5,html-button-response,16,136187,0.0-3.0-19.0,34661,List1B,white,woman,,TRUE,6,,,,,
4957,"<img src=""portrait/WM1.jpg""style=""height:400px;""></img>",6,html-button-response,17,142147,0.0-3.0-21.0-0.0,34661,List1B,white,woman,,FALSE,6,,,,,
null,CORRECT,,html-keyboard-response,18,143650,0.0-3.0-21.0-1.0-0.0,34661,List1B,white,woman,,,,null,,,,
1983,"<img src=""portrait/BW2.jpg""style=""height:400px;""></img>",2,html-button-response,19,145635,0.0-3.0-22.0,34661,List1B,white,woman,,TRUE,2,,,,,
null,CORRECT,,html-keyboard-response,20,147139,0.0-3.0-23.0-0.0,34661,List1B,white,woman,,,,null,,,,
1838,<p>You got 7 out of 8 right first time. Press Continue.</p>,0,html-button-response,21,148979,0.0-3.0-25.0,34661,List1B,white,woman,,,,,,,,
2510,"As you did not score 100%, the memory game will repeat. Press Continue.",0,html-button-response,22,152491,0.0-3.0-26.0-0.0,34661,List1B,white,woman,,,,,,,,
11587,"<img src='img/portrait_matrix_list1.jpg' style='width:900px;height:500px;''></img><p>If you have memorised all the portraits and names and are ready to start, press Continue.</p><p><strong>Please note: Your memory of these faces will be tested 4 times during this experiment.</strong></p>",0,html-button-response,23,165083,0.0-3.1-0.1,34661,List1B,white,woman,,,,,,,,
3814,"<img src=""portrait/BM2.jpg""style=""height:400px;""></img>",5,html-button-response,24,169899,0.0-3.1-1.1,34661,List1B,white,woman,,TRUE,5,,,,,
null,CORRECT,,html-keyboard-response,25,171402,0.0-3.1-2.1-0.1,34661,List1B,white,woman,,,,null,,,,
3399,"<img src=""portrait/WM2.jpg""style=""height:400px;""></img>",7,html-button-response,26,174803,0.0-3.1-4.1,34661,List1B,white,woman,,TRUE,7,,,,,
null,CORRECT,,html-keyboard-response,27,176306,0.0-3.1-5.1-0.1,34661,List1B,white,woman,,,,null,,,,
2063,"<img src=""portrait/WW2.jpg""style=""height:400px;""></img>",3,html-button-response,28,178371,0.0-3.1-7.1,34661,List1B,white,woman,,TRUE,3,,,,,
null,CORRECT,,html-keyboard-response,29,179874,0.0-3.1-8.1-0.1,34661,List1B,white,woman,,,,null,,,,
2327,"<img src=""portrait/BM1.jpg""style=""height:400px;""></img>",4,html-button-response,30,182203,0.0-3.1-10.1,34661,List1B,white,woman,,TRUE,4,,,,,
null,CORRECT,,html-keyboard-response,31,183708,0.0-3.1-11.1-0.1,34661,List1B,white,woman,,,,null,,,,
1806,"<img src=""portrait/WW1.jpg""style=""height:400px;""></img>",1,html-button-response,32,185515,0.0-3.1-13.1,34661,List1B,white,woman,,TRUE,1,,,,,
null,CORRECT,,html-keyboard-response,33,187018,0.0-3.1-14.1-0.1,34661,List1B,white,woman,,,,null,,,,
1223,"<img src=""portrait/BW1.jpg""style=""height:400px;""></img>",0,html-button-response,34,188243,0.0-3.1-16.1,34661,List1B,white,woman,,TRUE,0,,,,,
null,CORRECT,,html-keyboard-response,35,189746,0.0-3.1-17.1-0.1,34661,List1B,white,woman,,,,null,,,,
2696,"<img src=""portrait/WM1.jpg""style=""height:400px;""></img>",6,html-button-response,36,192443,0.0-3.1-19.1,34661,List1B,white,woman,,TRUE,6,,,,,
null,CORRECT,,html-keyboard-response,37,193947,0.0-3.1-20.1-0.1,34661,List1B,white,woman,,,,null,,,,
1519,"<img src=""portrait/BW2.jpg""style=""height:400px;""></img>",2,html-button-response,38,195467,0.0-3.1-22.1,34661,List1B,white,woman,,TRUE,2,,,,,
null,CORRECT,,html-keyboard-response,39,196970,0.0-3.1-23.1-0.1,34661,List1B,white,woman,,,,null,,,,
1343,<p>You got 8 out of 8 right first time. Press Continue.</p>,0,html-button-response,40,198315,0.0-3.1-25.1,34661,List1B,white,woman,,,,,,,,
31132,"<p>In this experiment, you will view photographs of the people from the memory game interacting.</p><p>By using the <strong>exact</strong> phrase given <i>after</i> the photograph appears and recalling the correct names of the people in the photographs, form a sentence describing the interaction. You do not need to capitalise names.</p><p>Type your answer in the space provided. Please complete every sentence before moving onto the next trial.</p><p>You will only have a few seconds to memorise each given photograph and phrase before you can respond, so try your best to focus.</p><p>An example is given below. Press 'Continue' when you are ready.</p><img src='img/speaking_example.jpg' style='width:800px;height:460px;''></img>",0,html-button-response,41,230451,0.0-4.0,34661,List1B,white,woman,,,,,,,,
2439,"<p>Before the experiment starts, you will watch two example trials. Press 'Continue'.</p>",0,html-button-response,42,233891,0.0-5.0,34661,List1B,white,woman,,,,,,,,
null,<img src='img/meet_eg.gif' style='height:400px;''></img>,,html-keyboard-response,43,236895,0.0-6.0,34661,List1B,white,woman,,,,null,,,,
null,<p>is meeting</p>,,html-keyboard-response,44,238896,0.0-7.0,34661,List1B,white,woman,,,,null,,,,
5394,<p><b>Answer:</b> kate is meeting beth</p>,0,html-button-response,45,244291,0.0-8.0,34661,List1B,white,woman,,,,,,,,
null,<img src='img/look_eg.gif' style='height:400px;''></img>,,html-keyboard-response,46,247295,0.0-9.0,34661,List1B,white,woman,,,,null,,,,
null,<p>are looking at each other</p>,,html-keyboard-response,47,249298,0.0-10.0,34661,List1B,white,woman,,,,null,,,,
3152,<p><b>Answer:</b> luke and dave are looking at each other</p>,0,html-button-response,48,252451,0.0-11.0,34661,List1B,white,woman,,,,,,,,
9102,"<p>Ready to start the experiment?</p><br><p><strong>Remember to describe the picture using a full sentence,</strong></p><p><strong>that combines the names of the people with the <i>exact</i> phrase given.</strong></p><p><strong>To receive full payment you must do this correctly.</strong></p><p><strong> You do not need to capitalise names or use punctuation.</strong></p><br><p>Press 'Continue' to begin.</p>",0,html-button-response,49,262555,0.0-12.0,34661,List1B,white,woman,,,,,,,,
null,"<div style=""font-size:60px;"">+</div>",,html-keyboard-response,50,264058,0.0-13.0-0.0,34661,List1B,white,woman,,,,null,,,,
null,"<img src=""stim_listB/fight2.gif""style=""height:400px;""></stim_listB>",,html-keyboard-response,51,266063,0.0-13.0-1.0,34661,List1B,white,woman,,,,null,,,,
null,are fighting each other,,html-keyboard-response,52,268065,0.0-13.0-2.0,34661,List1B,white,woman,,,,null,,,,
21553,,,survey-text,53,289620,0.0-13.0-3.0,34661,List1B,white,woman,,,,,"{""Q0"":""beth and fred are fighting each other""}","<img src=""stim_listB/fight2.gif""style=""height:400px;""></stim_listB>",are fighting each other,
null,"<div style=""font-size:60px;"">+</div>",,html-keyboard-response,54,290122,0.0-13.0-0.1,34661,List1B,white,woman,,,,null,,,,
null,"<img src=""stim_listB/kiss4.gif""style=""height:400px;""></stim_listB>",,html-keyboard-response,55,292125,0.0-13.0-1.1,34661,List1B,white,woman,,,,null,,,,
null,are kissing each other,,html-keyboard-response,56,294127,0.0-13.0-2.1,34661,List1B,white,woman,,,,null,,,,
10146,,,survey-text,57,304275,0.0-13.0-3.1,34661,List1B,white,woman,,,,,"{""Q0"":""dave and jane are kissing each other""}","<img src=""stim_listB/kiss4.gif""style=""height:400px;""></stim_listB>",are kissing each other,
null,"<div style=""font-size:60px;"">+</div>",,html-keyboard-response,58,304776,0.0-13.0-0.2,34661,List1B,white,woman,,,,null,,,,
null,"<img src=""stim_listB/marry4.gif""style=""height:400px;""></stim_listB>",,html-keyboard-response,59,306783,0.0-13.0-1.2,34661,List1B,white,woman,,,,null,,,,
null,are marrying each other,,html-keyboard-response,60,308786,0.0-13.0-2.2,34661,List1B,white,woman,,,,null,,,,
8993,,,survey-text,61,317779,0.0-13.0-3.2,34661,List1B,white,woman,,,,,"{""Q0"":""luke and jane are marrying each other""}","<img src=""stim_listB/marry4.gif""style=""height:400px;""></stim_listB>",are marrying each other,
null,"<div style=""font-size:60px;"">+</div>",,html-keyboard-response,62,318282,0.0-13.0-0.3,34661,List1B,white,woman,,,,null,,,,
null,"<img src=""stim_listB/marry1.gif""style=""height:400px;""></stim_listB>",,html-keyboard-response,63,320286,0.0-13.0-1.3,34661,List1B,white,woman,,,,null,,,,
null,is marrying,,html-keyboard-response,64,322288,0.0-13.0-2.3,34661,List1B,white,woman,,,,null,,,,
8034,,,survey-text,65,330323,0.0-13.0-3.3,34661,List1B,white,woman,,,,,"{""Q0"":""mike is marrying beth""}","<img src=""stim_listB/marry1.gif""style=""height:400px;""></stim_listB>",is marrying,
null,"<div style=""font-size:60px;"">+</div>",,html-keyboard-response,66,330825,0.0-13.0-0.4,34661,List1B,white,woman,,,,null,,,,
null,"<img src=""stim_listB/dance8.gif""style=""height:400px;""></stim_listB>",,html-keyboard-response,67,332829,0.0-13.0-1.4,34661,List1B,white,woman,,,,null,,,,
null,are dancing with each other,,html-keyboard-response,68,334832,0.0-13.0-2.4,34661,List1B,white,woman,,,,null,,,,
11410,,,survey-text,69,346243,0.0-13.0-3.4,34661,List1B,white,woman,,,,,"{""Q0"":""kate is dancing with jane""}","<img src=""stim_listB/dance8.gif""style=""height:400px;""></stim_listB>",are dancing with each other,
null,"<div style=""font-size:60px;"">+</div>",,html-keyboard-response,70,346744,0.0-13.0-0.5,34661,List1B,white,woman,,,,null,,,,
null,"<img src=""stim_listB/play2.gif""style=""height:400px;""></stim_listB>",,html-keyboard-response,71,348748,0.0-13.0-1.5,34661,List1B,white,woman,,,,null,,,,
null,are playing with each other,,html-keyboard-response,72,350750,0.0-13.0-2.5,34661,List1B,white,woman,,,,null,,,,
20195,,,survey-text,73,370947,0.0-13.0-3.5,34661,List1B,white,woman,,,,,"{""Q0"":""beth and fred are playing with each other""}","<img src=""stim_listB/play2.gif""style=""height:400px;""></stim_listB>",are playing with each other,
null,"<div style=""font-size:60px;"">+</div>",,html-keyboard-response,74,371449,0.0-13.0-0.6,34661,List1B,white,woman,,,,null,,,,
null,"<img src=""stim_listB/talk5.gif""style=""height:400px;""></stim_listB>",,html-keyboard-response,75,373452,0.0-13.0-1.6,34661,List1B,white,woman,,,,null,,,,
null,is talking to,,html-keyboard-response,76,375454,0.0-13.0-2.6,34661,List1B,white,woman,,,,null,,,,
10524,,,survey-text,77,385979,0.0-13.0-3.6,34661,List1B,white,woman,,,,,"{""Q0"":""fred is talking to dave""}","<img src=""stim_listB/talk5.gif""style=""height:400px;""></stim_listB>",is talking to,
null,"<div style=""font-size:60px;"">+</div>",,html-keyboard-response,78,386481,0.0-13.0-0.7,34661,List1B,white,woman,,,,null,,,,
null,"<img src=""stim_listB/talk1.gif""style=""height:400px;""></stim_listB>",,html-keyboard-response,79,388484,0.0-13.0-1.7,34661,List1B,white,woman,,,,null,,,,
null,is talking to,,html-keyboard-response,80,390486,0.0-13.0-2.7,34661,List1B,white,woman,,,,null,,,,
12771,,,survey-text,81,403259,0.0-13.0-3.7,34661,List1B,white,woman,,,,,"{""Q0"":""kate is talking to fred""}","<img src=""stim_listB/talk1.gif""style=""height:400px;""></stim_listB>",is talking to,
null,"<div style=""font-size:60px;"">+</div>",,html-keyboard-response,82,403760,0.0-13.0-0.8,34661,List1B,white,woman,,,,null,,,,
null,"<img src=""stim_listB/dance4.gif""style=""height:400px;""></stim_listB>",,html-keyboard-response,83,405763,0.0-13.0-1.8,34661,List1B,white,woman,,,,null,,,,
null,are dancing with each other,,html-keyboard-response,84,407765,0.0-13.0-2.8,34661,List1B,white,woman,,,,null,,,,
18476,,,survey-text,85,426242,0.0-13.0-3.8,34661,List1B,white,woman,,,,,"{""Q0"":""jane and luke are dancing with each other""}","<img src=""stim_listB/dance4.gif""style=""height:400px;""></stim_listB>",are dancing with each other,
null,"<div style=""font-size:60px;"">+</div>",,html-keyboard-response,86,426744,0.0-13.0-0.9,34661,List1B,white,woman,,,,null,,,,
null,"<img src=""stim_listB/dance3.gif""style=""height:400px;""></stim_listB>",,html-keyboard-response,87,428747,0.0-13.0-1.9,34661,List1B,white,woman,,,,null,,,,
null,is dancing with,,html-keyboard-response,88,430749,0.0-13.0-2.9,34661,List1B,white,woman,,,,null,,,,
9524,,,survey-text,89,440274,0.0-13.0-3.9,34661,List1B,white,woman,,,,,"{""Q0"":""jane and luke are dancing together""}","<img src=""stim_listB/dance3.gif""style=""height:400px;""></stim_listB>",is dancing with,
null,"<div style=""font-size:60px;"">+</div>",,html-keyboard-response,90,440776,0.0-13.0-0.10,34661,List1B,white,woman,,,,null,,,,
null,"<img src=""stim_listB/marry6.gif""style=""height:400px;""></stim_listB>",,html-keyboard-response,91,442779,0.0-13.0-1.10,34661,List1B,white,woman,,,,null,,,,
null,are marrying each other,,html-keyboard-response,92,444781,0.0-13.0-2.10,34661,List1B,white,woman,,,,null,,,,
11931,,,survey-text,93,456714,0.0-13.0-3.10,34661,List1B,white,woman,,,,,"{""Q0"":""dave and fred are marrying each other""}","<img src=""stim_listB/marry6.gif""style=""height:400px;""></stim_listB>",are marrying each other,
null,"<div style=""font-size:60px;"">+</div>",,html-keyboard-response,94,457216,0.0-13.0-0.11,34661,List1B,white,woman,,,,null,,,,
null,"<img src=""stim_listB/shout3.gif""style=""height:400px;""></stim_listB>",,html-keyboard-response,95,459219,0.0-13.0-1.11,34661,List1B,white,woman,,,,null,,,,
null,is shouting at,,html-keyboard-response,96,461220,0.0-13.0-2.11,34661,List1B,white,woman,,,,null,,,,
12845,,,survey-text,97,474066,0.0-13.0-3.11,34661,List1B,white,woman,,,,,"{""Q0"":""luke is shouting at jane""}","<img src=""stim_listB/shout3.gif""style=""height:400px;""></stim_listB>",is shouting at,
null,"<div style=""font-size:60px;"">+</div>",,html-keyboard-response,98,474567,0.0-13.0-0.12,34661,List1B,white,woman,,,,null,,,,
null,"<img src=""stim_listB/talk7.gif""style=""height:400px;""></stim_listB>",,html-keyboard-response,99,476570,0.0-13.0-1.12,34661,List1B,white,woman,,,,null,,,,
null,is talking to,,html-keyboard-response,100,478572,0.0-13.0-2.12,34661,List1B,white,woman,,,,null,,,,
7142,,,survey-text,101,485714,0.0-13.0-3.12,34661,List1B,white,woman,,,,,"{""Q0"":""beth is talking to jane""}","<img src=""stim_listB/talk7.gif""style=""height:400px;""></stim_listB>",is talking to,
null,"<div style=""font-size:60px;"">+</div>",,html-keyboard-response,102,486216,0.0-13.0-0.13,34661,List1B,white,woman,,,,null,,,,
null,"<img src=""stim_listB/flirt2.gif""style=""height:400px;""></stim_listB>",,html-keyboard-response,103,488218,0.0-13.0-1.13,34661,List1B,white,woman,,,,null,,,,
null,are flirting with each other,,html-keyboard-response,104,490220,0.0-13.0-2.13,34661,List1B,white,woman,,,,null,,,,
10437,,,survey-text,105,500658,0.0-13.0-3.13,34661,List1B,white,woman,,,,,"{""Q0"":""mike and beth are flirting with each other""}","<img src=""stim_listB/flirt2.gif""style=""height:400px;""></stim_listB>",are flirting with each other,
null,"<div style=""font-size:60px;"">+</div>",,html-keyboard-response,106,501160,0.0-13.0-0.14,34661,List1B,white,woman,,,,null,,,,
null,"<img src=""stim_listB/fight7.gif""style=""height:400px;""></stim_listB>",,html-keyboard-response,107,503164,0.0-13.0-1.14,34661,List1B,white,woman,,,,null,,,,
null,is fighting,,html-keyboard-response,108,505167,0.0-13.0-2.14,34661,List1B,white,woman,,,,null,,,,
8834,,,survey-text,109,514002,0.0-13.0-3.14,34661,List1B,white,woman,,,,,"{""Q0"":""kate is fighting jane""}","<img src=""stim_listB/fight7.gif""style=""height:400px;""></stim_listB>",is fighting,
null,"<div style=""font-size:60px;"">+</div>",,html-keyboard-response,110,514503,0.0-13.0-0.15,34661,List1B,white,woman,,,,null,,,,
null,"<img src=""stim_listB/touch3.gif""style=""height:400px;""></stim_listB>",,html-keyboard-response,111,516507,0.0-13.0-1.15,34661,List1B,white,woman,,,,null,,,,
null,is touching,,html-keyboard-response,112,518508,0.0-13.0-2.15,34661,List1B,white,woman,,,,null,,,,
11613,,,survey-text,113,530122,0.0-13.0-3.15,34661,List1B,white,woman,,,,,"{""Q0"":""dave is touching jane""}","<img src=""stim_listB/touch3.gif""style=""height:400px;""></stim_listB>",is touching,
null,"<div style=""font-size:60px;"">+</div>",,html-keyboard-response,114,530623,0.0-13.0-0.16,34661,List1B,white,woman,,,,null,,,,
null,"<img src=""stim_listB/shout6.gif""style=""height:400px;""></stim_listB>",,html-keyboard-response,115,532625,0.0-13.0-1.16,34661,List1B,white,woman,,,,null,,,,
null,are shouting at each other,,html-keyboard-response,116,534626,0.0-13.0-2.16,34661,List1B,white,woman,,,,null,,,,
49541,,,survey-text,117,584170,0.0-13.0-3.16,34661,List1B,white,woman,,,,,"{""Q0"":""mike and dave are shouting at each other""}","<img src=""stim_listB/shout6.gif""style=""height:400px;""></stim_listB>",are shouting at each other,
null,"<div style=""font-size:60px;"">+</div>",,html-keyboard-response,118,584671,0.0-13.0-0.17,34661,List1B,white,woman,,,,null,,,,
null,"<img src=""stim_listB/talk3.gif""style=""height:400px;""></stim_listB>",,html-keyboard-response,119,586676,0.0-13.0-1.17,34661,List1B,white,woman,,,,null,,,,
null,is talking to,,html-keyboard-response,120,588677,0.0-13.0-2.17,34661,List1B,white,woman,,,,null,,,,
6035,,,survey-text,121,594714,0.0-13.0-3.17,34661,List1B,white,woman,,,,,"{""Q0"":""jane is talking to luke""}","<img src=""stim_listB/talk3.gif""style=""height:400px;""></stim_listB>",is talking to,
null,"<div style=""font-size:60px;"">+</div>",,html-keyboard-response,122,595215,0.0-13.0-0.18,34661,List1B,white,woman,,,,null,,,,
null,"<img src=""stim_listB/play4.gif""style=""height:400px;""></stim_listB>",,html-keyboard-response,123,597219,0.0-13.0-1.18,34661,List1B,white,woman,,,,null,,,,
null,are playing with each other,,html-keyboard-response,124,599221,0.0-13.0-2.18,34661,List1B,white,woman,,,,null,,,,
15883,,,survey-text,125,615105,0.0-13.0-3.18,34661,List1B,white,woman,,,,,"{""Q0"":""jane and luke are playing with each other""}","<img src=""stim_listB/play4.gif""style=""height:400px;""></stim_listB>",are playing with each other,
null,"<div style=""font-size:60px;"">+</div>",,html-keyboard-response,126,615607,0.0-13.0-0.19,34661,List1B,white,woman,,,,null,,,,
null,"<img src=""stim_listB/kiss8.gif""style=""height:400px;""></stim_listB>",,html-keyboard-response,127,617612,0.0-13.0-1.19,34661,List1B,white,woman,,,,null,,,,
null,are kissing each other,,html-keyboard-response,128,619614,0.0-13.0-2.19,34661,List1B,white,woman,,,,null,,,,
15114,,,survey-text,129,634729,0.0-13.0-3.19,34661,List1B,white,woman,,,,,"{""Q0"":""kate and jane are kissing""}","<img src=""stim_listB/kiss8.gif""style=""height:400px;""></stim_listB>",are kissing each other,
18031,"<img src='img/portrait_matrix_list1.jpg' style='width:900px;height:500px;''></img><p>If you have memorised all the portraits and names and are ready to start, press Continue.</p><p><strong>Please note: Your memory of these faces will be tested 4 times during this experiment.</strong></p>",0,html-button-response,130,652761,0.0-14.0-0.0,34661,List1B,white,woman,,,,,,,,
4756,"<img src=""portrait/WM1.jpg""style=""height:400px;""></img>",6,html-button-response,131,658521,0.0-14.0-1.0,34661,List1B,white,woman,,TRUE,6,,,,,
null,CORRECT,,html-keyboard-response,132,660025,0.0-14.0-2.0-0.0,34661,List1B,white,woman,,,,null,,,,
1623,"<img src=""portrait/WW1.jpg""style=""height:400px;""></img>",1,html-button-response,133,661649,0.0-14.0-4.0,34661,List1B,white,woman,,TRUE,1,,,,,
null,CORRECT,,html-keyboard-response,134,663152,0.0-14.0-5.0-0.0,34661,List1B,white,woman,,,,null,,,,
1319,"<img src=""portrait/WW2.jpg""style=""height:400px;""></img>",3,html-button-response,135,664473,0.0-14.0-7.0,34661,List1B,white,woman,,TRUE,3,,,,,
null,CORRECT,,html-keyboard-response,136,665975,0.0-14.0-8.0-0.0,34661,List1B,white,woman,,,,null,,,,
1280,"<img src=""portrait/WM2.jpg""style=""height:400px;""></img>",7,html-button-response,137,667257,0.0-14.0-10.0,34661,List1B,white,woman,,TRUE,7,,,,,
null,CORRECT,,html-keyboard-response,138,668759,0.0-14.0-11.0-0.0,34661,List1B,white,woman,,,,null,,,,
2184,"<img src=""portrait/BW1.jpg""style=""height:400px;""></img>",0,html-button-response,139,670945,0.0-14.0-13.0,34661,List1B,white,woman,,TRUE,0,,,,,
null,CORRECT,,html-keyboard-response,140,672449,0.0-14.0-14.0-0.0,34661,List1B,white,woman,,,,null,,,,
1535,"<img src=""portrait/BW2.jpg""style=""height:400px;""></img>",2,html-button-response,141,673985,0.0-14.0-16.0,34661,List1B,white,woman,,TRUE,2,,,,,
null,CORRECT,,html-keyboard-response,142,675487,0.0-14.0-17.0-0.0,34661,List1B,white,woman,,,,null,,,,
1944,"<img src=""portrait/BM2.jpg""style=""height:400px;""></img>",5,html-button-response,143,677433,0.0-14.0-19.0,34661,List1B,white,woman,,TRUE,5,,,,,
null,CORRECT,,html-keyboard-response,144,678936,0.0-14.0-20.0-0.0,34661,List1B,white,woman,,,,null,,,,
1856,"<img src=""portrait/BM1.jpg""style=""height:400px;""></img>",4,html-button-response,145,680793,0.0-14.0-22.0,34661,List1B,white,woman,,TRUE,4,,,,,
null,CORRECT,,html-keyboard-response,146,682296,0.0-14.0-23.0-0.0,34661,List1B,white,woman,,,,null,,,,
1175,<p>You got 8 out of 8 right first time. Press Continue.</p>,0,html-button-response,147,683473,0.0-14.0-25.0,34661,List1B,white,woman,,,,,,,,
null,"<div style=""font-size:60px;"">+</div>",,html-keyboard-response,148,684977,0.0-15.0-0.0,34661,List1B,white,woman,,,,null,,,,
null,"<img src=""stim_listB/flirt7.gif""style=""height:400px;""></stim_listB>",,html-keyboard-response,149,686980,0.0-15.0-1.0,34661,List1B,white,woman,,,,null,,,,
null,is flirting with,,html-keyboard-response,150,688982,0.0-15.0-2.0,34661,List1B,white,woman,,,,null,,,,
7154,,,survey-text,151,696137,0.0-15.0-3.0,34661,List1B,white,woman,,,,,"{""Q0"":""kate is flirting with jane""}","<img src=""stim_listB/flirt7.gif""style=""height:400px;""></stim_listB>",is flirting with,
null,"<div style=""font-size:60px;"">+</div>",,html-keyboard-response,152,696639,0.0-15.0-0.1,34661,List1B,white,woman,,,,null,,,,
null,"<img src=""stim_listB/flirt5.gif""style=""height:400px;""></stim_listB>",,html-keyboard-response,153,698644,0.0-15.0-1.1,34661,List1B,white,woman,,,,null,,,,
null,is flirting with,,html-keyboard-response,154,700646,0.0-15.0-2.1,34661,List1B,white,woman,,,,null,,,,
10539,,,survey-text,155,711185,0.0-15.0-3.1,34661,List1B,white,woman,,,,,"{""Q0"":""dave is flirting with fred""}","<img src=""stim_listB/flirt5.gif""style=""height:400px;""></stim_listB>",is flirting with,
null,"<div style=""font-size:60px;"">+</div>",,html-keyboard-response,156,711687,0.0-15.0-0.2,34661,List1B,white,woman,,,,null,,,,
null,"<img src=""stim_listB/play3.gif""style=""height:400px;""></stim_listB>",,html-keyboard-response,157,713691,0.0-15.0-1.2,34661,List1B,white,woman,,,,null,,,,
null,is playing with,,html-keyboard-response,158,715694,0.0-15.0-2.2,34661,List1B,white,woman,,,,null,,,,
8163,,,survey-text,159,723858,0.0-15.0-3.2,34661,List1B,white,woman,,,,,"{""Q0"":""jane is playing with dave""}","<img src=""stim_listB/play3.gif""style=""height:400px;""></stim_listB>",is playing with,
null,"<div style=""font-size:60px;"">+</div>",,html-keyboard-response,160,724360,0.0-15.0-0.3,34661,List1B,white,woman,,,,null,,,,
null,"<img src=""stim_listB/shout8.gif""style=""height:400px;""></stim_listB>",,html-keyboard-response,161,726364,0.0-15.0-1.3,34661,List1B,white,woman,,,,null,,,,
null,are shouting at each other,,html-keyboard-response,162,728366,0.0-15.0-2.3,34661,List1B,white,woman,,,,null,,,,
9761,,,survey-text,163,738129,0.0-15.0-3.3,34661,List1B,white,woman,,,,,"{""Q0"":""kate and jane are shouting at each other""}","<img src=""stim_listB/shout8.gif""style=""height:400px;""></stim_listB>",are shouting at each other,
null,"<div style=""font-size:60px;"">+</div>",,html-keyboard-response,164,738631,0.0-15.0-0.4,34661,List1B,white,woman,,,,null,,,,
null,"<img src=""stim_listB/talk4.gif""style=""height:400px;""></stim_listB>",,html-keyboard-response,165,740634,0.0-15.0-1.4,34661,List1B,white,woman,,,,null,,,,
null,are talking to each other,,html-keyboard-response,166,742636,0.0-15.0-2.4,34661,List1B,white,woman,,,,null,,,,
13587,,,survey-text,167,756225,0.0-15.0-3.4,34661,List1B,white,woman,,,,,"{""Q0"":""ruth and dave are talking to each other""}","<img src=""stim_listB/talk4.gif""style=""height:400px;""></stim_listB>",are talking to each other,
null,"<div style=""font-size:60px;"">+</div>",,html-keyboard-response,168,756726,0.0-15.0-0.5,34661,List1B,white,woman,,,,null,,,,
null,"<img src=""stim_listB/touch7.gif""style=""height:400px;""></stim_listB>",,html-keyboard-response,169,758730,0.0-15.0-1.5,34661,List1B,white,woman,,,,null,,,,
null,is touching,,html-keyboard-response,170,760733,0.0-15.0-2.5,34661,List1B,white,woman,,,,null,,,,
9170,,,survey-text,171,769904,0.0-15.0-3.5,34661,List1B,white,woman,,,,,"{""Q0"":""kate is touching jane""}","<img src=""stim_listB/touch7.gif""style=""height:400px;""></stim_listB>",is touching,
null,"<div style=""font-size:60px;"">+</div>",,html-keyboard-response,172,770405,0.0-15.0-0.6,34661,List1B,white,woman,,,,null,,,,
null,"<img src=""stim_listB/kiss3.gif""style=""height:400px;""></stim_listB>",,html-keyboard-response,173,772408,0.0-15.0-1.6,34661,List1B,white,woman,,,,null,,,,
null,is kissing,,html-keyboard-response,174,774410,0.0-15.0-2.6,34661,List1B,white,woman,,,,null,,,,
12156,,,survey-text,175,786569,0.0-15.0-3.6,34661,List1B,white,woman,,,,,"{""Q0"":""ruth is kissing luke""}","<img src=""stim_listB/kiss3.gif""style=""height:400px;""></stim_listB>",is kissing,
null,"<div style=""font-size:60px;"">+</div>",,html-keyboard-response,176,787071,0.0-15.0-0.7,34661,List1B,white,woman,,,,null,,,,
null,"<img src=""stim_listB/shout5.gif""style=""height:400px;""></stim_listB>",,html-keyboard-response,177,789075,0.0-15.0-1.7,34661,List1B,white,woman,,,,null,,,,
null,is shouting at,,html-keyboard-response,178,791078,0.0-15.0-2.7,34661,List1B,white,woman,,,,null,,,,
8785,,,survey-text,179,799865,0.0-15.0-3.7,34661,List1B,white,woman,,,,,"{""Q0"":""luke is shouting at fred""}","<img src=""stim_listB/shout5.gif""style=""height:400px;""></stim_listB>",is shouting at,
null,"<div style=""font-size:60px;"">+</div>",,html-keyboard-response,180,800366,0.0-15.0-0.8,34661,List1B,white,woman,,,,null,,,,
null,"<img src=""stim_listB/marry8.gif""style=""height:400px;""></stim_listB>",,html-keyboard-response,181,802369,0.0-15.0-1.8,34661,List1B,white,woman,,,,null,,,,
null,are marrying each other,,html-keyboard-response,182,804370,0.0-15.0-2.8,34661,List1B,white,woman,,,,null,,,,
9342,,,survey-text,183,813712,0.0-15.0-3.8,34661,List1B,white,woman,,,,,"{""Q0"":""beth and jane are marrying each other""}","<img src=""stim_listB/marry8.gif""style=""height:400px;""></stim_listB>",are marrying each other,
null,"<div style=""font-size:60px;"">+</div>",,html-keyboard-response,184,814214,0.0-15.0-0.9,34661,List1B,white,woman,,,,null,,,,
null,"<img src=""stim_listB/fight3.gif""style=""height:400px;""></stim_listB>",,html-keyboard-response,185,816216,0.0-15.0-1.9,34661,List1B,white,woman,,,,null,,,,
null,is fighting,,html-keyboard-response,186,818218,0.0-15.0-2.9,34661,List1B,white,woman,,,,null,,,,
8597,,,survey-text,187,826816,0.0-15.0-3.9,34661,List1B,white,woman,,,,,"{""Q0"":""jane is fighting dave""}","<img src=""stim_listB/fight3.gif""style=""height:400px;""></stim_listB>",is fighting,
null,"<div style=""font-size:60px;"">+</div>",,html-keyboard-response,188,827318,0.0-15.0-0.10,34661,List1B,white,woman,,,,null,,,,
null,"<img src=""stim_listB/argue1.gif""style=""height:400px;""></stim_listB>",,html-keyboard-response,189,829322,0.0-15.0-1.10,34661,List1B,white,woman,,,,null,,,,
null,is arguing with,,html-keyboard-response,190,831324,0.0-15.0-2.10,34661,List1B,white,woman,,,,null,,,,
6931,,,survey-text,191,838256,0.0-15.0-3.10,34661,List1B,white,woman,,,,,"{""Q0"":""beth is arguing with mike""}","<img src=""stim_listB/argue1.gif""style=""height:400px;""></stim_listB>",is arguing with,
null,"<div style=""font-size:60px;"">+</div>",,html-keyboard-response,192,838757,0.0-15.0-0.11,34661,List1B,white,woman,,,,null,,,,
null,"<img src=""stim_listB/dance2.gif""style=""height:400px;""></stim_listB>",,html-keyboard-response,193,840761,0.0-15.0-1.11,34661,List1B,white,woman,,,,null,,,,
null,are dancing with each other,,html-keyboard-response,194,842764,0.0-15.0-2.11,34661,List1B,white,woman,,,,null,,,,
9243,,,survey-text,195,852009,0.0-15.0-3.11,34661,List1B,white,woman,,,,,"{""Q0"":""beth and mike are dancing with each other""}","<img src=""stim_listB/dance2.gif""style=""height:400px;""></stim_listB>",are dancing with each other,
null,"<div style=""font-size:60px;"">+</div>",,html-keyboard-response,196,852510,0.0-15.0-0.12,34661,List1B,white,woman,,,,null,,,,
null,"<img src=""stim_listB/argue2.gif""style=""height:400px;""></stim_listB>",,html-keyboard-response,197,854515,0.0-15.0-1.12,34661,List1B,white,woman,,,,null,,,,
null,are arguing with each other,,html-keyboard-response,198,856517,0.0-15.0-2.12,34661,List1B,white,woman,,,,null,,,,
10107,,,survey-text,199,866625,0.0-15.0-3.12,34661,List1B,white,woman,,,,,"{""Q0"":""kate and fred are arguing with each other""}","<img src=""stim_listB/argue2.gif""style=""height:400px;""></stim_listB>",are arguing with each other,
null,"<div style=""font-size:60px;"">+</div>",,html-keyboard-response,200,867128,0.0-15.0-0.13,34661,List1B,white,woman,,,,null,,,,
null,"<img src=""stim_listB/shout4.gif""style=""height:400px;""></stim_listB>",,html-keyboard-response,201,869132,0.0-15.0-1.13,34661,List1B,white,woman,,,,null,,,,
null,are shouting at each other,,html-keyboard-response,202,871136,0.0-15.0-2.13,34661,List1B,white,woman,,,,null,,,,
9591,,,survey-text,203,880728,0.0-15.0-3.13,34661,List1B,white,woman,,,,,"{""Q0"":""jane and dave are shouting at each other""}","<img src=""stim_listB/shout4.gif""style=""height:400px;""></stim_listB>",are shouting at each other,
null,"<div style=""font-size:60px;"">+</div>",,html-keyboard-response,204,881230,0.0-15.0-0.14,34661,List1B,white,woman,,,,null,,,,
null,"<img src=""stim_listB/kiss1.gif""style=""height:400px;""></stim_listB>",,html-keyboard-response,205,883233,0.0-15.0-1.14,34661,List1B,white,woman,,,,null,,,,
null,is kissing,,html-keyboard-response,206,885235,0.0-15.0-2.14,34661,List1B,white,woman,,,,null,,,,
7220,,,survey-text,207,892456,0.0-15.0-3.14,34661,List1B,white,woman,,,,,"{""Q0"":""fred is kissing beth""}","<img src=""stim_listB/kiss1.gif""style=""height:400px;""></stim_listB>",is kissing,
null,"<div style=""font-size:60px;"">+</div>",,html-keyboard-response,208,892959,0.0-15.0-0.15,34661,List1B,white,woman,,,,null,,,,
null,"<img src=""stim_listB/play5.gif""style=""height:400px;""></stim_listB>",,html-keyboard-response,209,894963,0.0-15.0-1.15,34661,List1B,white,woman,,,,null,,,,
null,is playing with,,html-keyboard-response,210,896967,0.0-15.0-2.15,34661,List1B,white,woman,,,,null,,,,
6768,,,survey-text,211,903736,0.0-15.0-3.15,34661,List1B,white,woman,,,,,"{""Q0"":""dave is playing with mike""}","<img src=""stim_listB/play5.gif""style=""height:400px;""></stim_listB>",is playing with,
null,"<div style=""font-size:60px;"">+</div>",,html-keyboard-response,212,904238,0.0-15.0-0.16,34661,List1B,white,woman,,,,null,,,,
null,"<img src=""stim_listB/shout7.gif""style=""height:400px;""></stim_listB>",,html-keyboard-response,213,906242,0.0-15.0-1.16,34661,List1B,white,woman,,,,null,,,,
null,is shouting at,,html-keyboard-response,214,908244,0.0-15.0-2.16,34661,List1B,white,woman,,,,null,,,,
8715,,,survey-text,215,916960,0.0-15.0-3.16,34661,List1B,white,woman,,,,,"{""Q0"":""ruth is shouting at beth""}","<img src=""stim_listB/shout7.gif""style=""height:400px;""></stim_listB>",is shouting at,
null,"<div style=""font-size:60px;"">+</div>",,html-keyboard-response,216,917463,0.0-15.0-0.17,34661,List1B,white,woman,,,,null,,,,
null,"<img src=""stim_listB/play1.gif""style=""height:400px;""></stim_listB>",,html-keyboard-response,217,919468,0.0-15.0-1.17,34661,List1B,white,woman,,,,null,,,,
null,is playing with,,html-keyboard-response,218,921470,0.0-15.0-2.17,34661,List1B,white,woman,,,,null,,,,
6305,,,survey-text,219,927776,0.0-15.0-3.17,34661,List1B,white,woman,,,,,"{""Q0"":""kate is playing with mike""}","<img src=""stim_listB/play1.gif""style=""height:400px;""></stim_listB>",is playing with,
null,"<div style=""font-size:60px;"">+</div>",,html-keyboard-response,220,928278,0.0-15.0-0.18,34661,List1B,white,woman,,,,null,,,,
null,"<img src=""stim_listB/argue7.gif""style=""height:400px;""></stim_listB>",,html-keyboard-response,221,930282,0.0-15.0-1.18,34661,List1B,white,woman,,,,null,,,,
null,is arguing with,,html-keyboard-response,222,932285,0.0-15.0-2.18,34661,List1B,white,woman,,,,null,,,,
11346,,,survey-text,223,943632,0.0-15.0-3.18,34661,List1B,white,woman,,,,,"{""Q0"":""ruth is arguing with kate""}","<img src=""stim_listB/argue7.gif""style=""height:400px;""></stim_listB>",is arguing with,
null,"<div style=""font-size:60px;"">+</div>",,html-keyboard-response,224,944134,0.0-15.0-0.19,34661,List1B,white,woman,,,,null,,,,
null,"<img src=""stim_listB/touch1.gif""style=""height:400px;""></stim_listB>",,html-keyboard-response,225,946138,0.0-15.0-1.19,34661,List1B,white,woman,,,,null,,,,
null,is touching,,html-keyboard-response,226,948140,0.0-15.0-2.19,34661,List1B,white,woman,,,,null,,,,
6195,,,survey-text,227,954336,0.0-15.0-3.19,34661,List1B,white,woman,,,,,"{""Q0"":""kate is touching mike""}","<img src=""stim_listB/touch1.gif""style=""height:400px;""></stim_listB>",is touching,
9215,"<img src='img/portrait_matrix_list1.jpg' style='width:900px;height:500px;''></img><p>If you have memorised all the portraits and names and are ready to start, press Continue.</p><p><strong>Please note: Your memory of these faces will be tested 4 times during this experiment.</strong></p>",0,html-button-response,228,963552,0.0-16.0-0.0,34661,List1B,white,woman,,,,,,,,
3964,"<img src=""portrait/BW1.jpg""style=""height:400px;""></img>",0,html-button-response,229,968520,0.0-16.0-1.0,34661,List1B,white,woman,,TRUE,0,,,,,
null,CORRECT,,html-keyboard-response,230,970022,0.0-16.0-2.0-0.0,34661,List1B,white,woman,,,,null,,,,
1767,"<img src=""portrait/BM2.jpg""style=""height:400px;""></img>",5,html-button-response,231,971791,0.0-16.0-4.0,34661,List1B,white,woman,,TRUE,5,,,,,
null,CORRECT,,html-keyboard-response,232,973294,0.0-16.0-5.0-0.0,34661,List1B,white,woman,,,,null,,,,
1335,"<img src=""portrait/BM1.jpg""style=""height:400px;""></img>",4,html-button-response,233,974631,0.0-16.0-7.0,34661,List1B,white,woman,,TRUE,4,,,,,
null,CORRECT,,html-keyboard-response,234,976135,0.0-16.0-8.0-0.0,34661,List1B,white,woman,,,,null,,,,
1174,"<img src=""portrait/WM2.jpg""style=""height:400px;""></img>",7,html-button-response,235,977312,0.0-16.0-10.0,34661,List1B,white,woman,,TRUE,7,,,,,
null,CORRECT,,html-keyboard-response,236,978814,0.0-16.0-11.0-0.0,34661,List1B,white,woman,,,,null,,,,
1279,"<img src=""portrait/WW2.jpg""style=""height:400px;""></img>",3,html-button-response,237,980095,0.0-16.0-13.0,34661,List1B,white,woman,,TRUE,3,,,,,
null,CORRECT,,html-keyboard-response,238,981597,0.0-16.0-14.0-0.0,34661,List1B,white,woman,,,,null,,,,
2088,"<img src=""portrait/WM1.jpg""style=""height:400px;""></img>",6,html-button-response,239,983687,0.0-16.0-16.0,34661,List1B,white,woman,,TRUE,6,,,,,
null,CORRECT,,html-keyboard-response,240,985190,0.0-16.0-17.0-0.0,34661,List1B,white,woman,,,,null,,,,
1848,"<img src=""portrait/BW2.jpg""style=""height:400px;""></img>",2,html-button-response,241,987039,0.0-16.0-19.0,34661,List1B,white,woman,,TRUE,2,,,,,
null,CORRECT,,html-keyboard-response,242,988543,0.0-16.0-20.0-0.0,34661,List1B,white,woman,,,,null,,,,
1558,"<img src=""portrait/WW1.jpg""style=""height:400px;""></img>",1,html-button-response,243,990103,0.0-16.0-22.0,34661,List1B,white,woman,,TRUE,1,,,,,
null,CORRECT,,html-keyboard-response,244,991606,0.0-16.0-23.0-0.0,34661,List1B,white,woman,,,,null,,,,
1111,<p>You got 8 out of 8 right first time. Press Continue.</p>,0,html-button-response,245,992719,0.0-16.0-25.0,34661,List1B,white,woman,,,,,,,,
null,"<div style=""font-size:60px;"">+</div>",,html-keyboard-response,246,994223,0.0-17.0-0.0,34661,List1B,white,woman,,,,null,,,,
null,"<img src=""stim_listB/fight5.gif""style=""height:400px;""></stim_listB>",,html-keyboard-response,247,996227,0.0-17.0-1.0,34661,List1B,white,woman,,,,null,,,,
null,is fighting,,html-keyboard-response,248,998229,0.0-17.0-2.0,34661,List1B,white,woman,,,,null,,,,
11130,,,survey-text,249,1009359,0.0-17.0-3.0,34661,List1B,white,woman,,,,,"{""Q0"":""mike is fighting dave""}","<img src=""stim_listB/fight5.gif""style=""height:400px;""></stim_listB>",is fighting,
null,"<div style=""font-size:60px;"">+</div>",,html-keyboard-response,250,1009861,0.0-17.0-0.1,34661,List1B,white,woman,,,,null,,,,
null,"<img src=""stim_listB/flirt1.gif""style=""height:400px;""></stim_listB>",,html-keyboard-response,251,1011866,0.0-17.0-1.1,34661,List1B,white,woman,,,,null,,,,
null,is flirting with,,html-keyboard-response,252,1013868,0.0-17.0-2.1,34661,List1B,white,woman,,,,null,,,,
8026,,,survey-text,253,1021895,0.0-17.0-3.1,34661,List1B,white,woman,,,,,"{""Q0"":""fred is flirting with kate""}","<img src=""stim_listB/flirt1.gif""style=""height:400px;""></stim_listB>",is flirting with,
null,"<div style=""font-size:60px;"">+</div>",,html-keyboard-response,254,1022397,0.0-17.0-0.2,34661,List1B,white,woman,,,,null,,,,
null,"<img src=""stim_listB/fight1.gif""style=""height:400px;""></stim_listB>",,html-keyboard-response,255,1024401,0.0-17.0-1.2,34661,List1B,white,woman,,,,null,,,,
null,is fighting,,html-keyboard-response,256,1026403,0.0-17.0-2.2,34661,List1B,white,woman,,,,null,,,,
10891,,,survey-text,257,1037295,0.0-17.0-3.2,34661,List1B,white,woman,,,,,"{""Q0"":""kate is fighting with mike""}","<img src=""stim_listB/fight1.gif""style=""height:400px;""></stim_listB>",is fighting,
null,"<div style=""font-size:60px;"">+</div>",,html-keyboard-response,258,1037798,0.0-17.0-0.3,34661,List1B,white,woman,,,,null,,,,
null,"<img src=""stim_listB/kiss2.gif""style=""height:400px;""></stim_listB>",,html-keyboard-response,259,1039801,0.0-17.0-1.3,34661,List1B,white,woman,,,,null,,,,
null,are kissing each other,,html-keyboard-response,260,1041804,0.0-17.0-2.3,34661,List1B,white,woman,,,,null,,,,
9506,,,survey-text,261,1051312,0.0-17.0-3.3,34661,List1B,white,woman,,,,,"{""Q0"":""kate and mike are kissing each other""}","<img src=""stim_listB/kiss2.gif""style=""height:400px;""></stim_listB>",are kissing each other,
null,"<div style=""font-size:60px;"">+</div>",,html-keyboard-response,262,1051813,0.0-17.0-0.4,34661,List1B,white,woman,,,,null,,,,
null,"<img src=""stim_listB/play6.gif""style=""height:400px;""></stim_listB>",,html-keyboard-response,263,1053816,0.0-17.0-1.4,34661,List1B,white,woman,,,,null,,,,
null,are playing with each other,,html-keyboard-response,264,1055819,0.0-17.0-2.4,34661,List1B,white,woman,,,,null,,,,
10603,,,survey-text,265,1066423,0.0-17.0-3.4,34661,List1B,white,woman,,,,,"{""Q0"":""luke and fred are playing with each other""}","<img src=""stim_listB/play6.gif""style=""height:400px;""></stim_listB>",are playing with each other,
null,"<div style=""font-size:60px;"">+</div>",,html-keyboard-response,266,1066925,0.0-17.0-0.5,34661,List1B,white,woman,,,,null,,,,
null,"<img src=""stim_listB/argue8.gif""style=""height:400px;""></stim_listB>",,html-keyboard-response,267,1068928,0.0-17.0-1.5,34661,List1B,white,woman,,,,null,,,,
null,are arguing with each other,,html-keyboard-response,268,1070930,0.0-17.0-2.5,34661,List1B,white,woman,,,,null,,,,
10964,,,survey-text,269,1081895,0.0-17.0-3.5,34661,List1B,white,woman,,,,,"{""Q0"":""beth and jane are arguing with each other""}","<img src=""stim_listB/argue8.gif""style=""height:400px;""></stim_listB>",are arguing with each other,
null,"<div style=""font-size:60px;"">+</div>",,html-keyboard-response,270,1082396,0.0-17.0-0.6,34661,List1B,white,woman,,,,null,,,,
null,"<img src=""stim_listB/marry5.gif""style=""height:400px;""></stim_listB>",,html-keyboard-response,271,1084398,0.0-17.0-1.6,34661,List1B,white,woman,,,,null,,,,
null,is marrying,,html-keyboard-response,272,1086400,0.0-17.0-2.6,34661,List1B,white,woman,,,,null,,,,
6582,,,survey-text,273,1092983,0.0-17.0-3.6,34661,List1B,white,woman,,,,,"{""Q0"":""luke is marrying mike""}","<img src=""stim_listB/marry5.gif""style=""height:400px;""></stim_listB>",is marrying,
null,"<div style=""font-size:60px;"">+</div>",,html-keyboard-response,274,1093485,0.0-17.0-0.7,34661,List1B,white,woman,,,,null,,,,
null,"<img src=""stim_listB/flirt6.gif""style=""height:400px;""></stim_listB>",,html-keyboard-response,275,1095488,0.0-17.0-1.7,34661,List1B,white,woman,,,,null,,,,
null,are flirting with each other,,html-keyboard-response,276,1097489,0.0-17.0-2.7,34661,List1B,white,woman,,,,null,,,,
14437,,,survey-text,277,1111927,0.0-17.0-3.7,34661,List1B,white,woman,,,,,"{""Q0"":""mike and luke are flirting with each other""}","<img src=""stim_listB/flirt6.gif""style=""height:400px;""></stim_listB>",are flirting with each other,
null,"<div style=""font-size:60px;"">+</div>",,html-keyboard-response,278,1112428,0.0-17.0-0.8,34661,List1B,white,woman,,,,null,,,,
null,"<img src=""stim_listB/fight8.gif""style=""height:400px;""></stim_listB>",,html-keyboard-response,279,1114431,0.0-17.0-1.8,34661,List1B,white,woman,,,,null,,,,
null,are fighting each other,,html-keyboard-response,280,1116434,0.0-17.0-2.8,34661,List1B,white,woman,,,,null,,,,
14588,,,survey-text,281,1131023,0.0-17.0-3.8,34661,List1B,white,woman,,,,,"{""Q0"":""beth and ruth are fighting with each other""}","<img src=""stim_listB/fight8.gif""style=""height:400px;""></stim_listB>",are fighting each other,
null,"<div style=""font-size:60px;"">+</div>",,html-keyboard-response,282,1131525,0.0-17.0-0.9,34661,List1B,white,woman,,,,null,,,,
null,"<img src=""stim_listB/kiss5.gif""style=""height:400px;""></stim_listB>",,html-keyboard-response,283,1133527,0.0-17.0-1.9,34661,List1B,white,woman,,,,null,,,,
null,is kissing,,html-keyboard-response,284,1135531,0.0-17.0-2.9,34661,List1B,white,woman,,,,null,,,,
6603,,,survey-text,285,1142135,0.0-17.0-3.9,34661,List1B,white,woman,,,,,"{""Q0"":""luke is kissing fred""}","<img src=""stim_listB/kiss5.gif""style=""height:400px;""></stim_listB>",is kissing,
null,"<div style=""font-size:60px;"">+</div>",,html-keyboard-response,286,1142636,0.0-17.0-0.10,34661,List1B,white,woman,,,,null,,,,
null,"<img src=""stim_listB/flirt3.gif""style=""height:400px;""></stim_listB>",,html-keyboard-response,287,1144637,0.0-17.0-1.10,34661,List1B,white,woman,,,,null,,,,
null,is flirting with,,html-keyboard-response,288,1146641,0.0-17.0-2.10,34661,List1B,white,woman,,,,null,,,,
6084,,,survey-text,289,1152726,0.0-17.0-3.10,34661,List1B,white,woman,,,,,"{""Q0"":""luke is flirting with jane""}","<img src=""stim_listB/flirt3.gif""style=""height:400px;""></stim_listB>",is flirting with,
null,"<div style=""font-size:60px;"">+</div>",,html-keyboard-response,290,1153228,0.0-17.0-0.11,34661,List1B,white,woman,,,,null,,,,
null,"<img src=""stim_listB/kiss6.gif""style=""height:400px;""></stim_listB>",,html-keyboard-response,291,1155233,0.0-17.0-1.11,34661,List1B,white,woman,,,,null,,,,
null,are kissing each other,,html-keyboard-response,292,1157235,0.0-17.0-2.11,34661,List1B,white,woman,,,,null,,,,
8498,,,survey-text,293,1165734,0.0-17.0-3.11,34661,List1B,white,woman,,,,,"{""Q0"":""mike and dave are kissing each other""}","<img src=""stim_listB/kiss6.gif""style=""height:400px;""></stim_listB>",are kissing each other,
null,"<div style=""font-size:60px;"">+</div>",,html-keyboard-response,294,1166236,0.0-17.0-0.12,34661,List1B,white,woman,,,,null,,,,
null,"<img src=""stim_listB/marry7.gif""style=""height:400px;""></stim_listB>",,html-keyboard-response,295,1168240,0.0-17.0-1.12,34661,List1B,white,woman,,,,null,,,,
null,is marrying,,html-keyboard-response,296,1170243,0.0-17.0-2.12,34661,List1B,white,woman,,,,null,,,,
7730,,,survey-text,297,1177974,0.0-17.0-3.12,34661,List1B,white,woman,,,,,"{""Q0"":""ruth is marrying kate""}","<img src=""stim_listB/marry7.gif""style=""height:400px;""></stim_listB>",is marrying,
null,"<div style=""font-size:60px;"">+</div>",,html-keyboard-response,298,1178476,0.0-17.0-0.13,34661,List1B,white,woman,,,,null,,,,
null,"<img src=""stim_listB/marry2.gif""style=""height:400px;""></stim_listB>",,html-keyboard-response,299,1180480,0.0-17.0-1.13,34661,List1B,white,woman,,,,null,,,,
null,are marrying each other,,html-keyboard-response,300,1182482,0.0-17.0-2.13,34661,List1B,white,woman,,,,null,,,,
9218,,,survey-text,301,1191702,0.0-17.0-3.13,34661,List1B,white,woman,,,,,"{""Q0"":""kate and fred are marrying each other""}","<img src=""stim_listB/marry2.gif""style=""height:400px;""></stim_listB>",are marrying each other,
null,"<div style=""font-size:60px;"">+</div>",,html-keyboard-response,302,1192205,0.0-17.0-0.14,34661,List1B,white,woman,,,,null,,,,
null,"<img src=""stim_listB/dance7.gif""style=""height:400px;""></stim_listB>",,html-keyboard-response,303,1194210,0.0-17.0-1.14,34661,List1B,white,woman,,,,null,,,,
null,is dancing with,,html-keyboard-response,304,1196213,0.0-17.0-2.14,34661,List1B,white,woman,,,,null,,,,
6760,,,survey-text,305,1202974,0.0-17.0-3.14,34661,List1B,white,woman,,,,,"{""Q0"":""beth is dancing with jane""}","<img src=""stim_listB/dance7.gif""style=""height:400px;""></stim_listB>",is dancing with,
null,"<div style=""font-size:60px;"">+</div>",,html-keyboard-response,306,1203475,0.0-17.0-0.15,34661,List1B,white,woman,,,,null,,,,
null,"<img src=""stim_listB/flirt4.gif""style=""height:400px;""></stim_listB>",,html-keyboard-response,307,1205479,0.0-17.0-1.15,34661,List1B,white,woman,,,,null,,,,
null,are flirting with each other,,html-keyboard-response,308,1207481,0.0-17.0-2.15,34661,List1B,white,woman,,,,null,,,,
12772,,,survey-text,309,1220255,0.0-17.0-3.15,34661,List1B,white,woman,,,,,"{""Q0"":""ruth and dave are flirting with each other""}","<img src=""stim_listB/flirt4.gif""style=""height:400px;""></stim_listB>",are flirting with each other,
null,"<div style=""font-size:60px;"">+</div>",,html-keyboard-response,310,1220756,0.0-17.0-0.16,34661,List1B,white,woman,,,,null,,,,
null,"<img src=""stim_listB/kiss7.gif""style=""height:400px;""></stim_listB>",,html-keyboard-response,311,1222758,0.0-17.0-1.16,34661,List1B,white,woman,,,,null,,,,
null,is kissing,,html-keyboard-response,312,1224760,0.0-17.0-2.16,34661,List1B,white,woman,,,,null,,,,
17469,,,survey-text,313,1242231,0.0-17.0-3.16,34661,List1B,white,woman,,,,,"{""Q0"":""ruth is kissing beth""}","<img src=""stim_listB/kiss7.gif""style=""height:400px;""></stim_listB>",is kissing,
null,"<div style=""font-size:60px;"">+</div>",,html-keyboard-response,314,1242733,0.0-17.0-0.17,34661,List1B,white,woman,,,,null,,,,
null,"<img src=""stim_listB/talk2.gif""style=""height:400px;""></stim_listB>",,html-keyboard-response,315,1244736,0.0-17.0-1.17,34661,List1B,white,woman,,,,null,,,,
null,are talking to each other,,html-keyboard-response,316,1246738,0.0-17.0-2.17,34661,List1B,white,woman,,,,null,,,,
11019,,,survey-text,317,1257759,0.0-17.0-3.17,34661,List1B,white,woman,,,,,"{""Q0"":""beth and mike are talking to each other""}","<img src=""stim_listB/talk2.gif""style=""height:400px;""></stim_listB>",are talking to each other,
null,"<div style=""font-size:60px;"">+</div>",,html-keyboard-response,318,1258260,0.0-17.0-0.18,34661,List1B,white,woman,,,,null,,,,
null,"<img src=""stim_listB/fight4.gif""style=""height:400px;""></stim_listB>",,html-keyboard-response,319,1260263,0.0-17.0-1.18,34661,List1B,white,woman,,,,null,,,,
null,are fighting each other,,html-keyboard-response,320,1262266,0.0-17.0-2.18,34661,List1B,white,woman,,,,null,,,,
11907,,,survey-text,321,1274175,0.0-17.0-3.18,34661,List1B,white,woman,,,,,"{""Q0"":""jane and luke are fighting each other""}","<img src=""stim_listB/fight4.gif""style=""height:400px;""></stim_listB>",are fighting each other,
null,"<div style=""font-size:60px;"">+</div>",,html-keyboard-response,322,1274676,0.0-17.0-0.19,34661,List1B,white,woman,,,,null,,,,
null,"<img src=""stim_listB/play8.gif""style=""height:400px;""></stim_listB>",,html-keyboard-response,323,1276679,0.0-17.0-1.19,34661,List1B,white,woman,,,,null,,,,
null,are playing with each other,,html-keyboard-response,324,1278681,0.0-17.0-2.19,34661,List1B,white,woman,,,,null,,,,
14292,,,survey-text,325,1292975,0.0-17.0-3.19,34661,List1B,white,woman,,,,,"{""Q0"":""jane and beth are playing with each other""}","<img src=""stim_listB/play8.gif""style=""height:400px;""></stim_listB>",are playing with each other,
12383,"<img src='img/portrait_matrix_list1.jpg' style='width:900px;height:500px;''></img><p>If you have memorised all the portraits and names and are ready to start, press Continue.</p><p><strong>Please note: Your memory of these faces will be tested 4 times during this experiment.</strong></p>",0,html-button-response,326,1305359,0.0-18.0-0.0,34661,List1B,white,woman,,,,,,,,
2757,"<img src=""portrait/WW2.jpg""style=""height:400px;""></img>",3,html-button-response,327,1309118,0.0-18.0-1.0,34661,List1B,white,woman,,TRUE,3,,,,,
null,CORRECT,,html-keyboard-response,328,1310621,0.0-18.0-2.0-0.0,34661,List1B,white,woman,,,,null,,,,
1656,"<img src=""portrait/BM2.jpg""style=""height:400px;""></img>",5,html-button-response,329,1312278,0.0-18.0-4.0,34661,List1B,white,woman,,TRUE,5,,,,,
null,CORRECT,,html-keyboard-response,330,1313780,0.0-18.0-5.0-0.0,34661,List1B,white,woman,,,,null,,,,
1216,"<img src=""portrait/WM1.jpg""style=""height:400px;""></img>",6,html-button-response,331,1314998,0.0-18.0-7.0,34661,List1B,white,woman,,TRUE,6,,,,,
null,CORRECT,,html-keyboard-response,332,1316502,0.0-18.0-8.0-0.0,34661,List1B,white,woman,,,,null,,,,
1278,"<img src=""portrait/WW1.jpg""style=""height:400px;""></img>",1,html-button-response,333,1317782,0.0-18.0-10.0,34661,List1B,white,woman,,TRUE,1,,,,,
null,CORRECT,,html-keyboard-response,334,1319284,0.0-18.0-11.0-0.0,34661,List1B,white,woman,,,,null,,,,
1728,"<img src=""portrait/BW2.jpg""style=""height:400px;""></img>",2,html-button-response,335,1321014,0.0-18.0-13.0,34661,List1B,white,woman,,TRUE,2,,,,,
null,CORRECT,,html-keyboard-response,336,1322517,0.0-18.0-14.0-0.0,34661,List1B,white,woman,,,,null,,,,
1591,"<img src=""portrait/WM2.jpg""style=""height:400px;""></img>",7,html-button-response,337,1324111,0.0-18.0-16.0,34661,List1B,white,woman,,TRUE,7,,,,,
null,CORRECT,,html-keyboard-response,338,1325613,0.0-18.0-17.0-0.0,34661,List1B,white,woman,,,,null,,,,
1703,"<img src=""portrait/BM1.jpg""style=""height:400px;""></img>",4,html-button-response,339,1327318,0.0-18.0-19.0,34661,List1B,white,woman,,TRUE,4,,,,,
null,CORRECT,,html-keyboard-response,340,1328821,0.0-18.0-20.0-0.0,34661,List1B,white,woman,,,,null,,,,
2198,"<img src=""portrait/BW1.jpg""style=""height:400px;""></img>",0,html-button-response,341,1331022,0.0-18.0-22.0,34661,List1B,white,woman,,TRUE,0,,,,,
null,CORRECT,,html-keyboard-response,342,1332526,0.0-18.0-23.0-0.0,34661,List1B,white,woman,,,,null,,,,
1837,<p>You got 8 out of 8 right first time. Press Continue.</p>,0,html-button-response,343,1334366,0.0-18.0-25.0,34661,List1B,white,woman,,,,,,,,
null,"<div style=""font-size:60px;"">+</div>",,html-keyboard-response,344,1335869,0.0-19.0-0.0,34661,List1B,white,woman,,,,null,,,,
null,"<img src=""stim_listB/touch5.gif""style=""height:400px;""></stim_listB>",,html-keyboard-response,345,1337873,0.0-19.0-1.0,34661,List1B,white,woman,,,,null,,,,
null,is touching,,html-keyboard-response,346,1339875,0.0-19.0-2.0,34661,List1B,white,woman,,,,null,,,,
6600,,,survey-text,347,1346478,0.0-19.0-3.0,34661,List1B,white,woman,,,,,"{""Q0"":""mike is touching dave""}","<img src=""stim_listB/touch5.gif""style=""height:400px;""></stim_listB>",is touching,
null,"<div style=""font-size:60px;"">+</div>",,html-keyboard-response,348,1346979,0.0-19.0-0.1,34661,List1B,white,woman,,,,null,,,,
null,"<img src=""stim_listB/touch8.gif""style=""height:400px;""></stim_listB>",,html-keyboard-response,349,1348983,0.0-19.0-1.1,34661,List1B,white,woman,,,,null,,,,
null,are touching each other,,html-keyboard-response,350,1350985,0.0-19.0-2.1,34661,List1B,white,woman,,,,null,,,,
8075,,,survey-text,351,1359062,0.0-19.0-3.1,34661,List1B,white,woman,,,,,"{""Q0"":""beth and ruth are touching each other""}","<img src=""stim_listB/touch8.gif""style=""height:400px;""></stim_listB>",are touching each other,
null,"<div style=""font-size:60px;"">+</div>",,html-keyboard-response,352,1359563,0.0-19.0-0.2,34661,List1B,white,woman,,,,null,,,,
null,"<img src=""stim_listB/shout1.gif""style=""height:400px;""></stim_listB>",,html-keyboard-response,353,1361567,0.0-19.0-1.2,34661,List1B,white,woman,,,,null,,,,
null,is shouting at,,html-keyboard-response,354,1363569,0.0-19.0-2.2,34661,List1B,white,woman,,,,null,,,,
8444,,,survey-text,355,1372014,0.0-19.0-3.2,34661,List1B,white,woman,,,,,"{""Q0"":""beth is shouting at fred""}","<img src=""stim_listB/shout1.gif""style=""height:400px;""></stim_listB>",is shouting at,
null,"<div style=""font-size:60px;"">+</div>",,html-keyboard-response,356,1372516,0.0-19.0-0.3,34661,List1B,white,woman,,,,null,,,,
null,"<img src=""stim_listB/argue6.gif""style=""height:400px;""></stim_listB>",,html-keyboard-response,357,1374520,0.0-19.0-1.3,34661,List1B,white,woman,,,,null,,,,
null,are arguing with each other,,html-keyboard-response,358,1376522,0.0-19.0-2.3,34661,List1B,white,woman,,,,null,,,,
18306,,,survey-text,359,1394829,0.0-19.0-3.3,34661,List1B,white,woman,,,,,"{""Q0"":""fred and dave are arguing with each other""}","<img src=""stim_listB/argue6.gif""style=""height:400px;""></stim_listB>",are arguing with each other,
null,"<div style=""font-size:60px;"">+</div>",,html-keyboard-response,360,1395331,0.0-19.0-0.4,34661,List1B,white,woman,,,,null,,,,
null,"<img src=""stim_listB/shout2.gif""style=""height:400px;""></stim_listB>",,html-keyboard-response,361,1397335,0.0-19.0-1.4,34661,List1B,white,woman,,,,null,,,,
null,are shouting at each other,,html-keyboard-response,362,1399337,0.0-19.0-2.4,34661,List1B,white,woman,,,,null,,,,
9890,,,survey-text,363,1409229,0.0-19.0-3.4,34661,List1B,white,woman,,,,,"{""Q0"":""kate and mike are shouting at each other""}","<img src=""stim_listB/shout2.gif""style=""height:400px;""></stim_listB>",are shouting at each other,
null,"<div style=""font-size:60px;"">+</div>",,html-keyboard-response,364,1409731,0.0-19.0-0.5,34661,List1B,white,woman,,,,null,,,,
null,"<img src=""stim_listB/talk6.gif""style=""height:400px;""></stim_listB>",,html-keyboard-response,365,1411735,0.0-19.0-1.5,34661,List1B,white,woman,,,,null,,,,
null,are talking to each other,,html-keyboard-response,366,1413737,0.0-19.0-2.5,34661,List1B,white,woman,,,,null,,,,
9736,,,survey-text,367,1423477,0.0-19.0-3.5,34661,List1B,white,woman,,,,,"{""Q0"":""luke and mike are talking to each other""}","<img src=""stim_listB/talk6.gif""style=""height:400px;""></stim_listB>",are talking to each other,
null,"<div style=""font-size:60px;"">+</div>",,html-keyboard-response,368,1423978,0.0-19.0-0.6,34661,List1B,white,woman,,,,null,,,,
null,"<img src=""stim_listB/talk8.gif""style=""height:400px;""></stim_listB>",,html-keyboard-response,369,1425983,0.0-19.0-1.6,34661,List1B,white,woman,,,,null,,,,
null,are talking to each other,,html-keyboard-response,370,1427985,0.0-19.0-2.6,34661,List1B,white,woman,,,,null,,,,
11027,,,survey-text,371,1439013,0.0-19.0-3.6,34661,List1B,white,woman,,,,,"{""Q0"":""ruth and kate are talking to each other""}","<img src=""stim_listB/talk8.gif""style=""height:400px;""></stim_listB>",are talking to each other,
null,"<div style=""font-size:60px;"">+</div>",,html-keyboard-response,372,1439515,0.0-19.0-0.7,34661,List1B,white,woman,,,,null,,,,
null,"<img src=""stim_listB/dance6.gif""style=""height:400px;""></stim_listB>",,html-keyboard-response,373,1441519,0.0-19.0-1.7,34661,List1B,white,woman,,,,null,,,,
null,are dancing with each other,,html-keyboard-response,374,1443522,0.0-19.0-2.7,34661,List1B,white,woman,,,,null,,,,
9298,,,survey-text,375,1452821,0.0-19.0-3.7,34661,List1B,white,woman,,,,,"{""Q0"":""mike and luke are dancing with each other""}","<img src=""stim_listB/dance6.gif""style=""height:400px;""></stim_listB>",are dancing with each other,
null,"<div style=""font-size:60px;"">+</div>",,html-keyboard-response,376,1453323,0.0-19.0-0.8,34661,List1B,white,woman,,,,null,,,,
null,"<img src=""stim_listB/marry3.gif""style=""height:400px;""></stim_listB>",,html-keyboard-response,377,1455327,0.0-19.0-1.8,34661,List1B,white,woman,,,,null,,,,
null,is marrying,,html-keyboard-response,378,1457330,0.0-19.0-2.8,34661,List1B,white,woman,,,,null,,,,
5626,,,survey-text,379,1462957,0.0-19.0-3.8,34661,List1B,white,woman,,,,,"{""Q0"":""ruth is marrying dave""}","<img src=""stim_listB/marry3.gif""style=""height:400px;""></stim_listB>",is marrying,
null,"<div style=""font-size:60px;"">+</div>",,html-keyboard-response,380,1463459,0.0-19.0-0.9,34661,List1B,white,woman,,,,null,,,,
null,"<img src=""stim_listB/touch2.gif""style=""height:400px;""></stim_listB>",,html-keyboard-response,381,1465463,0.0-19.0-1.9,34661,List1B,white,woman,,,,null,,,,
null,are touching each other,,html-keyboard-response,382,1467466,0.0-19.0-2.9,34661,List1B,white,woman,,,,null,,,,
26410,,,survey-text,383,1493877,0.0-19.0-3.9,34661,List1B,white,woman,,,,,"{""Q0"":""beth and fred are touching each other""}","<img src=""stim_listB/touch2.gif""style=""height:400px;""></stim_listB>",are touching each other,
null,"<div style=""font-size:60px;"">+</div>",,html-keyboard-response,384,1494378,0.0-19.0-0.10,34661,List1B,white,woman,,,,null,,,,
null,"<img src=""stim_listB/dance5.gif""style=""height:400px;""></stim_listB>",,html-keyboard-response,385,1496381,0.0-19.0-1.10,34661,List1B,white,woman,,,,null,,,,
null,is dancing with,,html-keyboard-response,386,1498383,0.0-19.0-2.10,34661,List1B,white,woman,,,,null,,,,
7037,,,survey-text,387,1505421,0.0-19.0-3.10,34661,List1B,white,woman,,,,,"{""Q0"":""dave is dancing with fred""}","<img src=""stim_listB/dance5.gif""style=""height:400px;""></stim_listB>",is dancing with,
null,"<div style=""font-size:60px;"">+</div>",,html-keyboard-response,388,1505923,0.0-19.0-0.11,34661,List1B,white,woman,,,,null,,,,
null,"<img src=""stim_listB/argue4.gif""style=""height:400px;""></stim_listB>",,html-keyboard-response,389,1507927,0.0-19.0-1.11,34661,List1B,white,woman,,,,null,,,,
null,are arguing with each other,,html-keyboard-response,390,1509930,0.0-19.0-2.11,34661,List1B,white,woman,,,,null,,,,
50594,,,survey-text,391,1560525,0.0-19.0-3.11,34661,List1B,white,woman,,,,,"{""Q0"":""luke and jane are arguing with each other""}","<img src=""stim_listB/argue4.gif""style=""height:400px;""></stim_listB>",are arguing with each other,
null,"<div style=""font-size:60px;"">+</div>",,html-keyboard-response,392,1561027,0.0-19.0-0.12,34661,List1B,white,woman,,,,null,,,,
null,"<img src=""stim_listB/touch6.gif""style=""height:400px;""></stim_listB>",,html-keyboard-response,393,1563029,0.0-19.0-1.12,34661,List1B,white,woman,,,,null,,,,
null,are touching each other,,html-keyboard-response,394,1565030,0.0-19.0-2.12,34661,List1B,white,woman,,,,null,,,,
15582,,,survey-text,395,1580614,0.0-19.0-3.12,34661,List1B,white,woman,,,,,"{""Q0"":""luke and fred are touching each other""}","<img src=""stim_listB/touch6.gif""style=""height:400px;""></stim_listB>",are touching each other,
null,"<div style=""font-size:60px;"">+</div>",,html-keyboard-response,396,1581116,0.0-19.0-0.13,34661,List1B,white,woman,,,,null,,,,
null,"<img src=""stim_listB/fight6.gif""style=""height:400px;""></stim_listB>",,html-keyboard-response,397,1583119,0.0-19.0-1.13,34661,List1B,white,woman,,,,null,,,,
null,are fighting each other,,html-keyboard-response,398,1585123,0.0-19.0-2.13,34661,List1B,white,woman,,,,null,,,,
8337,,,survey-text,399,1593460,0.0-19.0-3.13,34661,List1B,white,woman,,,,,"{""Q0"":""luke and fred are fighting each other""}","<img src=""stim_listB/fight6.gif""style=""height:400px;""></stim_listB>",are fighting each other,
null,"<div style=""font-size:60px;"">+</div>",,html-keyboard-response,400,1593961,0.0-19.0-0.14,34661,List1B,white,woman,,,,null,,,,
null,"<img src=""stim_listB/flirt8.gif""style=""height:400px;""></stim_listB>",,html-keyboard-response,401,1595966,0.0-19.0-1.14,34661,List1B,white,woman,,,,null,,,,
null,are flirting with each other,,html-keyboard-response,402,1597969,0.0-19.0-2.14,34661,List1B,white,woman,,,,null,,,,
17266,,,survey-text,403,1615236,0.0-19.0-3.14,34661,List1B,white,woman,,,,,"{""Q0"":""kate and ruth are flirting with each other""}","<img src=""stim_listB/flirt8.gif""style=""height:400px;""></stim_listB>",are flirting with each other,
null,"<div style=""font-size:60px;"">+</div>",,html-keyboard-response,404,1615738,0.0-19.0-0.15,34661,List1B,white,woman,,,,null,,,,
null,"<img src=""stim_listB/dance1.gif""style=""height:400px;""></stim_listB>",,html-keyboard-response,405,1617741,0.0-19.0-1.15,34661,List1B,white,woman,,,,null,,,,
null,is dancing with,,html-keyboard-response,406,1619742,0.0-19.0-2.15,34661,List1B,white,woman,,,,null,,,,
7996,,,survey-text,407,1627740,0.0-19.0-3.15,34661,List1B,white,woman,,,,,"{""Q0"":""kate is dancing with fred""}","<img src=""stim_listB/dance1.gif""style=""height:400px;""></stim_listB>",is dancing with,
null,"<div style=""font-size:60px;"">+</div>",,html-keyboard-response,408,1628242,0.0-19.0-0.16,34661,List1B,white,woman,,,,null,,,,
null,"<img src=""stim_listB/argue3.gif""style=""height:400px;""></stim_listB>",,html-keyboard-response,409,1630247,0.0-19.0-1.16,34661,List1B,white,woman,,,,null,,,,
null,is arguing with,,html-keyboard-response,410,1632250,0.0-19.0-2.16,34661,List1B,white,woman,,,,null,,,,
11312,,,survey-text,411,1643564,0.0-19.0-3.16,34661,List1B,white,woman,,,,,"{""Q0"":""ruth is arguing with dave""}","<img src=""stim_listB/argue3.gif""style=""height:400px;""></stim_listB>",is arguing with,
null,"<div style=""font-size:60px;"">+</div>",,html-keyboard-response,412,1644065,0.0-19.0-0.17,34661,List1B,white,woman,,,,null,,,,
null,"<img src=""stim_listB/touch4.gif""style=""height:400px;""></stim_listB>",,html-keyboard-response,413,1646068,0.0-19.0-1.17,34661,List1B,white,woman,,,,null,,,,
null,are touching each other,,html-keyboard-response,414,1648070,0.0-19.0-2.17,34661,List1B,white,woman,,,,null,,,,
10541,,,survey-text,415,1658612,0.0-19.0-3.17,34661,List1B,white,woman,,,,,"{""Q0"":""ruth and luke are touching each other""}","<img src=""stim_listB/touch4.gif""style=""height:400px;""></stim_listB>",are touching each other,
null,"<div style=""font-size:60px;"">+</div>",,html-keyboard-response,416,1659114,0.0-19.0-0.18,34661,List1B,white,woman,,,,null,,,,
null,"<img src=""stim_listB/play7.gif""style=""height:400px;""></stim_listB>",,html-keyboard-response,417,1661118,0.0-19.0-1.18,34661,List1B,white,woman,,,,null,,,,
null,is playing with,,html-keyboard-response,418,1663121,0.0-19.0-2.18,34661,List1B,white,woman,,,,null,,,,
6450,,,survey-text,419,1669572,0.0-19.0-3.18,34661,List1B,white,woman,,,,,"{""Q0"":""jane is playing with kate""}","<img src=""stim_listB/play7.gif""style=""height:400px;""></stim_listB>",is playing with,
null,"<div style=""font-size:60px;"">+</div>",,html-keyboard-response,420,1670073,0.0-19.0-0.19,34661,List1B,white,woman,,,,null,,,,
null,"<img src=""stim_listB/argue5.gif""style=""height:400px;""></stim_listB>",,html-keyboard-response,421,1672076,0.0-19.0-1.19,34661,List1B,white,woman,,,,null,,,,
null,is arguing with,,html-keyboard-response,422,1674080,0.0-19.0-2.19,34661,List1B,white,woman,,,,null,,,,
7059,,,survey-text,423,1681140,0.0-19.0-3.19,34661,List1B,white,woman,,,,,"{""Q0"":""mike is arguing with luke""}","<img src=""stim_listB/argue5.gif""style=""height:400px;""></stim_listB>",is arguing with,
3999,<p>Thank you for completing that task.</p><p>The final part of this session is a short questionnaire.</p><p>Press Continue.</p>,0,html-button-response,424,1685140,0.0-20.0,34661,List1B,white,woman,,,,,,,,
23997,,,survey-text,425,1710142,0.0-21.0,34661,List1B,white,woman,,,,,"{""Q0"":""33"",""Q1"":""English"",""Q2"":""English"",""Q3"":""United Kingdom"",""Q4"":""White"",""Q5"":""Female""}",,,demographics
11149,,,survey-likert,426,1721293,0.0-22.0,34661,List1B,white,woman,,,,,"{""Q0"":4}",,,likert_ESS
5742,,,survey-likert,427,1727037,0.0-23.0,34661,List1B,white,woman,,,,,"{""Q0"":4}",,,likert_NSSAL_Q1
4799,,,survey-likert,428,1731836,0.0-24.0,34661,List1B,white,woman,,,,,"{""Q0"":4}",,,likert_NSSAL_Q2
3415,,,survey-likert,429,1735252,0.0-25.0,34661,List1B,white,woman,,,,,"{""Q0"":4}",,,likert_CGRS_Q1
3223,,,survey-likert,430,1738477,0.0-26.0,34661,List1B,white,woman,,,,,"{""Q0"":4}",,,likert_CGRS_Q2
2727,,,survey-likert,431,1741204,0.0-27.0,34661,List1B,white,woman,,,,,"{""Q0"":4}",,,likert_CGRS_Q3
8095,,,survey-text,432,1749301,0.0-28.0,34661,List1B,white,woman,,,,,"{""Q0"":""ccc""}",,,worker_id
111488,,,external-html,433,1860908,0.0-29.0,34661,List1B,white,woman,debrief.html,,,,,,,
