rt,stimulus,button_pressed,trial_type,trial_index,time_elapsed,internal_node_id,subject,list,ppt_race,ppt_gender,url,first_guess,correct,key_press,responses,image_type,phrase_type,test_part
22675,Welcome to the experiment. Press Continue to begin.,0,html-button-response,0,22695,0.0-0.0,34837,List1A,black,woman,,,,,,,,
295845,,,external-html,1,319658,0.0-1.0,34837,List1A,black,woman,consent.html,,,,,,,
21834,"<p>On the next page, you will see portraits of 8 people and their names.</p><p>Your first task is to take a few minutes to memorise the names of these people.</p><p>You will have to recall their names during the rest of the experiment, so it is</p><p>essential that you try to memorise these people and their names as best as you can.</p><br><p><strong>You will then be tested on your memory of these names and portraits.</strong></p><br><p>The experiment will start after you have completed this memory test.</p><br><p>Ready?</p>",0,html-button-response,2,341502,0.0-2.0,34837,List1A,black,woman,,,,,,,,
197999,"<img src='img/portrait_matrix_list1.jpg' style='width:900px;height:500px;''></img><p>If you have memorised all the portraits and names and are ready to start, press Continue.</p><p><strong>Please note: Your memory of these faces will be tested 4 times during this experiment.</strong></p>",0,html-button-response,3,540512,0.0-3.0-0.0,34837,List1A,black,woman,,,,,,,,
5788,"<img src=""portrait/WM1.jpg""style=""height:400px;""></img>",6,html-button-response,4,547313,0.0-3.0-1.0,34837,List1A,black,woman,,TRUE,6,,,,,
null,CORRECT,,html-keyboard-response,5,548832,0.0-3.0-2.0-0.0,34837,List1A,black,woman,,,,null,,,,
5277,"<img src=""portrait/WM2.jpg""style=""height:400px;""></img>",7,html-button-response,6,554119,0.0-3.0-4.0,34837,List1A,black,woman,,TRUE,7,,,,,
null,CORRECT,,html-keyboard-response,7,555626,0.0-3.0-5.0-0.0,34837,List1A,black,woman,,,,null,,,,
3219,"<img src=""portrait/BM1.jpg""style=""height:400px;""></img>",4,html-button-response,8,558852,0.0-3.0-7.0,34837,List1A,black,woman,,TRUE,4,,,,,
null,CORRECT,,html-keyboard-response,9,560357,0.0-3.0-8.0-0.0,34837,List1A,black,woman,,,,null,,,,
2501,"<img src=""portrait/BW2.jpg""style=""height:400px;""></img>",2,html-button-response,10,562863,0.0-3.0-10.0,34837,List1A,black,woman,,TRUE,2,,,,,
null,CORRECT,,html-keyboard-response,11,564369,0.0-3.0-11.0-0.0,34837,List1A,black,woman,,,,null,,,,
4716,"<img src=""portrait/WW1.jpg""style=""height:400px;""></img>",1,html-button-response,12,569091,0.0-3.0-13.0,34837,List1A,black,woman,,TRUE,1,,,,,
null,CORRECT,,html-keyboard-response,13,570597,0.0-3.0-14.0-0.0,34837,List1A,black,woman,,,,null,,,,
4900,"<img src=""portrait/BW1.jpg""style=""height:400px;""></img>",0,html-button-response,14,575503,0.0-3.0-16.0,34837,List1A,black,woman,,TRUE,0,,,,,
null,CORRECT,,html-keyboard-response,15,577007,0.0-3.0-17.0-0.0,34837,List1A,black,woman,,,,null,,,,
2699,"<img src=""portrait/WW2.jpg""style=""height:400px;""></img>",3,html-button-response,16,579713,0.0-3.0-19.0,34837,List1A,black,woman,,TRUE,3,,,,,
null,CORRECT,,html-keyboard-response,17,581218,0.0-3.0-20.0-0.0,34837,List1A,black,woman,,,,null,,,,
4338,"<img src=""portrait/BM2.jpg""style=""height:400px;""></img>",5,html-button-response,18,585562,0.0-3.0-22.0,34837,List1A,black,woman,,TRUE,5,,,,,
null,CORRECT,,html-keyboard-response,19,587068,0.0-3.0-23.0-0.0,34837,List1A,black,woman,,,,null,,,,
3706,<p>You got 8 out of 8 right first time. Press Continue.</p>,0,html-button-response,20,590780,0.0-3.0-25.0,34837,List1A,black,woman,,,,,,,,
93862,"<p>In this experiment, you will view photographs of the people from the memory game interacting.</p><p>By using the <strong>exact</strong> phrase given <i>after</i> the photograph appears and recalling the correct names of the people in the photographs, form a sentence describing the interaction. You do not need to capitalise names.</p><p>Type your answer in the space provided. Please complete every sentence before moving onto the next trial.</p><p>You will only have a few seconds to memorise each given photograph and phrase before you can respond, so try your best to focus.</p><p>An example is given below. Press 'Continue' when you are ready.</p><img src='img/speaking_example.jpg' style='width:800px;height:460px;''></img>",0,html-button-response,21,685653,0.0-4.0,34837,List1A,black,woman,,,,,,,,
4715,"<p>Before the experiment starts, you will watch two example trials. Press 'Continue'.</p>",0,html-button-response,22,691375,0.0-5.0,34837,List1A,black,woman,,,,,,,,
null,<img src='img/meet_eg.gif' style='height:400px;''></img>,,html-keyboard-response,23,694382,0.0-6.0,34837,List1A,black,woman,,,,null,,,,
null,<p>is meeting</p>,,html-keyboard-response,24,696385,0.0-7.0,34837,List1A,black,woman,,,,null,,,,
3979,<p><b>Answer:</b> kate is meeting beth</p>,0,html-button-response,25,700369,0.0-8.0,34837,List1A,black,woman,,,,,,,,
null,<img src='img/look_eg.gif' style='height:400px;''></img>,,html-keyboard-response,26,703374,0.0-9.0,34837,List1A,black,woman,,,,null,,,,
null,<p>are looking at each other</p>,,html-keyboard-response,27,705378,0.0-10.0,34837,List1A,black,woman,,,,null,,,,
10053,<p><b>Answer:</b> luke and dave are looking at each other</p>,0,html-button-response,28,715435,0.0-11.0,34837,List1A,black,woman,,,,,,,,
21415,"<p>Ready to start the experiment?</p><br><p><strong>Remember to describe the picture using a full sentence,</strong></p><p><strong>that combines the names of the people with the <i>exact</i> phrase given.</strong></p><p><strong>To receive full payment you must do this correctly.</strong></p><p><strong> You do not need to capitalise names or use punctuation.</strong></p><br><p>Press 'Continue' to begin.</p>",0,html-button-response,29,737855,0.0-12.0,34837,List1A,black,woman,,,,,,,,
null,"<div style=""font-size:60px;"">+</div>",,html-keyboard-response,30,739359,0.0-13.0-0.0,34837,List1A,black,woman,,,,null,,,,
null,"<img src=""stim_listA/flirt5.gif""style=""height:400px;""></stim_listA>",,html-keyboard-response,31,741366,0.0-13.0-1.0,34837,List1A,black,woman,,,,null,,,,
null,is flirting with,,html-keyboard-response,32,743370,0.0-13.0-2.0,34837,List1A,black,woman,,,,null,,,,
17099,,,survey-text,33,760475,0.0-13.0-3.0,34837,List1A,black,woman,,,,,"{""Q0"":""Fred is flirting with Dave""}","<img src=""stim_listA/flirt5.gif""style=""height:400px;""></stim_listA>",is flirting with,
null,"<div style=""font-size:60px;"">+</div>",,html-keyboard-response,34,760983,0.0-13.0-0.1,34837,List1A,black,woman,,,,null,,,,
null,"<img src=""stim_listA/touch4.gif""style=""height:400px;""></stim_listA>",,html-keyboard-response,35,762986,0.0-13.0-1.1,34837,List1A,black,woman,,,,null,,,,
null,are touching each other,,html-keyboard-response,36,764995,0.0-13.0-2.1,34837,List1A,black,woman,,,,null,,,,
14090,,,survey-text,37,779089,0.0-13.0-3.1,34837,List1A,black,woman,,,,,"{""Q0"":""jane and Luke are touching""}","<img src=""stim_listA/touch4.gif""style=""height:400px;""></stim_listA>",are touching each other,
null,"<div style=""font-size:60px;"">+</div>",,html-keyboard-response,38,779593,0.0-13.0-0.2,34837,List1A,black,woman,,,,null,,,,
null,"<img src=""stim_listA/marry1.gif""style=""height:400px;""></stim_listA>",,html-keyboard-response,39,781599,0.0-13.0-1.2,34837,List1A,black,woman,,,,null,,,,
null,is marrying,,html-keyboard-response,40,783604,0.0-13.0-2.2,34837,List1A,black,woman,,,,null,,,,
33277,,,survey-text,41,816885,0.0-13.0-3.2,34837,List1A,black,woman,,,,,"{""Q0"":""Mike and ruth are marrying""}","<img src=""stim_listA/marry1.gif""style=""height:400px;""></stim_listA>",is marrying,
null,"<div style=""font-size:60px;"">+</div>",,html-keyboard-response,42,817389,0.0-13.0-0.3,34837,List1A,black,woman,,,,null,,,,
null,"<img src=""stim_listA/dance1.gif""style=""height:400px;""></stim_listA>",,html-keyboard-response,43,819395,0.0-13.0-1.3,34837,List1A,black,woman,,,,null,,,,
null,is dancing with,,html-keyboard-response,44,821398,0.0-13.0-2.3,34837,List1A,black,woman,,,,null,,,,
17627,,,survey-text,45,839030,0.0-13.0-3.3,34837,List1A,black,woman,,,,,"{""Q0"":""Fred and Kate are playing""}","<img src=""stim_listA/dance1.gif""style=""height:400px;""></stim_listA>",is dancing with,
null,"<div style=""font-size:60px;"">+</div>",,html-keyboard-response,46,839535,0.0-13.0-0.4,34837,List1A,black,woman,,,,null,,,,
null,"<img src=""stim_listA/fight4.gif""style=""height:400px;""></stim_listA>",,html-keyboard-response,47,841541,0.0-13.0-1.4,34837,List1A,black,woman,,,,null,,,,
null,are fighting each other,,html-keyboard-response,48,843544,0.0-13.0-2.4,34837,List1A,black,woman,,,,null,,,,
15065,,,survey-text,49,858614,0.0-13.0-3.4,34837,List1A,black,woman,,,,,"{""Q0"":""jane and Luke are fighting each other""}","<img src=""stim_listA/fight4.gif""style=""height:400px;""></stim_listA>",are fighting each other,
null,"<div style=""font-size:60px;"">+</div>",,html-keyboard-response,50,859120,0.0-13.0-0.5,34837,List1A,black,woman,,,,null,,,,
null,"<img src=""stim_listA/argue7.gif""style=""height:400px;""></stim_listA>",,html-keyboard-response,51,861126,0.0-13.0-1.5,34837,List1A,black,woman,,,,null,,,,
null,is arguing with,,html-keyboard-response,52,863130,0.0-13.0-2.5,34837,List1A,black,woman,,,,null,,,,
11024,,,survey-text,53,874159,0.0-13.0-3.5,34837,List1A,black,woman,,,,,"{""Q0"":""kate and jane are arguing""}","<img src=""stim_listA/argue7.gif""style=""height:400px;""></stim_listA>",is arguing with,
null,"<div style=""font-size:60px;"">+</div>",,html-keyboard-response,54,874664,0.0-13.0-0.6,34837,List1A,black,woman,,,,null,,,,
null,"<img src=""stim_listA/touch6.gif""style=""height:400px;""></stim_listA>",,html-keyboard-response,55,876671,0.0-13.0-1.6,34837,List1A,black,woman,,,,null,,,,
null,are touching each other,,html-keyboard-response,56,878676,0.0-13.0-2.6,34837,List1A,black,woman,,,,null,,,,
15072,,,survey-text,57,893753,0.0-13.0-3.6,34837,List1A,black,woman,,,,,"{""Q0"":""Luke and Fred are touching each other""}","<img src=""stim_listA/touch6.gif""style=""height:400px;""></stim_listA>",are touching each other,
null,"<div style=""font-size:60px;"">+</div>",,html-keyboard-response,58,894257,0.0-13.0-0.7,34837,List1A,black,woman,,,,null,,,,
null,"<img src=""stim_listA/fight7.gif""style=""height:400px;""></stim_listA>",,html-keyboard-response,59,896264,0.0-13.0-1.7,34837,List1A,black,woman,,,,null,,,,
null,is fighting,,html-keyboard-response,60,898267,0.0-13.0-2.7,34837,List1A,black,woman,,,,null,,,,
12595,,,survey-text,61,910867,0.0-13.0-3.7,34837,List1A,black,woman,,,,,"{""Q0"":""kate and jane are fighting""}","<img src=""stim_listA/fight7.gif""style=""height:400px;""></stim_listA>",is fighting,
null,"<div style=""font-size:60px;"">+</div>",,html-keyboard-response,62,911372,0.0-13.0-0.8,34837,List1A,black,woman,,,,null,,,,
null,"<img src=""stim_listA/kiss1.gif""style=""height:400px;""></stim_listA>",,html-keyboard-response,63,913378,0.0-13.0-1.8,34837,List1A,black,woman,,,,null,,,,
null,is kissing,,html-keyboard-response,64,915383,0.0-13.0-2.8,34837,List1A,black,woman,,,,null,,,,
14294,,,survey-text,65,929681,0.0-13.0-3.8,34837,List1A,black,woman,,,,,"{""Q0"":""fred and beth are kissing""}","<img src=""stim_listA/kiss1.gif""style=""height:400px;""></stim_listA>",is kissing,
null,"<div style=""font-size:60px;"">+</div>",,html-keyboard-response,66,930197,0.0-13.0-0.9,34837,List1A,black,woman,,,,null,,,,
null,"<img src=""stim_listA/fight3.gif""style=""height:400px;""></stim_listA>",,html-keyboard-response,67,932203,0.0-13.0-1.9,34837,List1A,black,woman,,,,null,,,,
null,is fighting,,html-keyboard-response,68,934217,0.0-13.0-2.9,34837,List1A,black,woman,,,,null,,,,
12761,,,survey-text,69,946983,0.0-13.0-3.9,34837,List1A,black,woman,,,,,"{""Q0"":""mike jane is fighting""}","<img src=""stim_listA/fight3.gif""style=""height:400px;""></stim_listA>",is fighting,
null,"<div style=""font-size:60px;"">+</div>",,html-keyboard-response,70,947487,0.0-13.0-0.10,34837,List1A,black,woman,,,,null,,,,
null,"<img src=""stim_listA/talk4.gif""style=""height:400px;""></stim_listA>",,html-keyboard-response,71,949494,0.0-13.0-1.10,34837,List1A,black,woman,,,,null,,,,
null,are talking to each other,,html-keyboard-response,72,951497,0.0-13.0-2.10,34837,List1A,black,woman,,,,null,,,,
14295,,,survey-text,73,965796,0.0-13.0-3.10,34837,List1A,black,woman,,,,,"{""Q0"":""dave and jane are talking to each other""}","<img src=""stim_listA/talk4.gif""style=""height:400px;""></stim_listA>",are talking to each other,
null,"<div style=""font-size:60px;"">+</div>",,html-keyboard-response,74,966300,0.0-13.0-0.11,34837,List1A,black,woman,,,,null,,,,
null,"<img src=""stim_listA/shout1.gif""style=""height:400px;""></stim_listA>",,html-keyboard-response,75,968307,0.0-13.0-1.11,34837,List1A,black,woman,,,,null,,,,
null,is shouting at,,html-keyboard-response,76,970310,0.0-13.0-2.11,34837,List1A,black,woman,,,,null,,,,
12350,,,survey-text,77,982664,0.0-13.0-3.11,34837,List1A,black,woman,,,,,"{""Q0"":""fred is shouting at beth""}","<img src=""stim_listA/shout1.gif""style=""height:400px;""></stim_listA>",is shouting at,
null,"<div style=""font-size:60px;"">+</div>",,html-keyboard-response,78,983168,0.0-13.0-0.12,34837,List1A,black,woman,,,,null,,,,
null,"<img src=""stim_listA/touch7.gif""style=""height:400px;""></stim_listA>",,html-keyboard-response,79,985174,0.0-13.0-1.12,34837,List1A,black,woman,,,,null,,,,
null,is touching,,html-keyboard-response,80,987177,0.0-13.0-2.12,34837,List1A,black,woman,,,,null,,,,
11699,,,survey-text,81,998880,0.0-13.0-3.12,34837,List1A,black,woman,,,,,"{""Q0"":""kate jane is touching""}","<img src=""stim_listA/touch7.gif""style=""height:400px;""></stim_listA>",is touching,
null,"<div style=""font-size:60px;"">+</div>",,html-keyboard-response,82,999384,0.0-13.0-0.13,34837,List1A,black,woman,,,,null,,,,
null,"<img src=""stim_listA/play4.gif""style=""height:400px;""></stim_listA>",,html-keyboard-response,83,1001392,0.0-13.0-1.13,34837,List1A,black,woman,,,,null,,,,
null,are playing with each other,,html-keyboard-response,84,1003395,0.0-13.0-2.13,34837,List1A,black,woman,,,,null,,,,
15439,,,survey-text,85,1018839,0.0-13.0-3.13,34837,List1A,black,woman,,,,,"{""Q0"":""jane and luke are playing with each other""}","<img src=""stim_listA/play4.gif""style=""height:400px;""></stim_listA>",are playing with each other,
null,"<div style=""font-size:60px;"">+</div>",,html-keyboard-response,86,1019343,0.0-13.0-0.14,34837,List1A,black,woman,,,,null,,,,
null,"<img src=""stim_listA/kiss5.gif""style=""height:400px;""></stim_listA>",,html-keyboard-response,87,1021348,0.0-13.0-1.14,34837,List1A,black,woman,,,,null,,,,
null,is kissing,,html-keyboard-response,88,1023352,0.0-13.0-2.14,34837,List1A,black,woman,,,,null,,,,
9525,,,survey-text,89,1032881,0.0-13.0-3.14,34837,List1A,black,woman,,,,,"{""Q0"":""luke and fred""}","<img src=""stim_listA/kiss5.gif""style=""height:400px;""></stim_listA>",is kissing,
null,"<div style=""font-size:60px;"">+</div>",,html-keyboard-response,90,1033386,0.0-13.0-0.15,34837,List1A,black,woman,,,,null,,,,
null,"<img src=""stim_listA/marry5.gif""style=""height:400px;""></stim_listA>",,html-keyboard-response,91,1035393,0.0-13.0-1.15,34837,List1A,black,woman,,,,null,,,,
null,is marrying,,html-keyboard-response,92,1037397,0.0-13.0-2.15,34837,List1A,black,woman,,,,null,,,,
10450,,,survey-text,93,1047851,0.0-13.0-3.15,34837,List1A,black,woman,,,,,"{""Q0"":""mike luke is marrying""}","<img src=""stim_listA/marry5.gif""style=""height:400px;""></stim_listA>",is marrying,
null,"<div style=""font-size:60px;"">+</div>",,html-keyboard-response,94,1048354,0.0-13.0-0.16,34837,List1A,black,woman,,,,null,,,,
null,"<img src=""stim_listA/fight1.gif""style=""height:400px;""></stim_listA>",,html-keyboard-response,95,1050361,0.0-13.0-1.16,34837,List1A,black,woman,,,,null,,,,
null,is fighting,,html-keyboard-response,96,1052364,0.0-13.0-2.16,34837,List1A,black,woman,,,,null,,,,
9108,,,survey-text,97,1061477,0.0-13.0-3.16,34837,List1A,black,woman,,,,,"{""Q0"":""mike kate is fighting""}","<img src=""stim_listA/fight1.gif""style=""height:400px;""></stim_listA>",is fighting,
null,"<div style=""font-size:60px;"">+</div>",,html-keyboard-response,98,1061982,0.0-13.0-0.17,34837,List1A,black,woman,,,,null,,,,
null,"<img src=""stim_listA/flirt4.gif""style=""height:400px;""></stim_listA>",,html-keyboard-response,99,1063990,0.0-13.0-1.17,34837,List1A,black,woman,,,,null,,,,
null,are flirting with each other,,html-keyboard-response,100,1065993,0.0-13.0-2.17,34837,List1A,black,woman,,,,null,,,,
14491,,,survey-text,101,1080490,0.0-13.0-3.17,34837,List1A,black,woman,,,,,"{""Q0"":""jane and dave are fighting with each other""}","<img src=""stim_listA/flirt4.gif""style=""height:400px;""></stim_listA>",are flirting with each other,
null,"<div style=""font-size:60px;"">+</div>",,html-keyboard-response,102,1080995,0.0-13.0-0.18,34837,List1A,black,woman,,,,null,,,,
null,"<img src=""stim_listA/fight5.gif""style=""height:400px;""></stim_listA>",,html-keyboard-response,103,1083002,0.0-13.0-1.18,34837,List1A,black,woman,,,,null,,,,
null,is fighting,,html-keyboard-response,104,1085007,0.0-13.0-2.18,34837,List1A,black,woman,,,,null,,,,
9577,,,survey-text,105,1094588,0.0-13.0-3.18,34837,List1A,black,woman,,,,,"{""Q0"":""mike dave is fighting""}","<img src=""stim_listA/fight5.gif""style=""height:400px;""></stim_listA>",is fighting,
null,"<div style=""font-size:60px;"">+</div>",,html-keyboard-response,106,1095093,0.0-13.0-0.19,34837,List1A,black,woman,,,,null,,,,
null,"<img src=""stim_listA/kiss3.gif""style=""height:400px;""></stim_listA>",,html-keyboard-response,107,1097098,0.0-13.0-1.19,34837,List1A,black,woman,,,,null,,,,
null,is kissing,,html-keyboard-response,108,1099102,0.0-13.0-2.19,34837,List1A,black,woman,,,,null,,,,
8811,,,survey-text,109,1107918,0.0-13.0-3.19,34837,List1A,black,woman,,,,,"{""Q0"":""jane luke is kissing""}","<img src=""stim_listA/kiss3.gif""style=""height:400px;""></stim_listA>",is kissing,
44585,"<img src='img/portrait_matrix_list1.jpg' style='width:900px;height:500px;''></img><p>If you have memorised all the portraits and names and are ready to start, press Continue.</p><p><strong>Please note: Your memory of these faces will be tested 4 times during this experiment.</strong></p>",0,html-button-response,110,1152510,0.0-14.0-0.0,34837,List1A,black,woman,,,,,,,,
4091,"<img src=""portrait/WW2.jpg""style=""height:400px;""></img>",3,html-button-response,111,1157609,0.0-14.0-1.0,34837,List1A,black,woman,,TRUE,3,,,,,
null,CORRECT,,html-keyboard-response,112,1159116,0.0-14.0-2.0-0.0,34837,List1A,black,woman,,,,null,,,,
3578,"<img src=""portrait/BM2.jpg""style=""height:400px;""></img>",5,html-button-response,113,1162700,0.0-14.0-4.0,34837,List1A,black,woman,,TRUE,5,,,,,
null,CORRECT,,html-keyboard-response,114,1164206,0.0-14.0-5.0-0.0,34837,List1A,black,woman,,,,null,,,,
3033,"<img src=""portrait/BM1.jpg""style=""height:400px;""></img>",4,html-button-response,115,1167245,0.0-14.0-7.0,34837,List1A,black,woman,,TRUE,4,,,,,
null,CORRECT,,html-keyboard-response,116,1168752,0.0-14.0-8.0-0.0,34837,List1A,black,woman,,,,null,,,,
4613,"<img src=""portrait/BW2.jpg""style=""height:400px;""></img>",2,html-button-response,117,1173371,0.0-14.0-10.0,34837,List1A,black,woman,,TRUE,2,,,,,
null,CORRECT,,html-keyboard-response,118,1174876,0.0-14.0-11.0-0.0,34837,List1A,black,woman,,,,null,,,,
3024,"<img src=""portrait/BW1.jpg""style=""height:400px;""></img>",0,html-button-response,119,1177906,0.0-14.0-13.0,34837,List1A,black,woman,,TRUE,0,,,,,
null,CORRECT,,html-keyboard-response,120,1179410,0.0-14.0-14.0-0.0,34837,List1A,black,woman,,,,null,,,,
2966,"<img src=""portrait/WM1.jpg""style=""height:400px;""></img>",6,html-button-response,121,1182383,0.0-14.0-16.0,34837,List1A,black,woman,,TRUE,6,,,,,
null,CORRECT,,html-keyboard-response,122,1183888,0.0-14.0-17.0-0.0,34837,List1A,black,woman,,,,null,,,,
3193,"<img src=""portrait/WW1.jpg""style=""height:400px;""></img>",1,html-button-response,123,1187087,0.0-14.0-19.0,34837,List1A,black,woman,,TRUE,1,,,,,
null,CORRECT,,html-keyboard-response,124,1188592,0.0-14.0-20.0-0.0,34837,List1A,black,woman,,,,null,,,,
2593,"<img src=""portrait/WM2.jpg""style=""height:400px;""></img>",7,html-button-response,125,1191192,0.0-14.0-22.0,34837,List1A,black,woman,,TRUE,7,,,,,
null,CORRECT,,html-keyboard-response,126,1192697,0.0-14.0-23.0-0.0,34837,List1A,black,woman,,,,null,,,,
2793,<p>You got 8 out of 8 right first time. Press Continue.</p>,0,html-button-response,127,1195496,0.0-14.0-25.0,34837,List1A,black,woman,,,,,,,,
null,"<div style=""font-size:60px;"">+</div>",,html-keyboard-response,128,1197004,0.0-15.0-0.0,34837,List1A,black,woman,,,,null,,,,
null,"<img src=""stim_listA/dance4.gif""style=""height:400px;""></stim_listA>",,html-keyboard-response,129,1199011,0.0-15.0-1.0,34837,List1A,black,woman,,,,null,,,,
null,are dancing with each other,,html-keyboard-response,130,1201016,0.0-15.0-2.0,34837,List1A,black,woman,,,,null,,,,
18470,,,survey-text,131,1219490,0.0-15.0-3.0,34837,List1A,black,woman,,,,,"{""Q0"":""dave jane are dancing with each other""}","<img src=""stim_listA/dance4.gif""style=""height:400px;""></stim_listA>",are dancing with each other,
null,"<div style=""font-size:60px;"">+</div>",,html-keyboard-response,132,1219996,0.0-15.0-0.1,34837,List1A,black,woman,,,,null,,,,
null,"<img src=""stim_listA/talk3.gif""style=""height:400px;""></stim_listA>",,html-keyboard-response,133,1222002,0.0-15.0-1.1,34837,List1A,black,woman,,,,null,,,,
null,is talking to,,html-keyboard-response,134,1224005,0.0-15.0-2.1,34837,List1A,black,woman,,,,null,,,,
9726,,,survey-text,135,1233736,0.0-15.0-3.1,34837,List1A,black,woman,,,,,"{""Q0"":""jane is talking to luke""}","<img src=""stim_listA/talk3.gif""style=""height:400px;""></stim_listA>",is talking to,
null,"<div style=""font-size:60px;"">+</div>",,html-keyboard-response,136,1234240,0.0-15.0-0.2,34837,List1A,black,woman,,,,null,,,,
null,"<img src=""stim_listA/play1.gif""style=""height:400px;""></stim_listA>",,html-keyboard-response,137,1236247,0.0-15.0-1.2,34837,List1A,black,woman,,,,null,,,,
null,is playing with,,html-keyboard-response,138,1238250,0.0-15.0-2.2,34837,List1A,black,woman,,,,null,,,,
11915,,,survey-text,139,1250168,0.0-15.0-3.2,34837,List1A,black,woman,,,,,"{""Q0"":""mike is playing with kate""}","<img src=""stim_listA/play1.gif""style=""height:400px;""></stim_listA>",is playing with,
null,"<div style=""font-size:60px;"">+</div>",,html-keyboard-response,140,1250672,0.0-15.0-0.3,34837,List1A,black,woman,,,,null,,,,
null,"<img src=""stim_listA/play7.gif""style=""height:400px;""></stim_listA>",,html-keyboard-response,141,1252679,0.0-15.0-1.3,34837,List1A,black,woman,,,,null,,,,
null,is playing with,,html-keyboard-response,142,1254682,0.0-15.0-2.3,34837,List1A,black,woman,,,,null,,,,
11373,,,survey-text,143,1266059,0.0-15.0-3.3,34837,List1A,black,woman,,,,,"{""Q0"":""kate is playing with jane""}","<img src=""stim_listA/play7.gif""style=""height:400px;""></stim_listA>",is playing with,
null,"<div style=""font-size:60px;"">+</div>",,html-keyboard-response,144,1266563,0.0-15.0-0.4,34837,List1A,black,woman,,,,null,,,,
null,"<img src=""stim_listA/dance5.gif""style=""height:400px;""></stim_listA>",,html-keyboard-response,145,1268570,0.0-15.0-1.4,34837,List1A,black,woman,,,,null,,,,
null,is dancing with,,html-keyboard-response,146,1270577,0.0-15.0-2.4,34837,List1A,black,woman,,,,null,,,,
9706,,,survey-text,147,1280287,0.0-15.0-3.4,34837,List1A,black,woman,,,,,"{""Q0"":""fred is dancing with dave""}","<img src=""stim_listA/dance5.gif""style=""height:400px;""></stim_listA>",is dancing with,
null,"<div style=""font-size:60px;"">+</div>",,html-keyboard-response,148,1280790,0.0-15.0-0.5,34837,List1A,black,woman,,,,null,,,,
null,"<img src=""stim_listA/play6.gif""style=""height:400px;""></stim_listA>",,html-keyboard-response,149,1282797,0.0-15.0-1.5,34837,List1A,black,woman,,,,null,,,,
null,are playing with each other,,html-keyboard-response,150,1284802,0.0-15.0-2.5,34837,List1A,black,woman,,,,null,,,,
15164,,,survey-text,151,1299970,0.0-15.0-3.5,34837,List1A,black,woman,,,,,"{""Q0"":""luke and fred are playing with each other""}","<img src=""stim_listA/play6.gif""style=""height:400px;""></stim_listA>",are playing with each other,
null,"<div style=""font-size:60px;"">+</div>",,html-keyboard-response,152,1300476,0.0-15.0-0.6,34837,List1A,black,woman,,,,null,,,,
null,"<img src=""stim_listA/flirt7.gif""style=""height:400px;""></stim_listA>",,html-keyboard-response,153,1302482,0.0-15.0-1.6,34837,List1A,black,woman,,,,null,,,,
null,is flirting with,,html-keyboard-response,154,1304485,0.0-15.0-2.6,34837,List1A,black,woman,,,,null,,,,
10233,,,survey-text,155,1314722,0.0-15.0-3.6,34837,List1A,black,woman,,,,,"{""Q0"":""beth is flirting with jane""}","<img src=""stim_listA/flirt7.gif""style=""height:400px;""></stim_listA>",is flirting with,
null,"<div style=""font-size:60px;"">+</div>",,html-keyboard-response,156,1315227,0.0-15.0-0.7,34837,List1A,black,woman,,,,null,,,,
null,"<img src=""stim_listA/argue4.gif""style=""height:400px;""></stim_listA>",,html-keyboard-response,157,1317233,0.0-15.0-1.7,34837,List1A,black,woman,,,,null,,,,
null,are arguing with each other,,html-keyboard-response,158,1319236,0.0-15.0-2.7,34837,List1A,black,woman,,,,null,,,,
18228,,,survey-text,159,1337469,0.0-15.0-3.7,34837,List1A,black,woman,,,,,"{""Q0"":""luke and jane are arguing with each other""}","<img src=""stim_listA/argue4.gif""style=""height:400px;""></stim_listA>",are arguing with each other,
null,"<div style=""font-size:60px;"">+</div>",,html-keyboard-response,160,1337974,0.0-15.0-0.8,34837,List1A,black,woman,,,,null,,,,
null,"<img src=""stim_listA/fight6.gif""style=""height:400px;""></stim_listA>",,html-keyboard-response,161,1339980,0.0-15.0-1.8,34837,List1A,black,woman,,,,null,,,,
null,are fighting each other,,html-keyboard-response,162,1341983,0.0-15.0-2.8,34837,List1A,black,woman,,,,null,,,,
15462,,,survey-text,163,1357449,0.0-15.0-3.8,34837,List1A,black,woman,,,,,"{""Q0"":""fred and luke are fighting with each other""}","<img src=""stim_listA/fight6.gif""style=""height:400px;""></stim_listA>",are fighting each other,
null,"<div style=""font-size:60px;"">+</div>",,html-keyboard-response,164,1357953,0.0-15.0-0.9,34837,List1A,black,woman,,,,null,,,,
null,"<img src=""stim_listA/shout2.gif""style=""height:400px;""></stim_listA>",,html-keyboard-response,165,1359960,0.0-15.0-1.9,34837,List1A,black,woman,,,,null,,,,
null,are shouting at each other,,html-keyboard-response,166,1361965,0.0-15.0-2.9,34837,List1A,black,woman,,,,null,,,,
14689,,,survey-text,167,1376658,0.0-15.0-3.9,34837,List1A,black,woman,,,,,"{""Q0"":""kate and mike are shouting at each other""}","<img src=""stim_listA/shout2.gif""style=""height:400px;""></stim_listA>",are shouting at each other,
null,"<div style=""font-size:60px;"">+</div>",,html-keyboard-response,168,1377163,0.0-15.0-0.10,34837,List1A,black,woman,,,,null,,,,
null,"<img src=""stim_listA/fight2.gif""style=""height:400px;""></stim_listA>",,html-keyboard-response,169,1379171,0.0-15.0-1.10,34837,List1A,black,woman,,,,null,,,,
null,are fighting each other,,html-keyboard-response,170,1381174,0.0-15.0-2.10,34837,List1A,black,woman,,,,null,,,,
12288,,,survey-text,171,1393466,0.0-15.0-3.10,34837,List1A,black,woman,,,,,"{""Q0"":""beth and fred are fighting each other""}","<img src=""stim_listA/fight2.gif""style=""height:400px;""></stim_listA>",are fighting each other,
null,"<div style=""font-size:60px;"">+</div>",,html-keyboard-response,172,1393970,0.0-15.0-0.11,34837,List1A,black,woman,,,,null,,,,
null,"<img src=""stim_listA/marry4.gif""style=""height:400px;""></stim_listA>",,html-keyboard-response,173,1395977,0.0-15.0-1.11,34837,List1A,black,woman,,,,null,,,,
null,are marrying each other,,html-keyboard-response,174,1397980,0.0-15.0-2.11,34837,List1A,black,woman,,,,null,,,,
13616,,,survey-text,175,1411601,0.0-15.0-3.11,34837,List1A,black,woman,,,,,"{""Q0"":""jane and luke are marrying each other""}","<img src=""stim_listA/marry4.gif""style=""height:400px;""></stim_listA>",are marrying each other,
null,"<div style=""font-size:60px;"">+</div>",,html-keyboard-response,176,1412104,0.0-15.0-0.12,34837,List1A,black,woman,,,,null,,,,
null,"<img src=""stim_listA/touch5.gif""style=""height:400px;""></stim_listA>",,html-keyboard-response,177,1414112,0.0-15.0-1.12,34837,List1A,black,woman,,,,null,,,,
null,is touching,,html-keyboard-response,178,1416116,0.0-15.0-2.12,34837,List1A,black,woman,,,,null,,,,
10472,,,survey-text,179,1426592,0.0-15.0-3.12,34837,List1A,black,woman,,,,,"{""Q0"":""mike and dave is touching""}","<img src=""stim_listA/touch5.gif""style=""height:400px;""></stim_listA>",is touching,
null,"<div style=""font-size:60px;"">+</div>",,html-keyboard-response,180,1427096,0.0-15.0-0.13,34837,List1A,black,woman,,,,null,,,,
null,"<img src=""stim_listA/argue2.gif""style=""height:400px;""></stim_listA>",,html-keyboard-response,181,1429102,0.0-15.0-1.13,34837,List1A,black,woman,,,,null,,,,
null,are arguing with each other,,html-keyboard-response,182,1431106,0.0-15.0-2.13,34837,List1A,black,woman,,,,null,,,,
15668,,,survey-text,183,1446778,0.0-15.0-3.13,34837,List1A,black,woman,,,,,"{""Q0"":""kate and fred are arguing with each other""}","<img src=""stim_listA/argue2.gif""style=""height:400px;""></stim_listA>",are arguing with each other,
null,"<div style=""font-size:60px;"">+</div>",,html-keyboard-response,184,1447283,0.0-15.0-0.14,34837,List1A,black,woman,,,,null,,,,
null,"<img src=""stim_listA/dance8.gif""style=""height:400px;""></stim_listA>",,html-keyboard-response,185,1449291,0.0-15.0-1.14,34837,List1A,black,woman,,,,null,,,,
null,are dancing with each other,,html-keyboard-response,186,1451295,0.0-15.0-2.14,34837,List1A,black,woman,,,,null,,,,
13987,,,survey-text,187,1465286,0.0-15.0-3.14,34837,List1A,black,woman,,,,,"{""Q0"":""jane and kate are dancing with each other""}","<img src=""stim_listA/dance8.gif""style=""height:400px;""></stim_listA>",are dancing with each other,
null,"<div style=""font-size:60px;"">+</div>",,html-keyboard-response,188,1465791,0.0-15.0-0.15,34837,List1A,black,woman,,,,null,,,,
null,"<img src=""stim_listA/play2.gif""style=""height:400px;""></stim_listA>",,html-keyboard-response,189,1467798,0.0-15.0-1.15,34837,List1A,black,woman,,,,null,,,,
null,are playing with each other,,html-keyboard-response,190,1469802,0.0-15.0-2.15,34837,List1A,black,woman,,,,null,,,,
14839,,,survey-text,191,1484645,0.0-15.0-3.15,34837,List1A,black,woman,,,,,"{""Q0"":""beth and fred are playing with each other""}","<img src=""stim_listA/play2.gif""style=""height:400px;""></stim_listA>",are playing with each other,
null,"<div style=""font-size:60px;"">+</div>",,html-keyboard-response,192,1485150,0.0-15.0-0.16,34837,List1A,black,woman,,,,null,,,,
null,"<img src=""stim_listA/argue8.gif""style=""height:400px;""></stim_listA>",,html-keyboard-response,193,1487156,0.0-15.0-1.16,34837,List1A,black,woman,,,,null,,,,
null,are arguing with each other,,html-keyboard-response,194,1489160,0.0-15.0-2.16,34837,List1A,black,woman,,,,null,,,,
15194,,,survey-text,195,1504359,0.0-15.0-3.16,34837,List1A,black,woman,,,,,"{""Q0"":""jane and beth are arguing with each other""}","<img src=""stim_listA/argue8.gif""style=""height:400px;""></stim_listA>",are arguing with each other,
null,"<div style=""font-size:60px;"">+</div>",,html-keyboard-response,196,1504863,0.0-15.0-0.17,34837,List1A,black,woman,,,,null,,,,
null,"<img src=""stim_listA/talk8.gif""style=""height:400px;""></stim_listA>",,html-keyboard-response,197,1506870,0.0-15.0-1.17,34837,List1A,black,woman,,,,null,,,,
null,are talking to each other,,html-keyboard-response,198,1508877,0.0-15.0-2.17,34837,List1A,black,woman,,,,null,,,,
14292,,,survey-text,199,1523173,0.0-15.0-3.17,34837,List1A,black,woman,,,,,"{""Q0"":""jane and kate are talking to each other""}","<img src=""stim_listA/talk8.gif""style=""height:400px;""></stim_listA>",are talking to each other,
null,"<div style=""font-size:60px;"">+</div>",,html-keyboard-response,200,1523677,0.0-15.0-0.18,34837,List1A,black,woman,,,,null,,,,
null,"<img src=""stim_listA/fight8.gif""style=""height:400px;""></stim_listA>",,html-keyboard-response,201,1525684,0.0-15.0-1.18,34837,List1A,black,woman,,,,null,,,,
null,are fighting each other,,html-keyboard-response,202,1527689,0.0-15.0-2.18,34837,List1A,black,woman,,,,null,,,,
16634,,,survey-text,203,1544327,0.0-15.0-3.18,34837,List1A,black,woman,,,,,"{""Q0"":""jane and kate are fighting each other""}","<img src=""stim_listA/fight8.gif""style=""height:400px;""></stim_listA>",are fighting each other,
null,"<div style=""font-size:60px;"">+</div>",,html-keyboard-response,204,1544833,0.0-15.0-0.19,34837,List1A,black,woman,,,,null,,,,
null,"<img src=""stim_listA/marry7.gif""style=""height:400px;""></stim_listA>",,html-keyboard-response,205,1546841,0.0-15.0-1.19,34837,List1A,black,woman,,,,null,,,,
null,is marrying,,html-keyboard-response,206,1548845,0.0-15.0-2.19,34837,List1A,black,woman,,,,null,,,,
9893,,,survey-text,207,1558742,0.0-15.0-3.19,34837,List1A,black,woman,,,,,"{""Q0"":""jane and kate is marrying""}","<img src=""stim_listA/marry7.gif""style=""height:400px;""></stim_listA>",is marrying,
15483,"<img src='img/portrait_matrix_list1.jpg' style='width:900px;height:500px;''></img><p>If you have memorised all the portraits and names and are ready to start, press Continue.</p><p><strong>Please note: Your memory of these faces will be tested 4 times during this experiment.</strong></p>",0,html-button-response,208,1574231,0.0-16.0-0.0,34837,List1A,black,woman,,,,,,,,
4750,"<img src=""portrait/BM1.jpg""style=""height:400px;""></img>",4,html-button-response,209,1579991,0.0-16.0-1.0,34837,List1A,black,woman,,TRUE,4,,,,,
null,CORRECT,,html-keyboard-response,210,1581496,0.0-16.0-2.0-0.0,34837,List1A,black,woman,,,,null,,,,
2034,"<img src=""portrait/WW2.jpg""style=""height:400px;""></img>",3,html-button-response,211,1583537,0.0-16.0-4.0,34837,List1A,black,woman,,TRUE,3,,,,,
null,CORRECT,,html-keyboard-response,212,1585044,0.0-16.0-5.0-0.0,34837,List1A,black,woman,,,,null,,,,
2351,"<img src=""portrait/BW2.jpg""style=""height:400px;""></img>",2,html-button-response,213,1587401,0.0-16.0-7.0,34837,List1A,black,woman,,TRUE,2,,,,,
null,CORRECT,,html-keyboard-response,214,1588908,0.0-16.0-8.0-0.0,34837,List1A,black,woman,,,,null,,,,
2509,"<img src=""portrait/BM2.jpg""style=""height:400px;""></img>",5,html-button-response,215,1591423,0.0-16.0-10.0,34837,List1A,black,woman,,TRUE,5,,,,,
null,CORRECT,,html-keyboard-response,216,1592927,0.0-16.0-11.0-0.0,34837,List1A,black,woman,,,,null,,,,
2829,"<img src=""portrait/WM1.jpg""style=""height:400px;""></img>",6,html-button-response,217,1595763,0.0-16.0-13.0,34837,List1A,black,woman,,TRUE,6,,,,,
null,CORRECT,,html-keyboard-response,218,1597271,0.0-16.0-14.0-0.0,34837,List1A,black,woman,,,,null,,,,
2636,"<img src=""portrait/BW1.jpg""style=""height:400px;""></img>",2,html-button-response,219,1599914,0.0-16.0-16.0,34837,List1A,black,woman,,TRUE,0,,,,,
2036,"<img src=""portrait/BW1.jpg""style=""height:400px;""></img>",0,html-button-response,220,1602957,0.0-16.0-18.0-0.0,34837,List1A,black,woman,,FALSE,0,,,,,
null,CORRECT,,html-keyboard-response,221,1604465,0.0-16.0-18.0-1.0-0.0,34837,List1A,black,woman,,,,null,,,,
2238,"<img src=""portrait/WW1.jpg""style=""height:400px;""></img>",1,html-button-response,222,1606711,0.0-16.0-19.0,34837,List1A,black,woman,,TRUE,1,,,,,
null,CORRECT,,html-keyboard-response,223,1608215,0.0-16.0-20.0-0.0,34837,List1A,black,woman,,,,null,,,,
2668,"<img src=""portrait/WM2.jpg""style=""height:400px;""></img>",7,html-button-response,224,1610890,0.0-16.0-22.0,34837,List1A,black,woman,,TRUE,7,,,,,
null,CORRECT,,html-keyboard-response,225,1612395,0.0-16.0-23.0-0.0,34837,List1A,black,woman,,,,null,,,,
2660,<p>You got 7 out of 8 right first time. Press Continue.</p>,0,html-button-response,226,1615061,0.0-16.0-25.0,34837,List1A,black,woman,,,,,,,,
4271,"As you did not score 100%, the memory game will repeat. Press Continue.",0,html-button-response,227,1620338,0.0-16.0-26.0-0.0,34837,List1A,black,woman,,,,,,,,
3725,"<img src='img/portrait_matrix_list1.jpg' style='width:900px;height:500px;''></img><p>If you have memorised all the portraits and names and are ready to start, press Continue.</p><p><strong>Please note: Your memory of these faces will be tested 4 times during this experiment.</strong></p>",0,html-button-response,228,1625071,0.0-16.1-0.1,34837,List1A,black,woman,,,,,,,,
15663,"<img src=""portrait/BM1.jpg""style=""height:400px;""></img>",4,html-button-response,229,1641744,0.0-16.1-1.1,34837,List1A,black,woman,,TRUE,4,,,,,
null,CORRECT,,html-keyboard-response,230,1643250,0.0-16.1-2.1-0.1,34837,List1A,black,woman,,,,null,,,,
1926,"<img src=""portrait/WW2.jpg""style=""height:400px;""></img>",3,html-button-response,231,1645183,0.0-16.1-4.1,34837,List1A,black,woman,,TRUE,3,,,,,
null,CORRECT,,html-keyboard-response,232,1646687,0.0-16.1-5.1-0.1,34837,List1A,black,woman,,,,null,,,,
2214,"<img src=""portrait/BW2.jpg""style=""height:400px;""></img>",2,html-button-response,233,1648907,0.0-16.1-7.1,34837,List1A,black,woman,,TRUE,2,,,,,
null,CORRECT,,html-keyboard-response,234,1650412,0.0-16.1-8.1-0.1,34837,List1A,black,woman,,,,null,,,,
2353,"<img src=""portrait/BM2.jpg""style=""height:400px;""></img>",5,html-button-response,235,1652772,0.0-16.1-10.1,34837,List1A,black,woman,,TRUE,5,,,,,
null,CORRECT,,html-keyboard-response,236,1654276,0.0-16.1-11.1-0.1,34837,List1A,black,woman,,,,null,,,,
2760,"<img src=""portrait/WM1.jpg""style=""height:400px;""></img>",6,html-button-response,237,1657043,0.0-16.1-13.1,34837,List1A,black,woman,,TRUE,6,,,,,
null,CORRECT,,html-keyboard-response,238,1658547,0.0-16.1-14.1-0.1,34837,List1A,black,woman,,,,null,,,,
2688,"<img src=""portrait/BW1.jpg""style=""height:400px;""></img>",0,html-button-response,239,1661240,0.0-16.1-16.1,34837,List1A,black,woman,,TRUE,0,,,,,
null,CORRECT,,html-keyboard-response,240,1662746,0.0-16.1-17.1-0.1,34837,List1A,black,woman,,,,null,,,,
1910,"<img src=""portrait/WW1.jpg""style=""height:400px;""></img>",1,html-button-response,241,1664661,0.0-16.1-19.1,34837,List1A,black,woman,,TRUE,1,,,,,
null,CORRECT,,html-keyboard-response,242,1666165,0.0-16.1-20.1-0.1,34837,List1A,black,woman,,,,null,,,,
2680,"<img src=""portrait/WM2.jpg""style=""height:400px;""></img>",7,html-button-response,243,1668853,0.0-16.1-22.1,34837,List1A,black,woman,,TRUE,7,,,,,
null,CORRECT,,html-keyboard-response,244,1670358,0.0-16.1-23.1-0.1,34837,List1A,black,woman,,,,null,,,,
2864,<p>You got 8 out of 8 right first time. Press Continue.</p>,0,html-button-response,245,1673228,0.0-16.1-25.1,34837,List1A,black,woman,,,,,,,,
null,"<div style=""font-size:60px;"">+</div>",,html-keyboard-response,246,1674735,0.0-17.0-0.0,34837,List1A,black,woman,,,,null,,,,
null,"<img src=""stim_listA/flirt2.gif""style=""height:400px;""></stim_listA>",,html-keyboard-response,247,1676741,0.0-17.0-1.0,34837,List1A,black,woman,,,,null,,,,
null,are flirting with each other,,html-keyboard-response,248,1678744,0.0-17.0-2.0,34837,List1A,black,woman,,,,null,,,,
17620,,,survey-text,249,1696369,0.0-17.0-3.0,34837,List1A,black,woman,,,,,"{""Q0"":""mike and beth are flirting with each other""}","<img src=""stim_listA/flirt2.gif""style=""height:400px;""></stim_listA>",are flirting with each other,
null,"<div style=""font-size:60px;"">+</div>",,html-keyboard-response,250,1696872,0.0-17.0-0.1,34837,List1A,black,woman,,,,null,,,,
null,"<img src=""stim_listA/shout4.gif""style=""height:400px;""></stim_listA>",,html-keyboard-response,251,1698878,0.0-17.0-1.1,34837,List1A,black,woman,,,,null,,,,
null,are shouting at each other,,html-keyboard-response,252,1700881,0.0-17.0-2.1,34837,List1A,black,woman,,,,null,,,,
14260,,,survey-text,253,1715144,0.0-17.0-3.1,34837,List1A,black,woman,,,,,"{""Q0"":""jane and dave are shouting at each other""}","<img src=""stim_listA/shout4.gif""style=""height:400px;""></stim_listA>",are shouting at each other,
null,"<div style=""font-size:60px;"">+</div>",,html-keyboard-response,254,1715649,0.0-17.0-0.2,34837,List1A,black,woman,,,,null,,,,
null,"<img src=""stim_listA/play5.gif""style=""height:400px;""></stim_listA>",,html-keyboard-response,255,1717657,0.0-17.0-1.2,34837,List1A,black,woman,,,,null,,,,
null,is playing with,,html-keyboard-response,256,1719671,0.0-17.0-2.2,34837,List1A,black,woman,,,,null,,,,
17348,,,survey-text,257,1737024,0.0-17.0-3.2,34837,List1A,black,woman,,,,,"{""Q0"":""dave is playing with mike""}","<img src=""stim_listA/play5.gif""style=""height:400px;""></stim_listA>",is playing with,
null,"<div style=""font-size:60px;"">+</div>",,html-keyboard-response,258,1737532,0.0-17.0-0.3,34837,List1A,black,woman,,,,null,,,,
null,"<img src=""stim_listA/kiss2.gif""style=""height:400px;""></stim_listA>",,html-keyboard-response,259,1739538,0.0-17.0-1.3,34837,List1A,black,woman,,,,null,,,,
null,are kissing each other,,html-keyboard-response,260,1741542,0.0-17.0-2.3,34837,List1A,black,woman,,,,null,,,,
15467,,,survey-text,261,1757014,0.0-17.0-3.3,34837,List1A,black,woman,,,,,"{""Q0"":""kate and mike are kissing each other""}","<img src=""stim_listA/kiss2.gif""style=""height:400px;""></stim_listA>",are kissing each other,
null,"<div style=""font-size:60px;"">+</div>",,html-keyboard-response,262,1757520,0.0-17.0-0.4,34837,List1A,black,woman,,,,null,,,,
null,"<img src=""stim_listA/talk1.gif""style=""height:400px;""></stim_listA>",,html-keyboard-response,263,1759526,0.0-17.0-1.4,34837,List1A,black,woman,,,,null,,,,
null,is talking to,,html-keyboard-response,264,1761530,0.0-17.0-2.4,34837,List1A,black,woman,,,,null,,,,
9313,,,survey-text,265,1770848,0.0-17.0-3.4,34837,List1A,black,woman,,,,,"{""Q0"":""fred is talking to kate""}","<img src=""stim_listA/talk1.gif""style=""height:400px;""></stim_listA>",is talking to,
null,"<div style=""font-size:60px;"">+</div>",,html-keyboard-response,266,1771352,0.0-17.0-0.5,34837,List1A,black,woman,,,,null,,,,
null,"<img src=""stim_listA/kiss8.gif""style=""height:400px;""></stim_listA>",,html-keyboard-response,267,1773358,0.0-17.0-1.5,34837,List1A,black,woman,,,,null,,,,
null,are kissing each other,,html-keyboard-response,268,1775362,0.0-17.0-2.5,34837,List1A,black,woman,,,,null,,,,
15005,,,survey-text,269,1790372,0.0-17.0-3.5,34837,List1A,black,woman,,,,,"{""Q0"":""jane and kate are kissing each other""}","<img src=""stim_listA/kiss8.gif""style=""height:400px;""></stim_listA>",are kissing each other,
null,"<div style=""font-size:60px;"">+</div>",,html-keyboard-response,270,1790875,0.0-17.0-0.6,34837,List1A,black,woman,,,,null,,,,
null,"<img src=""stim_listA/argue1.gif""style=""height:400px;""></stim_listA>",,html-keyboard-response,271,1792882,0.0-17.0-1.6,34837,List1A,black,woman,,,,null,,,,
null,is arguing with,,html-keyboard-response,272,1794885,0.0-17.0-2.6,34837,List1A,black,woman,,,,null,,,,
10207,,,survey-text,273,1805095,0.0-17.0-3.6,34837,List1A,black,woman,,,,,"{""Q0"":""mike is arguing with beth""}","<img src=""stim_listA/argue1.gif""style=""height:400px;""></stim_listA>",is arguing with,
null,"<div style=""font-size:60px;"">+</div>",,html-keyboard-response,274,1805599,0.0-17.0-0.7,34837,List1A,black,woman,,,,null,,,,
null,"<img src=""stim_listA/argue5.gif""style=""height:400px;""></stim_listA>",,html-keyboard-response,275,1807606,0.0-17.0-1.7,34837,List1A,black,woman,,,,null,,,,
null,is arguing with,,html-keyboard-response,276,1809611,0.0-17.0-2.7,34837,List1A,black,woman,,,,null,,,,
12465,,,survey-text,277,1822082,0.0-17.0-3.7,34837,List1A,black,woman,,,,,"{""Q0"":""mike is arguing with luke""}","<img src=""stim_listA/argue5.gif""style=""height:400px;""></stim_listA>",is arguing with,
null,"<div style=""font-size:60px;"">+</div>",,html-keyboard-response,278,1822587,0.0-17.0-0.8,34837,List1A,black,woman,,,,null,,,,
null,"<img src=""stim_listA/talk2.gif""style=""height:400px;""></stim_listA>",,html-keyboard-response,279,1824594,0.0-17.0-1.8,34837,List1A,black,woman,,,,null,,,,
null,are talking to each other,,html-keyboard-response,280,1826597,0.0-17.0-2.8,34837,List1A,black,woman,,,,null,,,,
26200,,,survey-text,281,1852801,0.0-17.0-3.8,34837,List1A,black,woman,,,,,"{""Q0"":""beth and mike are talking to each other""}","<img src=""stim_listA/talk2.gif""style=""height:400px;""></stim_listA>",are talking to each other,
null,"<div style=""font-size:60px;"">+</div>",,html-keyboard-response,282,1853305,0.0-17.0-0.9,34837,List1A,black,woman,,,,null,,,,
null,"<img src=""stim_listA/flirt8.gif""style=""height:400px;""></stim_listA>",,html-keyboard-response,283,1855312,0.0-17.0-1.9,34837,List1A,black,woman,,,,null,,,,
null,are flirting with each other,,html-keyboard-response,284,1857314,0.0-17.0-2.9,34837,List1A,black,woman,,,,null,,,,
17895,,,survey-text,285,1875214,0.0-17.0-3.9,34837,List1A,black,woman,,,,,"{""Q0"":""jane and kate are flirting with each other""}","<img src=""stim_listA/flirt8.gif""style=""height:400px;""></stim_listA>",are flirting with each other,
null,"<div style=""font-size:60px;"">+</div>",,html-keyboard-response,286,1875719,0.0-17.0-0.10,34837,List1A,black,woman,,,,null,,,,
null,"<img src=""stim_listA/touch3.gif""style=""height:400px;""></stim_listA>",,html-keyboard-response,287,1877726,0.0-17.0-1.10,34837,List1A,black,woman,,,,null,,,,
null,is touching,,html-keyboard-response,288,1879732,0.0-17.0-2.10,34837,List1A,black,woman,,,,null,,,,
10704,,,survey-text,289,1890441,0.0-17.0-3.10,34837,List1A,black,woman,,,,,"{""Q0"":""dave is touching jane""}","<img src=""stim_listA/touch3.gif""style=""height:400px;""></stim_listA>",is touching,
null,"<div style=""font-size:60px;"">+</div>",,html-keyboard-response,290,1890946,0.0-17.0-0.11,34837,List1A,black,woman,,,,null,,,,
null,"<img src=""stim_listA/marry6.gif""style=""height:400px;""></stim_listA>",,html-keyboard-response,291,1892953,0.0-17.0-1.11,34837,List1A,black,woman,,,,null,,,,
null,are marrying each other,,html-keyboard-response,292,1894957,0.0-17.0-2.11,34837,List1A,black,woman,,,,null,,,,
14215,,,survey-text,293,1909177,0.0-17.0-3.11,34837,List1A,black,woman,,,,,"{""Q0"":""dave and fred are marrying each other""}","<img src=""stim_listA/marry6.gif""style=""height:400px;""></stim_listA>",are marrying each other,
null,"<div style=""font-size:60px;"">+</div>",,html-keyboard-response,294,1909684,0.0-17.0-0.12,34837,List1A,black,woman,,,,null,,,,
null,"<img src=""stim_listA/shout7.gif""style=""height:400px;""></stim_listA>",,html-keyboard-response,295,1911690,0.0-17.0-1.12,34837,List1A,black,woman,,,,null,,,,
null,is shouting at,,html-keyboard-response,296,1913696,0.0-17.0-2.12,34837,List1A,black,woman,,,,null,,,,
13778,,,survey-text,297,1927478,0.0-17.0-3.12,34837,List1A,black,woman,,,,,"{""Q0"":""beth is shouting at ruth""}","<img src=""stim_listA/shout7.gif""style=""height:400px;""></stim_listA>",is shouting at,
null,"<div style=""font-size:60px;"">+</div>",,html-keyboard-response,298,1927981,0.0-17.0-0.13,34837,List1A,black,woman,,,,null,,,,
null,"<img src=""stim_listA/marry8.gif""style=""height:400px;""></stim_listA>",,html-keyboard-response,299,1929988,0.0-17.0-1.13,34837,List1A,black,woman,,,,null,,,,
null,are marrying each other,,html-keyboard-response,300,1931993,0.0-17.0-2.13,34837,List1A,black,woman,,,,null,,,,
13751,,,survey-text,301,1945748,0.0-17.0-3.13,34837,List1A,black,woman,,,,,"{""Q0"":""jane and beth are marrying each other""}","<img src=""stim_listA/marry8.gif""style=""height:400px;""></stim_listA>",are marrying each other,
null,"<div style=""font-size:60px;"">+</div>",,html-keyboard-response,302,1946253,0.0-17.0-0.14,34837,List1A,black,woman,,,,null,,,,
null,"<img src=""stim_listA/flirt1.gif""style=""height:400px;""></stim_listA>",,html-keyboard-response,303,1948259,0.0-17.0-1.14,34837,List1A,black,woman,,,,null,,,,
null,is flirting with,,html-keyboard-response,304,1950262,0.0-17.0-2.14,34837,List1A,black,woman,,,,null,,,,
11470,,,survey-text,305,1961737,0.0-17.0-3.14,34837,List1A,black,woman,,,,,"{""Q0"":""fred is flirting with kate""}","<img src=""stim_listA/flirt1.gif""style=""height:400px;""></stim_listA>",is flirting with,
null,"<div style=""font-size:60px;"">+</div>",,html-keyboard-response,306,1962241,0.0-17.0-0.15,34837,List1A,black,woman,,,,null,,,,
null,"<img src=""stim_listA/dance7.gif""style=""height:400px;""></stim_listA>",,html-keyboard-response,307,1964248,0.0-17.0-1.15,34837,List1A,black,woman,,,,null,,,,
null,is dancing with,,html-keyboard-response,308,1966251,0.0-17.0-2.15,34837,List1A,black,woman,,,,null,,,,
17052,,,survey-text,309,1983308,0.0-17.0-3.15,34837,List1A,black,woman,,,,,"{""Q0"":""jane is dancing with beth""}","<img src=""stim_listA/dance7.gif""style=""height:400px;""></stim_listA>",is dancing with,
null,"<div style=""font-size:60px;"">+</div>",,html-keyboard-response,310,1983812,0.0-17.0-0.16,34837,List1A,black,woman,,,,null,,,,
null,"<img src=""stim_listA/flirt6.gif""style=""height:400px;""></stim_listA>",,html-keyboard-response,311,1985819,0.0-17.0-1.16,34837,List1A,black,woman,,,,null,,,,
null,are flirting with each other,,html-keyboard-response,312,1987824,0.0-17.0-2.16,34837,List1A,black,woman,,,,null,,,,
16558,,,survey-text,313,2004386,0.0-17.0-3.16,34837,List1A,black,woman,,,,,"{""Q0"":""mike and luke are flirting with each other""}","<img src=""stim_listA/flirt6.gif""style=""height:400px;""></stim_listA>",are flirting with each other,
null,"<div style=""font-size:60px;"">+</div>",,html-keyboard-response,314,2004890,0.0-17.0-0.17,34837,List1A,black,woman,,,,null,,,,
null,"<img src=""stim_listA/argue3.gif""style=""height:400px;""></stim_listA>",,html-keyboard-response,315,2006895,0.0-17.0-1.17,34837,List1A,black,woman,,,,null,,,,
null,is arguing with,,html-keyboard-response,316,2008898,0.0-17.0-2.17,34837,List1A,black,woman,,,,null,,,,
15265,,,survey-text,317,2024168,0.0-17.0-3.17,34837,List1A,black,woman,,,,,"{""Q0"":""dave is arguing with jane""}","<img src=""stim_listA/argue3.gif""style=""height:400px;""></stim_listA>",is arguing with,
null,"<div style=""font-size:60px;"">+</div>",,html-keyboard-response,318,2024672,0.0-17.0-0.18,34837,List1A,black,woman,,,,null,,,,
null,"<img src=""stim_listA/shout8.gif""style=""height:400px;""></stim_listA>",,html-keyboard-response,319,2026679,0.0-17.0-1.18,34837,List1A,black,woman,,,,null,,,,
null,are shouting at each other,,html-keyboard-response,320,2028683,0.0-17.0-2.18,34837,List1A,black,woman,,,,null,,,,
14278,,,survey-text,321,2042964,0.0-17.0-3.18,34837,List1A,black,woman,,,,,"{""Q0"":""jane and kate are shouting at each other""}","<img src=""stim_listA/shout8.gif""style=""height:400px;""></stim_listA>",are shouting at each other,
null,"<div style=""font-size:60px;"">+</div>",,html-keyboard-response,322,2043469,0.0-17.0-0.19,34837,List1A,black,woman,,,,null,,,,
null,"<img src=""stim_listA/marry2.gif""style=""height:400px;""></stim_listA>",,html-keyboard-response,323,2045475,0.0-17.0-1.19,34837,List1A,black,woman,,,,null,,,,
null,are marrying each other,,html-keyboard-response,324,2047478,0.0-17.0-2.19,34837,List1A,black,woman,,,,null,,,,
13812,,,survey-text,325,2061294,0.0-17.0-3.19,34837,List1A,black,woman,,,,,"{""Q0"":""fred and kate are marrying each other""}","<img src=""stim_listA/marry2.gif""style=""height:400px;""></stim_listA>",are marrying each other,
21100,"<img src='img/portrait_matrix_list1.jpg' style='width:900px;height:500px;''></img><p>If you have memorised all the portraits and names and are ready to start, press Continue.</p><p><strong>Please note: Your memory of these faces will be tested 4 times during this experiment.</strong></p>",0,html-button-response,326,2082400,0.0-18.0-0.0,34837,List1A,black,woman,,,,,,,,
4833,"<img src=""portrait/BM1.jpg""style=""height:400px;""></img>",4,html-button-response,327,2088243,0.0-18.0-1.0,34837,List1A,black,woman,,TRUE,4,,,,,
null,CORRECT,,html-keyboard-response,328,2089750,0.0-18.0-2.0-0.0,34837,List1A,black,woman,,,,null,,,,
3210,"<img src=""portrait/WW2.jpg""style=""height:400px;""></img>",3,html-button-response,329,2092967,0.0-18.0-4.0,34837,List1A,black,woman,,TRUE,3,,,,,
null,CORRECT,,html-keyboard-response,330,2094473,0.0-18.0-5.0-0.0,34837,List1A,black,woman,,,,null,,,,
3213,"<img src=""portrait/WM1.jpg""style=""height:400px;""></img>",6,html-button-response,331,2097693,0.0-18.0-7.0,34837,List1A,black,woman,,TRUE,6,,,,,
null,CORRECT,,html-keyboard-response,332,2099197,0.0-18.0-8.0-0.0,34837,List1A,black,woman,,,,null,,,,
2528,"<img src=""portrait/BW2.jpg""style=""height:400px;""></img>",2,html-button-response,333,2101731,0.0-18.0-10.0,34837,List1A,black,woman,,TRUE,2,,,,,
null,CORRECT,,html-keyboard-response,334,2103235,0.0-18.0-11.0-0.0,34837,List1A,black,woman,,,,null,,,,
2288,"<img src=""portrait/WW1.jpg""style=""height:400px;""></img>",1,html-button-response,335,2105530,0.0-18.0-13.0,34837,List1A,black,woman,,TRUE,1,,,,,
null,CORRECT,,html-keyboard-response,336,2107034,0.0-18.0-14.0-0.0,34837,List1A,black,woman,,,,null,,,,
2232,"<img src=""portrait/BW1.jpg""style=""height:400px;""></img>",0,html-button-response,337,2109272,0.0-18.0-16.0,34837,List1A,black,woman,,TRUE,0,,,,,
null,CORRECT,,html-keyboard-response,338,2110778,0.0-18.0-17.0-0.0,34837,List1A,black,woman,,,,null,,,,
2777,"<img src=""portrait/BM2.jpg""style=""height:400px;""></img>",5,html-button-response,339,2113561,0.0-18.0-19.0,34837,List1A,black,woman,,TRUE,5,,,,,
null,CORRECT,,html-keyboard-response,340,2115066,0.0-18.0-20.0-0.0,34837,List1A,black,woman,,,,null,,,,
2352,"<img src=""portrait/WM2.jpg""style=""height:400px;""></img>",7,html-button-response,341,2117427,0.0-18.0-22.0,34837,List1A,black,woman,,TRUE,7,,,,,
null,CORRECT,,html-keyboard-response,342,2118931,0.0-18.0-23.0-0.0,34837,List1A,black,woman,,,,null,,,,
2679,<p>You got 8 out of 8 right first time. Press Continue.</p>,0,html-button-response,343,2121616,0.0-18.0-25.0,34837,List1A,black,woman,,,,,,,,
null,"<div style=""font-size:60px;"">+</div>",,html-keyboard-response,344,2123122,0.0-19.0-0.0,34837,List1A,black,woman,,,,null,,,,
null,"<img src=""stim_listA/dance6.gif""style=""height:400px;""></stim_listA>",,html-keyboard-response,345,2125128,0.0-19.0-1.0,34837,List1A,black,woman,,,,null,,,,
null,are dancing with each other,,html-keyboard-response,346,2127131,0.0-19.0-2.0,34837,List1A,black,woman,,,,null,,,,
14128,,,survey-text,347,2141267,0.0-19.0-3.0,34837,List1A,black,woman,,,,,"{""Q0"":""luke and mike are dancing with each other""}","<img src=""stim_listA/dance6.gif""style=""height:400px;""></stim_listA>",are dancing with each other,
null,"<div style=""font-size:60px;"">+</div>",,html-keyboard-response,348,2141771,0.0-19.0-0.1,34837,List1A,black,woman,,,,null,,,,
null,"<img src=""stim_listA/kiss7.gif""style=""height:400px;""></stim_listA>",,html-keyboard-response,349,2143777,0.0-19.0-1.1,34837,List1A,black,woman,,,,null,,,,
null,is kissing,,html-keyboard-response,350,2145781,0.0-19.0-2.1,34837,List1A,black,woman,,,,null,,,,
9010,,,survey-text,351,2154795,0.0-19.0-3.1,34837,List1A,black,woman,,,,,"{""Q0"":""beth is kissing ruth""}","<img src=""stim_listA/kiss7.gif""style=""height:400px;""></stim_listA>",is kissing,
null,"<div style=""font-size:60px;"">+</div>",,html-keyboard-response,352,2155299,0.0-19.0-0.2,34837,List1A,black,woman,,,,null,,,,
null,"<img src=""stim_listA/dance3.gif""style=""height:400px;""></stim_listA>",,html-keyboard-response,353,2157306,0.0-19.0-1.2,34837,List1A,black,woman,,,,null,,,,
null,is dancing with,,html-keyboard-response,354,2159310,0.0-19.0-2.2,34837,List1A,black,woman,,,,null,,,,
12663,,,survey-text,355,2171979,0.0-19.0-3.2,34837,List1A,black,woman,,,,,"{""Q0"":""luke is dancing with jane""}","<img src=""stim_listA/dance3.gif""style=""height:400px;""></stim_listA>",is dancing with,
null,"<div style=""font-size:60px;"">+</div>",,html-keyboard-response,356,2172485,0.0-19.0-0.3,34837,List1A,black,woman,,,,null,,,,
null,"<img src=""stim_listA/talk6.gif""style=""height:400px;""></stim_listA>",,html-keyboard-response,357,2174490,0.0-19.0-1.3,34837,List1A,black,woman,,,,null,,,,
null,are talking to each other,,html-keyboard-response,358,2176494,0.0-19.0-2.3,34837,List1A,black,woman,,,,null,,,,
16143,,,survey-text,359,2192643,0.0-19.0-3.3,34837,List1A,black,woman,,,,,"{""Q0"":""mike and luke are talking to each other""}","<img src=""stim_listA/talk6.gif""style=""height:400px;""></stim_listA>",are talking to each other,
null,"<div style=""font-size:60px;"">+</div>",,html-keyboard-response,360,2193148,0.0-19.0-0.4,34837,List1A,black,woman,,,,null,,,,
null,"<img src=""stim_listA/touch8.gif""style=""height:400px;""></stim_listA>",,html-keyboard-response,361,2195155,0.0-19.0-1.4,34837,List1A,black,woman,,,,null,,,,
null,are touching each other,,html-keyboard-response,362,2197159,0.0-19.0-2.4,34837,List1A,black,woman,,,,null,,,,
15129,,,survey-text,363,2212293,0.0-19.0-3.4,34837,List1A,black,woman,,,,,"{""Q0"":""ruth and beth are touching each other""}","<img src=""stim_listA/touch8.gif""style=""height:400px;""></stim_listA>",are touching each other,
null,"<div style=""font-size:60px;"">+</div>",,html-keyboard-response,364,2212798,0.0-19.0-0.5,34837,List1A,black,woman,,,,null,,,,
null,"<img src=""stim_listA/shout6.gif""style=""height:400px;""></stim_listA>",,html-keyboard-response,365,2214805,0.0-19.0-1.5,34837,List1A,black,woman,,,,null,,,,
null,are shouting at each other,,html-keyboard-response,366,2216809,0.0-19.0-2.5,34837,List1A,black,woman,,,,null,,,,
14636,,,survey-text,367,2231450,0.0-19.0-3.5,34837,List1A,black,woman,,,,,"{""Q0"":""dave and mike are shouting at each other""}","<img src=""stim_listA/shout6.gif""style=""height:400px;""></stim_listA>",are shouting at each other,
null,"<div style=""font-size:60px;"">+</div>",,html-keyboard-response,368,2231957,0.0-19.0-0.6,34837,List1A,black,woman,,,,null,,,,
null,"<img src=""stim_listA/marry3.gif""style=""height:400px;""></stim_listA>",,html-keyboard-response,369,2233965,0.0-19.0-1.6,34837,List1A,black,woman,,,,null,,,,
null,is marrying,,html-keyboard-response,370,2235970,0.0-19.0-2.6,34837,List1A,black,woman,,,,null,,,,
12550,,,survey-text,371,2248524,0.0-19.0-3.6,34837,List1A,black,woman,,,,,"{""Q0"":""dave is marrying ruth""}","<img src=""stim_listA/marry3.gif""style=""height:400px;""></stim_listA>",is marrying,
null,"<div style=""font-size:60px;"">+</div>",,html-keyboard-response,372,2249028,0.0-19.0-0.7,34837,List1A,black,woman,,,,null,,,,
null,"<img src=""stim_listA/flirt3.gif""style=""height:400px;""></stim_listA>",,html-keyboard-response,373,2251036,0.0-19.0-1.7,34837,List1A,black,woman,,,,null,,,,
null,is flirting with,,html-keyboard-response,374,2253039,0.0-19.0-2.7,34837,List1A,black,woman,,,,null,,,,
11656,,,survey-text,375,2264700,0.0-19.0-3.7,34837,List1A,black,woman,,,,,"{""Q0"":""jane is flirting with luke""}","<img src=""stim_listA/flirt3.gif""style=""height:400px;""></stim_listA>",is flirting with,
null,"<div style=""font-size:60px;"">+</div>",,html-keyboard-response,376,2265204,0.0-19.0-0.8,34837,List1A,black,woman,,,,null,,,,
null,"<img src=""stim_listA/play3.gif""style=""height:400px;""></stim_listA>",,html-keyboard-response,377,2267211,0.0-19.0-1.8,34837,List1A,black,woman,,,,null,,,,
null,is playing with,,html-keyboard-response,378,2269214,0.0-19.0-2.8,34837,List1A,black,woman,,,,null,,,,
10649,,,survey-text,379,2279867,0.0-19.0-3.8,34837,List1A,black,woman,,,,,"{""Q0"":""dave is playing with jane""}","<img src=""stim_listA/play3.gif""style=""height:400px;""></stim_listA>",is playing with,
null,"<div style=""font-size:60px;"">+</div>",,html-keyboard-response,380,2280370,0.0-19.0-0.9,34837,List1A,black,woman,,,,null,,,,
null,"<img src=""stim_listA/shout5.gif""style=""height:400px;""></stim_listA>",,html-keyboard-response,381,2282378,0.0-19.0-1.9,34837,List1A,black,woman,,,,null,,,,
null,is shouting at,,html-keyboard-response,382,2284381,0.0-19.0-2.9,34837,List1A,black,woman,,,,null,,,,
34450,,,survey-text,383,2318836,0.0-19.0-3.9,34837,List1A,black,woman,,,,,"{""Q0"":""fred and luke is shouting""}","<img src=""stim_listA/shout5.gif""style=""height:400px;""></stim_listA>",is shouting at,
null,"<div style=""font-size:60px;"">+</div>",,html-keyboard-response,384,2319341,0.0-19.0-0.10,34837,List1A,black,woman,,,,null,,,,
null,"<img src=""stim_listA/talk5.gif""style=""height:400px;""></stim_listA>",,html-keyboard-response,385,2321352,0.0-19.0-1.10,34837,List1A,black,woman,,,,null,,,,
null,is talking to,,html-keyboard-response,386,2323355,0.0-19.0-2.10,34837,List1A,black,woman,,,,null,,,,
11277,,,survey-text,387,2334637,0.0-19.0-3.10,34837,List1A,black,woman,,,,,"{""Q0"":""dave is talking to fred""}","<img src=""stim_listA/talk5.gif""style=""height:400px;""></stim_listA>",is talking to,
null,"<div style=""font-size:60px;"">+</div>",,html-keyboard-response,388,2335142,0.0-19.0-0.11,34837,List1A,black,woman,,,,null,,,,
null,"<img src=""stim_listA/kiss4.gif""style=""height:400px;""></stim_listA>",,html-keyboard-response,389,2337148,0.0-19.0-1.11,34837,List1A,black,woman,,,,null,,,,
null,are kissing each other,,html-keyboard-response,390,2339152,0.0-19.0-2.11,34837,List1A,black,woman,,,,null,,,,
16753,,,survey-text,391,2355910,0.0-19.0-3.11,34837,List1A,black,woman,,,,,"{""Q0"":""dave and jane are kissing each other""}","<img src=""stim_listA/kiss4.gif""style=""height:400px;""></stim_listA>",are kissing each other,
null,"<div style=""font-size:60px;"">+</div>",,html-keyboard-response,392,2356415,0.0-19.0-0.12,34837,List1A,black,woman,,,,null,,,,
null,"<img src=""stim_listA/shout3.gif""style=""height:400px;""></stim_listA>",,html-keyboard-response,393,2358422,0.0-19.0-1.12,34837,List1A,black,woman,,,,null,,,,
null,is shouting at,,html-keyboard-response,394,2360425,0.0-19.0-2.12,34837,List1A,black,woman,,,,null,,,,
14958,,,survey-text,395,2375388,0.0-19.0-3.12,34837,List1A,black,woman,,,,,"{""Q0"":""ruth is shouting at luke""}","<img src=""stim_listA/shout3.gif""style=""height:400px;""></stim_listA>",is shouting at,
null,"<div style=""font-size:60px;"">+</div>",,html-keyboard-response,396,2375892,0.0-19.0-0.13,34837,List1A,black,woman,,,,null,,,,
null,"<img src=""stim_listA/touch1.gif""style=""height:400px;""></stim_listA>",,html-keyboard-response,397,2377898,0.0-19.0-1.13,34837,List1A,black,woman,,,,null,,,,
null,is touching,,html-keyboard-response,398,2379902,0.0-19.0-2.13,34837,List1A,black,woman,,,,null,,,,
10160,,,survey-text,399,2390066,0.0-19.0-3.13,34837,List1A,black,woman,,,,,"{""Q0"":""kate is touching mike""}","<img src=""stim_listA/touch1.gif""style=""height:400px;""></stim_listA>",is touching,
null,"<div style=""font-size:60px;"">+</div>",,html-keyboard-response,400,2390571,0.0-19.0-0.14,34837,List1A,black,woman,,,,null,,,,
null,"<img src=""stim_listA/talk7.gif""style=""height:400px;""></stim_listA>",,html-keyboard-response,401,2392577,0.0-19.0-1.14,34837,List1A,black,woman,,,,null,,,,
null,is talking to,,html-keyboard-response,402,2394580,0.0-19.0-2.14,34837,List1A,black,woman,,,,null,,,,
9637,,,survey-text,403,2404222,0.0-19.0-3.14,34837,List1A,black,woman,,,,,"{""Q0"":""jane is talking to beth""}","<img src=""stim_listA/talk7.gif""style=""height:400px;""></stim_listA>",is talking to,
null,"<div style=""font-size:60px;"">+</div>",,html-keyboard-response,404,2404727,0.0-19.0-0.15,34837,List1A,black,woman,,,,null,,,,
null,"<img src=""stim_listA/play8.gif""style=""height:400px;""></stim_listA>",,html-keyboard-response,405,2406734,0.0-19.0-1.15,34837,List1A,black,woman,,,,null,,,,
null,are playing with each other,,html-keyboard-response,406,2408738,0.0-19.0-2.15,34837,List1A,black,woman,,,,null,,,,
16380,,,survey-text,407,2425123,0.0-19.0-3.15,34837,List1A,black,woman,,,,,"{""Q0"":""ruth and beth are playing with each other""}","<img src=""stim_listA/play8.gif""style=""height:400px;""></stim_listA>",are playing with each other,
null,"<div style=""font-size:60px;"">+</div>",,html-keyboard-response,408,2425628,0.0-19.0-0.16,34837,List1A,black,woman,,,,null,,,,
null,"<img src=""stim_listA/argue6.gif""style=""height:400px;""></stim_listA>",,html-keyboard-response,409,2427637,0.0-19.0-1.16,34837,List1A,black,woman,,,,null,,,,
null,are arguing with each other,,html-keyboard-response,410,2429641,0.0-19.0-2.16,34837,List1A,black,woman,,,,null,,,,
15358,,,survey-text,411,2445003,0.0-19.0-3.16,34837,List1A,black,woman,,,,,"{""Q0"":""dave and fred are arguing with each other""}","<img src=""stim_listA/argue6.gif""style=""height:400px;""></stim_listA>",are arguing with each other,
null,"<div style=""font-size:60px;"">+</div>",,html-keyboard-response,412,2445508,0.0-19.0-0.17,34837,List1A,black,woman,,,,null,,,,
null,"<img src=""stim_listA/dance2.gif""style=""height:400px;""></stim_listA>",,html-keyboard-response,413,2447514,0.0-19.0-1.17,34837,List1A,black,woman,,,,null,,,,
null,are dancing with each other,,html-keyboard-response,414,2449522,0.0-19.0-2.17,34837,List1A,black,woman,,,,null,,,,
14053,,,survey-text,415,2463580,0.0-19.0-3.17,34837,List1A,black,woman,,,,,"{""Q0"":""beth and mike are dancing with each other""}","<img src=""stim_listA/dance2.gif""style=""height:400px;""></stim_listA>",are dancing with each other,
null,"<div style=""font-size:60px;"">+</div>",,html-keyboard-response,416,2464085,0.0-19.0-0.18,34837,List1A,black,woman,,,,null,,,,
null,"<img src=""stim_listA/kiss6.gif""style=""height:400px;""></stim_listA>",,html-keyboard-response,417,2466092,0.0-19.0-1.18,34837,List1A,black,woman,,,,null,,,,
null,are kissing each other,,html-keyboard-response,418,2468096,0.0-19.0-2.18,34837,List1A,black,woman,,,,null,,,,
14402,,,survey-text,419,2482503,0.0-19.0-3.18,34837,List1A,black,woman,,,,,"{""Q0"":""dave and mike are kissing each other""}","<img src=""stim_listA/kiss6.gif""style=""height:400px;""></stim_listA>",are kissing each other,
null,"<div style=""font-size:60px;"">+</div>",,html-keyboard-response,420,2483009,0.0-19.0-0.19,34837,List1A,black,woman,,,,null,,,,
null,"<img src=""stim_listA/touch2.gif""style=""height:400px;""></stim_listA>",,html-keyboard-response,421,2485016,0.0-19.0-1.19,34837,List1A,black,woman,,,,null,,,,
null,are touching each other,,html-keyboard-response,422,2487020,0.0-19.0-2.19,34837,List1A,black,woman,,,,null,,,,
13176,,,survey-text,423,2500201,0.0-19.0-3.19,34837,List1A,black,woman,,,,,"{""Q0"":""beth and fred are touching each other""}","<img src=""stim_listA/touch2.gif""style=""height:400px;""></stim_listA>",are touching each other,
3651,<p>Thank you for completing that task.</p><p>The final part of this session is a short questionnaire.</p><p>Press Continue.</p>,0,html-button-response,424,2503857,0.0-20.0,34837,List1A,black,woman,,,,,,,,
38875,,,survey-text,425,2543742,0.0-21.0,34837,List1A,black,woman,,,,,"{""Q0"":""40"",""Q1"":""english"",""Q2"":""english"",""Q3"":""united kingdom"",""Q4"":""black african"",""Q5"":""female""}",,,demographics
18644,,,survey-likert,426,2562405,0.0-22.0,34837,List1A,black,woman,,,,,"{""Q0"":3}",,,likert_ESS
28999,,,survey-likert,427,2591418,0.0-23.0,34837,List1A,black,woman,,,,,"{""Q0"":0}",,,likert_NSSAL_Q1
5385,,,survey-likert,428,2596812,0.0-24.0,34837,List1A,black,woman,,,,,"{""Q0"":0}",,,likert_NSSAL_Q2
8706,,,survey-likert,429,2605527,0.0-25.0,34837,List1A,black,woman,,,,,"{""Q0"":4}",,,likert_CGRS_Q1
5161,,,survey-likert,430,2610698,0.0-26.0,34837,List1A,black,woman,,,,,"{""Q0"":4}",,,likert_CGRS_Q2
4198,,,survey-likert,431,2614906,0.0-27.0,34837,List1A,black,woman,,,,,"{""Q0"":4}",,,likert_CGRS_Q3
15800,,,survey-text,432,2630717,0.0-28.0,34837,List1A,black,woman,,,,,"{""Q0"":""ccc""}",,,worker_id
52691,,,external-html,433,2683533,0.0-29.0,34837,List1A,black,woman,debrief.html,,,,,,,
