rt,stimulus,button_pressed,trial_type,trial_index,time_elapsed,internal_node_id,subject,list,ppt_race,ppt_gender,url,first_guess,correct,key_press,responses,image_type,phrase_type,test_part
2382,Welcome to the experiment. Press Continue to begin.,0,html-button-response,0,2384,0.0-0.0,34877,List2A,white,man,,,,,,,,
39703,,,external-html,1,43131,0.0-1.0,34877,List2A,white,man,consent.html,,,,,,,
11698,"<p>On the next page, you will see portraits of 8 people and their names.</p><p>Your first task is to take a few minutes to memorise the names of these people.</p><p>You will have to recall their names during the rest of the experiment, so it is</p><p>essential that you try to memorise these people and their names as best as you can.</p><br><p><strong>You will then be tested on your memory of these names and portraits.</strong></p><br><p>The experiment will start after you have completed this memory test.</p><br><p>Ready?</p>",0,html-button-response,2,54830,0.0-2.0,34877,List2A,white,man,,,,,,,,
80480,"<img src='img/portrait_matrix_list2.jpg' style='width:900px;height:500px;''></img><p>If you have memorised all the portraits and names and are ready to start, press Continue.</p><p><strong>Please note: Your memory of these faces will be tested 4 times during this experiment.</strong></p>",0,html-button-response,3,136318,0.0-3.0-0.0,34877,List2A,white,man,,,,,,,,
8191,"<img src=""portrait/BW2.jpg""style=""height:400px;""></img>",2,html-button-response,4,145515,0.0-3.0-1.0,34877,List2A,white,man,,TRUE,2,,,,,
null,CORRECT,,html-keyboard-response,5,147024,0.0-3.0-2.0-0.0,34877,List2A,white,man,,,,null,,,,
7272,"<img src=""portrait/WW1.jpg""style=""height:400px;""></img>",1,html-button-response,6,154298,0.0-3.0-4.0,34877,List2A,white,man,,TRUE,1,,,,,
null,CORRECT,,html-keyboard-response,7,155802,0.0-3.0-5.0-0.0,34877,List2A,white,man,,,,null,,,,
1974,"<img src=""portrait/WM1.jpg""style=""height:400px;""></img>",6,html-button-response,8,157777,0.0-3.0-7.0,34877,List2A,white,man,,TRUE,6,,,,,
null,CORRECT,,html-keyboard-response,9,159288,0.0-3.0-8.0-0.0,34877,List2A,white,man,,,,null,,,,
3085,"<img src=""portrait/WW2.jpg""style=""height:400px;""></img>",3,html-button-response,10,162374,0.0-3.0-10.0,34877,List2A,white,man,,TRUE,3,,,,,
null,CORRECT,,html-keyboard-response,11,163875,0.0-3.0-11.0-0.0,34877,List2A,white,man,,,,null,,,,
1760,"<img src=""portrait/BW1.jpg""style=""height:400px;""></img>",0,html-button-response,12,165636,0.0-3.0-13.0,34877,List2A,white,man,,TRUE,0,,,,,
null,CORRECT,,html-keyboard-response,13,167143,0.0-3.0-14.0-0.0,34877,List2A,white,man,,,,null,,,,
1954,"<img src=""portrait/WM2.jpg""style=""height:400px;""></img>",7,html-button-response,14,169099,0.0-3.0-16.0,34877,List2A,white,man,,TRUE,7,,,,,
null,CORRECT,,html-keyboard-response,15,170602,0.0-3.0-17.0-0.0,34877,List2A,white,man,,,,null,,,,
1759,"<img src=""portrait/BM1.jpg""style=""height:400px;""></img>",4,html-button-response,16,172362,0.0-3.0-19.0,34877,List2A,white,man,,TRUE,4,,,,,
null,CORRECT,,html-keyboard-response,17,173867,0.0-3.0-20.0-0.0,34877,List2A,white,man,,,,null,,,,
1814,"<img src=""portrait/BM2.jpg""style=""height:400px;""></img>",5,html-button-response,18,175682,0.0-3.0-22.0,34877,List2A,white,man,,TRUE,5,,,,,
null,CORRECT,,html-keyboard-response,19,177190,0.0-3.0-23.0-0.0,34877,List2A,white,man,,,,null,,,,
1650,<p>You got 8 out of 8 right first time. Press Continue.</p>,0,html-button-response,20,178842,0.0-3.0-25.0,34877,List2A,white,man,,,,,,,,
89943,"<p>In this experiment, you will view photographs of the people from the memory game interacting.</p><p>By using the <strong>exact</strong> phrase given <i>after</i> the photograph appears and recalling the correct names of the people in the photographs, form a sentence describing the interaction. You do not need to capitalise names.</p><p>Type your answer in the space provided. Please complete every sentence before moving onto the next trial.</p><p>You will only have a few seconds to memorise each given photograph and phrase before you can respond, so try your best to focus.</p><p>An example is given below. Press 'Continue' when you are ready.</p><img src='img/speaking_example.jpg' style='width:800px;height:460px;''></img>",0,html-button-response,21,269792,0.0-4.0,34877,List2A,white,man,,,,,,,,
2848,"<p>Before the experiment starts, you will watch two example trials. Press 'Continue'.</p>",0,html-button-response,22,273643,0.0-5.0,34877,List2A,white,man,,,,,,,,
null,<img src='img/meet_eg.gif' style='height:400px;''></img>,,html-keyboard-response,23,276653,0.0-6.0,34877,List2A,white,man,,,,null,,,,
null,<p>is meeting</p>,,html-keyboard-response,24,278659,0.0-7.0,34877,List2A,white,man,,,,null,,,,
2678,<p><b>Answer:</b> jane is meeting ruth</p>,0,html-button-response,25,281339,0.0-8.0,34877,List2A,white,man,,,,,,,,
null,<img src='img/look_eg.gif' style='height:400px;''></img>,,html-keyboard-response,26,284342,0.0-9.0,34877,List2A,white,man,,,,null,,,,
null,<p>are looking at each other</p>,,html-keyboard-response,27,286343,0.0-10.0,34877,List2A,white,man,,,,null,,,,
1110,<p><b>Answer:</b> fred and mike are looking at each other</p>,0,html-button-response,28,287453,0.0-11.0,34877,List2A,white,man,,,,,,,,
10833,"<p>Ready to start the experiment?</p><br><p><strong>Remember to describe the picture using a full sentence,</strong></p><p><strong>that combines the names of the people with the <i>exact</i> phrase given.</strong></p><p><strong>To receive full payment you must do this correctly.</strong></p><p><strong> You do not need to capitalise names or use punctuation.</strong></p><br><p>Press 'Continue' to begin.</p>",0,html-button-response,29,299289,0.0-12.0,34877,List2A,white,man,,,,,,,,
null,"<div style=""font-size:60px;"">+</div>",,html-keyboard-response,30,300798,0.0-13.0-0.0,34877,List2A,white,man,,,,null,,,,
null,"<img src=""stim_listA/touch1.gif""style=""height:400px;""></stim_listA>",,html-keyboard-response,31,302799,0.0-13.0-1.0,34877,List2A,white,man,,,,null,,,,
null,is touching,,html-keyboard-response,32,304800,0.0-13.0-2.0,34877,List2A,white,man,,,,null,,,,
11285,,,survey-text,33,316085,0.0-13.0-3.0,34877,List2A,white,man,,,,,"{""Q0"":""dave is touching jane""}","<img src=""stim_listA/touch1.gif""style=""height:400px;""></stim_listA>",is touching,
null,"<div style=""font-size:60px;"">+</div>",,html-keyboard-response,34,316592,0.0-13.0-0.1,34877,List2A,white,man,,,,null,,,,
null,"<img src=""stim_listA/marry4.gif""style=""height:400px;""></stim_listA>",,html-keyboard-response,35,318594,0.0-13.0-1.1,34877,List2A,white,man,,,,null,,,,
null,are marrying each other,,html-keyboard-response,36,320596,0.0-13.0-2.1,34877,List2A,white,man,,,,null,,,,
14830,,,survey-text,37,335427,0.0-13.0-3.1,34877,List2A,white,man,,,,,"{""Q0"":""fred is marrying kate""}","<img src=""stim_listA/marry4.gif""style=""height:400px;""></stim_listA>",are marrying each other,
null,"<div style=""font-size:60px;"">+</div>",,html-keyboard-response,38,335928,0.0-13.0-0.2,34877,List2A,white,man,,,,null,,,,
null,"<img src=""stim_listA/shout2.gif""style=""height:400px;""></stim_listA>",,html-keyboard-response,39,337929,0.0-13.0-1.2,34877,List2A,white,man,,,,null,,,,
null,are shouting at each other,,html-keyboard-response,40,339932,0.0-13.0-2.2,34877,List2A,white,man,,,,null,,,,
19309,,,survey-text,41,359249,0.0-13.0-3.2,34877,List2A,white,man,,,,,"{""Q0"":""dave is shouting at jane""}","<img src=""stim_listA/shout2.gif""style=""height:400px;""></stim_listA>",are shouting at each other,
null,"<div style=""font-size:60px;"">+</div>",,html-keyboard-response,42,359755,0.0-13.0-0.3,34877,List2A,white,man,,,,null,,,,
null,"<img src=""stim_listA/marry8.gif""style=""height:400px;""></stim_listA>",,html-keyboard-response,43,361758,0.0-13.0-1.3,34877,List2A,white,man,,,,null,,,,
null,are marrying each other,,html-keyboard-response,44,363758,0.0-13.0-2.3,34877,List2A,white,man,,,,null,,,,
11689,,,survey-text,45,375448,0.0-13.0-3.3,34877,List2A,white,man,,,,,"{""Q0"":""ruth is marrying jane""}","<img src=""stim_listA/marry8.gif""style=""height:400px;""></stim_listA>",are marrying each other,
null,"<div style=""font-size:60px;"">+</div>",,html-keyboard-response,46,375954,0.0-13.0-0.4,34877,List2A,white,man,,,,null,,,,
null,"<img src=""stim_listA/dance8.gif""style=""height:400px;""></stim_listA>",,html-keyboard-response,47,377958,0.0-13.0-1.4,34877,List2A,white,man,,,,null,,,,
null,are dancing with each other,,html-keyboard-response,48,379961,0.0-13.0-2.4,34877,List2A,white,man,,,,null,,,,
5908,,,survey-text,49,385870,0.0-13.0-3.4,34877,List2A,white,man,,,,,"{""Q0"":""jane is dancing with kate""}","<img src=""stim_listA/dance8.gif""style=""height:400px;""></stim_listA>",are dancing with each other,
null,"<div style=""font-size:60px;"">+</div>",,html-keyboard-response,50,386376,0.0-13.0-0.5,34877,List2A,white,man,,,,null,,,,
null,"<img src=""stim_listA/talk1.gif""style=""height:400px;""></stim_listA>",,html-keyboard-response,51,388381,0.0-13.0-1.5,34877,List2A,white,man,,,,null,,,,
null,is talking to,,html-keyboard-response,52,390383,0.0-13.0-2.5,34877,List2A,white,man,,,,null,,,,
6560,,,survey-text,53,396945,0.0-13.0-3.5,34877,List2A,white,man,,,,,"{""Q0"":""luke is talking to jane""}","<img src=""stim_listA/talk1.gif""style=""height:400px;""></stim_listA>",is talking to,
null,"<div style=""font-size:60px;"">+</div>",,html-keyboard-response,54,397446,0.0-13.0-0.6,34877,List2A,white,man,,,,null,,,,
null,"<img src=""stim_listA/fight7.gif""style=""height:400px;""></stim_listA>",,html-keyboard-response,55,399449,0.0-13.0-1.6,34877,List2A,white,man,,,,null,,,,
null,is fighting,,html-keyboard-response,56,401450,0.0-13.0-2.6,34877,List2A,white,man,,,,null,,,,
7472,,,survey-text,57,408924,0.0-13.0-3.6,34877,List2A,white,man,,,,,"{""Q0"":""jane is fighting with kate""}","<img src=""stim_listA/fight7.gif""style=""height:400px;""></stim_listA>",is fighting,
null,"<div style=""font-size:60px;"">+</div>",,html-keyboard-response,58,409427,0.0-13.0-0.7,34877,List2A,white,man,,,,null,,,,
null,"<img src=""stim_listA/argue2.gif""style=""height:400px;""></stim_listA>",,html-keyboard-response,59,411433,0.0-13.0-1.7,34877,List2A,white,man,,,,null,,,,
null,are arguing with each other,,html-keyboard-response,60,413434,0.0-13.0-2.7,34877,List2A,white,man,,,,null,,,,
11621,,,survey-text,61,425056,0.0-13.0-3.7,34877,List2A,white,man,,,,,"{""Q0"":""jane is arguing with luke""}","<img src=""stim_listA/argue2.gif""style=""height:400px;""></stim_listA>",are arguing with each other,
null,"<div style=""font-size:60px;"">+</div>",,html-keyboard-response,62,425563,0.0-13.0-0.8,34877,List2A,white,man,,,,null,,,,
null,"<img src=""stim_listA/flirt7.gif""style=""height:400px;""></stim_listA>",,html-keyboard-response,63,427565,0.0-13.0-1.8,34877,List2A,white,man,,,,null,,,,
null,is flirting with,,html-keyboard-response,64,429566,0.0-13.0-2.8,34877,List2A,white,man,,,,null,,,,
16965,,,survey-text,65,446533,0.0-13.0-3.8,34877,List2A,white,man,,,,,"{""Q0"":""ruth is flirting with kate""}","<img src=""stim_listA/flirt7.gif""style=""height:400px;""></stim_listA>",is flirting with,
null,"<div style=""font-size:60px;"">+</div>",,html-keyboard-response,66,447038,0.0-13.0-0.9,34877,List2A,white,man,,,,null,,,,
null,"<img src=""stim_listA/marry2.gif""style=""height:400px;""></stim_listA>",,html-keyboard-response,67,449040,0.0-13.0-1.9,34877,List2A,white,man,,,,null,,,,
null,are marrying each other,,html-keyboard-response,68,451046,0.0-13.0-2.9,34877,List2A,white,man,,,,null,,,,
7721,,,survey-text,69,458768,0.0-13.0-3.9,34877,List2A,white,man,,,,,"{""Q0"":""luke is marrying kate""}","<img src=""stim_listA/marry2.gif""style=""height:400px;""></stim_listA>",are marrying each other,
null,"<div style=""font-size:60px;"">+</div>",,html-keyboard-response,70,459272,0.0-13.0-0.10,34877,List2A,white,man,,,,null,,,,
null,"<img src=""stim_listA/shout6.gif""style=""height:400px;""></stim_listA>",,html-keyboard-response,71,461277,0.0-13.0-1.10,34877,List2A,white,man,,,,null,,,,
null,are shouting at each other,,html-keyboard-response,72,463281,0.0-13.0-2.10,34877,List2A,white,man,,,,null,,,,
10345,,,survey-text,73,473628,0.0-13.0-3.10,34877,List2A,white,man,,,,,"{""Q0"":""mike is shouting with dave""}","<img src=""stim_listA/shout6.gif""style=""height:400px;""></stim_listA>",are shouting at each other,
null,"<div style=""font-size:60px;"">+</div>",,html-keyboard-response,74,474131,0.0-13.0-0.11,34877,List2A,white,man,,,,null,,,,
null,"<img src=""stim_listA/shout1.gif""style=""height:400px;""></stim_listA>",,html-keyboard-response,75,476135,0.0-13.0-1.11,34877,List2A,white,man,,,,null,,,,
null,is shouting at,,html-keyboard-response,76,478141,0.0-13.0-2.11,34877,List2A,white,man,,,,null,,,,
13558,,,survey-text,77,491700,0.0-13.0-3.11,34877,List2A,white,man,,,,,"{""Q0"":""ruth is shouting at luke""}","<img src=""stim_listA/shout1.gif""style=""height:400px;""></stim_listA>",is shouting at,
null,"<div style=""font-size:60px;"">+</div>",,html-keyboard-response,78,492205,0.0-13.0-0.12,34877,List2A,white,man,,,,null,,,,
null,"<img src=""stim_listA/kiss7.gif""style=""height:400px;""></stim_listA>",,html-keyboard-response,79,494210,0.0-13.0-1.12,34877,List2A,white,man,,,,null,,,,
null,is kissing,,html-keyboard-response,80,496214,0.0-13.0-2.12,34877,List2A,white,man,,,,null,,,,
5946,,,survey-text,81,502161,0.0-13.0-3.12,34877,List2A,white,man,,,,,"{""Q0"":""beth is kissing ruth""}","<img src=""stim_listA/kiss7.gif""style=""height:400px;""></stim_listA>",is kissing,
null,"<div style=""font-size:60px;"">+</div>",,html-keyboard-response,82,502663,0.0-13.0-0.13,34877,List2A,white,man,,,,null,,,,
null,"<img src=""stim_listA/flirt4.gif""style=""height:400px;""></stim_listA>",,html-keyboard-response,83,504666,0.0-13.0-1.13,34877,List2A,white,man,,,,null,,,,
null,are flirting with each other,,html-keyboard-response,84,506667,0.0-13.0-2.13,34877,List2A,white,man,,,,null,,,,
7234,,,survey-text,85,513903,0.0-13.0-3.13,34877,List2A,white,man,,,,,"{""Q0"":""mike is flirting with beth""}","<img src=""stim_listA/flirt4.gif""style=""height:400px;""></stim_listA>",are flirting with each other,
null,"<div style=""font-size:60px;"">+</div>",,html-keyboard-response,86,514407,0.0-13.0-0.14,34877,List2A,white,man,,,,null,,,,
null,"<img src=""stim_listA/flirt1.gif""style=""height:400px;""></stim_listA>",,html-keyboard-response,87,516413,0.0-13.0-1.14,34877,List2A,white,man,,,,null,,,,
null,is flirting with,,html-keyboard-response,88,518415,0.0-13.0-2.14,34877,List2A,white,man,,,,null,,,,
12021,,,survey-text,89,530437,0.0-13.0-3.14,34877,List2A,white,man,,,,,"{""Q0"":""luke is flirting with jane""}","<img src=""stim_listA/flirt1.gif""style=""height:400px;""></stim_listA>",is flirting with,
null,"<div style=""font-size:60px;"">+</div>",,html-keyboard-response,90,530940,0.0-13.0-0.15,34877,List2A,white,man,,,,null,,,,
null,"<img src=""stim_listA/talk3.gif""style=""height:400px;""></stim_listA>",,html-keyboard-response,91,532942,0.0-13.0-1.15,34877,List2A,white,man,,,,null,,,,
null,is talking to,,html-keyboard-response,92,534943,0.0-13.0-2.15,34877,List2A,white,man,,,,null,,,,
6223,,,survey-text,93,541168,0.0-13.0-3.15,34877,List2A,white,man,,,,,"{""Q0"":""fred is talking to kate""}","<img src=""stim_listA/talk3.gif""style=""height:400px;""></stim_listA>",is talking to,
null,"<div style=""font-size:60px;"">+</div>",,html-keyboard-response,94,541672,0.0-13.0-0.16,34877,List2A,white,man,,,,null,,,,
null,"<img src=""stim_listA/touch2.gif""style=""height:400px;""></stim_listA>",,html-keyboard-response,95,543677,0.0-13.0-1.16,34877,List2A,white,man,,,,null,,,,
null,are touching each other,,html-keyboard-response,96,545678,0.0-13.0-2.16,34877,List2A,white,man,,,,null,,,,
9497,,,survey-text,97,555177,0.0-13.0-3.16,34877,List2A,white,man,,,,,"{""Q0"":""luke is touching ruth""}","<img src=""stim_listA/touch2.gif""style=""height:400px;""></stim_listA>",are touching each other,
null,"<div style=""font-size:60px;"">+</div>",,html-keyboard-response,98,555681,0.0-13.0-0.17,34877,List2A,white,man,,,,null,,,,
null,"<img src=""stim_listA/argue5.gif""style=""height:400px;""></stim_listA>",,html-keyboard-response,99,557685,0.0-13.0-1.17,34877,List2A,white,man,,,,null,,,,
null,is arguing with,,html-keyboard-response,100,559688,0.0-13.0-2.17,34877,List2A,white,man,,,,null,,,,
9827,,,survey-text,101,569516,0.0-13.0-3.17,34877,List2A,white,man,,,,,"{""Q0"":""dave is arguing with fred""}","<img src=""stim_listA/argue5.gif""style=""height:400px;""></stim_listA>",is arguing with,
null,"<div style=""font-size:60px;"">+</div>",,html-keyboard-response,102,570018,0.0-13.0-0.18,34877,List2A,white,man,,,,null,,,,
null,"<img src=""stim_listA/play5.gif""style=""height:400px;""></stim_listA>",,html-keyboard-response,103,572024,0.0-13.0-1.18,34877,List2A,white,man,,,,null,,,,
null,is playing with,,html-keyboard-response,104,574025,0.0-13.0-2.18,34877,List2A,white,man,,,,null,,,,
5357,,,survey-text,105,579384,0.0-13.0-3.18,34877,List2A,white,man,,,,,"{""Q0"":""mike is playing with dave""}","<img src=""stim_listA/play5.gif""style=""height:400px;""></stim_listA>",is playing with,
null,"<div style=""font-size:60px;"">+</div>",,html-keyboard-response,106,579887,0.0-13.0-0.19,34877,List2A,white,man,,,,null,,,,
null,"<img src=""stim_listA/talk2.gif""style=""height:400px;""></stim_listA>",,html-keyboard-response,107,581891,0.0-13.0-1.19,34877,List2A,white,man,,,,null,,,,
null,are talking to each other,,html-keyboard-response,108,583898,0.0-13.0-2.19,34877,List2A,white,man,,,,null,,,,
13512,,,survey-text,109,597410,0.0-13.0-3.19,34877,List2A,white,man,,,,,"{""Q0"":""dave is talking to ruth""}","<img src=""stim_listA/talk2.gif""style=""height:400px;""></stim_listA>",are talking to each other,
5670,"<img src='img/portrait_matrix_list2.jpg' style='width:900px;height:500px;''></img><p>If you have memorised all the portraits and names and are ready to start, press Continue.</p><p><strong>Please note: Your memory of these faces will be tested 4 times during this experiment.</strong></p>",0,html-button-response,110,603082,0.0-14.0-0.0,34877,List2A,white,man,,,,,,,,
2535,"<img src=""portrait/WM1.jpg""style=""height:400px;""></img>",6,html-button-response,111,606625,0.0-14.0-1.0,34877,List2A,white,man,,TRUE,6,,,,,
null,CORRECT,,html-keyboard-response,112,608132,0.0-14.0-2.0-0.0,34877,List2A,white,man,,,,null,,,,
3100,"<img src=""portrait/WW1.jpg""style=""height:400px;""></img>",1,html-button-response,113,611235,0.0-14.0-4.0,34877,List2A,white,man,,TRUE,1,,,,,
null,CORRECT,,html-keyboard-response,114,612743,0.0-14.0-5.0-0.0,34877,List2A,white,man,,,,null,,,,
1551,"<img src=""portrait/BM1.jpg""style=""height:400px;""></img>",4,html-button-response,115,614295,0.0-14.0-7.0,34877,List2A,white,man,,TRUE,4,,,,,
null,CORRECT,,html-keyboard-response,116,615806,0.0-14.0-8.0-0.0,34877,List2A,white,man,,,,null,,,,
1413,"<img src=""portrait/BM2.jpg""style=""height:400px;""></img>",5,html-button-response,117,617219,0.0-14.0-10.0,34877,List2A,white,man,,TRUE,5,,,,,
null,CORRECT,,html-keyboard-response,118,618730,0.0-14.0-11.0-0.0,34877,List2A,white,man,,,,null,,,,
4755,"<img src=""portrait/BW2.jpg""style=""height:400px;""></img>",2,html-button-response,119,623487,0.0-14.0-13.0,34877,List2A,white,man,,TRUE,2,,,,,
null,CORRECT,,html-keyboard-response,120,624990,0.0-14.0-14.0-0.0,34877,List2A,white,man,,,,null,,,,
1075,"<img src=""portrait/WW2.jpg""style=""height:400px;""></img>",3,html-button-response,121,626066,0.0-14.0-16.0,34877,List2A,white,man,,TRUE,3,,,,,
null,CORRECT,,html-keyboard-response,122,627576,0.0-14.0-17.0-0.0,34877,List2A,white,man,,,,null,,,,
1842,"<img src=""portrait/WM2.jpg""style=""height:400px;""></img>",7,html-button-response,123,629419,0.0-14.0-19.0,34877,List2A,white,man,,TRUE,7,,,,,
null,CORRECT,,html-keyboard-response,124,630930,0.0-14.0-20.0-0.0,34877,List2A,white,man,,,,null,,,,
2790,"<img src=""portrait/BW1.jpg""style=""height:400px;""></img>",0,html-button-response,125,633722,0.0-14.0-22.0,34877,List2A,white,man,,TRUE,0,,,,,
null,CORRECT,,html-keyboard-response,126,635233,0.0-14.0-23.0-0.0,34877,List2A,white,man,,,,null,,,,
2400,<p>You got 8 out of 8 right first time. Press Continue.</p>,0,html-button-response,127,637635,0.0-14.0-25.0,34877,List2A,white,man,,,,,,,,
null,"<div style=""font-size:60px;"">+</div>",,html-keyboard-response,128,639146,0.0-15.0-0.0,34877,List2A,white,man,,,,null,,,,
null,"<img src=""stim_listA/play8.gif""style=""height:400px;""></stim_listA>",,html-keyboard-response,129,641149,0.0-15.0-1.0,34877,List2A,white,man,,,,null,,,,
null,are playing with each other,,html-keyboard-response,130,643152,0.0-15.0-2.0,34877,List2A,white,man,,,,null,,,,
5874,,,survey-text,131,649027,0.0-15.0-3.0,34877,List2A,white,man,,,,,"{""Q0"":""beth is playing with ruth""}","<img src=""stim_listA/play8.gif""style=""height:400px;""></stim_listA>",are playing with each other,
null,"<div style=""font-size:60px;"">+</div>",,html-keyboard-response,132,649528,0.0-15.0-0.1,34877,List2A,white,man,,,,null,,,,
null,"<img src=""stim_listA/play1.gif""style=""height:400px;""></stim_listA>",,html-keyboard-response,133,651533,0.0-15.0-1.1,34877,List2A,white,man,,,,null,,,,
null,is playing with,,html-keyboard-response,134,653535,0.0-15.0-2.1,34877,List2A,white,man,,,,null,,,,
9665,,,survey-text,135,663201,0.0-15.0-3.1,34877,List2A,white,man,,,,,"{""Q0"":""dave is playing with ruth""}","<img src=""stim_listA/play1.gif""style=""height:400px;""></stim_listA>",is playing with,
null,"<div style=""font-size:60px;"">+</div>",,html-keyboard-response,136,663706,0.0-15.0-0.2,34877,List2A,white,man,,,,null,,,,
null,"<img src=""stim_listA/dance3.gif""style=""height:400px;""></stim_listA>",,html-keyboard-response,137,665711,0.0-15.0-1.2,34877,List2A,white,man,,,,null,,,,
null,is dancing with,,html-keyboard-response,138,667714,0.0-15.0-2.2,34877,List2A,white,man,,,,null,,,,
7217,,,survey-text,139,674934,0.0-15.0-3.2,34877,List2A,white,man,,,,,"{""Q0"":""fred is dancing with kate""}","<img src=""stim_listA/dance3.gif""style=""height:400px;""></stim_listA>",is dancing with,
null,"<div style=""font-size:60px;"">+</div>",,html-keyboard-response,140,675440,0.0-15.0-0.3,34877,List2A,white,man,,,,null,,,,
null,"<img src=""stim_listA/dance1.gif""style=""height:400px;""></stim_listA>",,html-keyboard-response,141,677444,0.0-15.0-1.3,34877,List2A,white,man,,,,null,,,,
null,is dancing with,,html-keyboard-response,142,679448,0.0-15.0-2.3,34877,List2A,white,man,,,,null,,,,
8738,,,survey-text,143,688187,0.0-15.0-3.3,34877,List2A,white,man,,,,,"{""Q0"":""luke is dancing with jane""}","<img src=""stim_listA/dance1.gif""style=""height:400px;""></stim_listA>",is dancing with,
null,"<div style=""font-size:60px;"">+</div>",,html-keyboard-response,144,688689,0.0-15.0-0.4,34877,List2A,white,man,,,,null,,,,
null,"<img src=""stim_listA/argue8.gif""style=""height:400px;""></stim_listA>",,html-keyboard-response,145,690695,0.0-15.0-1.4,34877,List2A,white,man,,,,null,,,,
null,are arguing with each other,,html-keyboard-response,146,692701,0.0-15.0-2.4,34877,List2A,white,man,,,,null,,,,
10051,,,survey-text,147,702753,0.0-15.0-3.4,34877,List2A,white,man,,,,,"{""Q0"":""kate is arguing with ruth""}","<img src=""stim_listA/argue8.gif""style=""height:400px;""></stim_listA>",are arguing with each other,
null,"<div style=""font-size:60px;"">+</div>",,html-keyboard-response,148,703259,0.0-15.0-0.5,34877,List2A,white,man,,,,null,,,,
null,"<img src=""stim_listA/play7.gif""style=""height:400px;""></stim_listA>",,html-keyboard-response,149,705261,0.0-15.0-1.5,34877,List2A,white,man,,,,null,,,,
null,is playing with,,html-keyboard-response,150,707262,0.0-15.0-2.5,34877,List2A,white,man,,,,null,,,,
10786,,,survey-text,151,718048,0.0-15.0-3.5,34877,List2A,white,man,,,,,"{""Q0"":""jane is playing with kate""}","<img src=""stim_listA/play7.gif""style=""height:400px;""></stim_listA>",is playing with,
null,"<div style=""font-size:60px;"">+</div>",,html-keyboard-response,152,718549,0.0-15.0-0.6,34877,List2A,white,man,,,,null,,,,
null,"<img src=""stim_listA/marry3.gif""style=""height:400px;""></stim_listA>",,html-keyboard-response,153,720553,0.0-15.0-1.6,34877,List2A,white,man,,,,null,,,,
null,is marrying,,html-keyboard-response,154,722553,0.0-15.0-2.6,34877,List2A,white,man,,,,null,,,,
7369,,,survey-text,155,729924,0.0-15.0-3.6,34877,List2A,white,man,,,,,"{""Q0"":""beth is marrying mike""}","<img src=""stim_listA/marry3.gif""style=""height:400px;""></stim_listA>",is marrying,
null,"<div style=""font-size:60px;"">+</div>",,html-keyboard-response,156,730428,0.0-15.0-0.7,34877,List2A,white,man,,,,null,,,,
null,"<img src=""stim_listA/shout8.gif""style=""height:400px;""></stim_listA>",,html-keyboard-response,157,732434,0.0-15.0-1.7,34877,List2A,white,man,,,,null,,,,
null,are shouting at each other,,html-keyboard-response,158,734436,0.0-15.0-2.7,34877,List2A,white,man,,,,null,,,,
5941,,,survey-text,159,740378,0.0-15.0-3.7,34877,List2A,white,man,,,,,"{""Q0"":""kate is shouting at jane""}","<img src=""stim_listA/shout8.gif""style=""height:400px;""></stim_listA>",are shouting at each other,
null,"<div style=""font-size:60px;"">+</div>",,html-keyboard-response,160,740884,0.0-15.0-0.8,34877,List2A,white,man,,,,null,,,,
null,"<img src=""stim_listA/argue6.gif""style=""height:400px;""></stim_listA>",,html-keyboard-response,161,742889,0.0-15.0-1.8,34877,List2A,white,man,,,,null,,,,
null,are arguing with each other,,html-keyboard-response,162,744895,0.0-15.0-2.8,34877,List2A,white,man,,,,null,,,,
7482,,,survey-text,163,752378,0.0-15.0-3.8,34877,List2A,white,man,,,,,"{""Q0"":""mike is arguing with luke""}","<img src=""stim_listA/argue6.gif""style=""height:400px;""></stim_listA>",are arguing with each other,
null,"<div style=""font-size:60px;"">+</div>",,html-keyboard-response,164,752884,0.0-15.0-0.9,34877,List2A,white,man,,,,null,,,,
null,"<img src=""stim_listA/fight5.gif""style=""height:400px;""></stim_listA>",,html-keyboard-response,165,754887,0.0-15.0-1.9,34877,List2A,white,man,,,,null,,,,
null,is fighting,,html-keyboard-response,166,756890,0.0-15.0-2.9,34877,List2A,white,man,,,,null,,,,
8538,,,survey-text,167,765430,0.0-15.0-3.9,34877,List2A,white,man,,,,,"{""Q0"":""dave is fighting with mike""}","<img src=""stim_listA/fight5.gif""style=""height:400px;""></stim_listA>",is fighting,
null,"<div style=""font-size:60px;"">+</div>",,html-keyboard-response,168,765935,0.0-15.0-0.10,34877,List2A,white,man,,,,null,,,,
null,"<img src=""stim_listA/flirt3.gif""style=""height:400px;""></stim_listA>",,html-keyboard-response,169,767940,0.0-15.0-1.10,34877,List2A,white,man,,,,null,,,,
null,is flirting with,,html-keyboard-response,170,769940,0.0-15.0-2.10,34877,List2A,white,man,,,,null,,,,
8090,,,survey-text,171,778031,0.0-15.0-3.10,34877,List2A,white,man,,,,,"{""Q0"":""fred is flirting with kate""}","<img src=""stim_listA/flirt3.gif""style=""height:400px;""></stim_listA>",is flirting with,
null,"<div style=""font-size:60px;"">+</div>",,html-keyboard-response,172,778536,0.0-15.0-0.11,34877,List2A,white,man,,,,null,,,,
null,"<img src=""stim_listA/dance6.gif""style=""height:400px;""></stim_listA>",,html-keyboard-response,173,780540,0.0-15.0-1.11,34877,List2A,white,man,,,,null,,,,
null,are dancing with each other,,html-keyboard-response,174,782541,0.0-15.0-2.11,34877,List2A,white,man,,,,null,,,,
7091,,,survey-text,175,789634,0.0-15.0-3.11,34877,List2A,white,man,,,,,"{""Q0"":""dave is dancing with fred""}","<img src=""stim_listA/dance6.gif""style=""height:400px;""></stim_listA>",are dancing with each other,
null,"<div style=""font-size:60px;"">+</div>",,html-keyboard-response,176,790140,0.0-15.0-0.12,34877,List2A,white,man,,,,null,,,,
null,"<img src=""stim_listA/fight6.gif""style=""height:400px;""></stim_listA>",,html-keyboard-response,177,792143,0.0-15.0-1.12,34877,List2A,white,man,,,,null,,,,
null,are fighting each other,,html-keyboard-response,178,794145,0.0-15.0-2.12,34877,List2A,white,man,,,,null,,,,
9134,,,survey-text,179,803279,0.0-15.0-3.12,34877,List2A,white,man,,,,,"{""Q0"":""luke is fighting with fred""}","<img src=""stim_listA/fight6.gif""style=""height:400px;""></stim_listA>",are fighting each other,
null,"<div style=""font-size:60px;"">+</div>",,html-keyboard-response,180,803788,0.0-15.0-0.13,34877,List2A,white,man,,,,null,,,,
null,"<img src=""stim_listA/fight8.gif""style=""height:400px;""></stim_listA>",,html-keyboard-response,181,805789,0.0-15.0-1.13,34877,List2A,white,man,,,,null,,,,
null,are fighting each other,,html-keyboard-response,182,807791,0.0-15.0-2.13,34877,List2A,white,man,,,,null,,,,
6700,,,survey-text,183,814492,0.0-15.0-3.13,34877,List2A,white,man,,,,,"{""Q0"":""beth is fighting with ruth""}","<img src=""stim_listA/fight8.gif""style=""height:400px;""></stim_listA>",are fighting each other,
null,"<div style=""font-size:60px;"">+</div>",,html-keyboard-response,184,814998,0.0-15.0-0.14,34877,List2A,white,man,,,,null,,,,
null,"<img src=""stim_listA/flirt8.gif""style=""height:400px;""></stim_listA>",,html-keyboard-response,185,817004,0.0-15.0-1.14,34877,List2A,white,man,,,,null,,,,
null,are flirting with each other,,html-keyboard-response,186,819006,0.0-15.0-2.14,34877,List2A,white,man,,,,null,,,,
14223,,,survey-text,187,833232,0.0-15.0-3.14,34877,List2A,white,man,,,,,"{""Q0"":""jane is flirting with beth""}","<img src=""stim_listA/flirt8.gif""style=""height:400px;""></stim_listA>",are flirting with each other,
null,"<div style=""font-size:60px;"">+</div>",,html-keyboard-response,188,833735,0.0-15.0-0.15,34877,List2A,white,man,,,,null,,,,
null,"<img src=""stim_listA/dance7.gif""style=""height:400px;""></stim_listA>",,html-keyboard-response,189,835739,0.0-15.0-1.15,34877,List2A,white,man,,,,null,,,,
null,is dancing with,,html-keyboard-response,190,837740,0.0-15.0-2.15,34877,List2A,white,man,,,,null,,,,
12865,,,survey-text,191,850606,0.0-15.0-3.15,34877,List2A,white,man,,,,,"{""Q0"":""kate is dancing with ruth""}","<img src=""stim_listA/dance7.gif""style=""height:400px;""></stim_listA>",is dancing with,
null,"<div style=""font-size:60px;"">+</div>",,html-keyboard-response,192,851112,0.0-15.0-0.16,34877,List2A,white,man,,,,null,,,,
null,"<img src=""stim_listA/dance4.gif""style=""height:400px;""></stim_listA>",,html-keyboard-response,193,853113,0.0-15.0-1.16,34877,List2A,white,man,,,,null,,,,
null,are dancing with each other,,html-keyboard-response,194,855116,0.0-15.0-2.16,34877,List2A,white,man,,,,null,,,,
9243,,,survey-text,195,864360,0.0-15.0-3.16,34877,List2A,white,man,,,,,"{""Q0"":""mike is dancing with beth""}","<img src=""stim_listA/dance4.gif""style=""height:400px;""></stim_listA>",are dancing with each other,
null,"<div style=""font-size:60px;"">+</div>",,html-keyboard-response,196,864863,0.0-15.0-0.17,34877,List2A,white,man,,,,null,,,,
null,"<img src=""stim_listA/shout5.gif""style=""height:400px;""></stim_listA>",,html-keyboard-response,197,866865,0.0-15.0-1.17,34877,List2A,white,man,,,,null,,,,
null,is shouting at,,html-keyboard-response,198,868865,0.0-15.0-2.17,34877,List2A,white,man,,,,null,,,,
6392,,,survey-text,199,875259,0.0-15.0-3.17,34877,List2A,white,man,,,,,"{""Q0"":""fred is shouting at luke""}","<img src=""stim_listA/shout5.gif""style=""height:400px;""></stim_listA>",is shouting at,
null,"<div style=""font-size:60px;"">+</div>",,html-keyboard-response,200,875765,0.0-15.0-0.18,34877,List2A,white,man,,,,null,,,,
null,"<img src=""stim_listA/marry7.gif""style=""height:400px;""></stim_listA>",,html-keyboard-response,201,877770,0.0-15.0-1.18,34877,List2A,white,man,,,,null,,,,
null,is marrying,,html-keyboard-response,202,879771,0.0-15.0-2.18,34877,List2A,white,man,,,,null,,,,
5028,,,survey-text,203,884799,0.0-15.0-3.18,34877,List2A,white,man,,,,,"{""Q0"":""beth is marrying jane""}","<img src=""stim_listA/marry7.gif""style=""height:400px;""></stim_listA>",is marrying,
null,"<div style=""font-size:60px;"">+</div>",,html-keyboard-response,204,885301,0.0-15.0-0.19,34877,List2A,white,man,,,,null,,,,
null,"<img src=""stim_listA/fight3.gif""style=""height:400px;""></stim_listA>",,html-keyboard-response,205,887307,0.0-15.0-1.19,34877,List2A,white,man,,,,null,,,,
null,is fighting,,html-keyboard-response,206,889309,0.0-15.0-2.19,34877,List2A,white,man,,,,null,,,,
6529,,,survey-text,207,895839,0.0-15.0-3.19,34877,List2A,white,man,,,,,"{""Q0"":""mike is fighting kate""}","<img src=""stim_listA/fight3.gif""style=""height:400px;""></stim_listA>",is fighting,
2986,"<img src='img/portrait_matrix_list2.jpg' style='width:900px;height:500px;''></img><p>If you have memorised all the portraits and names and are ready to start, press Continue.</p><p><strong>Please note: Your memory of these faces will be tested 4 times during this experiment.</strong></p>",0,html-button-response,208,898827,0.0-16.0-0.0,34877,List2A,white,man,,,,,,,,
1578,"<img src=""portrait/WM1.jpg""style=""height:400px;""></img>",6,html-button-response,209,901410,0.0-16.0-1.0,34877,List2A,white,man,,TRUE,6,,,,,
null,CORRECT,,html-keyboard-response,210,902919,0.0-16.0-2.0-0.0,34877,List2A,white,man,,,,null,,,,
1635,"<img src=""portrait/BM1.jpg""style=""height:400px;""></img>",4,html-button-response,211,904556,0.0-16.0-4.0,34877,List2A,white,man,,TRUE,4,,,,,
null,CORRECT,,html-keyboard-response,212,906058,0.0-16.0-5.0-0.0,34877,List2A,white,man,,,,null,,,,
2179,"<img src=""portrait/BW2.jpg""style=""height:400px;""></img>",2,html-button-response,213,908239,0.0-16.0-7.0,34877,List2A,white,man,,TRUE,2,,,,,
null,CORRECT,,html-keyboard-response,214,909746,0.0-16.0-8.0-0.0,34877,List2A,white,man,,,,null,,,,
1361,"<img src=""portrait/WM2.jpg""style=""height:400px;""></img>",7,html-button-response,215,911109,0.0-16.0-10.0,34877,List2A,white,man,,TRUE,7,,,,,
null,CORRECT,,html-keyboard-response,216,912618,0.0-16.0-11.0-0.0,34877,List2A,white,man,,,,null,,,,
1191,"<img src=""portrait/BM2.jpg""style=""height:400px;""></img>",5,html-button-response,217,913810,0.0-16.0-13.0,34877,List2A,white,man,,TRUE,5,,,,,
null,CORRECT,,html-keyboard-response,218,915319,0.0-16.0-14.0-0.0,34877,List2A,white,man,,,,null,,,,
2777,"<img src=""portrait/BW1.jpg""style=""height:400px;""></img>",0,html-button-response,219,918097,0.0-16.0-16.0,34877,List2A,white,man,,TRUE,0,,,,,
null,CORRECT,,html-keyboard-response,220,919608,0.0-16.0-17.0-0.0,34877,List2A,white,man,,,,null,,,,
4874,"<img src=""portrait/WW2.jpg""style=""height:400px;""></img>",3,html-button-response,221,924484,0.0-16.0-19.0,34877,List2A,white,man,,TRUE,3,,,,,
null,CORRECT,,html-keyboard-response,222,925992,0.0-16.0-20.0-0.0,34877,List2A,white,man,,,,null,,,,
1738,"<img src=""portrait/WW1.jpg""style=""height:400px;""></img>",1,html-button-response,223,927732,0.0-16.0-22.0,34877,List2A,white,man,,TRUE,1,,,,,
null,CORRECT,,html-keyboard-response,224,929241,0.0-16.0-23.0-0.0,34877,List2A,white,man,,,,null,,,,
1374,<p>You got 8 out of 8 right first time. Press Continue.</p>,0,html-button-response,225,930616,0.0-16.0-25.0,34877,List2A,white,man,,,,,,,,
null,"<div style=""font-size:60px;"">+</div>",,html-keyboard-response,226,932121,0.0-17.0-0.0,34877,List2A,white,man,,,,null,,,,
null,"<img src=""stim_listA/play4.gif""style=""height:400px;""></stim_listA>",,html-keyboard-response,227,934126,0.0-17.0-1.0,34877,List2A,white,man,,,,null,,,,
null,are playing with each other,,html-keyboard-response,228,936127,0.0-17.0-2.0,34877,List2A,white,man,,,,null,,,,
13329,,,survey-text,229,949458,0.0-17.0-3.0,34877,List2A,white,man,,,,,"{""Q0"":""fred is playing with beth""}","<img src=""stim_listA/play4.gif""style=""height:400px;""></stim_listA>",are playing with each other,
null,"<div style=""font-size:60px;"">+</div>",,html-keyboard-response,230,949961,0.0-17.0-0.1,34877,List2A,white,man,,,,null,,,,
null,"<img src=""stim_listA/kiss3.gif""style=""height:400px;""></stim_listA>",,html-keyboard-response,231,951966,0.0-17.0-1.1,34877,List2A,white,man,,,,null,,,,
null,is kissing,,html-keyboard-response,232,953968,0.0-17.0-2.1,34877,List2A,white,man,,,,null,,,,
5352,,,survey-text,233,959322,0.0-17.0-3.1,34877,List2A,white,man,,,,,"{""Q0"":""beth is kissing fred""}","<img src=""stim_listA/kiss3.gif""style=""height:400px;""></stim_listA>",is kissing,
null,"<div style=""font-size:60px;"">+</div>",,html-keyboard-response,234,959828,0.0-17.0-0.2,34877,List2A,white,man,,,,null,,,,
null,"<img src=""stim_listA/play3.gif""style=""height:400px;""></stim_listA>",,html-keyboard-response,235,961829,0.0-17.0-1.2,34877,List2A,white,man,,,,null,,,,
null,is playing with,,html-keyboard-response,236,963834,0.0-17.0-2.2,34877,List2A,white,man,,,,null,,,,
5415,,,survey-text,237,969250,0.0-17.0-3.2,34877,List2A,white,man,,,,,"{""Q0"":""mike is playing with kate""}","<img src=""stim_listA/play3.gif""style=""height:400px;""></stim_listA>",is playing with,
null,"<div style=""font-size:60px;"">+</div>",,html-keyboard-response,238,969755,0.0-17.0-0.3,34877,List2A,white,man,,,,null,,,,
null,"<img src=""stim_listA/dance5.gif""style=""height:400px;""></stim_listA>",,html-keyboard-response,239,971759,0.0-17.0-1.3,34877,List2A,white,man,,,,null,,,,
null,is dancing with,,html-keyboard-response,240,973762,0.0-17.0-2.3,34877,List2A,white,man,,,,null,,,,
7265,,,survey-text,241,981028,0.0-17.0-3.3,34877,List2A,white,man,,,,,"{""Q0"":""mike is dancing with luke""}","<img src=""stim_listA/dance5.gif""style=""height:400px;""></stim_listA>",is dancing with,
null,"<div style=""font-size:60px;"">+</div>",,html-keyboard-response,242,981531,0.0-17.0-0.4,34877,List2A,white,man,,,,null,,,,
null,"<img src=""stim_listA/fight1.gif""style=""height:400px;""></stim_listA>",,html-keyboard-response,243,983537,0.0-17.0-1.4,34877,List2A,white,man,,,,null,,,,
null,is fighting,,html-keyboard-response,244,985538,0.0-17.0-2.4,34877,List2A,white,man,,,,null,,,,
7339,,,survey-text,245,992879,0.0-17.0-3.4,34877,List2A,white,man,,,,,"{""Q0"":""dave is fighting with jane""}","<img src=""stim_listA/fight1.gif""style=""height:400px;""></stim_listA>",is fighting,
null,"<div style=""font-size:60px;"">+</div>",,html-keyboard-response,246,993384,0.0-17.0-0.5,34877,List2A,white,man,,,,null,,,,
null,"<img src=""stim_listA/touch3.gif""style=""height:400px;""></stim_listA>",,html-keyboard-response,247,995389,0.0-17.0-1.5,34877,List2A,white,man,,,,null,,,,
null,is touching,,html-keyboard-response,248,997390,0.0-17.0-2.5,34877,List2A,white,man,,,,null,,,,
4888,,,survey-text,249,1002279,0.0-17.0-3.5,34877,List2A,white,man,,,,,"{""Q0"":""kate is touching mike""}","<img src=""stim_listA/touch3.gif""style=""height:400px;""></stim_listA>",is touching,
null,"<div style=""font-size:60px;"">+</div>",,html-keyboard-response,250,1002782,0.0-17.0-0.6,34877,List2A,white,man,,,,null,,,,
null,"<img src=""stim_listA/marry6.gif""style=""height:400px;""></stim_listA>",,html-keyboard-response,251,1004785,0.0-17.0-1.6,34877,List2A,white,man,,,,null,,,,
null,are marrying each other,,html-keyboard-response,252,1006786,0.0-17.0-2.6,34877,List2A,white,man,,,,null,,,,
5272,,,survey-text,253,1012060,0.0-17.0-3.6,34877,List2A,white,man,,,,,"{""Q0"":""mike is marrying luke""}","<img src=""stim_listA/marry6.gif""style=""height:400px;""></stim_listA>",are marrying each other,
null,"<div style=""font-size:60px;"">+</div>",,html-keyboard-response,254,1012562,0.0-17.0-0.7,34877,List2A,white,man,,,,null,,,,
null,"<img src=""stim_listA/talk7.gif""style=""height:400px;""></stim_listA>",,html-keyboard-response,255,1014567,0.0-17.0-1.7,34877,List2A,white,man,,,,null,,,,
null,is talking to,,html-keyboard-response,256,1016569,0.0-17.0-2.7,34877,List2A,white,man,,,,null,,,,
5320,,,survey-text,257,1021889,0.0-17.0-3.7,34877,List2A,white,man,,,,,"{""Q0"":""ruth is talking to kate""}","<img src=""stim_listA/talk7.gif""style=""height:400px;""></stim_listA>",is talking to,
null,"<div style=""font-size:60px;"">+</div>",,html-keyboard-response,258,1022392,0.0-17.0-0.8,34877,List2A,white,man,,,,null,,,,
null,"<img src=""stim_listA/kiss4.gif""style=""height:400px;""></stim_listA>",,html-keyboard-response,259,1024400,0.0-17.0-1.8,34877,List2A,white,man,,,,null,,,,
null,are kissing each other,,html-keyboard-response,260,1026401,0.0-17.0-2.8,34877,List2A,white,man,,,,null,,,,
4758,,,survey-text,261,1031160,0.0-17.0-3.8,34877,List2A,white,man,,,,,"{""Q0"":""kate is kissing mike""}","<img src=""stim_listA/kiss4.gif""style=""height:400px;""></stim_listA>",are kissing each other,
null,"<div style=""font-size:60px;"">+</div>",,html-keyboard-response,262,1031666,0.0-17.0-0.9,34877,List2A,white,man,,,,null,,,,
null,"<img src=""stim_listA/shout4.gif""style=""height:400px;""></stim_listA>",,html-keyboard-response,263,1033672,0.0-17.0-1.9,34877,List2A,white,man,,,,null,,,,
null,are shouting at each other,,html-keyboard-response,264,1035672,0.0-17.0-2.9,34877,List2A,white,man,,,,null,,,,
6422,,,survey-text,265,1042095,0.0-17.0-3.9,34877,List2A,white,man,,,,,"{""Q0"":""mike is shouting at kate""}","<img src=""stim_listA/shout4.gif""style=""height:400px;""></stim_listA>",are shouting at each other,
null,"<div style=""font-size:60px;"">+</div>",,html-keyboard-response,266,1042601,0.0-17.0-0.10,34877,List2A,white,man,,,,null,,,,
null,"<img src=""stim_listA/kiss1.gif""style=""height:400px;""></stim_listA>",,html-keyboard-response,267,1044605,0.0-17.0-1.10,34877,List2A,white,man,,,,null,,,,
null,is kissing,,html-keyboard-response,268,1046607,0.0-17.0-2.10,34877,List2A,white,man,,,,null,,,,
9225,,,survey-text,269,1055832,0.0-17.0-3.10,34877,List2A,white,man,,,,,"{""Q0"":""luke is kissing ruth""}","<img src=""stim_listA/kiss1.gif""style=""height:400px;""></stim_listA>",is kissing,
null,"<div style=""font-size:60px;"">+</div>",,html-keyboard-response,270,1056333,0.0-17.0-0.11,34877,List2A,white,man,,,,null,,,,
null,"<img src=""stim_listA/touch6.gif""style=""height:400px;""></stim_listA>",,html-keyboard-response,271,1058336,0.0-17.0-1.11,34877,List2A,white,man,,,,null,,,,
null,are touching each other,,html-keyboard-response,272,1060341,0.0-17.0-2.11,34877,List2A,white,man,,,,null,,,,
5764,,,survey-text,273,1066106,0.0-17.0-3.11,34877,List2A,white,man,,,,,"{""Q0"":""fred is touching luke""}","<img src=""stim_listA/touch6.gif""style=""height:400px;""></stim_listA>",are touching each other,
null,"<div style=""font-size:60px;"">+</div>",,html-keyboard-response,274,1066609,0.0-17.0-0.12,34877,List2A,white,man,,,,null,,,,
null,"<img src=""stim_listA/fight2.gif""style=""height:400px;""></stim_listA>",,html-keyboard-response,275,1068612,0.0-17.0-1.12,34877,List2A,white,man,,,,null,,,,
null,are fighting each other,,html-keyboard-response,276,1070613,0.0-17.0-2.12,34877,List2A,white,man,,,,null,,,,
7292,,,survey-text,277,1077906,0.0-17.0-3.12,34877,List2A,white,man,,,,,"{""Q0"":""luke is fighting ruth""}","<img src=""stim_listA/fight2.gif""style=""height:400px;""></stim_listA>",are fighting each other,
null,"<div style=""font-size:60px;"">+</div>",,html-keyboard-response,278,1078409,0.0-17.0-0.13,34877,List2A,white,man,,,,null,,,,
null,"<img src=""stim_listA/touch8.gif""style=""height:400px;""></stim_listA>",,html-keyboard-response,279,1080413,0.0-17.0-1.13,34877,List2A,white,man,,,,null,,,,
null,are touching each other,,html-keyboard-response,280,1082416,0.0-17.0-2.13,34877,List2A,white,man,,,,null,,,,
5961,,,survey-text,281,1088379,0.0-17.0-3.13,34877,List2A,white,man,,,,,"{""Q0"":""beth is touching ruth""}","<img src=""stim_listA/touch8.gif""style=""height:400px;""></stim_listA>",are touching each other,
null,"<div style=""font-size:60px;"">+</div>",,html-keyboard-response,282,1088882,0.0-17.0-0.14,34877,List2A,white,man,,,,null,,,,
null,"<img src=""stim_listA/play2.gif""style=""height:400px;""></stim_listA>",,html-keyboard-response,283,1090887,0.0-17.0-1.14,34877,List2A,white,man,,,,null,,,,
null,are playing with each other,,html-keyboard-response,284,1092890,0.0-17.0-2.14,34877,List2A,white,man,,,,null,,,,
6048,,,survey-text,285,1098940,0.0-17.0-3.14,34877,List2A,white,man,,,,,"{""Q0"":""ruth is playing with luke""}","<img src=""stim_listA/play2.gif""style=""height:400px;""></stim_listA>",are playing with each other,
null,"<div style=""font-size:60px;"">+</div>",,html-keyboard-response,286,1099446,0.0-17.0-0.15,34877,List2A,white,man,,,,null,,,,
null,"<img src=""stim_listA/play6.gif""style=""height:400px;""></stim_listA>",,html-keyboard-response,287,1101448,0.0-17.0-1.15,34877,List2A,white,man,,,,null,,,,
null,are playing with each other,,html-keyboard-response,288,1103452,0.0-17.0-2.15,34877,List2A,white,man,,,,null,,,,
6257,,,survey-text,289,1109710,0.0-17.0-3.15,34877,List2A,white,man,,,,,"{""Q0"":""fred is playing with luke""}","<img src=""stim_listA/play6.gif""style=""height:400px;""></stim_listA>",are playing with each other,
null,"<div style=""font-size:60px;"">+</div>",,html-keyboard-response,290,1110217,0.0-17.0-0.16,34877,List2A,white,man,,,,null,,,,
null,"<img src=""stim_listA/fight4.gif""style=""height:400px;""></stim_listA>",,html-keyboard-response,291,1112219,0.0-17.0-1.16,34877,List2A,white,man,,,,null,,,,
null,are fighting each other,,html-keyboard-response,292,1114221,0.0-17.0-2.16,34877,List2A,white,man,,,,null,,,,
6695,,,survey-text,293,1120918,0.0-17.0-3.16,34877,List2A,white,man,,,,,"{""Q0"":""fred is fighting beth""}","<img src=""stim_listA/fight4.gif""style=""height:400px;""></stim_listA>",are fighting each other,
null,"<div style=""font-size:60px;"">+</div>",,html-keyboard-response,294,1121419,0.0-17.0-0.17,34877,List2A,white,man,,,,null,,,,
null,"<img src=""stim_listA/kiss8.gif""style=""height:400px;""></stim_listA>",,html-keyboard-response,295,1123425,0.0-17.0-1.17,34877,List2A,white,man,,,,null,,,,
null,are kissing each other,,html-keyboard-response,296,1125429,0.0-17.0-2.17,34877,List2A,white,man,,,,null,,,,
8493,,,survey-text,297,1133923,0.0-17.0-3.17,34877,List2A,white,man,,,,,"{""Q0"":""jane is kissing kate""}","<img src=""stim_listA/kiss8.gif""style=""height:400px;""></stim_listA>",are kissing each other,
null,"<div style=""font-size:60px;"">+</div>",,html-keyboard-response,298,1134428,0.0-17.0-0.18,34877,List2A,white,man,,,,null,,,,
null,"<img src=""stim_listA/marry1.gif""style=""height:400px;""></stim_listA>",,html-keyboard-response,299,1136431,0.0-17.0-1.18,34877,List2A,white,man,,,,null,,,,
null,is marrying,,html-keyboard-response,300,1138435,0.0-17.0-2.18,34877,List2A,white,man,,,,null,,,,
7964,,,survey-text,301,1146401,0.0-17.0-3.18,34877,List2A,white,man,,,,,"{""Q0"":""dave is marrying ruth""}","<img src=""stim_listA/marry1.gif""style=""height:400px;""></stim_listA>",is marrying,
null,"<div style=""font-size:60px;"">+</div>",,html-keyboard-response,302,1146907,0.0-17.0-0.19,34877,List2A,white,man,,,,null,,,,
null,"<img src=""stim_listA/flirt5.gif""style=""height:400px;""></stim_listA>",,html-keyboard-response,303,1148909,0.0-17.0-1.19,34877,List2A,white,man,,,,null,,,,
null,is flirting with,,html-keyboard-response,304,1150910,0.0-17.0-2.19,34877,List2A,white,man,,,,null,,,,
6560,,,survey-text,305,1157473,0.0-17.0-3.19,34877,List2A,white,man,,,,,"{""Q0"":""luke is flirting with mike""}","<img src=""stim_listA/flirt5.gif""style=""height:400px;""></stim_listA>",is flirting with,
5702,"<img src='img/portrait_matrix_list2.jpg' style='width:900px;height:500px;''></img><p>If you have memorised all the portraits and names and are ready to start, press Continue.</p><p><strong>Please note: Your memory of these faces will be tested 4 times during this experiment.</strong></p>",0,html-button-response,306,1163177,0.0-18.0-0.0,34877,List2A,white,man,,,,,,,,
1467,"<img src=""portrait/WM2.jpg""style=""height:400px;""></img>",7,html-button-response,307,1165649,0.0-18.0-1.0,34877,List2A,white,man,,TRUE,7,,,,,
null,CORRECT,,html-keyboard-response,308,1167155,0.0-18.0-2.0-0.0,34877,List2A,white,man,,,,null,,,,
1446,"<img src=""portrait/WM1.jpg""style=""height:400px;""></img>",6,html-button-response,309,1168602,0.0-18.0-4.0,34877,List2A,white,man,,TRUE,6,,,,,
null,CORRECT,,html-keyboard-response,310,1170110,0.0-18.0-5.0-0.0,34877,List2A,white,man,,,,null,,,,
1525,"<img src=""portrait/BM1.jpg""style=""height:400px;""></img>",4,html-button-response,311,1171637,0.0-18.0-7.0,34877,List2A,white,man,,TRUE,4,,,,,
null,CORRECT,,html-keyboard-response,312,1173146,0.0-18.0-8.0-0.0,34877,List2A,white,man,,,,null,,,,
1381,"<img src=""portrait/BW2.jpg""style=""height:400px;""></img>",2,html-button-response,313,1174528,0.0-18.0-10.0,34877,List2A,white,man,,TRUE,2,,,,,
null,CORRECT,,html-keyboard-response,314,1176038,0.0-18.0-11.0-0.0,34877,List2A,white,man,,,,null,,,,
1816,"<img src=""portrait/BM2.jpg""style=""height:400px;""></img>",5,html-button-response,315,1177857,0.0-18.0-13.0,34877,List2A,white,man,,TRUE,5,,,,,
null,CORRECT,,html-keyboard-response,316,1179368,0.0-18.0-14.0-0.0,34877,List2A,white,man,,,,null,,,,
3236,"<img src=""portrait/WW1.jpg""style=""height:400px;""></img>",1,html-button-response,317,1182605,0.0-18.0-16.0,34877,List2A,white,man,,TRUE,1,,,,,
null,CORRECT,,html-keyboard-response,318,1184112,0.0-18.0-17.0-0.0,34877,List2A,white,man,,,,null,,,,
1564,"<img src=""portrait/BW1.jpg""style=""height:400px;""></img>",0,html-button-response,319,1185677,0.0-18.0-19.0,34877,List2A,white,man,,TRUE,0,,,,,
null,CORRECT,,html-keyboard-response,320,1187185,0.0-18.0-20.0-0.0,34877,List2A,white,man,,,,null,,,,
2387,"<img src=""portrait/WW2.jpg""style=""height:400px;""></img>",3,html-button-response,321,1189573,0.0-18.0-22.0,34877,List2A,white,man,,TRUE,3,,,,,
null,CORRECT,,html-keyboard-response,322,1191085,0.0-18.0-23.0-0.0,34877,List2A,white,man,,,,null,,,,
1443,<p>You got 8 out of 8 right first time. Press Continue.</p>,0,html-button-response,323,1192530,0.0-18.0-25.0,34877,List2A,white,man,,,,,,,,
null,"<div style=""font-size:60px;"">+</div>",,html-keyboard-response,324,1194042,0.0-19.0-0.0,34877,List2A,white,man,,,,null,,,,
null,"<img src=""stim_listA/shout3.gif""style=""height:400px;""></stim_listA>",,html-keyboard-response,325,1196046,0.0-19.0-1.0,34877,List2A,white,man,,,,null,,,,
null,is shouting at,,html-keyboard-response,326,1198051,0.0-19.0-2.0,34877,List2A,white,man,,,,null,,,,
5793,,,survey-text,327,1203846,0.0-19.0-3.0,34877,List2A,white,man,,,,,"{""Q0"":""fred is shouting at beth""}","<img src=""stim_listA/shout3.gif""style=""height:400px;""></stim_listA>",is shouting at,
null,"<div style=""font-size:60px;"">+</div>",,html-keyboard-response,328,1204352,0.0-19.0-0.1,34877,List2A,white,man,,,,null,,,,
null,"<img src=""stim_listA/marry5.gif""style=""height:400px;""></stim_listA>",,html-keyboard-response,329,1206357,0.0-19.0-1.1,34877,List2A,white,man,,,,null,,,,
null,is marrying,,html-keyboard-response,330,1208361,0.0-19.0-2.1,34877,List2A,white,man,,,,null,,,,
6769,,,survey-text,331,1215132,0.0-19.0-3.1,34877,List2A,white,man,,,,,"{""Q0"":""fred is marrying dave""}","<img src=""stim_listA/marry5.gif""style=""height:400px;""></stim_listA>",is marrying,
null,"<div style=""font-size:60px;"">+</div>",,html-keyboard-response,332,1215638,0.0-19.0-0.2,34877,List2A,white,man,,,,null,,,,
null,"<img src=""stim_listA/talk4.gif""style=""height:400px;""></stim_listA>",,html-keyboard-response,333,1217640,0.0-19.0-1.2,34877,List2A,white,man,,,,null,,,,
null,are talking to each other,,html-keyboard-response,334,1219641,0.0-19.0-2.2,34877,List2A,white,man,,,,null,,,,
5678,,,survey-text,335,1225321,0.0-19.0-3.2,34877,List2A,white,man,,,,,"{""Q0"":""beth is talking to mike""}","<img src=""stim_listA/talk4.gif""style=""height:400px;""></stim_listA>",are talking to each other,
null,"<div style=""font-size:60px;"">+</div>",,html-keyboard-response,336,1225825,0.0-19.0-0.3,34877,List2A,white,man,,,,null,,,,
null,"<img src=""stim_listA/kiss2.gif""style=""height:400px;""></stim_listA>",,html-keyboard-response,337,1227830,0.0-19.0-1.3,34877,List2A,white,man,,,,null,,,,
null,are kissing each other,,html-keyboard-response,338,1229832,0.0-19.0-2.3,34877,List2A,white,man,,,,null,,,,
8815,,,survey-text,339,1238648,0.0-19.0-3.3,34877,List2A,white,man,,,,,"{""Q0"":""jane is kissing dave""}","<img src=""stim_listA/kiss2.gif""style=""height:400px;""></stim_listA>",are kissing each other,
null,"<div style=""font-size:60px;"">+</div>",,html-keyboard-response,340,1239150,0.0-19.0-0.4,34877,List2A,white,man,,,,null,,,,
null,"<img src=""stim_listA/shout7.gif""style=""height:400px;""></stim_listA>",,html-keyboard-response,341,1241153,0.0-19.0-1.4,34877,List2A,white,man,,,,null,,,,
null,is shouting at,,html-keyboard-response,342,1243154,0.0-19.0-2.4,34877,List2A,white,man,,,,null,,,,
6745,,,survey-text,343,1249900,0.0-19.0-3.4,34877,List2A,white,man,,,,,"{""Q0"":""beth is shouting at ruth""}","<img src=""stim_listA/shout7.gif""style=""height:400px;""></stim_listA>",is shouting at,
null,"<div style=""font-size:60px;"">+</div>",,html-keyboard-response,344,1250401,0.0-19.0-0.5,34877,List2A,white,man,,,,null,,,,
null,"<img src=""stim_listA/argue7.gif""style=""height:400px;""></stim_listA>",,html-keyboard-response,345,1252403,0.0-19.0-1.5,34877,List2A,white,man,,,,null,,,,
null,is arguing with,,html-keyboard-response,346,1254405,0.0-19.0-2.5,34877,List2A,white,man,,,,null,,,,
5958,,,survey-text,347,1260365,0.0-19.0-3.5,34877,List2A,white,man,,,,,"{""Q0"":""jane is arguing with beth""}","<img src=""stim_listA/argue7.gif""style=""height:400px;""></stim_listA>",is arguing with,
null,"<div style=""font-size:60px;"">+</div>",,html-keyboard-response,348,1260866,0.0-19.0-0.6,34877,List2A,white,man,,,,null,,,,
null,"<img src=""stim_listA/talk6.gif""style=""height:400px;""></stim_listA>",,html-keyboard-response,349,1262872,0.0-19.0-1.6,34877,List2A,white,man,,,,null,,,,
null,are talking to each other,,html-keyboard-response,350,1264873,0.0-19.0-2.6,34877,List2A,white,man,,,,null,,,,
5312,,,survey-text,351,1270185,0.0-19.0-3.6,34877,List2A,white,man,,,,,"{""Q0"":""fred is talking to dave""}","<img src=""stim_listA/talk6.gif""style=""height:400px;""></stim_listA>",are talking to each other,
null,"<div style=""font-size:60px;"">+</div>",,html-keyboard-response,352,1270692,0.0-19.0-0.7,34877,List2A,white,man,,,,null,,,,
null,"<img src=""stim_listA/flirt2.gif""style=""height:400px;""></stim_listA>",,html-keyboard-response,353,1272694,0.0-19.0-1.7,34877,List2A,white,man,,,,null,,,,
null,are flirting with each other,,html-keyboard-response,354,1274697,0.0-19.0-2.7,34877,List2A,white,man,,,,null,,,,
8229,,,survey-text,355,1282927,0.0-19.0-3.7,34877,List2A,white,man,,,,,"{""Q0"":""ruth is flirting with dave""}","<img src=""stim_listA/flirt2.gif""style=""height:400px;""></stim_listA>",are flirting with each other,
null,"<div style=""font-size:60px;"">+</div>",,html-keyboard-response,356,1283431,0.0-19.0-0.8,34877,List2A,white,man,,,,null,,,,
null,"<img src=""stim_listA/kiss5.gif""style=""height:400px;""></stim_listA>",,html-keyboard-response,357,1285433,0.0-19.0-1.8,34877,List2A,white,man,,,,null,,,,
null,is kissing,,html-keyboard-response,358,1287434,0.0-19.0-2.8,34877,List2A,white,man,,,,null,,,,
4877,,,survey-text,359,1292313,0.0-19.0-3.8,34877,List2A,white,man,,,,,"{""Q0"":""luke is kissing fred""}","<img src=""stim_listA/kiss5.gif""style=""height:400px;""></stim_listA>",is kissing,
null,"<div style=""font-size:60px;"">+</div>",,html-keyboard-response,360,1292817,0.0-19.0-0.9,34877,List2A,white,man,,,,null,,,,
null,"<img src=""stim_listA/talk8.gif""style=""height:400px;""></stim_listA>",,html-keyboard-response,361,1294821,0.0-19.0-1.9,34877,List2A,white,man,,,,null,,,,
null,are talking to each other,,html-keyboard-response,362,1296822,0.0-19.0-2.9,34877,List2A,white,man,,,,null,,,,
5574,,,survey-text,363,1302398,0.0-19.0-3.9,34877,List2A,white,man,,,,,"{""Q0"":""beth is talking to jane""}","<img src=""stim_listA/talk8.gif""style=""height:400px;""></stim_listA>",are talking to each other,
null,"<div style=""font-size:60px;"">+</div>",,html-keyboard-response,364,1302900,0.0-19.0-0.10,34877,List2A,white,man,,,,null,,,,
null,"<img src=""stim_listA/dance2.gif""style=""height:400px;""></stim_listA>",,html-keyboard-response,365,1304906,0.0-19.0-1.10,34877,List2A,white,man,,,,null,,,,
null,are dancing with each other,,html-keyboard-response,366,1306908,0.0-19.0-2.10,34877,List2A,white,man,,,,null,,,,
5559,,,survey-text,367,1312468,0.0-19.0-3.10,34877,List2A,white,man,,,,,"{""Q0"":""ruth is dancing with dave""}","<img src=""stim_listA/dance2.gif""style=""height:400px;""></stim_listA>",are dancing with each other,
null,"<div style=""font-size:60px;"">+</div>",,html-keyboard-response,368,1312972,0.0-19.0-0.11,34877,List2A,white,man,,,,null,,,,
null,"<img src=""stim_listA/talk5.gif""style=""height:400px;""></stim_listA>",,html-keyboard-response,369,1314979,0.0-19.0-1.11,34877,List2A,white,man,,,,null,,,,
null,is talking to,,html-keyboard-response,370,1316982,0.0-19.0-2.11,34877,List2A,white,man,,,,null,,,,
7863,,,survey-text,371,1324847,0.0-19.0-3.11,34877,List2A,white,man,,,,,"{""Q0"":""luke is talking to mike""}","<img src=""stim_listA/talk5.gif""style=""height:400px;""></stim_listA>",is talking to,
null,"<div style=""font-size:60px;"">+</div>",,html-keyboard-response,372,1325351,0.0-19.0-0.12,34877,List2A,white,man,,,,null,,,,
null,"<img src=""stim_listA/argue3.gif""style=""height:400px;""></stim_listA>",,html-keyboard-response,373,1327355,0.0-19.0-1.12,34877,List2A,white,man,,,,null,,,,
null,is arguing with,,html-keyboard-response,374,1329357,0.0-19.0-2.12,34877,List2A,white,man,,,,null,,,,
6917,,,survey-text,375,1336275,0.0-19.0-3.12,34877,List2A,white,man,,,,,"{""Q0"":""mike is arguing with beth""}","<img src=""stim_listA/argue3.gif""style=""height:400px;""></stim_listA>",is arguing with,
null,"<div style=""font-size:60px;"">+</div>",,html-keyboard-response,376,1336781,0.0-19.0-0.13,34877,List2A,white,man,,,,null,,,,
null,"<img src=""stim_listA/argue4.gif""style=""height:400px;""></stim_listA>",,html-keyboard-response,377,1338785,0.0-19.0-1.13,34877,List2A,white,man,,,,null,,,,
null,are arguing with each other,,html-keyboard-response,378,1340788,0.0-19.0-2.13,34877,List2A,white,man,,,,null,,,,
5358,,,survey-text,379,1346147,0.0-19.0-3.13,34877,List2A,white,man,,,,,"{""Q0"":""kate is arguing with fred""}","<img src=""stim_listA/argue4.gif""style=""height:400px;""></stim_listA>",are arguing with each other,
null,"<div style=""font-size:60px;"">+</div>",,html-keyboard-response,380,1346649,0.0-19.0-0.14,34877,List2A,white,man,,,,null,,,,
null,"<img src=""stim_listA/argue1.gif""style=""height:400px;""></stim_listA>",,html-keyboard-response,381,1348654,0.0-19.0-1.14,34877,List2A,white,man,,,,null,,,,
null,is arguing with,,html-keyboard-response,382,1350655,0.0-19.0-2.14,34877,List2A,white,man,,,,null,,,,
5752,,,survey-text,383,1356407,0.0-19.0-3.14,34877,List2A,white,man,,,,,"{""Q0"":""dave is arguing with ruth""}","<img src=""stim_listA/argue1.gif""style=""height:400px;""></stim_listA>",is arguing with,
null,"<div style=""font-size:60px;"">+</div>",,html-keyboard-response,384,1356911,0.0-19.0-0.15,34877,List2A,white,man,,,,null,,,,
null,"<img src=""stim_listA/touch5.gif""style=""height:400px;""></stim_listA>",,html-keyboard-response,385,1358915,0.0-19.0-1.15,34877,List2A,white,man,,,,null,,,,
null,is touching,,html-keyboard-response,386,1360918,0.0-19.0-2.15,34877,List2A,white,man,,,,null,,,,
6654,,,survey-text,387,1367573,0.0-19.0-3.15,34877,List2A,white,man,,,,,"{""Q0"":""dave is touching mike""}","<img src=""stim_listA/touch5.gif""style=""height:400px;""></stim_listA>",is touching,
null,"<div style=""font-size:60px;"">+</div>",,html-keyboard-response,388,1368075,0.0-19.0-0.16,34877,List2A,white,man,,,,null,,,,
null,"<img src=""stim_listA/flirt6.gif""style=""height:400px;""></stim_listA>",,html-keyboard-response,389,1370077,0.0-19.0-1.16,34877,List2A,white,man,,,,null,,,,
null,are flirting with each other,,html-keyboard-response,390,1372078,0.0-19.0-2.16,34877,List2A,white,man,,,,null,,,,
6230,,,survey-text,391,1378309,0.0-19.0-3.16,34877,List2A,white,man,,,,,"{""Q0"":""fred is flirting with dave""}","<img src=""stim_listA/flirt6.gif""style=""height:400px;""></stim_listA>",are flirting with each other,
null,"<div style=""font-size:60px;"">+</div>",,html-keyboard-response,392,1378816,0.0-19.0-0.17,34877,List2A,white,man,,,,null,,,,
null,"<img src=""stim_listA/touch4.gif""style=""height:400px;""></stim_listA>",,html-keyboard-response,393,1380819,0.0-19.0-1.17,34877,List2A,white,man,,,,null,,,,
null,are touching each other,,html-keyboard-response,394,1382821,0.0-19.0-2.17,34877,List2A,white,man,,,,null,,,,
5453,,,survey-text,395,1388274,0.0-19.0-3.17,34877,List2A,white,man,,,,,"{""Q0"":""beth is touching fred""}","<img src=""stim_listA/touch4.gif""style=""height:400px;""></stim_listA>",are touching each other,
null,"<div style=""font-size:60px;"">+</div>",,html-keyboard-response,396,1388780,0.0-19.0-0.18,34877,List2A,white,man,,,,null,,,,
null,"<img src=""stim_listA/touch7.gif""style=""height:400px;""></stim_listA>",,html-keyboard-response,397,1390784,0.0-19.0-1.18,34877,List2A,white,man,,,,null,,,,
null,is touching,,html-keyboard-response,398,1392789,0.0-19.0-2.18,34877,List2A,white,man,,,,null,,,,
5007,,,survey-text,399,1397798,0.0-19.0-3.18,34877,List2A,white,man,,,,,"{""Q0"":""jane is touching kate""}","<img src=""stim_listA/touch7.gif""style=""height:400px;""></stim_listA>",is touching,
null,"<div style=""font-size:60px;"">+</div>",,html-keyboard-response,400,1398301,0.0-19.0-0.19,34877,List2A,white,man,,,,null,,,,
null,"<img src=""stim_listA/kiss6.gif""style=""height:400px;""></stim_listA>",,html-keyboard-response,401,1400305,0.0-19.0-1.19,34877,List2A,white,man,,,,null,,,,
null,are kissing each other,,html-keyboard-response,402,1402305,0.0-19.0-2.19,34877,List2A,white,man,,,,null,,,,
4677,,,survey-text,403,1406983,0.0-19.0-3.19,34877,List2A,white,man,,,,,"{""Q0"":""mike is kissing dave""}","<img src=""stim_listA/kiss6.gif""style=""height:400px;""></stim_listA>",are kissing each other,
2811,<p>Thank you for completing that task.</p><p>The final part of this session is a short questionnaire.</p><p>Press Continue.</p>,0,html-button-response,404,1409796,0.0-20.0,34877,List2A,white,man,,,,,,,,
17032,,,survey-text,405,1427835,0.0-21.0,34877,List2A,white,man,,,,,"{""Q0"":""38"",""Q1"":""English"",""Q2"":""English"",""Q3"":""UK"",""Q4"":""White"",""Q5"":""male""}",,,demographics
10672,,,survey-likert,406,1438509,0.0-22.0,34877,List2A,white,man,,,,,"{""Q0"":3}",,,likert_ESS
7010,,,survey-likert,407,1445521,0.0-23.0,34877,List2A,white,man,,,,,"{""Q0"":3}",,,likert_NSSAL_Q1
3538,,,survey-likert,408,1449062,0.0-24.0,34877,List2A,white,man,,,,,"{""Q0"":3}",,,likert_NSSAL_Q2
5756,,,survey-likert,409,1454819,0.0-25.0,34877,List2A,white,man,,,,,"{""Q0"":4}",,,likert_CGRS_Q1
4425,,,survey-likert,410,1459246,0.0-26.0,34877,List2A,white,man,,,,,"{""Q0"":3}",,,likert_CGRS_Q2
2795,,,survey-likert,411,1462043,0.0-27.0,34877,List2A,white,man,,,,,"{""Q0"":3}",,,likert_CGRS_Q3
11724,,,survey-text,412,1473768,0.0-28.0,34877,List2A,white,man,,,,,"{""Q0"":""ccc""}",,,worker_id
8868,,,external-html,413,1482701,0.0-29.0,34877,List2A,white,man,debrief.html,,,,,,,
