rt,stimulus,button_pressed,trial_type,trial_index,time_elapsed,internal_node_id,subject,list,ppt_race,ppt_gender,url,first_guess,correct,key_press,responses,image_type,phrase_type,test_part
4404,Welcome to the experiment. Press Continue to begin.,0,html-button-response,0,4407,0.0-0.0,35204,List1B,black,woman,,,,,,,,
10132,,,external-html,1,15982,0.0-1.0,35204,List1B,black,woman,consent.html,,,,,,,
7386,"<p>On the next page, you will see portraits of 8 people and their names.</p><p>Your first task is to take a few minutes to memorise the names of these people.</p><p>You will have to recall their names during the rest of the experiment, so it is</p><p>essential that you try to memorise these people and their names as best as you can.</p><br><p><strong>You will then be tested on your memory of these names and portraits.</strong></p><br><p>The experiment will start after you have completed this memory test.</p><br><p>Ready?</p>",0,html-button-response,2,23369,0.0-2.0,35204,List1B,black,woman,,,,,,,,
36666,"<img src='img/portrait_matrix_list1.jpg' style='width:900px;height:500px;''></img><p>If you have memorised all the portraits and names and are ready to start, press Continue.</p><p><strong>Please note: Your memory of these faces will be tested 4 times during this experiment.</strong></p>",0,html-button-response,3,61049,0.0-3.0-0.0,35204,List1B,black,woman,,,,,,,,
5392,"<img src=""portrait/WW2.jpg""style=""height:400px;""></img>",1,html-button-response,4,67445,0.0-3.0-1.0,35204,List1B,black,woman,,TRUE,3,,,,,
3119,"<img src=""portrait/WW2.jpg""style=""height:400px;""></img>",3,html-button-response,5,71573,0.0-3.0-3.0-0.0,35204,List1B,black,woman,,FALSE,3,,,,,
null,CORRECT,,html-keyboard-response,6,73111,0.0-3.0-3.0-1.0-0.0,35204,List1B,black,woman,,,,null,,,,
5599,"<img src=""portrait/WW1.jpg""style=""height:400px;""></img>",1,html-button-response,7,78719,0.0-3.0-4.0,35204,List1B,black,woman,,TRUE,1,,,,,
null,CORRECT,,html-keyboard-response,8,80240,0.0-3.0-5.0-0.0,35204,List1B,black,woman,,,,null,,,,
1950,"<img src=""portrait/BW1.jpg""style=""height:400px;""></img>",0,html-button-response,9,82193,0.0-3.0-7.0,35204,List1B,black,woman,,TRUE,0,,,,,
null,CORRECT,,html-keyboard-response,10,83710,0.0-3.0-8.0-0.0,35204,List1B,black,woman,,,,null,,,,
6192,"<img src=""portrait/BW2.jpg""style=""height:400px;""></img>",2,html-button-response,11,89905,0.0-3.0-10.0,35204,List1B,black,woman,,TRUE,2,,,,,
null,CORRECT,,html-keyboard-response,12,91410,0.0-3.0-11.0-0.0,35204,List1B,black,woman,,,,null,,,,
2320,"<img src=""portrait/BM2.jpg""style=""height:400px;""></img>",5,html-button-response,13,93733,0.0-3.0-13.0,35204,List1B,black,woman,,TRUE,5,,,,,
null,CORRECT,,html-keyboard-response,14,95259,0.0-3.0-14.0-0.0,35204,List1B,black,woman,,,,null,,,,
2023,"<img src=""portrait/BM1.jpg""style=""height:400px;""></img>",4,html-button-response,15,97285,0.0-3.0-16.0,35204,List1B,black,woman,,TRUE,4,,,,,
null,CORRECT,,html-keyboard-response,16,98809,0.0-3.0-17.0-0.0,35204,List1B,black,woman,,,,null,,,,
1469,"<img src=""portrait/WM2.jpg""style=""height:400px;""></img>",7,html-button-response,17,100281,0.0-3.0-19.0,35204,List1B,black,woman,,TRUE,7,,,,,
null,CORRECT,,html-keyboard-response,18,101819,0.0-3.0-20.0-0.0,35204,List1B,black,woman,,,,null,,,,
783,"<img src=""portrait/WM1.jpg""style=""height:400px;""></img>",6,html-button-response,19,102605,0.0-3.0-22.0,35204,List1B,black,woman,,TRUE,6,,,,,
null,CORRECT,,html-keyboard-response,20,104122,0.0-3.0-23.0-0.0,35204,List1B,black,woman,,,,null,,,,
1331,<p>You got 7 out of 8 right first time. Press Continue.</p>,0,html-button-response,21,105456,0.0-3.0-25.0,35204,List1B,black,woman,,,,,,,,
1938,"As you did not score 100%, the memory game will repeat. Press Continue.",0,html-button-response,22,108396,0.0-3.0-26.0-0.0,35204,List1B,black,woman,,,,,,,,
11598,"<img src='img/portrait_matrix_list1.jpg' style='width:900px;height:500px;''></img><p>If you have memorised all the portraits and names and are ready to start, press Continue.</p><p><strong>Please note: Your memory of these faces will be tested 4 times during this experiment.</strong></p>",0,html-button-response,23,121013,0.0-3.1-0.1,35204,List1B,black,woman,,,,,,,,
961,"<img src=""portrait/WW2.jpg""style=""height:400px;""></img>",3,html-button-response,24,122977,0.0-3.1-1.1,35204,List1B,black,woman,,TRUE,3,,,,,
null,CORRECT,,html-keyboard-response,25,124495,0.0-3.1-2.1-0.1,35204,List1B,black,woman,,,,null,,,,
2503,"<img src=""portrait/WW1.jpg""style=""height:400px;""></img>",1,html-button-response,26,127001,0.0-3.1-4.1,35204,List1B,black,woman,,TRUE,1,,,,,
null,CORRECT,,html-keyboard-response,27,128520,0.0-3.1-5.1-0.1,35204,List1B,black,woman,,,,null,,,,
1378,"<img src=""portrait/BW1.jpg""style=""height:400px;""></img>",0,html-button-response,28,129901,0.0-3.1-7.1,35204,List1B,black,woman,,TRUE,0,,,,,
null,CORRECT,,html-keyboard-response,29,131404,0.0-3.1-8.1-0.1,35204,List1B,black,woman,,,,null,,,,
1043,"<img src=""portrait/BW2.jpg""style=""height:400px;""></img>",2,html-button-response,30,132449,0.0-3.1-10.1,35204,List1B,black,woman,,TRUE,2,,,,,
null,CORRECT,,html-keyboard-response,31,133972,0.0-3.1-11.1-0.1,35204,List1B,black,woman,,,,null,,,,
1230,"<img src=""portrait/BM2.jpg""style=""height:400px;""></img>",5,html-button-response,32,135205,0.0-3.1-13.1,35204,List1B,black,woman,,TRUE,5,,,,,
null,CORRECT,,html-keyboard-response,33,136710,0.0-3.1-14.1-0.1,35204,List1B,black,woman,,,,null,,,,
728,"<img src=""portrait/BM1.jpg""style=""height:400px;""></img>",4,html-button-response,34,137441,0.0-3.1-16.1,35204,List1B,black,woman,,TRUE,4,,,,,
null,CORRECT,,html-keyboard-response,35,138980,0.0-3.1-17.1-0.1,35204,List1B,black,woman,,,,null,,,,
1006,"<img src=""portrait/WM2.jpg""style=""height:400px;""></img>",7,html-button-response,36,139989,0.0-3.1-19.1,35204,List1B,black,woman,,TRUE,7,,,,,
null,CORRECT,,html-keyboard-response,37,141500,0.0-3.1-20.1-0.1,35204,List1B,black,woman,,,,null,,,,
460,"<img src=""portrait/WM1.jpg""style=""height:400px;""></img>",6,html-button-response,38,141961,0.0-3.1-22.1,35204,List1B,black,woman,,TRUE,6,,,,,
null,CORRECT,,html-keyboard-response,39,143472,0.0-3.1-23.1-0.1,35204,List1B,black,woman,,,,null,,,,
1058,<p>You got 8 out of 8 right first time. Press Continue.</p>,0,html-button-response,40,144533,0.0-3.1-25.1,35204,List1B,black,woman,,,,,,,,
23892,"<p>In this experiment, you will view photographs of the people from the memory game interacting.</p><p>By using the <strong>exact</strong> phrase given <i>after</i> the photograph appears and recalling the correct names of the people in the photographs, form a sentence describing the interaction. You do not need to capitalise names.</p><p>Type your answer in the space provided. Please complete every sentence before moving onto the next trial.</p><p>You will only have a few seconds to memorise each given photograph and phrase before you can respond, so try your best to focus.</p><p>An example is given below. Press 'Continue' when you are ready.</p><img src='img/speaking_example.jpg' style='width:800px;height:460px;''></img>",0,html-button-response,41,169429,0.0-4.0,35204,List1B,black,woman,,,,,,,,
1905,"<p>Before the experiment starts, you will watch two example trials. Press 'Continue'.</p>",0,html-button-response,42,172336,0.0-5.0,35204,List1B,black,woman,,,,,,,,
null,<img src='img/meet_eg.gif' style='height:400px;''></img>,,html-keyboard-response,43,175350,0.0-6.0,35204,List1B,black,woman,,,,null,,,,
null,<p>is meeting</p>,,html-keyboard-response,44,177370,0.0-7.0,35204,List1B,black,woman,,,,null,,,,
4492,<p><b>Answer:</b> kate is meeting beth</p>,0,html-button-response,45,181864,0.0-8.0,35204,List1B,black,woman,,,,,,,,
null,<img src='img/look_eg.gif' style='height:400px;''></img>,,html-keyboard-response,46,184872,0.0-9.0,35204,List1B,black,woman,,,,null,,,,
null,<p>are looking at each other</p>,,html-keyboard-response,47,186879,0.0-10.0,35204,List1B,black,woman,,,,null,,,,
2862,<p><b>Answer:</b> luke and dave are looking at each other</p>,0,html-button-response,48,189744,0.0-11.0,35204,List1B,black,woman,,,,,,,,
5212,"<p>Ready to start the experiment?</p><br><p><strong>Remember to describe the picture using a full sentence,</strong></p><p><strong>that combines the names of the people with the <i>exact</i> phrase given.</strong></p><p><strong>To receive full payment you must do this correctly.</strong></p><p><strong> You do not need to capitalise names or use punctuation.</strong></p><br><p>Press 'Continue' to begin.</p>",0,html-button-response,49,195972,0.0-12.0,35204,List1B,black,woman,,,,,,,,
null,"<div style=""font-size:60px;"">+</div>",,html-keyboard-response,50,197479,0.0-13.0-0.0,35204,List1B,black,woman,,,,null,,,,
null,"<img src=""stim_listB/shout6.gif""style=""height:400px;""></stim_listB>",,html-keyboard-response,51,199483,0.0-13.0-1.0,35204,List1B,black,woman,,,,null,,,,
null,are shouting at each other,,html-keyboard-response,52,201486,0.0-13.0-2.0,35204,List1B,black,woman,,,,null,,,,
11368,,,survey-text,53,212856,0.0-13.0-3.0,35204,List1B,black,woman,,,,,"{""Q0"":""mike and dave are shouting at each other""}","<img src=""stim_listB/shout6.gif""style=""height:400px;""></stim_listB>",are shouting at each other,
null,"<div style=""font-size:60px;"">+</div>",,html-keyboard-response,54,213369,0.0-13.0-0.1,35204,List1B,black,woman,,,,null,,,,
null,"<img src=""stim_listB/touch1.gif""style=""height:400px;""></stim_listB>",,html-keyboard-response,55,215372,0.0-13.0-1.1,35204,List1B,black,woman,,,,null,,,,
null,is touching,,html-keyboard-response,56,217379,0.0-13.0-2.1,35204,List1B,black,woman,,,,null,,,,
7202,,,survey-text,57,224584,0.0-13.0-3.1,35204,List1B,black,woman,,,,,"{""Q0"":""kate is touching mike""}","<img src=""stim_listB/touch1.gif""style=""height:400px;""></stim_listB>",is touching,
null,"<div style=""font-size:60px;"">+</div>",,html-keyboard-response,58,225099,0.0-13.0-0.2,35204,List1B,black,woman,,,,null,,,,
null,"<img src=""stim_listB/shout7.gif""style=""height:400px;""></stim_listB>",,html-keyboard-response,59,227102,0.0-13.0-1.2,35204,List1B,black,woman,,,,null,,,,
null,is shouting at,,html-keyboard-response,60,229106,0.0-13.0-2.2,35204,List1B,black,woman,,,,null,,,,
7972,,,survey-text,61,237080,0.0-13.0-3.2,35204,List1B,black,woman,,,,,"{""Q0"":""ruth is shouting at beth""}","<img src=""stim_listB/shout7.gif""style=""height:400px;""></stim_listB>",is shouting at,
null,"<div style=""font-size:60px;"">+</div>",,html-keyboard-response,62,237599,0.0-13.0-0.3,35204,List1B,black,woman,,,,null,,,,
null,"<img src=""stim_listB/touch5.gif""style=""height:400px;""></stim_listB>",,html-keyboard-response,63,239605,0.0-13.0-1.3,35204,List1B,black,woman,,,,null,,,,
null,is touching,,html-keyboard-response,64,241607,0.0-13.0-2.3,35204,List1B,black,woman,,,,null,,,,
8580,,,survey-text,65,250188,0.0-13.0-3.3,35204,List1B,black,woman,,,,,"{""Q0"":""dave is touching mike""}","<img src=""stim_listB/touch5.gif""style=""height:400px;""></stim_listB>",is touching,
null,"<div style=""font-size:60px;"">+</div>",,html-keyboard-response,66,250690,0.0-13.0-0.4,35204,List1B,black,woman,,,,null,,,,
null,"<img src=""stim_listB/shout5.gif""style=""height:400px;""></stim_listB>",,html-keyboard-response,67,252699,0.0-13.0-1.4,35204,List1B,black,woman,,,,null,,,,
null,is shouting at,,html-keyboard-response,68,254709,0.0-13.0-2.4,35204,List1B,black,woman,,,,null,,,,
7557,,,survey-text,69,262268,0.0-13.0-3.4,35204,List1B,black,woman,,,,,"{""Q0"":""fred is shouting at luke""}","<img src=""stim_listB/shout5.gif""style=""height:400px;""></stim_listB>",is shouting at,
null,"<div style=""font-size:60px;"">+</div>",,html-keyboard-response,70,262789,0.0-13.0-0.5,35204,List1B,black,woman,,,,null,,,,
null,"<img src=""stim_listB/marry8.gif""style=""height:400px;""></stim_listB>",,html-keyboard-response,71,264799,0.0-13.0-1.5,35204,List1B,black,woman,,,,null,,,,
null,are marrying each other,,html-keyboard-response,72,266803,0.0-13.0-2.5,35204,List1B,black,woman,,,,null,,,,
15823,,,survey-text,73,282628,0.0-13.0-3.5,35204,List1B,black,woman,,,,,"{""Q0"":""jane and beth are marrying each other""}","<img src=""stim_listB/marry8.gif""style=""height:400px;""></stim_listB>",are marrying each other,
null,"<div style=""font-size:60px;"">+</div>",,html-keyboard-response,74,283130,0.0-13.0-0.6,35204,List1B,black,woman,,,,null,,,,
null,"<img src=""stim_listB/dance5.gif""style=""height:400px;""></stim_listB>",,html-keyboard-response,75,285133,0.0-13.0-1.6,35204,List1B,black,woman,,,,null,,,,
null,is dancing with,,html-keyboard-response,76,287150,0.0-13.0-2.6,35204,List1B,black,woman,,,,null,,,,
7000,,,survey-text,77,294152,0.0-13.0-3.6,35204,List1B,black,woman,,,,,"{""Q0"":""dave is dancing with fred""}","<img src=""stim_listB/dance5.gif""style=""height:400px;""></stim_listB>",is dancing with,
null,"<div style=""font-size:60px;"">+</div>",,html-keyboard-response,78,294659,0.0-13.0-0.7,35204,List1B,black,woman,,,,null,,,,
null,"<img src=""stim_listB/argue1.gif""style=""height:400px;""></stim_listB>",,html-keyboard-response,79,296663,0.0-13.0-1.7,35204,List1B,black,woman,,,,null,,,,
null,is arguing with,,html-keyboard-response,80,298669,0.0-13.0-2.7,35204,List1B,black,woman,,,,null,,,,
10214,,,survey-text,81,308886,0.0-13.0-3.7,35204,List1B,black,woman,,,,,"{""Q0"":""mike is arguing with beth""}","<img src=""stim_listB/argue1.gif""style=""height:400px;""></stim_listB>",is arguing with,
null,"<div style=""font-size:60px;"">+</div>",,html-keyboard-response,82,309387,0.0-13.0-0.8,35204,List1B,black,woman,,,,null,,,,
null,"<img src=""stim_listB/touch3.gif""style=""height:400px;""></stim_listB>",,html-keyboard-response,83,311398,0.0-13.0-1.8,35204,List1B,black,woman,,,,null,,,,
null,is touching,,html-keyboard-response,84,313417,0.0-13.0-2.8,35204,List1B,black,woman,,,,null,,,,
7067,,,survey-text,85,320486,0.0-13.0-3.8,35204,List1B,black,woman,,,,,"{""Q0"":""dave is touching jane""}","<img src=""stim_listB/touch3.gif""style=""height:400px;""></stim_listB>",is touching,
null,"<div style=""font-size:60px;"">+</div>",,html-keyboard-response,86,320987,0.0-13.0-0.9,35204,List1B,black,woman,,,,null,,,,
null,"<img src=""stim_listB/dance2.gif""style=""height:400px;""></stim_listB>",,html-keyboard-response,87,322991,0.0-13.0-1.9,35204,List1B,black,woman,,,,null,,,,
null,are dancing with each other,,html-keyboard-response,88,324993,0.0-13.0-2.9,35204,List1B,black,woman,,,,null,,,,
9495,,,survey-text,89,334490,0.0-13.0-3.9,35204,List1B,black,woman,,,,,"{""Q0"":""mike and beth are dancing with each other""}","<img src=""stim_listB/dance2.gif""style=""height:400px;""></stim_listB>",are dancing with each other,
null,"<div style=""font-size:60px;"">+</div>",,html-keyboard-response,90,335007,0.0-13.0-0.10,35204,List1B,black,woman,,,,null,,,,
null,"<img src=""stim_listB/play4.gif""style=""height:400px;""></stim_listB>",,html-keyboard-response,91,337011,0.0-13.0-1.10,35204,List1B,black,woman,,,,null,,,,
null,are playing with each other,,html-keyboard-response,92,339013,0.0-13.0-2.10,35204,List1B,black,woman,,,,null,,,,
11299,,,survey-text,93,350314,0.0-13.0-3.10,35204,List1B,black,woman,,,,,"{""Q0"":""ruth and luke are playing with each other""}","<img src=""stim_listB/play4.gif""style=""height:400px;""></stim_listB>",are playing with each other,
null,"<div style=""font-size:60px;"">+</div>",,html-keyboard-response,94,350817,0.0-13.0-0.11,35204,List1B,black,woman,,,,null,,,,
null,"<img src=""stim_listB/argue7.gif""style=""height:400px;""></stim_listB>",,html-keyboard-response,95,352821,0.0-13.0-1.11,35204,List1B,black,woman,,,,null,,,,
null,is arguing with,,html-keyboard-response,96,354823,0.0-13.0-2.11,35204,List1B,black,woman,,,,null,,,,
8004,,,survey-text,97,362828,0.0-13.0-3.11,35204,List1B,black,woman,,,,,"{""Q0"":""kate is arguing with ruth""}","<img src=""stim_listB/argue7.gif""style=""height:400px;""></stim_listB>",is arguing with,
null,"<div style=""font-size:60px;"">+</div>",,html-keyboard-response,98,363335,0.0-13.0-0.12,35204,List1B,black,woman,,,,null,,,,
null,"<img src=""stim_listB/flirt5.gif""style=""height:400px;""></stim_listB>",,html-keyboard-response,99,365338,0.0-13.0-1.12,35204,List1B,black,woman,,,,null,,,,
null,is flirting with,,html-keyboard-response,100,367343,0.0-13.0-2.12,35204,List1B,black,woman,,,,null,,,,
7020,,,survey-text,101,374364,0.0-13.0-3.12,35204,List1B,black,woman,,,,,"{""Q0"":""dave is flirting with fred""}","<img src=""stim_listB/flirt5.gif""style=""height:400px;""></stim_listB>",is flirting with,
null,"<div style=""font-size:60px;"">+</div>",,html-keyboard-response,102,374880,0.0-13.0-0.13,35204,List1B,black,woman,,,,null,,,,
null,"<img src=""stim_listB/argue2.gif""style=""height:400px;""></stim_listB>",,html-keyboard-response,103,376884,0.0-13.0-1.13,35204,List1B,black,woman,,,,null,,,,
null,are arguing with each other,,html-keyboard-response,104,378887,0.0-13.0-2.13,35204,List1B,black,woman,,,,null,,,,
12427,,,survey-text,105,391316,0.0-13.0-3.13,35204,List1B,black,woman,,,,,"{""Q0"":""fred and kate are arguing with each other""}","<img src=""stim_listB/argue2.gif""style=""height:400px;""></stim_listB>",are arguing with each other,
null,"<div style=""font-size:60px;"">+</div>",,html-keyboard-response,106,391825,0.0-13.0-0.14,35204,List1B,black,woman,,,,null,,,,
null,"<img src=""stim_listB/shout4.gif""style=""height:400px;""></stim_listB>",,html-keyboard-response,107,393835,0.0-13.0-1.14,35204,List1B,black,woman,,,,null,,,,
null,are shouting at each other,,html-keyboard-response,108,395841,0.0-13.0-2.14,35204,List1B,black,woman,,,,null,,,,
11206,,,survey-text,109,407048,0.0-13.0-3.14,35204,List1B,black,woman,,,,,"{""Q0"":""dave and jane are shouting at each other""}","<img src=""stim_listB/shout4.gif""style=""height:400px;""></stim_listB>",are shouting at each other,
null,"<div style=""font-size:60px;"">+</div>",,html-keyboard-response,110,407565,0.0-13.0-0.15,35204,List1B,black,woman,,,,null,,,,
null,"<img src=""stim_listB/touch2.gif""style=""height:400px;""></stim_listB>",,html-keyboard-response,111,409569,0.0-13.0-1.15,35204,List1B,black,woman,,,,null,,,,
null,are touching each other,,html-keyboard-response,112,411570,0.0-13.0-2.15,35204,List1B,black,woman,,,,null,,,,
9057,,,survey-text,113,420628,0.0-13.0-3.15,35204,List1B,black,woman,,,,,"{""Q0"":""fred and beth are touching each other""}","<img src=""stim_listB/touch2.gif""style=""height:400px;""></stim_listB>",are touching each other,
null,"<div style=""font-size:60px;"">+</div>",,html-keyboard-response,114,421136,0.0-13.0-0.16,35204,List1B,black,woman,,,,null,,,,
null,"<img src=""stim_listB/talk1.gif""style=""height:400px;""></stim_listB>",,html-keyboard-response,115,423144,0.0-13.0-1.16,35204,List1B,black,woman,,,,null,,,,
null,is talking to,,html-keyboard-response,116,425147,0.0-13.0-2.16,35204,List1B,black,woman,,,,null,,,,
6603,,,survey-text,117,431752,0.0-13.0-3.16,35204,List1B,black,woman,,,,,"{""Q0"":""kate is talking to fred""}","<img src=""stim_listB/talk1.gif""style=""height:400px;""></stim_listB>",is talking to,
null,"<div style=""font-size:60px;"">+</div>",,html-keyboard-response,118,432259,0.0-13.0-0.17,35204,List1B,black,woman,,,,null,,,,
null,"<img src=""stim_listB/shout8.gif""style=""height:400px;""></stim_listB>",,html-keyboard-response,119,434270,0.0-13.0-1.17,35204,List1B,black,woman,,,,null,,,,
null,are shouting at each other,,html-keyboard-response,120,436289,0.0-13.0-2.17,35204,List1B,black,woman,,,,null,,,,
8450,,,survey-text,121,444740,0.0-13.0-3.17,35204,List1B,black,woman,,,,,"{""Q0"":""kate and jane are shouting at each other""}","<img src=""stim_listB/shout8.gif""style=""height:400px;""></stim_listB>",are shouting at each other,
null,"<div style=""font-size:60px;"">+</div>",,html-keyboard-response,122,445259,0.0-13.0-0.18,35204,List1B,black,woman,,,,null,,,,
null,"<img src=""stim_listB/kiss8.gif""style=""height:400px;""></stim_listB>",,html-keyboard-response,123,447270,0.0-13.0-1.18,35204,List1B,black,woman,,,,null,,,,
null,are kissing each other,,html-keyboard-response,124,449289,0.0-13.0-2.18,35204,List1B,black,woman,,,,null,,,,
10737,,,survey-text,125,460028,0.0-13.0-3.18,35204,List1B,black,woman,,,,,"{""Q0"":""kate and jane are kissing each other""}","<img src=""stim_listB/kiss8.gif""style=""height:400px;""></stim_listB>",are kissing each other,
null,"<div style=""font-size:60px;"">+</div>",,html-keyboard-response,126,460529,0.0-13.0-0.19,35204,List1B,black,woman,,,,null,,,,
null,"<img src=""stim_listB/talk8.gif""style=""height:400px;""></stim_listB>",,html-keyboard-response,127,462540,0.0-13.0-1.19,35204,List1B,black,woman,,,,null,,,,
null,are talking to each other,,html-keyboard-response,128,464550,0.0-13.0-2.19,35204,List1B,black,woman,,,,null,,,,
11193,,,survey-text,129,475744,0.0-13.0-3.19,35204,List1B,black,woman,,,,,"{""Q0"":""kate and ruth are talking to each other""}","<img src=""stim_listB/talk8.gif""style=""height:400px;""></stim_listB>",are talking to each other,
8088,"<img src='img/portrait_matrix_list1.jpg' style='width:900px;height:500px;''></img><p>If you have memorised all the portraits and names and are ready to start, press Continue.</p><p><strong>Please note: Your memory of these faces will be tested 4 times during this experiment.</strong></p>",0,html-button-response,130,483834,0.0-14.0-0.0,35204,List1B,black,woman,,,,,,,,
2488,"<img src=""portrait/BW2.jpg""style=""height:400px;""></img>",2,html-button-response,131,487334,0.0-14.0-1.0,35204,List1B,black,woman,,TRUE,2,,,,,
null,CORRECT,,html-keyboard-response,132,488863,0.0-14.0-2.0-0.0,35204,List1B,black,woman,,,,null,,,,
1460,"<img src=""portrait/BM1.jpg""style=""height:400px;""></img>",4,html-button-response,133,490326,0.0-14.0-4.0,35204,List1B,black,woman,,TRUE,4,,,,,
null,CORRECT,,html-keyboard-response,134,491843,0.0-14.0-5.0-0.0,35204,List1B,black,woman,,,,null,,,,
1580,"<img src=""portrait/WM1.jpg""style=""height:400px;""></img>",6,html-button-response,135,493426,0.0-14.0-7.0,35204,List1B,black,woman,,TRUE,6,,,,,
null,CORRECT,,html-keyboard-response,136,494945,0.0-14.0-8.0-0.0,35204,List1B,black,woman,,,,null,,,,
1870,"<img src=""portrait/BW1.jpg""style=""height:400px;""></img>",0,html-button-response,137,496818,0.0-14.0-10.0,35204,List1B,black,woman,,TRUE,0,,,,,
null,CORRECT,,html-keyboard-response,138,498353,0.0-14.0-11.0-0.0,35204,List1B,black,woman,,,,null,,,,
1098,"<img src=""portrait/WW1.jpg""style=""height:400px;""></img>",1,html-button-response,139,499454,0.0-14.0-13.0,35204,List1B,black,woman,,TRUE,1,,,,,
null,CORRECT,,html-keyboard-response,140,500975,0.0-14.0-14.0-0.0,35204,List1B,black,woman,,,,null,,,,
1516,"<img src=""portrait/WW2.jpg""style=""height:400px;""></img>",3,html-button-response,141,502494,0.0-14.0-16.0,35204,List1B,black,woman,,TRUE,3,,,,,
null,CORRECT,,html-keyboard-response,142,504023,0.0-14.0-17.0-0.0,35204,List1B,black,woman,,,,null,,,,
1584,"<img src=""portrait/WM2.jpg""style=""height:400px;""></img>",7,html-button-response,143,505610,0.0-14.0-19.0,35204,List1B,black,woman,,TRUE,7,,,,,
null,CORRECT,,html-keyboard-response,144,507116,0.0-14.0-20.0-0.0,35204,List1B,black,woman,,,,null,,,,
1160,"<img src=""portrait/BM2.jpg""style=""height:400px;""></img>",5,html-button-response,145,508278,0.0-14.0-22.0,35204,List1B,black,woman,,TRUE,5,,,,,
null,CORRECT,,html-keyboard-response,146,509803,0.0-14.0-23.0-0.0,35204,List1B,black,woman,,,,null,,,,
5036,<p>You got 8 out of 8 right first time. Press Continue.</p>,0,html-button-response,147,514842,0.0-14.0-25.0,35204,List1B,black,woman,,,,,,,,
null,"<div style=""font-size:60px;"">+</div>",,html-keyboard-response,148,516368,0.0-15.0-0.0,35204,List1B,black,woman,,,,null,,,,
null,"<img src=""stim_listB/flirt3.gif""style=""height:400px;""></stim_listB>",,html-keyboard-response,149,518384,0.0-15.0-1.0,35204,List1B,black,woman,,,,null,,,,
null,is flirting with,,html-keyboard-response,150,520403,0.0-15.0-2.0,35204,List1B,black,woman,,,,null,,,,
16118,,,survey-text,151,536524,0.0-15.0-3.0,35204,List1B,black,woman,,,,,"{""Q0"":""luke is flirting with jane""}","<img src=""stim_listB/flirt3.gif""style=""height:400px;""></stim_listB>",is flirting with,
null,"<div style=""font-size:60px;"">+</div>",,html-keyboard-response,152,537027,0.0-15.0-0.1,35204,List1B,black,woman,,,,null,,,,
null,"<img src=""stim_listB/touch8.gif""style=""height:400px;""></stim_listB>",,html-keyboard-response,153,539029,0.0-15.0-1.1,35204,List1B,black,woman,,,,null,,,,
null,are touching each other,,html-keyboard-response,154,541032,0.0-15.0-2.1,35204,List1B,black,woman,,,,null,,,,
18142,,,survey-text,155,559176,0.0-15.0-3.1,35204,List1B,black,woman,,,,,"{""Q0"":""beth and ruth are touching each other""}","<img src=""stim_listB/touch8.gif""style=""height:400px;""></stim_listB>",are touching each other,
null,"<div style=""font-size:60px;"">+</div>",,html-keyboard-response,156,559684,0.0-15.0-0.2,35204,List1B,black,woman,,,,null,,,,
null,"<img src=""stim_listB/dance4.gif""style=""height:400px;""></stim_listB>",,html-keyboard-response,157,561688,0.0-15.0-1.2,35204,List1B,black,woman,,,,null,,,,
null,are dancing with each other,,html-keyboard-response,158,563695,0.0-15.0-2.2,35204,List1B,black,woman,,,,null,,,,
10369,,,survey-text,159,574066,0.0-15.0-3.2,35204,List1B,black,woman,,,,,"{""Q0"":""ruth and dave are dancing with each other""}","<img src=""stim_listB/dance4.gif""style=""height:400px;""></stim_listB>",are dancing with each other,
null,"<div style=""font-size:60px;"">+</div>",,html-keyboard-response,160,574575,0.0-15.0-0.3,35204,List1B,black,woman,,,,null,,,,
null,"<img src=""stim_listB/flirt6.gif""style=""height:400px;""></stim_listB>",,html-keyboard-response,161,576585,0.0-15.0-1.3,35204,List1B,black,woman,,,,null,,,,
null,are flirting with each other,,html-keyboard-response,162,578605,0.0-15.0-2.3,35204,List1B,black,woman,,,,null,,,,
12917,,,survey-text,163,591524,0.0-15.0-3.3,35204,List1B,black,woman,,,,,"{""Q0"":""luke and mike are flirting with each other""}","<img src=""stim_listB/flirt6.gif""style=""height:400px;""></stim_listB>",are flirting with each other,
null,"<div style=""font-size:60px;"">+</div>",,html-keyboard-response,164,592026,0.0-15.0-0.4,35204,List1B,black,woman,,,,null,,,,
null,"<img src=""stim_listB/flirt1.gif""style=""height:400px;""></stim_listB>",,html-keyboard-response,165,594035,0.0-15.0-1.4,35204,List1B,black,woman,,,,null,,,,
null,is flirting with,,html-keyboard-response,166,596050,0.0-15.0-2.4,35204,List1B,black,woman,,,,null,,,,
8186,,,survey-text,167,604237,0.0-15.0-3.4,35204,List1B,black,woman,,,,,"{""Q0"":""kate is flirting with fred""}","<img src=""stim_listB/flirt1.gif""style=""height:400px;""></stim_listB>",is flirting with,
null,"<div style=""font-size:60px;"">+</div>",,html-keyboard-response,168,604748,0.0-15.0-0.5,35204,List1B,black,woman,,,,null,,,,
null,"<img src=""stim_listB/dance8.gif""style=""height:400px;""></stim_listB>",,html-keyboard-response,169,606758,0.0-15.0-1.5,35204,List1B,black,woman,,,,null,,,,
null,are dancing with each other,,html-keyboard-response,170,608773,0.0-15.0-2.5,35204,List1B,black,woman,,,,null,,,,
15973,,,survey-text,171,624747,0.0-15.0-3.5,35204,List1B,black,woman,,,,,"{""Q0"":""ruth and kate are dancing with each other""}","<img src=""stim_listB/dance8.gif""style=""height:400px;""></stim_listB>",are dancing with each other,
null,"<div style=""font-size:60px;"">+</div>",,html-keyboard-response,172,625257,0.0-15.0-0.6,35204,List1B,black,woman,,,,null,,,,
null,"<img src=""stim_listB/marry1.gif""style=""height:400px;""></stim_listB>",,html-keyboard-response,173,627268,0.0-15.0-1.6,35204,List1B,black,woman,,,,null,,,,
null,is marrying,,html-keyboard-response,174,629278,0.0-15.0-2.6,35204,List1B,black,woman,,,,null,,,,
6321,,,survey-text,175,635601,0.0-15.0-3.6,35204,List1B,black,woman,,,,,"{""Q0"":""mike is marrying beth""}","<img src=""stim_listB/marry1.gif""style=""height:400px;""></stim_listB>",is marrying,
null,"<div style=""font-size:60px;"">+</div>",,html-keyboard-response,176,636118,0.0-15.0-0.7,35204,List1B,black,woman,,,,null,,,,
null,"<img src=""stim_listB/talk4.gif""style=""height:400px;""></stim_listB>",,html-keyboard-response,177,638138,0.0-15.0-1.7,35204,List1B,black,woman,,,,null,,,,
null,are talking to each other,,html-keyboard-response,178,640153,0.0-15.0-2.7,35204,List1B,black,woman,,,,null,,,,
9510,,,survey-text,179,649665,0.0-15.0-3.7,35204,List1B,black,woman,,,,,"{""Q0"":""dave and ruth are talking to each other""}","<img src=""stim_listB/talk4.gif""style=""height:400px;""></stim_listB>",are talking to each other,
null,"<div style=""font-size:60px;"">+</div>",,html-keyboard-response,180,650167,0.0-15.0-0.8,35204,List1B,black,woman,,,,null,,,,
null,"<img src=""stim_listB/touch4.gif""style=""height:400px;""></stim_listB>",,html-keyboard-response,181,652178,0.0-15.0-1.8,35204,List1B,black,woman,,,,null,,,,
null,are touching each other,,html-keyboard-response,182,654198,0.0-15.0-2.8,35204,List1B,black,woman,,,,null,,,,
9410,,,survey-text,183,663609,0.0-15.0-3.8,35204,List1B,black,woman,,,,,"{""Q0"":""ruth and luke are touching each other""}","<img src=""stim_listB/touch4.gif""style=""height:400px;""></stim_listB>",are touching each other,
null,"<div style=""font-size:60px;"">+</div>",,html-keyboard-response,184,664119,0.0-15.0-0.9,35204,List1B,black,woman,,,,null,,,,
null,"<img src=""stim_listB/dance6.gif""style=""height:400px;""></stim_listB>",,html-keyboard-response,185,666122,0.0-15.0-1.9,35204,List1B,black,woman,,,,null,,,,
null,are dancing with each other,,html-keyboard-response,186,668124,0.0-15.0-2.9,35204,List1B,black,woman,,,,null,,,,
13645,,,survey-text,187,681771,0.0-15.0-3.9,35204,List1B,black,woman,,,,,"{""Q0"":""luke and mike are dancing with each other""}","<img src=""stim_listB/dance6.gif""style=""height:400px;""></stim_listB>",are dancing with each other,
null,"<div style=""font-size:60px;"">+</div>",,html-keyboard-response,188,682279,0.0-15.0-0.10,35204,List1B,black,woman,,,,null,,,,
null,"<img src=""stim_listB/dance7.gif""style=""height:400px;""></stim_listB>",,html-keyboard-response,189,684282,0.0-15.0-1.10,35204,List1B,black,woman,,,,null,,,,
null,is dancing with,,html-keyboard-response,190,686289,0.0-15.0-2.10,35204,List1B,black,woman,,,,null,,,,
6888,,,survey-text,191,693179,0.0-15.0-3.10,35204,List1B,black,woman,,,,,"{""Q0"":""jane is dancing with beth""}","<img src=""stim_listB/dance7.gif""style=""height:400px;""></stim_listB>",is dancing with,
null,"<div style=""font-size:60px;"">+</div>",,html-keyboard-response,192,693699,0.0-15.0-0.11,35204,List1B,black,woman,,,,null,,,,
null,"<img src=""stim_listB/dance1.gif""style=""height:400px;""></stim_listB>",,html-keyboard-response,193,695719,0.0-15.0-1.11,35204,List1B,black,woman,,,,null,,,,
null,is dancing with,,html-keyboard-response,194,697739,0.0-15.0-2.11,35204,List1B,black,woman,,,,null,,,,
8280,,,survey-text,195,706020,0.0-15.0-3.11,35204,List1B,black,woman,,,,,"{""Q0"":""kate is dancing with fred""}","<img src=""stim_listB/dance1.gif""style=""height:400px;""></stim_listB>",is dancing with,
null,"<div style=""font-size:60px;"">+</div>",,html-keyboard-response,196,706538,0.0-15.0-0.12,35204,List1B,black,woman,,,,null,,,,
null,"<img src=""stim_listB/play5.gif""style=""height:400px;""></stim_listB>",,html-keyboard-response,197,708541,0.0-15.0-1.12,35204,List1B,black,woman,,,,null,,,,
null,is playing with,,html-keyboard-response,198,710554,0.0-15.0-2.12,35204,List1B,black,woman,,,,null,,,,
7774,,,survey-text,199,718330,0.0-15.0-3.12,35204,List1B,black,woman,,,,,"{""Q0"":""dave is playing with mike""}","<img src=""stim_listB/play5.gif""style=""height:400px;""></stim_listB>",is playing with,
null,"<div style=""font-size:60px;"">+</div>",,html-keyboard-response,200,718839,0.0-15.0-0.13,35204,List1B,black,woman,,,,null,,,,
null,"<img src=""stim_listB/kiss2.gif""style=""height:400px;""></stim_listB>",,html-keyboard-response,201,720859,0.0-15.0-1.13,35204,List1B,black,woman,,,,null,,,,
null,are kissing each other,,html-keyboard-response,202,722868,0.0-15.0-2.13,35204,List1B,black,woman,,,,null,,,,
9810,,,survey-text,203,732679,0.0-15.0-3.13,35204,List1B,black,woman,,,,,"{""Q0"":""mike and kate are kissing each other""}","<img src=""stim_listB/kiss2.gif""style=""height:400px;""></stim_listB>",are kissing each other,
null,"<div style=""font-size:60px;"">+</div>",,html-keyboard-response,204,733183,0.0-15.0-0.14,35204,List1B,black,woman,,,,null,,,,
null,"<img src=""stim_listB/kiss7.gif""style=""height:400px;""></stim_listB>",,html-keyboard-response,205,735208,0.0-15.0-1.14,35204,List1B,black,woman,,,,null,,,,
null,is kissing,,html-keyboard-response,206,737228,0.0-15.0-2.14,35204,List1B,black,woman,,,,null,,,,
5448,,,survey-text,207,742679,0.0-15.0-3.14,35204,List1B,black,woman,,,,,"{""Q0"":""beth is kissing ruth""}","<img src=""stim_listB/kiss7.gif""style=""height:400px;""></stim_listB>",is kissing,
null,"<div style=""font-size:60px;"">+</div>",,html-keyboard-response,208,743188,0.0-15.0-0.15,35204,List1B,black,woman,,,,null,,,,
null,"<img src=""stim_listB/talk7.gif""style=""height:400px;""></stim_listB>",,html-keyboard-response,209,745200,0.0-15.0-1.15,35204,List1B,black,woman,,,,null,,,,
null,is talking to,,html-keyboard-response,210,747202,0.0-15.0-2.15,35204,List1B,black,woman,,,,null,,,,
8626,,,survey-text,211,755830,0.0-15.0-3.15,35204,List1B,black,woman,,,,,"{""Q0"":""beth is talking to jane""}","<img src=""stim_listB/talk7.gif""style=""height:400px;""></stim_listB>",is talking to,
null,"<div style=""font-size:60px;"">+</div>",,html-keyboard-response,212,756348,0.0-15.0-0.16,35204,List1B,black,woman,,,,null,,,,
null,"<img src=""stim_listB/fight2.gif""style=""height:400px;""></stim_listB>",,html-keyboard-response,213,758351,0.0-15.0-1.16,35204,List1B,black,woman,,,,null,,,,
null,are fighting each other,,html-keyboard-response,214,760368,0.0-15.0-2.16,35204,List1B,black,woman,,,,null,,,,
16970,,,survey-text,215,777340,0.0-15.0-3.16,35204,List1B,black,woman,,,,,"{""Q0"":""beth and fred are fighting each other""}","<img src=""stim_listB/fight2.gif""style=""height:400px;""></stim_listB>",are fighting each other,
null,"<div style=""font-size:60px;"">+</div>",,html-keyboard-response,216,777848,0.0-15.0-0.17,35204,List1B,black,woman,,,,null,,,,
null,"<img src=""stim_listB/marry2.gif""style=""height:400px;""></stim_listB>",,html-keyboard-response,217,779860,0.0-15.0-1.17,35204,List1B,black,woman,,,,null,,,,
null,are marrying each other,,html-keyboard-response,218,781878,0.0-15.0-2.17,35204,List1B,black,woman,,,,null,,,,
10579,,,survey-text,219,792460,0.0-15.0-3.17,35204,List1B,black,woman,,,,,"{""Q0"":""kate and fred are marrying each other""}","<img src=""stim_listB/marry2.gif""style=""height:400px;""></stim_listB>",are marrying each other,
null,"<div style=""font-size:60px;"">+</div>",,html-keyboard-response,220,792961,0.0-15.0-0.18,35204,List1B,black,woman,,,,null,,,,
null,"<img src=""stim_listB/argue5.gif""style=""height:400px;""></stim_listB>",,html-keyboard-response,221,794966,0.0-15.0-1.18,35204,List1B,black,woman,,,,null,,,,
null,is arguing with,,html-keyboard-response,222,796978,0.0-15.0-2.18,35204,List1B,black,woman,,,,null,,,,
7679,,,survey-text,223,804659,0.0-15.0-3.18,35204,List1B,black,woman,,,,,"{""Q0"":""luke is arguing with mike""}","<img src=""stim_listB/argue5.gif""style=""height:400px;""></stim_listB>",is arguing with,
null,"<div style=""font-size:60px;"">+</div>",,html-keyboard-response,224,805166,0.0-15.0-0.19,35204,List1B,black,woman,,,,null,,,,
null,"<img src=""stim_listB/kiss3.gif""style=""height:400px;""></stim_listB>",,html-keyboard-response,225,807170,0.0-15.0-1.19,35204,List1B,black,woman,,,,null,,,,
null,is kissing,,html-keyboard-response,226,809173,0.0-15.0-2.19,35204,List1B,black,woman,,,,null,,,,
6024,,,survey-text,227,815200,0.0-15.0-3.19,35204,List1B,black,woman,,,,,"{""Q0"":""ruth is kissing luke""}","<img src=""stim_listB/kiss3.gif""style=""height:400px;""></stim_listB>",is kissing,
12718,"<img src='img/portrait_matrix_list1.jpg' style='width:900px;height:500px;''></img><p>If you have memorised all the portraits and names and are ready to start, press Continue.</p><p><strong>Please note: Your memory of these faces will be tested 4 times during this experiment.</strong></p>",0,html-button-response,228,827919,0.0-16.0-0.0,35204,List1B,black,woman,,,,,,,,
1216,"<img src=""portrait/WW1.jpg""style=""height:400px;""></img>",1,html-button-response,229,830140,0.0-16.0-1.0,35204,List1B,black,woman,,TRUE,1,,,,,
null,CORRECT,,html-keyboard-response,230,831658,0.0-16.0-2.0-0.0,35204,List1B,black,woman,,,,null,,,,
1283,"<img src=""portrait/BW1.jpg""style=""height:400px;""></img>",0,html-button-response,231,832943,0.0-16.0-4.0,35204,List1B,black,woman,,TRUE,0,,,,,
null,CORRECT,,html-keyboard-response,232,834458,0.0-16.0-5.0-0.0,35204,List1B,black,woman,,,,null,,,,
1423,"<img src=""portrait/WW2.jpg""style=""height:400px;""></img>",3,html-button-response,233,835883,0.0-16.0-7.0,35204,List1B,black,woman,,TRUE,3,,,,,
null,CORRECT,,html-keyboard-response,234,837418,0.0-16.0-8.0-0.0,35204,List1B,black,woman,,,,null,,,,
911,"<img src=""portrait/BW2.jpg""style=""height:400px;""></img>",2,html-button-response,235,838331,0.0-16.0-10.0,35204,List1B,black,woman,,TRUE,2,,,,,
null,CORRECT,,html-keyboard-response,236,839834,0.0-16.0-11.0-0.0,35204,List1B,black,woman,,,,null,,,,
951,"<img src=""portrait/BM1.jpg""style=""height:400px;""></img>",4,html-button-response,237,840787,0.0-16.0-13.0,35204,List1B,black,woman,,TRUE,4,,,,,
null,CORRECT,,html-keyboard-response,238,842309,0.0-16.0-14.0-0.0,35204,List1B,black,woman,,,,null,,,,
1013,"<img src=""portrait/WM1.jpg""style=""height:400px;""></img>",6,html-button-response,239,843323,0.0-16.0-16.0,35204,List1B,black,woman,,TRUE,6,,,,,
null,CORRECT,,html-keyboard-response,240,844849,0.0-16.0-17.0-0.0,35204,List1B,black,woman,,,,null,,,,
1020,"<img src=""portrait/WM2.jpg""style=""height:400px;""></img>",7,html-button-response,241,845872,0.0-16.0-19.0,35204,List1B,black,woman,,TRUE,7,,,,,
null,CORRECT,,html-keyboard-response,242,847392,0.0-16.0-20.0-0.0,35204,List1B,black,woman,,,,null,,,,
825,"<img src=""portrait/BM2.jpg""style=""height:400px;""></img>",5,html-button-response,243,848220,0.0-16.0-22.0,35204,List1B,black,woman,,TRUE,5,,,,,
null,CORRECT,,html-keyboard-response,244,849757,0.0-16.0-23.0-0.0,35204,List1B,black,woman,,,,null,,,,
1024,<p>You got 8 out of 8 right first time. Press Continue.</p>,0,html-button-response,245,850784,0.0-16.0-25.0,35204,List1B,black,woman,,,,,,,,
null,"<div style=""font-size:60px;"">+</div>",,html-keyboard-response,246,852300,0.0-17.0-0.0,35204,List1B,black,woman,,,,null,,,,
null,"<img src=""stim_listB/fight3.gif""style=""height:400px;""></stim_listB>",,html-keyboard-response,247,854304,0.0-17.0-1.0,35204,List1B,black,woman,,,,null,,,,
null,is fighting,,html-keyboard-response,248,856309,0.0-17.0-2.0,35204,List1B,black,woman,,,,null,,,,
8060,,,survey-text,249,864370,0.0-17.0-3.0,35204,List1B,black,woman,,,,,"{""Q0"":""jane is fighting dave""}","<img src=""stim_listB/fight3.gif""style=""height:400px;""></stim_listB>",is fighting,
null,"<div style=""font-size:60px;"">+</div>",,html-keyboard-response,250,864889,0.0-17.0-0.1,35204,List1B,black,woman,,,,null,,,,
null,"<img src=""stim_listB/argue8.gif""style=""height:400px;""></stim_listB>",,html-keyboard-response,251,866893,0.0-17.0-1.1,35204,List1B,black,woman,,,,null,,,,
null,are arguing with each other,,html-keyboard-response,252,868895,0.0-17.0-2.1,35204,List1B,black,woman,,,,null,,,,
11803,,,survey-text,253,880700,0.0-17.0-3.1,35204,List1B,black,woman,,,,,"{""Q0"":""jane and beth are arguing with each other""}","<img src=""stim_listB/argue8.gif""style=""height:400px;""></stim_listB>",are arguing with each other,
null,"<div style=""font-size:60px;"">+</div>",,html-keyboard-response,254,881210,0.0-17.0-0.2,35204,List1B,black,woman,,,,null,,,,
null,"<img src=""stim_listB/marry4.gif""style=""height:400px;""></stim_listB>",,html-keyboard-response,255,883220,0.0-17.0-1.2,35204,List1B,black,woman,,,,null,,,,
null,are marrying each other,,html-keyboard-response,256,885239,0.0-17.0-2.2,35204,List1B,black,woman,,,,null,,,,
9981,,,survey-text,257,895220,0.0-17.0-3.2,35204,List1B,black,woman,,,,,"{""Q0"":""jane and luke are marrying each other""}","<img src=""stim_listB/marry4.gif""style=""height:400px;""></stim_listB>",are marrying each other,
null,"<div style=""font-size:60px;"">+</div>",,html-keyboard-response,258,895729,0.0-17.0-0.3,35204,List1B,black,woman,,,,null,,,,
null,"<img src=""stim_listB/talk3.gif""style=""height:400px;""></stim_listB>",,html-keyboard-response,259,897749,0.0-17.0-1.3,35204,List1B,black,woman,,,,null,,,,
null,is talking to,,html-keyboard-response,260,899769,0.0-17.0-2.3,35204,List1B,black,woman,,,,null,,,,
6910,,,survey-text,261,906681,0.0-17.0-3.3,35204,List1B,black,woman,,,,,"{""Q0"":""jane is talking to luke""}","<img src=""stim_listB/talk3.gif""style=""height:400px;""></stim_listB>",is talking to,
null,"<div style=""font-size:60px;"">+</div>",,html-keyboard-response,262,907184,0.0-17.0-0.4,35204,List1B,black,woman,,,,null,,,,
null,"<img src=""stim_listB/play7.gif""style=""height:400px;""></stim_listB>",,html-keyboard-response,263,909200,0.0-17.0-1.4,35204,List1B,black,woman,,,,null,,,,
null,is playing with,,html-keyboard-response,264,911220,0.0-17.0-2.4,35204,List1B,black,woman,,,,null,,,,
7048,,,survey-text,265,918271,0.0-17.0-3.4,35204,List1B,black,woman,,,,,"{""Q0"":""jane is playing with kate""}","<img src=""stim_listB/play7.gif""style=""height:400px;""></stim_listB>",is playing with,
null,"<div style=""font-size:60px;"">+</div>",,html-keyboard-response,266,918789,0.0-17.0-0.5,35204,List1B,black,woman,,,,null,,,,
null,"<img src=""stim_listB/touch6.gif""style=""height:400px;""></stim_listB>",,html-keyboard-response,267,920799,0.0-17.0-1.5,35204,List1B,black,woman,,,,null,,,,
null,are touching each other,,html-keyboard-response,268,922820,0.0-17.0-2.5,35204,List1B,black,woman,,,,null,,,,
10215,,,survey-text,269,933036,0.0-17.0-3.5,35204,List1B,black,woman,,,,,"{""Q0"":""fred and luke are touching each other""}","<img src=""stim_listB/touch6.gif""style=""height:400px;""></stim_listB>",are touching each other,
null,"<div style=""font-size:60px;"">+</div>",,html-keyboard-response,270,933554,0.0-17.0-0.6,35204,List1B,black,woman,,,,null,,,,
null,"<img src=""stim_listB/play2.gif""style=""height:400px;""></stim_listB>",,html-keyboard-response,271,935570,0.0-17.0-1.6,35204,List1B,black,woman,,,,null,,,,
null,are playing with each other,,html-keyboard-response,272,937580,0.0-17.0-2.6,35204,List1B,black,woman,,,,null,,,,
11473,,,survey-text,273,949054,0.0-17.0-3.6,35204,List1B,black,woman,,,,,"{""Q0"":""fred and beth are playing with each other""}","<img src=""stim_listB/play2.gif""style=""height:400px;""></stim_listB>",are playing with each other,
null,"<div style=""font-size:60px;"">+</div>",,html-keyboard-response,274,949564,0.0-17.0-0.7,35204,List1B,black,woman,,,,null,,,,
null,"<img src=""stim_listB/talk6.gif""style=""height:400px;""></stim_listB>",,html-keyboard-response,275,951568,0.0-17.0-1.7,35204,List1B,black,woman,,,,null,,,,
null,are talking to each other,,html-keyboard-response,276,953579,0.0-17.0-2.7,35204,List1B,black,woman,,,,null,,,,
13749,,,survey-text,277,967330,0.0-17.0-3.7,35204,List1B,black,woman,,,,,"{""Q0"":""mike and luke are talking with each other""}","<img src=""stim_listB/talk6.gif""style=""height:400px;""></stim_listB>",are talking to each other,
null,"<div style=""font-size:60px;"">+</div>",,html-keyboard-response,278,967839,0.0-17.0-0.8,35204,List1B,black,woman,,,,null,,,,
null,"<img src=""stim_listB/kiss4.gif""style=""height:400px;""></stim_listB>",,html-keyboard-response,279,969842,0.0-17.0-1.8,35204,List1B,black,woman,,,,null,,,,
null,are kissing each other,,html-keyboard-response,280,971850,0.0-17.0-2.8,35204,List1B,black,woman,,,,null,,,,
10649,,,survey-text,281,982501,0.0-17.0-3.8,35204,List1B,black,woman,,,,,"{""Q0"":""dave and jane are kissing each other""}","<img src=""stim_listB/kiss4.gif""style=""height:400px;""></stim_listB>",are kissing each other,
null,"<div style=""font-size:60px;"">+</div>",,html-keyboard-response,282,983004,0.0-17.0-0.9,35204,List1B,black,woman,,,,null,,,,
null,"<img src=""stim_listB/fight4.gif""style=""height:400px;""></stim_listB>",,html-keyboard-response,283,985007,0.0-17.0-1.9,35204,List1B,black,woman,,,,null,,,,
null,are fighting each other,,html-keyboard-response,284,987009,0.0-17.0-2.9,35204,List1B,black,woman,,,,null,,,,
11124,,,survey-text,285,998135,0.0-17.0-3.9,35204,List1B,black,woman,,,,,"{""Q0"":""ruth and luke are fighting each other""}","<img src=""stim_listB/fight4.gif""style=""height:400px;""></stim_listB>",are fighting each other,
null,"<div style=""font-size:60px;"">+</div>",,html-keyboard-response,286,998640,0.0-17.0-0.10,35204,List1B,black,woman,,,,null,,,,
null,"<img src=""stim_listB/fight7.gif""style=""height:400px;""></stim_listB>",,html-keyboard-response,287,1000643,0.0-17.0-1.10,35204,List1B,black,woman,,,,null,,,,
null,is fighting,,html-keyboard-response,288,1002659,0.0-17.0-2.10,35204,List1B,black,woman,,,,null,,,,
7609,,,survey-text,289,1010271,0.0-17.0-3.10,35204,List1B,black,woman,,,,,"{""Q0"":""kate is fighting jane""}","<img src=""stim_listB/fight7.gif""style=""height:400px;""></stim_listB>",is fighting,
null,"<div style=""font-size:60px;"">+</div>",,html-keyboard-response,290,1010784,0.0-17.0-0.11,35204,List1B,black,woman,,,,null,,,,
null,"<img src=""stim_listB/flirt7.gif""style=""height:400px;""></stim_listB>",,html-keyboard-response,291,1012788,0.0-17.0-1.11,35204,List1B,black,woman,,,,null,,,,
null,is flirting with,,html-keyboard-response,292,1014799,0.0-17.0-2.11,35204,List1B,black,woman,,,,null,,,,
7050,,,survey-text,293,1021851,0.0-17.0-3.11,35204,List1B,black,woman,,,,,"{""Q0"":""jane is flirting with beth""}","<img src=""stim_listB/flirt7.gif""style=""height:400px;""></stim_listB>",is flirting with,
null,"<div style=""font-size:60px;"">+</div>",,html-keyboard-response,294,1022369,0.0-17.0-0.12,35204,List1B,black,woman,,,,null,,,,
null,"<img src=""stim_listB/play1.gif""style=""height:400px;""></stim_listB>",,html-keyboard-response,295,1024372,0.0-17.0-1.12,35204,List1B,black,woman,,,,null,,,,
null,is playing with,,html-keyboard-response,296,1026379,0.0-17.0-2.12,35204,List1B,black,woman,,,,null,,,,
7160,,,survey-text,297,1033540,0.0-17.0-3.12,35204,List1B,black,woman,,,,,"{""Q0"":""kate is playing with mike""}","<img src=""stim_listB/play1.gif""style=""height:400px;""></stim_listB>",is playing with,
null,"<div style=""font-size:60px;"">+</div>",,html-keyboard-response,298,1034042,0.0-17.0-0.13,35204,List1B,black,woman,,,,null,,,,
null,"<img src=""stim_listB/argue3.gif""style=""height:400px;""></stim_listB>",,html-keyboard-response,299,1036049,0.0-17.0-1.13,35204,List1B,black,woman,,,,null,,,,
null,is arguing with,,html-keyboard-response,300,1038051,0.0-17.0-2.13,35204,List1B,black,woman,,,,null,,,,
8649,,,survey-text,301,1046700,0.0-17.0-3.13,35204,List1B,black,woman,,,,,"{""Q0"":""ruth is arguing with dave""}","<img src=""stim_listB/argue3.gif""style=""height:400px;""></stim_listB>",is arguing with,
null,"<div style=""font-size:60px;"">+</div>",,html-keyboard-response,302,1047208,0.0-17.0-0.14,35204,List1B,black,woman,,,,null,,,,
null,"<img src=""stim_listB/flirt2.gif""style=""height:400px;""></stim_listB>",,html-keyboard-response,303,1049219,0.0-17.0-1.14,35204,List1B,black,woman,,,,null,,,,
null,are flirting with each other,,html-keyboard-response,304,1051235,0.0-17.0-2.14,35204,List1B,black,woman,,,,null,,,,
9283,,,survey-text,305,1060520,0.0-17.0-3.14,35204,List1B,black,woman,,,,,"{""Q0"":""mike and beth are flirting with each other""}","<img src=""stim_listB/flirt2.gif""style=""height:400px;""></stim_listB>",are flirting with each other,
null,"<div style=""font-size:60px;"">+</div>",,html-keyboard-response,306,1061022,0.0-17.0-0.15,35204,List1B,black,woman,,,,null,,,,
null,"<img src=""stim_listB/dance3.gif""style=""height:400px;""></stim_listB>",,html-keyboard-response,307,1063026,0.0-17.0-1.15,35204,List1B,black,woman,,,,null,,,,
null,is dancing with,,html-keyboard-response,308,1065029,0.0-17.0-2.15,35204,List1B,black,woman,,,,null,,,,
8649,,,survey-text,309,1073680,0.0-17.0-3.15,35204,List1B,black,woman,,,,,"{""Q0"":""jane is dancing with luke""}","<img src=""stim_listB/dance3.gif""style=""height:400px;""></stim_listB>",is dancing with,
null,"<div style=""font-size:60px;"">+</div>",,html-keyboard-response,310,1074200,0.0-17.0-0.16,35204,List1B,black,woman,,,,null,,,,
null,"<img src=""stim_listB/play3.gif""style=""height:400px;""></stim_listB>",,html-keyboard-response,311,1076205,0.0-17.0-1.16,35204,List1B,black,woman,,,,null,,,,
null,is playing with,,html-keyboard-response,312,1078219,0.0-17.0-2.16,35204,List1B,black,woman,,,,null,,,,
5910,,,survey-text,313,1084130,0.0-17.0-3.16,35204,List1B,black,woman,,,,,"{""Q0"":""jane is playing with dave""}","<img src=""stim_listB/play3.gif""style=""height:400px;""></stim_listB>",is playing with,
null,"<div style=""font-size:60px;"">+</div>",,html-keyboard-response,314,1084638,0.0-17.0-0.17,35204,List1B,black,woman,,,,null,,,,
null,"<img src=""stim_listB/play6.gif""style=""height:400px;""></stim_listB>",,html-keyboard-response,315,1086650,0.0-17.0-1.17,35204,List1B,black,woman,,,,null,,,,
null,are playing with each other,,html-keyboard-response,316,1088660,0.0-17.0-2.17,35204,List1B,black,woman,,,,null,,,,
10739,,,survey-text,317,1099401,0.0-17.0-3.17,35204,List1B,black,woman,,,,,"{""Q0"":""luke and fred are playing with each other""}","<img src=""stim_listB/play6.gif""style=""height:400px;""></stim_listB>",are playing with each other,
null,"<div style=""font-size:60px;"">+</div>",,html-keyboard-response,318,1099903,0.0-17.0-0.18,35204,List1B,black,woman,,,,null,,,,
null,"<img src=""stim_listB/talk5.gif""style=""height:400px;""></stim_listB>",,html-keyboard-response,319,1101906,0.0-17.0-1.18,35204,List1B,black,woman,,,,null,,,,
null,is talking to,,html-keyboard-response,320,1103909,0.0-17.0-2.18,35204,List1B,black,woman,,,,null,,,,
12950,,,survey-text,321,1116861,0.0-17.0-3.18,35204,List1B,black,woman,,,,,"{""Q0"":""fred is talking to dave""}","<img src=""stim_listB/talk5.gif""style=""height:400px;""></stim_listB>",is talking to,
null,"<div style=""font-size:60px;"">+</div>",,html-keyboard-response,322,1117370,0.0-17.0-0.19,35204,List1B,black,woman,,,,null,,,,
null,"<img src=""stim_listB/shout3.gif""style=""height:400px;""></stim_listB>",,html-keyboard-response,323,1119373,0.0-17.0-1.19,35204,List1B,black,woman,,,,null,,,,
null,is shouting at,,html-keyboard-response,324,1121390,0.0-17.0-2.19,35204,List1B,black,woman,,,,null,,,,
7009,,,survey-text,325,1128400,0.0-17.0-3.19,35204,List1B,black,woman,,,,,"{""Q0"":""luke is shouting at ruth""}","<img src=""stim_listB/shout3.gif""style=""height:400px;""></stim_listB>",is shouting at,
2439,"<img src='img/portrait_matrix_list1.jpg' style='width:900px;height:500px;''></img><p>If you have memorised all the portraits and names and are ready to start, press Continue.</p><p><strong>Please note: Your memory of these faces will be tested 4 times during this experiment.</strong></p>",0,html-button-response,326,1130840,0.0-18.0-0.0,35204,List1B,black,woman,,,,,,,,
1569,"<img src=""portrait/WM1.jpg""style=""height:400px;""></img>",6,html-button-response,327,1133412,0.0-18.0-1.0,35204,List1B,black,woman,,TRUE,6,,,,,
null,CORRECT,,html-keyboard-response,328,1134932,0.0-18.0-2.0-0.0,35204,List1B,black,woman,,,,null,,,,
2070,"<img src=""portrait/BW2.jpg""style=""height:400px;""></img>",2,html-button-response,329,1137005,0.0-18.0-4.0,35204,List1B,black,woman,,TRUE,2,,,,,
null,CORRECT,,html-keyboard-response,330,1138519,0.0-18.0-5.0-0.0,35204,List1B,black,woman,,,,null,,,,
1480,"<img src=""portrait/WW2.jpg""style=""height:400px;""></img>",3,html-button-response,331,1140000,0.0-18.0-7.0,35204,List1B,black,woman,,TRUE,3,,,,,
null,CORRECT,,html-keyboard-response,332,1141530,0.0-18.0-8.0-0.0,35204,List1B,black,woman,,,,null,,,,
1324,"<img src=""portrait/WW1.jpg""style=""height:400px;""></img>",1,html-button-response,333,1142856,0.0-18.0-10.0,35204,List1B,black,woman,,TRUE,1,,,,,
null,CORRECT,,html-keyboard-response,334,1144376,0.0-18.0-11.0-0.0,35204,List1B,black,woman,,,,null,,,,
1283,"<img src=""portrait/BM2.jpg""style=""height:400px;""></img>",5,html-button-response,335,1145660,0.0-18.0-13.0,35204,List1B,black,woman,,TRUE,5,,,,,
null,CORRECT,,html-keyboard-response,336,1147190,0.0-18.0-14.0-0.0,35204,List1B,black,woman,,,,null,,,,
1489,"<img src=""portrait/BM1.jpg""style=""height:400px;""></img>",4,html-button-response,337,1148680,0.0-18.0-16.0,35204,List1B,black,woman,,TRUE,4,,,,,
null,CORRECT,,html-keyboard-response,338,1150202,0.0-18.0-17.0-0.0,35204,List1B,black,woman,,,,null,,,,
1285,"<img src=""portrait/BW1.jpg""style=""height:400px;""></img>",0,html-button-response,339,1151488,0.0-18.0-19.0,35204,List1B,black,woman,,TRUE,0,,,,,
null,CORRECT,,html-keyboard-response,340,1153006,0.0-18.0-20.0-0.0,35204,List1B,black,woman,,,,null,,,,
616,"<img src=""portrait/WM2.jpg""style=""height:400px;""></img>",7,html-button-response,341,1153624,0.0-18.0-22.0,35204,List1B,black,woman,,TRUE,7,,,,,
null,CORRECT,,html-keyboard-response,342,1155149,0.0-18.0-23.0-0.0,35204,List1B,black,woman,,,,null,,,,
865,<p>You got 8 out of 8 right first time. Press Continue.</p>,0,html-button-response,343,1156016,0.0-18.0-25.0,35204,List1B,black,woman,,,,,,,,
null,"<div style=""font-size:60px;"">+</div>",,html-keyboard-response,344,1157530,0.0-19.0-0.0,35204,List1B,black,woman,,,,null,,,,
null,"<img src=""stim_listB/play8.gif""style=""height:400px;""></stim_listB>",,html-keyboard-response,345,1159535,0.0-19.0-1.0,35204,List1B,black,woman,,,,null,,,,
null,are playing with each other,,html-keyboard-response,346,1161537,0.0-19.0-2.0,35204,List1B,black,woman,,,,null,,,,
13362,,,survey-text,347,1174900,0.0-19.0-3.0,35204,List1B,black,woman,,,,,"{""Q0"":""ruth and beth are playing with each other""}","<img src=""stim_listB/play8.gif""style=""height:400px;""></stim_listB>",are playing with each other,
null,"<div style=""font-size:60px;"">+</div>",,html-keyboard-response,348,1175417,0.0-19.0-0.1,35204,List1B,black,woman,,,,null,,,,
null,"<img src=""stim_listB/touch7.gif""style=""height:400px;""></stim_listB>",,html-keyboard-response,349,1177421,0.0-19.0-1.1,35204,List1B,black,woman,,,,null,,,,
null,is touching,,html-keyboard-response,350,1179439,0.0-19.0-2.1,35204,List1B,black,woman,,,,null,,,,
5190,,,survey-text,351,1184631,0.0-19.0-3.1,35204,List1B,black,woman,,,,,"{""Q0"":""jane is touching kate""}","<img src=""stim_listB/touch7.gif""style=""height:400px;""></stim_listB>",is touching,
null,"<div style=""font-size:60px;"">+</div>",,html-keyboard-response,352,1185150,0.0-19.0-0.2,35204,List1B,black,woman,,,,null,,,,
null,"<img src=""stim_listB/argue4.gif""style=""height:400px;""></stim_listB>",,html-keyboard-response,353,1187155,0.0-19.0-1.2,35204,List1B,black,woman,,,,null,,,,
null,are arguing with each other,,html-keyboard-response,354,1189160,0.0-19.0-2.2,35204,List1B,black,woman,,,,null,,,,
9949,,,survey-text,355,1199111,0.0-19.0-3.2,35204,List1B,black,woman,,,,,"{""Q0"":""jane and luke are arguing with each other""}","<img src=""stim_listB/argue4.gif""style=""height:400px;""></stim_listB>",are arguing with each other,
null,"<div style=""font-size:60px;"">+</div>",,html-keyboard-response,356,1199620,0.0-19.0-0.3,35204,List1B,black,woman,,,,null,,,,
null,"<img src=""stim_listB/fight8.gif""style=""height:400px;""></stim_listB>",,html-keyboard-response,357,1201624,0.0-19.0-1.3,35204,List1B,black,woman,,,,null,,,,
null,are fighting each other,,html-keyboard-response,358,1203639,0.0-19.0-2.3,35204,List1B,black,woman,,,,null,,,,
9689,,,survey-text,359,1213330,0.0-19.0-3.3,35204,List1B,black,woman,,,,,"{""Q0"":""ruth and beth are fighting each other""}","<img src=""stim_listB/fight8.gif""style=""height:400px;""></stim_listB>",are fighting each other,
null,"<div style=""font-size:60px;"">+</div>",,html-keyboard-response,360,1213833,0.0-19.0-0.4,35204,List1B,black,woman,,,,null,,,,
null,"<img src=""stim_listB/kiss6.gif""style=""height:400px;""></stim_listB>",,html-keyboard-response,361,1215837,0.0-19.0-1.4,35204,List1B,black,woman,,,,null,,,,
null,are kissing each other,,html-keyboard-response,362,1217854,0.0-19.0-2.4,35204,List1B,black,woman,,,,null,,,,
12639,,,survey-text,363,1230495,0.0-19.0-3.4,35204,List1B,black,woman,,,,,"{""Q0"":""mike and dave are kissing each other""}","<img src=""stim_listB/kiss6.gif""style=""height:400px;""></stim_listB>",are kissing each other,
null,"<div style=""font-size:60px;"">+</div>",,html-keyboard-response,364,1231004,0.0-19.0-0.5,35204,List1B,black,woman,,,,null,,,,
null,"<img src=""stim_listB/shout2.gif""style=""height:400px;""></stim_listB>",,html-keyboard-response,365,1233006,0.0-19.0-1.5,35204,List1B,black,woman,,,,null,,,,
null,are shouting at each other,,html-keyboard-response,366,1235009,0.0-19.0-2.5,35204,List1B,black,woman,,,,null,,,,
10495,,,survey-text,367,1245505,0.0-19.0-3.5,35204,List1B,black,woman,,,,,"{""Q0"":""kate and mike are shouting at each other""}","<img src=""stim_listB/shout2.gif""style=""height:400px;""></stim_listB>",are shouting at each other,
null,"<div style=""font-size:60px;"">+</div>",,html-keyboard-response,368,1246024,0.0-19.0-0.6,35204,List1B,black,woman,,,,null,,,,
null,"<img src=""stim_listB/argue6.gif""style=""height:400px;""></stim_listB>",,html-keyboard-response,369,1248029,0.0-19.0-1.6,35204,List1B,black,woman,,,,null,,,,
null,are arguing with each other,,html-keyboard-response,370,1250045,0.0-19.0-2.6,35204,List1B,black,woman,,,,null,,,,
13299,,,survey-text,371,1263345,0.0-19.0-3.6,35204,List1B,black,woman,,,,,"{""Q0"":""fred and dave are arguing with each other""}","<img src=""stim_listB/argue6.gif""style=""height:400px;""></stim_listB>",are arguing with each other,
null,"<div style=""font-size:60px;"">+</div>",,html-keyboard-response,372,1263855,0.0-19.0-0.7,35204,List1B,black,woman,,,,null,,,,
null,"<img src=""stim_listB/marry6.gif""style=""height:400px;""></stim_listB>",,html-keyboard-response,373,1265873,0.0-19.0-1.7,35204,List1B,black,woman,,,,null,,,,
null,are marrying each other,,html-keyboard-response,374,1267880,0.0-19.0-2.7,35204,List1B,black,woman,,,,null,,,,
11747,,,survey-text,375,1279630,0.0-19.0-3.7,35204,List1B,black,woman,,,,,"{""Q0"":""fred and dave are marrying each other""}","<img src=""stim_listB/marry6.gif""style=""height:400px;""></stim_listB>",are marrying each other,
null,"<div style=""font-size:60px;"">+</div>",,html-keyboard-response,376,1280139,0.0-19.0-0.8,35204,List1B,black,woman,,,,null,,,,
null,"<img src=""stim_listB/marry7.gif""style=""height:400px;""></stim_listB>",,html-keyboard-response,377,1282149,0.0-19.0-1.8,35204,List1B,black,woman,,,,null,,,,
null,is marrying,,html-keyboard-response,378,1284158,0.0-19.0-2.8,35204,List1B,black,woman,,,,null,,,,
6349,,,survey-text,379,1290510,0.0-19.0-3.8,35204,List1B,black,woman,,,,,"{""Q0"":""kate is marrying ruth""}","<img src=""stim_listB/marry7.gif""style=""height:400px;""></stim_listB>",is marrying,
null,"<div style=""font-size:60px;"">+</div>",,html-keyboard-response,380,1291012,0.0-19.0-0.9,35204,List1B,black,woman,,,,null,,,,
null,"<img src=""stim_listB/kiss1.gif""style=""height:400px;""></stim_listB>",,html-keyboard-response,381,1293015,0.0-19.0-1.9,35204,List1B,black,woman,,,,null,,,,
null,is kissing,,html-keyboard-response,382,1295029,0.0-19.0-2.9,35204,List1B,black,woman,,,,null,,,,
8869,,,survey-text,383,1303900,0.0-19.0-3.9,35204,List1B,black,woman,,,,,"{""Q0"":""beth is kissing fred""}","<img src=""stim_listB/kiss1.gif""style=""height:400px;""></stim_listB>",is kissing,
null,"<div style=""font-size:60px;"">+</div>",,html-keyboard-response,384,1304418,0.0-19.0-0.10,35204,List1B,black,woman,,,,null,,,,
null,"<img src=""stim_listB/talk2.gif""style=""height:400px;""></stim_listB>",,html-keyboard-response,385,1306430,0.0-19.0-1.10,35204,List1B,black,woman,,,,null,,,,
null,are talking to each other,,html-keyboard-response,386,1308439,0.0-19.0-2.10,35204,List1B,black,woman,,,,null,,,,
12989,,,survey-text,387,1321430,0.0-19.0-3.10,35204,List1B,black,woman,,,,,"{""Q0"":""beth and mike are talking to each other""}","<img src=""stim_listB/talk2.gif""style=""height:400px;""></stim_listB>",are talking to each other,
null,"<div style=""font-size:60px;"">+</div>",,html-keyboard-response,388,1321932,0.0-19.0-0.11,35204,List1B,black,woman,,,,null,,,,
null,"<img src=""stim_listB/marry3.gif""style=""height:400px;""></stim_listB>",,html-keyboard-response,389,1323935,0.0-19.0-1.11,35204,List1B,black,woman,,,,null,,,,
null,is marrying,,html-keyboard-response,390,1325937,0.0-19.0-2.11,35204,List1B,black,woman,,,,null,,,,
5841,,,survey-text,391,1331781,0.0-19.0-3.11,35204,List1B,black,woman,,,,,"{""Q0"":""ruth is marrying dave""}","<img src=""stim_listB/marry3.gif""style=""height:400px;""></stim_listB>",is marrying,
null,"<div style=""font-size:60px;"">+</div>",,html-keyboard-response,392,1332290,0.0-19.0-0.12,35204,List1B,black,woman,,,,null,,,,
null,"<img src=""stim_listB/flirt8.gif""style=""height:400px;""></stim_listB>",,html-keyboard-response,393,1334294,0.0-19.0-1.12,35204,List1B,black,woman,,,,null,,,,
null,are flirting with each other,,html-keyboard-response,394,1336299,0.0-19.0-2.12,35204,List1B,black,woman,,,,null,,,,
10910,,,survey-text,395,1347211,0.0-19.0-3.12,35204,List1B,black,woman,,,,,"{""Q0"":""kate and ruth are flirting with each other""}","<img src=""stim_listB/flirt8.gif""style=""height:400px;""></stim_listB>",are flirting with each other,
null,"<div style=""font-size:60px;"">+</div>",,html-keyboard-response,396,1347729,0.0-19.0-0.13,35204,List1B,black,woman,,,,null,,,,
null,"<img src=""stim_listB/marry5.gif""style=""height:400px;""></stim_listB>",,html-keyboard-response,397,1349739,0.0-19.0-1.13,35204,List1B,black,woman,,,,null,,,,
null,is marrying,,html-keyboard-response,398,1351749,0.0-19.0-2.13,35204,List1B,black,woman,,,,null,,,,
4549,,,survey-text,399,1356301,0.0-19.0-3.13,35204,List1B,black,woman,,,,,"{""Q0"":""luke is marrying mike""}","<img src=""stim_listB/marry5.gif""style=""height:400px;""></stim_listB>",is marrying,
null,"<div style=""font-size:60px;"">+</div>",,html-keyboard-response,400,1356809,0.0-19.0-0.14,35204,List1B,black,woman,,,,null,,,,
null,"<img src=""stim_listB/fight5.gif""style=""height:400px;""></stim_listB>",,html-keyboard-response,401,1358819,0.0-19.0-1.14,35204,List1B,black,woman,,,,null,,,,
null,is fighting,,html-keyboard-response,402,1360831,0.0-19.0-2.14,35204,List1B,black,woman,,,,null,,,,
5964,,,survey-text,403,1366798,0.0-19.0-3.14,35204,List1B,black,woman,,,,,"{""Q0"":""dave is fighting mike""}","<img src=""stim_listB/fight5.gif""style=""height:400px;""></stim_listB>",is fighting,
null,"<div style=""font-size:60px;"">+</div>",,html-keyboard-response,404,1367310,0.0-19.0-0.15,35204,List1B,black,woman,,,,null,,,,
null,"<img src=""stim_listB/fight1.gif""style=""height:400px;""></stim_listB>",,html-keyboard-response,405,1369331,0.0-19.0-1.15,35204,List1B,black,woman,,,,null,,,,
null,is fighting,,html-keyboard-response,406,1371350,0.0-19.0-2.15,35204,List1B,black,woman,,,,null,,,,
9389,,,survey-text,407,1380741,0.0-19.0-3.15,35204,List1B,black,woman,,,,,"{""Q0"":""kate is fighting mike""}","<img src=""stim_listB/fight1.gif""style=""height:400px;""></stim_listB>",is fighting,
null,"<div style=""font-size:60px;"">+</div>",,html-keyboard-response,408,1381250,0.0-19.0-0.16,35204,List1B,black,woman,,,,null,,,,
null,"<img src=""stim_listB/shout1.gif""style=""height:400px;""></stim_listB>",,html-keyboard-response,409,1383270,0.0-19.0-1.16,35204,List1B,black,woman,,,,null,,,,
null,is shouting at,,html-keyboard-response,410,1385279,0.0-19.0-2.16,35204,List1B,black,woman,,,,null,,,,
6160,,,survey-text,411,1391441,0.0-19.0-3.16,35204,List1B,black,woman,,,,,"{""Q0"":""beth is shouting at fred""}","<img src=""stim_listB/shout1.gif""style=""height:400px;""></stim_listB>",is shouting at,
null,"<div style=""font-size:60px;"">+</div>",,html-keyboard-response,412,1391955,0.0-19.0-0.17,35204,List1B,black,woman,,,,null,,,,
null,"<img src=""stim_listB/flirt4.gif""style=""height:400px;""></stim_listB>",,html-keyboard-response,413,1393957,0.0-19.0-1.17,35204,List1B,black,woman,,,,null,,,,
null,are flirting with each other,,html-keyboard-response,414,1395959,0.0-19.0-2.17,35204,List1B,black,woman,,,,null,,,,
11675,,,survey-text,415,1407637,0.0-19.0-3.17,35204,List1B,black,woman,,,,,"{""Q0"":""dave and ruth are flirting with each other""}","<img src=""stim_listB/flirt4.gif""style=""height:400px;""></stim_listB>",are flirting with each other,
null,"<div style=""font-size:60px;"">+</div>",,html-keyboard-response,416,1408157,0.0-19.0-0.18,35204,List1B,black,woman,,,,null,,,,
null,"<img src=""stim_listB/fight6.gif""style=""height:400px;""></stim_listB>",,html-keyboard-response,417,1410160,0.0-19.0-1.18,35204,List1B,black,woman,,,,null,,,,
null,are fighting each other,,html-keyboard-response,418,1412161,0.0-19.0-2.18,35204,List1B,black,woman,,,,null,,,,
16614,,,survey-text,419,1428777,0.0-19.0-3.18,35204,List1B,black,woman,,,,,"{""Q0"":""luke and fred are fighting each other""}","<img src=""stim_listB/fight6.gif""style=""height:400px;""></stim_listB>",are fighting each other,
null,"<div style=""font-size:60px;"">+</div>",,html-keyboard-response,420,1429292,0.0-19.0-0.19,35204,List1B,black,woman,,,,null,,,,
null,"<img src=""stim_listB/kiss5.gif""style=""height:400px;""></stim_listB>",,html-keyboard-response,421,1431296,0.0-19.0-1.19,35204,List1B,black,woman,,,,null,,,,
null,is kissing,,html-keyboard-response,422,1433317,0.0-19.0-2.19,35204,List1B,black,woman,,,,null,,,,
7464,,,survey-text,423,1440783,0.0-19.0-3.19,35204,List1B,black,woman,,,,,"{""Q0"":""luke is kissing fred""}","<img src=""stim_listB/kiss5.gif""style=""height:400px;""></stim_listB>",is kissing,
2261,<p>Thank you for completing that task.</p><p>The final part of this session is a short questionnaire.</p><p>Press Continue.</p>,0,html-button-response,424,1443045,0.0-20.0,35204,List1B,black,woman,,,,,,,,
24036,,,survey-text,425,1468086,0.0-21.0,35204,List1B,black,woman,,,,,"{""Q0"":""24"",""Q1"":""English"",""Q2"":""English"",""Q3"":""United Kingdom"",""Q4"":""Black African"",""Q5"":""Female""}",,,demographics
5481,,,survey-likert,426,1473571,0.0-22.0,35204,List1B,black,woman,,,,,"{""Q0"":4}",,,likert_ESS
4854,,,survey-likert,427,1478426,0.0-23.0,35204,List1B,black,woman,,,,,"{""Q0"":4}",,,likert_NSSAL_Q1
2562,,,survey-likert,428,1480990,0.0-24.0,35204,List1B,black,woman,,,,,"{""Q0"":4}",,,likert_NSSAL_Q2
2547,,,survey-likert,429,1483538,0.0-25.0,35204,List1B,black,woman,,,,,"{""Q0"":4}",,,likert_CGRS_Q1
2347,,,survey-likert,430,1485887,0.0-26.0,35204,List1B,black,woman,,,,,"{""Q0"":4}",,,likert_CGRS_Q2
1714,,,survey-likert,431,1487602,0.0-27.0,35204,List1B,black,woman,,,,,"{""Q0"":4}",,,likert_CGRS_Q3
3322,,,survey-text,432,1490926,0.0-28.0,35204,List1B,black,woman,,,,,"{""Q0"":""ccc""}",,,worker_id
21850,,,external-html,433,1513200,0.0-29.0,35204,List1B,black,woman,debrief.html,,,,,,,
