rt,stimulus,button_pressed,trial_type,trial_index,time_elapsed,internal_node_id,subject,list,ppt_race,ppt_gender,url,first_guess,correct,key_press,responses,image_type,phrase_type,test_part
2076,Welcome to the experiment. Press Continue to begin.,0,html-button-response,0,2086,0.0-0.0,35903,List2B,black,man,,,,,,,,
10403,,,external-html,1,13568,0.0-1.0,35903,List2B,black,man,consent.html,,,,,,,
31419,"<p>On the next page, you will see portraits of 8 people and their names.</p><p>Your first task is to take a few minutes to memorise the names of these people.</p><p>You will have to recall their names during the rest of the experiment, so it is</p><p>essential that you try to memorise these people and their names as best as you can.</p><br><p><strong>You will then be tested on your memory of these names and portraits.</strong></p><br><p>The experiment will start after you have completed this memory test.</p><br><p>Ready?</p>",0,html-button-response,2,44990,0.0-2.0,35903,List2B,black,man,,,,,,,,
73712,"<img src='img/portrait_matrix_list2.jpg' style='width:900px;height:500px;''></img><p>If you have memorised all the portraits and names and are ready to start, press Continue.</p><p><strong>Please note: Your memory of these faces will be tested 4 times during this experiment.</strong></p>",0,html-button-response,3,119714,0.0-3.0-0.0,35903,List2B,black,man,,,,,,,,
10419,"<img src=""portrait/WW1.jpg""style=""height:400px;""></img>",1,html-button-response,4,131145,0.0-3.0-1.0,35903,List2B,black,man,,TRUE,1,,,,,
null,CORRECT,,html-keyboard-response,5,132669,0.0-3.0-2.0-0.0,35903,List2B,black,man,,,,null,,,,
2689,"<img src=""portrait/BM1.jpg""style=""height:400px;""></img>",4,html-button-response,6,135369,0.0-3.0-4.0,35903,List2B,black,man,,TRUE,4,,,,,
null,CORRECT,,html-keyboard-response,7,136899,0.0-3.0-5.0-0.0,35903,List2B,black,man,,,,null,,,,
4601,"<img src=""portrait/BW2.jpg""style=""height:400px;""></img>",2,html-button-response,8,141508,0.0-3.0-7.0,35903,List2B,black,man,,TRUE,2,,,,,
null,CORRECT,,html-keyboard-response,9,143020,0.0-3.0-8.0-0.0,35903,List2B,black,man,,,,null,,,,
3872,"<img src=""portrait/WM1.jpg""style=""height:400px;""></img>",6,html-button-response,10,146900,0.0-3.0-10.0,35903,List2B,black,man,,TRUE,6,,,,,
null,CORRECT,,html-keyboard-response,11,148428,0.0-3.0-11.0-0.0,35903,List2B,black,man,,,,null,,,,
1850,"<img src=""portrait/WM2.jpg""style=""height:400px;""></img>",7,html-button-response,12,150286,0.0-3.0-13.0,35903,List2B,black,man,,TRUE,7,,,,,
null,CORRECT,,html-keyboard-response,13,151793,0.0-3.0-14.0-0.0,35903,List2B,black,man,,,,null,,,,
3267,"<img src=""portrait/BW1.jpg""style=""height:400px;""></img>",0,html-button-response,14,155064,0.0-3.0-16.0,35903,List2B,black,man,,TRUE,0,,,,,
null,CORRECT,,html-keyboard-response,15,156575,0.0-3.0-17.0-0.0,35903,List2B,black,man,,,,null,,,,
2962,"<img src=""portrait/WW2.jpg""style=""height:400px;""></img>",3,html-button-response,16,159544,0.0-3.0-19.0,35903,List2B,black,man,,TRUE,3,,,,,
null,CORRECT,,html-keyboard-response,17,161056,0.0-3.0-20.0-0.0,35903,List2B,black,man,,,,null,,,,
2595,"<img src=""portrait/BM2.jpg""style=""height:400px;""></img>",5,html-button-response,18,163656,0.0-3.0-22.0,35903,List2B,black,man,,TRUE,5,,,,,
null,CORRECT,,html-keyboard-response,19,165168,0.0-3.0-23.0-0.0,35903,List2B,black,man,,,,null,,,,
3338,<p>You got 8 out of 8 right first time. Press Continue.</p>,0,html-button-response,20,168519,0.0-3.0-25.0,35903,List2B,black,man,,,,,,,,
39710,"<p>In this experiment, you will view photographs of the people from the memory game interacting.</p><p>By using the <strong>exact</strong> phrase given <i>after</i> the photograph appears and recalling the correct names of the people in the photographs, form a sentence describing the interaction. You do not need to capitalise names.</p><p>Type your answer in the space provided. Please complete every sentence before moving onto the next trial.</p><p>You will only have a few seconds to memorise each given photograph and phrase before you can respond, so try your best to focus.</p><p>An example is given below. Press 'Continue' when you are ready.</p><img src='img/speaking_example.jpg' style='width:800px;height:460px;''></img>",0,html-button-response,21,209247,0.0-4.0,35903,List2B,black,man,,,,,,,,
2223,"<p>Before the experiment starts, you will watch two example trials. Press 'Continue'.</p>",0,html-button-response,22,212480,0.0-5.0,35903,List2B,black,man,,,,,,,,
null,<img src='img/meet_eg.gif' style='height:400px;''></img>,,html-keyboard-response,23,215499,0.0-6.0,35903,List2B,black,man,,,,null,,,,
null,<p>is meeting</p>,,html-keyboard-response,24,217505,0.0-7.0,35903,List2B,black,man,,,,null,,,,
13578,<p><b>Answer:</b> jane is meeting ruth</p>,0,html-button-response,25,231086,0.0-8.0,35903,List2B,black,man,,,,,,,,
null,<img src='img/look_eg.gif' style='height:400px;''></img>,,html-keyboard-response,26,234095,0.0-9.0,35903,List2B,black,man,,,,null,,,,
null,<p>are looking at each other</p>,,html-keyboard-response,27,236100,0.0-10.0,35903,List2B,black,man,,,,null,,,,
1814,<p><b>Answer:</b> fred and mike are looking at each other</p>,0,html-button-response,28,237918,0.0-11.0,35903,List2B,black,man,,,,,,,,
10505,"<p>Ready to start the experiment?</p><br><p><strong>Remember to describe the picture using a full sentence,</strong></p><p><strong>that combines the names of the people with the <i>exact</i> phrase given.</strong></p><p><strong>To receive full payment you must do this correctly.</strong></p><p><strong> You do not need to capitalise names or use punctuation.</strong></p><br><p>Press 'Continue' to begin.</p>",0,html-button-response,29,249431,0.0-12.0,35903,List2B,black,man,,,,,,,,
null,"<div style=""font-size:60px;"">+</div>",,html-keyboard-response,30,250939,0.0-13.0-0.0,35903,List2B,black,man,,,,null,,,,
null,"<img src=""stim_listB/shout3.gif""style=""height:400px;""></stim_listB>",,html-keyboard-response,31,252949,0.0-13.0-1.0,35903,List2B,black,man,,,,null,,,,
null,is shouting at,,html-keyboard-response,32,254955,0.0-13.0-2.0,35903,List2B,black,man,,,,null,,,,
18252,,,survey-text,33,273214,0.0-13.0-3.0,35903,List2B,black,man,,,,,"{""Q0"":""fred is shouting at beth""}","<img src=""stim_listB/shout3.gif""style=""height:400px;""></stim_listB>",is shouting at,
null,"<div style=""font-size:60px;"">+</div>",,html-keyboard-response,34,273720,0.0-13.0-0.1,35903,List2B,black,man,,,,null,,,,
null,"<img src=""stim_listB/fight2.gif""style=""height:400px;""></stim_listB>",,html-keyboard-response,35,275725,0.0-13.0-1.1,35903,List2B,black,man,,,,null,,,,
null,are fighting each other,,html-keyboard-response,36,277728,0.0-13.0-2.1,35903,List2B,black,man,,,,null,,,,
23761,,,survey-text,37,301494,0.0-13.0-3.1,35903,List2B,black,man,,,,,"{""Q0"":""luke and ruth are fighting each other""}","<img src=""stim_listB/fight2.gif""style=""height:400px;""></stim_listB>",are fighting each other,
null,"<div style=""font-size:60px;"">+</div>",,html-keyboard-response,38,301999,0.0-13.0-0.2,35903,List2B,black,man,,,,null,,,,
null,"<img src=""stim_listB/marry6.gif""style=""height:400px;""></stim_listB>",,html-keyboard-response,39,304003,0.0-13.0-1.2,35903,List2B,black,man,,,,null,,,,
null,are marrying each other,,html-keyboard-response,40,306007,0.0-13.0-2.2,35903,List2B,black,man,,,,null,,,,
21586,,,survey-text,41,327596,0.0-13.0-3.2,35903,List2B,black,man,,,,,"{""Q0"":""luke and mike are marrying each other""}","<img src=""stim_listB/marry6.gif""style=""height:400px;""></stim_listB>",are marrying each other,
null,"<div style=""font-size:60px;"">+</div>",,html-keyboard-response,42,328101,0.0-13.0-0.3,35903,List2B,black,man,,,,null,,,,
null,"<img src=""stim_listB/touch7.gif""style=""height:400px;""></stim_listB>",,html-keyboard-response,43,330115,0.0-13.0-1.3,35903,List2B,black,man,,,,null,,,,
null,is touching,,html-keyboard-response,44,332121,0.0-13.0-2.3,35903,List2B,black,man,,,,null,,,,
20319,,,survey-text,45,352442,0.0-13.0-3.3,35903,List2B,black,man,,,,,"{""Q0"":""jane is touching kate""}","<img src=""stim_listB/touch7.gif""style=""height:400px;""></stim_listB>",is touching,
null,"<div style=""font-size:60px;"">+</div>",,html-keyboard-response,46,352948,0.0-13.0-0.4,35903,List2B,black,man,,,,null,,,,
null,"<img src=""stim_listB/marry1.gif""style=""height:400px;""></stim_listB>",,html-keyboard-response,47,354959,0.0-13.0-1.4,35903,List2B,black,man,,,,null,,,,
null,is marrying,,html-keyboard-response,48,356965,0.0-13.0-2.4,35903,List2B,black,man,,,,null,,,,
13089,,,survey-text,49,370058,0.0-13.0-3.4,35903,List2B,black,man,,,,,"{""Q0"":""dave is marrying ruth""}","<img src=""stim_listB/marry1.gif""style=""height:400px;""></stim_listB>",is marrying,
null,"<div style=""font-size:60px;"">+</div>",,html-keyboard-response,50,370566,0.0-13.0-0.5,35903,List2B,black,man,,,,null,,,,
null,"<img src=""stim_listB/touch8.gif""style=""height:400px;""></stim_listB>",,html-keyboard-response,51,372576,0.0-13.0-1.5,35903,List2B,black,man,,,,null,,,,
null,are touching each other,,html-keyboard-response,52,374583,0.0-13.0-2.5,35903,List2B,black,man,,,,null,,,,
18006,,,survey-text,53,392594,0.0-13.0-3.5,35903,List2B,black,man,,,,,"{""Q0"":""beth and ruth are touching each other""}","<img src=""stim_listB/touch8.gif""style=""height:400px;""></stim_listB>",are touching each other,
null,"<div style=""font-size:60px;"">+</div>",,html-keyboard-response,54,393098,0.0-13.0-0.6,35903,List2B,black,man,,,,null,,,,
null,"<img src=""stim_listB/touch2.gif""style=""height:400px;""></stim_listB>",,html-keyboard-response,55,395109,0.0-13.0-1.6,35903,List2B,black,man,,,,null,,,,
null,are touching each other,,html-keyboard-response,56,397112,0.0-13.0-2.6,35903,List2B,black,man,,,,null,,,,
14500,,,survey-text,57,411616,0.0-13.0-3.6,35903,List2B,black,man,,,,,"{""Q0"":""luke and ruth are touching each other""}","<img src=""stim_listB/touch2.gif""style=""height:400px;""></stim_listB>",are touching each other,
null,"<div style=""font-size:60px;"">+</div>",,html-keyboard-response,58,412120,0.0-13.0-0.7,35903,List2B,black,man,,,,null,,,,
null,"<img src=""stim_listB/talk3.gif""style=""height:400px;""></stim_listB>",,html-keyboard-response,59,414129,0.0-13.0-1.7,35903,List2B,black,man,,,,null,,,,
null,is talking to,,html-keyboard-response,60,416143,0.0-13.0-2.7,35903,List2B,black,man,,,,null,,,,
17569,,,survey-text,61,433716,0.0-13.0-3.7,35903,List2B,black,man,,,,,"{""Q0"":""fred is talking to kate""}","<img src=""stim_listB/talk3.gif""style=""height:400px;""></stim_listB>",is talking to,
null,"<div style=""font-size:60px;"">+</div>",,html-keyboard-response,62,434220,0.0-13.0-0.8,35903,List2B,black,man,,,,null,,,,
null,"<img src=""stim_listB/flirt4.gif""style=""height:400px;""></stim_listB>",,html-keyboard-response,63,436226,0.0-13.0-1.8,35903,List2B,black,man,,,,null,,,,
null,are flirting with each other,,html-keyboard-response,64,438238,0.0-13.0-2.8,35903,List2B,black,man,,,,null,,,,
17381,,,survey-text,65,455624,0.0-13.0-3.8,35903,List2B,black,man,,,,,"{""Q0"":""mike and beth are flirting with each other""}","<img src=""stim_listB/flirt4.gif""style=""height:400px;""></stim_listB>",are flirting with each other,
null,"<div style=""font-size:60px;"">+</div>",,html-keyboard-response,66,456137,0.0-13.0-0.9,35903,List2B,black,man,,,,null,,,,
null,"<img src=""stim_listB/shout8.gif""style=""height:400px;""></stim_listB>",,html-keyboard-response,67,458148,0.0-13.0-1.9,35903,List2B,black,man,,,,null,,,,
null,are shouting at each other,,html-keyboard-response,68,460153,0.0-13.0-2.9,35903,List2B,black,man,,,,null,,,,
20347,,,survey-text,69,480506,0.0-13.0-3.9,35903,List2B,black,man,,,,,"{""Q0"":""jane and kate are shouting at each other""}","<img src=""stim_listB/shout8.gif""style=""height:400px;""></stim_listB>",are shouting at each other,
null,"<div style=""font-size:60px;"">+</div>",,html-keyboard-response,70,481010,0.0-13.0-0.10,35903,List2B,black,man,,,,null,,,,
null,"<img src=""stim_listB/flirt5.gif""style=""height:400px;""></stim_listB>",,html-keyboard-response,71,483023,0.0-13.0-1.10,35903,List2B,black,man,,,,null,,,,
null,is flirting with,,html-keyboard-response,72,485027,0.0-13.0-2.10,35903,List2B,black,man,,,,null,,,,
15579,,,survey-text,73,500608,0.0-13.0-3.10,35903,List2B,black,man,,,,,"{""Q0"":""mike and luke are flirting with each other""}","<img src=""stim_listB/flirt5.gif""style=""height:400px;""></stim_listB>",is flirting with,
null,"<div style=""font-size:60px;"">+</div>",,html-keyboard-response,74,501112,0.0-13.0-0.11,35903,List2B,black,man,,,,null,,,,
null,"<img src=""stim_listB/play5.gif""style=""height:400px;""></stim_listB>",,html-keyboard-response,75,503123,0.0-13.0-1.11,35903,List2B,black,man,,,,null,,,,
null,is playing with,,html-keyboard-response,76,505127,0.0-13.0-2.11,35903,List2B,black,man,,,,null,,,,
15185,,,survey-text,77,520318,0.0-13.0-3.11,35903,List2B,black,man,,,,,"{""Q0"":""mike is playing with dave""}","<img src=""stim_listB/play5.gif""style=""height:400px;""></stim_listB>",is playing with,
null,"<div style=""font-size:60px;"">+</div>",,html-keyboard-response,78,520827,0.0-13.0-0.12,35903,List2B,black,man,,,,null,,,,
null,"<img src=""stim_listB/play4.gif""style=""height:400px;""></stim_listB>",,html-keyboard-response,79,522837,0.0-13.0-1.12,35903,List2B,black,man,,,,null,,,,
null,are playing with each other,,html-keyboard-response,80,524842,0.0-13.0-2.12,35903,List2B,black,man,,,,null,,,,
18008,,,survey-text,81,542853,0.0-13.0-3.12,35903,List2B,black,man,,,,,"{""Q0"":""fred and beth are playing with each other""}","<img src=""stim_listB/play4.gif""style=""height:400px;""></stim_listB>",are playing with each other,
null,"<div style=""font-size:60px;"">+</div>",,html-keyboard-response,82,543358,0.0-13.0-0.13,35903,List2B,black,man,,,,null,,,,
null,"<img src=""stim_listB/shout5.gif""style=""height:400px;""></stim_listB>",,html-keyboard-response,83,545366,0.0-13.0-1.13,35903,List2B,black,man,,,,null,,,,
null,is shouting at,,html-keyboard-response,84,547371,0.0-13.0-2.13,35903,List2B,black,man,,,,null,,,,
15557,,,survey-text,85,562932,0.0-13.0-3.13,35903,List2B,black,man,,,,,"{""Q0"":""luke and fred are shouting at each other""}","<img src=""stim_listB/shout5.gif""style=""height:400px;""></stim_listB>",is shouting at,
null,"<div style=""font-size:60px;"">+</div>",,html-keyboard-response,86,563437,0.0-13.0-0.14,35903,List2B,black,man,,,,null,,,,
null,"<img src=""stim_listB/play8.gif""style=""height:400px;""></stim_listB>",,html-keyboard-response,87,565447,0.0-13.0-1.14,35903,List2B,black,man,,,,null,,,,
null,are playing with each other,,html-keyboard-response,88,567451,0.0-13.0-2.14,35903,List2B,black,man,,,,null,,,,
14695,,,survey-text,89,582148,0.0-13.0-3.14,35903,List2B,black,man,,,,,"{""Q0"":""ruth and beth are playing with each other""}","<img src=""stim_listB/play8.gif""style=""height:400px;""></stim_listB>",are playing with each other,
null,"<div style=""font-size:60px;"">+</div>",,html-keyboard-response,90,582651,0.0-13.0-0.15,35903,List2B,black,man,,,,null,,,,
null,"<img src=""stim_listB/flirt8.gif""style=""height:400px;""></stim_listB>",,html-keyboard-response,91,584657,0.0-13.0-1.15,35903,List2B,black,man,,,,null,,,,
null,are flirting with each other,,html-keyboard-response,92,586661,0.0-13.0-2.15,35903,List2B,black,man,,,,null,,,,
19047,,,survey-text,93,605712,0.0-13.0-3.15,35903,List2B,black,man,,,,,"{""Q0"":""beth and jane are flirting with each other""}","<img src=""stim_listB/flirt8.gif""style=""height:400px;""></stim_listB>",are flirting with each other,
null,"<div style=""font-size:60px;"">+</div>",,html-keyboard-response,94,606217,0.0-13.0-0.16,35903,List2B,black,man,,,,null,,,,
null,"<img src=""stim_listB/argue6.gif""style=""height:400px;""></stim_listB>",,html-keyboard-response,95,608227,0.0-13.0-1.16,35903,List2B,black,man,,,,null,,,,
null,are arguing with each other,,html-keyboard-response,96,610232,0.0-13.0-2.16,35903,List2B,black,man,,,,null,,,,
18854,,,survey-text,97,629091,0.0-13.0-3.16,35903,List2B,black,man,,,,,"{""Q0"":""luke and mike are arguing with each other""}","<img src=""stim_listB/argue6.gif""style=""height:400px;""></stim_listB>",are arguing with each other,
null,"<div style=""font-size:60px;"">+</div>",,html-keyboard-response,98,629596,0.0-13.0-0.17,35903,List2B,black,man,,,,null,,,,
null,"<img src=""stim_listB/argue2.gif""style=""height:400px;""></stim_listB>",,html-keyboard-response,99,631600,0.0-13.0-1.17,35903,List2B,black,man,,,,null,,,,
null,are arguing with each other,,html-keyboard-response,100,633604,0.0-13.0-2.17,35903,List2B,black,man,,,,null,,,,
20107,,,survey-text,101,653713,0.0-13.0-3.17,35903,List2B,black,man,,,,,"{""Q0"":""luke and jane are arguing with each other""}","<img src=""stim_listB/argue2.gif""style=""height:400px;""></stim_listB>",are arguing with each other,
null,"<div style=""font-size:60px;"">+</div>",,html-keyboard-response,102,654218,0.0-13.0-0.18,35903,List2B,black,man,,,,null,,,,
null,"<img src=""stim_listB/kiss1.gif""style=""height:400px;""></stim_listB>",,html-keyboard-response,103,656229,0.0-13.0-1.18,35903,List2B,black,man,,,,null,,,,
null,is kissing,,html-keyboard-response,104,658236,0.0-13.0-2.18,35903,List2B,black,man,,,,null,,,,
12729,,,survey-text,105,670969,0.0-13.0-3.18,35903,List2B,black,man,,,,,"{""Q0"":""luke is kissing ruth""}","<img src=""stim_listB/kiss1.gif""style=""height:400px;""></stim_listB>",is kissing,
null,"<div style=""font-size:60px;"">+</div>",,html-keyboard-response,106,671476,0.0-13.0-0.19,35903,List2B,black,man,,,,null,,,,
null,"<img src=""stim_listB/play3.gif""style=""height:400px;""></stim_listB>",,html-keyboard-response,107,673487,0.0-13.0-1.19,35903,List2B,black,man,,,,null,,,,
null,is playing with,,html-keyboard-response,108,675493,0.0-13.0-2.19,35903,List2B,black,man,,,,null,,,,
28317,,,survey-text,109,703815,0.0-13.0-3.19,35903,List2B,black,man,,,,,"{""Q0"":""mike and beth are playing with each other""}","<img src=""stim_listB/play3.gif""style=""height:400px;""></stim_listB>",is playing with,
14447,"<img src='img/portrait_matrix_list2.jpg' style='width:900px;height:500px;''></img><p>If you have memorised all the portraits and names and are ready to start, press Continue.</p><p><strong>Please note: Your memory of these faces will be tested 4 times during this experiment.</strong></p>",0,html-button-response,110,718269,0.0-14.0-0.0,35903,List2B,black,man,,,,,,,,
3079,"<img src=""portrait/BW2.jpg""style=""height:400px;""></img>",0,html-button-response,111,722356,0.0-14.0-1.0,35903,List2B,black,man,,TRUE,2,,,,,
4043,"<img src=""portrait/BW2.jpg""style=""height:400px;""></img>",2,html-button-response,112,727411,0.0-14.0-3.0-0.0,35903,List2B,black,man,,FALSE,2,,,,,
null,CORRECT,,html-keyboard-response,113,728932,0.0-14.0-3.0-1.0-0.0,35903,List2B,black,man,,,,null,,,,
2180,"<img src=""portrait/WM2.jpg""style=""height:400px;""></img>",6,html-button-response,114,731120,0.0-14.0-4.0,35903,List2B,black,man,,TRUE,7,,,,,
8086,"<img src=""portrait/WM2.jpg""style=""height:400px;""></img>",7,html-button-response,115,740220,0.0-14.0-6.0-0.0,35903,List2B,black,man,,FALSE,7,,,,,
null,CORRECT,,html-keyboard-response,116,741730,0.0-14.0-6.0-1.0-0.0,35903,List2B,black,man,,,,null,,,,
3413,"<img src=""portrait/BW1.jpg""style=""height:400px;""></img>",0,html-button-response,117,745152,0.0-14.0-7.0,35903,List2B,black,man,,TRUE,0,,,,,
null,CORRECT,,html-keyboard-response,118,746661,0.0-14.0-8.0-0.0,35903,List2B,black,man,,,,null,,,,
3861,"<img src=""portrait/WW2.jpg""style=""height:400px;""></img>",3,html-button-response,119,750530,0.0-14.0-10.0,35903,List2B,black,man,,TRUE,3,,,,,
null,CORRECT,,html-keyboard-response,120,752041,0.0-14.0-11.0-0.0,35903,List2B,black,man,,,,null,,,,
2658,"<img src=""portrait/BM1.jpg""style=""height:400px;""></img>",4,html-button-response,121,754706,0.0-14.0-13.0,35903,List2B,black,man,,TRUE,4,,,,,
null,CORRECT,,html-keyboard-response,122,756216,0.0-14.0-14.0-0.0,35903,List2B,black,man,,,,null,,,,
2117,"<img src=""portrait/WM1.jpg""style=""height:400px;""></img>",6,html-button-response,123,758340,0.0-14.0-16.0,35903,List2B,black,man,,TRUE,6,,,,,
null,CORRECT,,html-keyboard-response,124,759846,0.0-14.0-17.0-0.0,35903,List2B,black,man,,,,null,,,,
4507,"<img src=""portrait/WW1.jpg""style=""height:400px;""></img>",1,html-button-response,125,764358,0.0-14.0-19.0,35903,List2B,black,man,,TRUE,1,,,,,
null,CORRECT,,html-keyboard-response,126,765869,0.0-14.0-20.0-0.0,35903,List2B,black,man,,,,null,,,,
1732,"<img src=""portrait/BM2.jpg""style=""height:400px;""></img>",5,html-button-response,127,767608,0.0-14.0-22.0,35903,List2B,black,man,,TRUE,5,,,,,
null,CORRECT,,html-keyboard-response,128,769117,0.0-14.0-23.0-0.0,35903,List2B,black,man,,,,null,,,,
2363,<p>You got 6 out of 8 right first time. Press Continue.</p>,0,html-button-response,129,771492,0.0-14.0-25.0,35903,List2B,black,man,,,,,,,,
3167,"As you did not score 100%, the memory game will repeat. Press Continue.",0,html-button-response,130,775666,0.0-14.0-26.0-0.0,35903,List2B,black,man,,,,,,,,
3411,"<img src='img/portrait_matrix_list2.jpg' style='width:900px;height:500px;''></img><p>If you have memorised all the portraits and names and are ready to start, press Continue.</p><p><strong>Please note: Your memory of these faces will be tested 4 times during this experiment.</strong></p>",0,html-button-response,131,780095,0.0-14.1-0.1,35903,List2B,black,man,,,,,,,,
3668,"<img src=""portrait/BW2.jpg""style=""height:400px;""></img>",2,html-button-response,132,784774,0.0-14.1-1.1,35903,List2B,black,man,,TRUE,2,,,,,
null,CORRECT,,html-keyboard-response,133,786282,0.0-14.1-2.1-0.1,35903,List2B,black,man,,,,null,,,,
3152,"<img src=""portrait/WM2.jpg""style=""height:400px;""></img>",7,html-button-response,134,789442,0.0-14.1-4.1,35903,List2B,black,man,,TRUE,7,,,,,
null,CORRECT,,html-keyboard-response,135,790951,0.0-14.1-5.1-0.1,35903,List2B,black,man,,,,null,,,,
3255,"<img src=""portrait/BW1.jpg""style=""height:400px;""></img>",0,html-button-response,136,794214,0.0-14.1-7.1,35903,List2B,black,man,,TRUE,0,,,,,
null,CORRECT,,html-keyboard-response,137,795724,0.0-14.1-8.1-0.1,35903,List2B,black,man,,,,null,,,,
3123,"<img src=""portrait/WW2.jpg""style=""height:400px;""></img>",3,html-button-response,138,798862,0.0-14.1-10.1,35903,List2B,black,man,,TRUE,3,,,,,
null,CORRECT,,html-keyboard-response,139,800371,0.0-14.1-11.1-0.1,35903,List2B,black,man,,,,null,,,,
3683,"<img src=""portrait/BM1.jpg""style=""height:400px;""></img>",4,html-button-response,140,804064,0.0-14.1-13.1,35903,List2B,black,man,,TRUE,4,,,,,
null,CORRECT,,html-keyboard-response,141,805569,0.0-14.1-14.1-0.1,35903,List2B,black,man,,,,null,,,,
2076,"<img src=""portrait/WM1.jpg""style=""height:400px;""></img>",6,html-button-response,142,807649,0.0-14.1-16.1,35903,List2B,black,man,,TRUE,6,,,,,
null,CORRECT,,html-keyboard-response,143,809160,0.0-14.1-17.1-0.1,35903,List2B,black,man,,,,null,,,,
5479,"<img src=""portrait/WW1.jpg""style=""height:400px;""></img>",1,html-button-response,144,814648,0.0-14.1-19.1,35903,List2B,black,man,,TRUE,1,,,,,
null,CORRECT,,html-keyboard-response,145,816158,0.0-14.1-20.1-0.1,35903,List2B,black,man,,,,null,,,,
1872,"<img src=""portrait/BM2.jpg""style=""height:400px;""></img>",5,html-button-response,146,818036,0.0-14.1-22.1,35903,List2B,black,man,,TRUE,5,,,,,
null,CORRECT,,html-keyboard-response,147,819545,0.0-14.1-23.1-0.1,35903,List2B,black,man,,,,null,,,,
1647,<p>You got 8 out of 8 right first time. Press Continue.</p>,0,html-button-response,148,821200,0.0-14.1-25.1,35903,List2B,black,man,,,,,,,,
null,"<div style=""font-size:60px;"">+</div>",,html-keyboard-response,149,822710,0.0-15.0-0.0,35903,List2B,black,man,,,,null,,,,
null,"<img src=""stim_listB/touch3.gif""style=""height:400px;""></stim_listB>",,html-keyboard-response,150,824726,0.0-15.0-1.0,35903,List2B,black,man,,,,null,,,,
null,is touching,,html-keyboard-response,151,826733,0.0-15.0-2.0,35903,List2B,black,man,,,,null,,,,
13233,,,survey-text,152,839972,0.0-15.0-3.0,35903,List2B,black,man,,,,,"{""Q0"":""mike is touching kate""}","<img src=""stim_listB/touch3.gif""style=""height:400px;""></stim_listB>",is touching,
null,"<div style=""font-size:60px;"">+</div>",,html-keyboard-response,153,840476,0.0-15.0-0.1,35903,List2B,black,man,,,,null,,,,
null,"<img src=""stim_listB/fight7.gif""style=""height:400px;""></stim_listB>",,html-keyboard-response,154,842488,0.0-15.0-1.1,35903,List2B,black,man,,,,null,,,,
null,is fighting,,html-keyboard-response,155,844493,0.0-15.0-2.1,35903,List2B,black,man,,,,null,,,,
10667,,,survey-text,156,855165,0.0-15.0-3.1,35903,List2B,black,man,,,,,"{""Q0"":""jane is fighting kate""}","<img src=""stim_listB/fight7.gif""style=""height:400px;""></stim_listB>",is fighting,
null,"<div style=""font-size:60px;"">+</div>",,html-keyboard-response,157,855671,0.0-15.0-0.2,35903,List2B,black,man,,,,null,,,,
null,"<img src=""stim_listB/kiss5.gif""style=""height:400px;""></stim_listB>",,html-keyboard-response,158,857680,0.0-15.0-1.2,35903,List2B,black,man,,,,null,,,,
null,is kissing,,html-keyboard-response,159,859684,0.0-15.0-2.2,35903,List2B,black,man,,,,null,,,,
11460,,,survey-text,160,871148,0.0-15.0-3.2,35903,List2B,black,man,,,,,"{""Q0"":""luke is kissing dave""}","<img src=""stim_listB/kiss5.gif""style=""height:400px;""></stim_listB>",is kissing,
null,"<div style=""font-size:60px;"">+</div>",,html-keyboard-response,161,871651,0.0-15.0-0.3,35903,List2B,black,man,,,,null,,,,
null,"<img src=""stim_listB/marry5.gif""style=""height:400px;""></stim_listB>",,html-keyboard-response,162,873656,0.0-15.0-1.3,35903,List2B,black,man,,,,null,,,,
null,is marrying,,html-keyboard-response,163,875685,0.0-15.0-2.3,35903,List2B,black,man,,,,null,,,,
15150,,,survey-text,164,890840,0.0-15.0-3.3,35903,List2B,black,man,,,,,"{""Q0"":""dave is marrying fred""}","<img src=""stim_listB/marry5.gif""style=""height:400px;""></stim_listB>",is marrying,
null,"<div style=""font-size:60px;"">+</div>",,html-keyboard-response,165,891345,0.0-15.0-0.4,35903,List2B,black,man,,,,null,,,,
null,"<img src=""stim_listB/marry3.gif""style=""height:400px;""></stim_listB>",,html-keyboard-response,166,893355,0.0-15.0-1.4,35903,List2B,black,man,,,,null,,,,
null,is marrying,,html-keyboard-response,167,895358,0.0-15.0-2.4,35903,List2B,black,man,,,,null,,,,
10219,,,survey-text,168,905580,0.0-15.0-3.4,35903,List2B,black,man,,,,,"{""Q0"":""mike is marrying beth""}","<img src=""stim_listB/marry3.gif""style=""height:400px;""></stim_listB>",is marrying,
null,"<div style=""font-size:60px;"">+</div>",,html-keyboard-response,169,906083,0.0-15.0-0.5,35903,List2B,black,man,,,,null,,,,
null,"<img src=""stim_listB/talk8.gif""style=""height:400px;""></stim_listB>",,html-keyboard-response,170,908088,0.0-15.0-1.5,35903,List2B,black,man,,,,null,,,,
null,are talking to each other,,html-keyboard-response,171,910099,0.0-15.0-2.5,35903,List2B,black,man,,,,null,,,,
18490,,,survey-text,172,928594,0.0-15.0-3.5,35903,List2B,black,man,,,,,"{""Q0"":""beth and jane are talking to each other""}","<img src=""stim_listB/talk8.gif""style=""height:400px;""></stim_listB>",are talking to each other,
null,"<div style=""font-size:60px;"">+</div>",,html-keyboard-response,173,929099,0.0-15.0-0.6,35903,List2B,black,man,,,,null,,,,
null,"<img src=""stim_listB/dance6.gif""style=""height:400px;""></stim_listB>",,html-keyboard-response,174,931112,0.0-15.0-1.6,35903,List2B,black,man,,,,null,,,,
null,are dancing with each other,,html-keyboard-response,175,933118,0.0-15.0-2.6,35903,List2B,black,man,,,,null,,,,
26558,,,survey-text,176,959680,0.0-15.0-3.6,35903,List2B,black,man,,,,,"{""Q0"":""fred and dave are dancing with each other""}","<img src=""stim_listB/dance6.gif""style=""height:400px;""></stim_listB>",are dancing with each other,
null,"<div style=""font-size:60px;"">+</div>",,html-keyboard-response,177,960185,0.0-15.0-0.7,35903,List2B,black,man,,,,null,,,,
null,"<img src=""stim_listB/dance4.gif""style=""height:400px;""></stim_listB>",,html-keyboard-response,178,962189,0.0-15.0-1.7,35903,List2B,black,man,,,,null,,,,
null,are dancing with each other,,html-keyboard-response,179,964197,0.0-15.0-2.7,35903,List2B,black,man,,,,null,,,,
14897,,,survey-text,180,979099,0.0-15.0-3.7,35903,List2B,black,man,,,,,"{""Q0"":""mike and beth are dancing with each other""}","<img src=""stim_listB/dance4.gif""style=""height:400px;""></stim_listB>",are dancing with each other,
null,"<div style=""font-size:60px;"">+</div>",,html-keyboard-response,181,979604,0.0-15.0-0.8,35903,List2B,black,man,,,,null,,,,
null,"<img src=""stim_listB/dance3.gif""style=""height:400px;""></stim_listB>",,html-keyboard-response,182,981614,0.0-15.0-1.8,35903,List2B,black,man,,,,null,,,,
null,is dancing with,,html-keyboard-response,183,983620,0.0-15.0-2.8,35903,List2B,black,man,,,,null,,,,
14904,,,survey-text,184,998528,0.0-15.0-3.8,35903,List2B,black,man,,,,,"{""Q0"":""fred and kate are dancing""}","<img src=""stim_listB/dance3.gif""style=""height:400px;""></stim_listB>",is dancing with,
null,"<div style=""font-size:60px;"">+</div>",,html-keyboard-response,185,999033,0.0-15.0-0.9,35903,List2B,black,man,,,,null,,,,
null,"<img src=""stim_listB/flirt6.gif""style=""height:400px;""></stim_listB>",,html-keyboard-response,186,1001045,0.0-15.0-1.9,35903,List2B,black,man,,,,null,,,,
null,are flirting with each other,,html-keyboard-response,187,1003050,0.0-15.0-2.9,35903,List2B,black,man,,,,null,,,,
13036,,,survey-text,188,1016090,0.0-15.0-3.9,35903,List2B,black,man,,,,,"{""Q0"":""fred and dave are flirting with each other""}","<img src=""stim_listB/flirt6.gif""style=""height:400px;""></stim_listB>",are flirting with each other,
null,"<div style=""font-size:60px;"">+</div>",,html-keyboard-response,189,1016596,0.0-15.0-0.10,35903,List2B,black,man,,,,null,,,,
null,"<img src=""stim_listB/play1.gif""style=""height:400px;""></stim_listB>",,html-keyboard-response,190,1018608,0.0-15.0-1.10,35903,List2B,black,man,,,,null,,,,
null,is playing with,,html-keyboard-response,191,1020612,0.0-15.0-2.10,35903,List2B,black,man,,,,null,,,,
10538,,,survey-text,192,1031155,0.0-15.0-3.10,35903,List2B,black,man,,,,,"{""Q0"":""jane is playing with dave""}","<img src=""stim_listB/play1.gif""style=""height:400px;""></stim_listB>",is playing with,
null,"<div style=""font-size:60px;"">+</div>",,html-keyboard-response,193,1031660,0.0-15.0-0.11,35903,List2B,black,man,,,,null,,,,
null,"<img src=""stim_listB/argue1.gif""style=""height:400px;""></stim_listB>",,html-keyboard-response,194,1033670,0.0-15.0-1.11,35903,List2B,black,man,,,,null,,,,
null,is arguing with,,html-keyboard-response,195,1035674,0.0-15.0-2.11,35903,List2B,black,man,,,,null,,,,
14622,,,survey-text,196,1050302,0.0-15.0-3.11,35903,List2B,black,man,,,,,"{""Q0"":""dave is arguing with ruth""}","<img src=""stim_listB/argue1.gif""style=""height:400px;""></stim_listB>",is arguing with,
null,"<div style=""font-size:60px;"">+</div>",,html-keyboard-response,197,1050808,0.0-15.0-0.12,35903,List2B,black,man,,,,null,,,,
null,"<img src=""stim_listB/touch1.gif""style=""height:400px;""></stim_listB>",,html-keyboard-response,198,1052819,0.0-15.0-1.12,35903,List2B,black,man,,,,null,,,,
null,is touching,,html-keyboard-response,199,1054824,0.0-15.0-2.12,35903,List2B,black,man,,,,null,,,,
14293,,,survey-text,200,1069124,0.0-15.0-3.12,35903,List2B,black,man,,,,,"{""Q0"":""dave is touching jane""}","<img src=""stim_listB/touch1.gif""style=""height:400px;""></stim_listB>",is touching,
null,"<div style=""font-size:60px;"">+</div>",,html-keyboard-response,201,1069631,0.0-15.0-0.13,35903,List2B,black,man,,,,null,,,,
null,"<img src=""stim_listB/kiss7.gif""style=""height:400px;""></stim_listB>",,html-keyboard-response,202,1071636,0.0-15.0-1.13,35903,List2B,black,man,,,,null,,,,
null,is kissing,,html-keyboard-response,203,1073642,0.0-15.0-2.13,35903,List2B,black,man,,,,null,,,,
8737,,,survey-text,204,1082384,0.0-15.0-3.13,35903,List2B,black,man,,,,,"{""Q0"":""beth is kissing ruth""}","<img src=""stim_listB/kiss7.gif""style=""height:400px;""></stim_listB>",is kissing,
null,"<div style=""font-size:60px;"">+</div>",,html-keyboard-response,205,1082888,0.0-15.0-0.14,35903,List2B,black,man,,,,null,,,,
null,"<img src=""stim_listB/talk5.gif""style=""height:400px;""></stim_listB>",,html-keyboard-response,206,1084920,0.0-15.0-1.14,35903,List2B,black,man,,,,null,,,,
null,is talking to,,html-keyboard-response,207,1086924,0.0-15.0-2.14,35903,List2B,black,man,,,,null,,,,
7360,,,survey-text,208,1094286,0.0-15.0-3.14,35903,List2B,black,man,,,,,"{""Q0"":""mike is talking to ruth""}","<img src=""stim_listB/talk5.gif""style=""height:400px;""></stim_listB>",is talking to,
null,"<div style=""font-size:60px;"">+</div>",,html-keyboard-response,209,1094791,0.0-15.0-0.15,35903,List2B,black,man,,,,null,,,,
null,"<img src=""stim_listB/flirt2.gif""style=""height:400px;""></stim_listB>",,html-keyboard-response,210,1096801,0.0-15.0-1.15,35903,List2B,black,man,,,,null,,,,
null,are flirting with each other,,html-keyboard-response,211,1098812,0.0-15.0-2.15,35903,List2B,black,man,,,,null,,,,
14148,,,survey-text,212,1112962,0.0-15.0-3.15,35903,List2B,black,man,,,,,"{""Q0"":""ruth and dave are flirting with each other""}","<img src=""stim_listB/flirt2.gif""style=""height:400px;""></stim_listB>",are flirting with each other,
null,"<div style=""font-size:60px;"">+</div>",,html-keyboard-response,213,1113467,0.0-15.0-0.16,35903,List2B,black,man,,,,null,,,,
null,"<img src=""stim_listB/marry8.gif""style=""height:400px;""></stim_listB>",,html-keyboard-response,214,1115478,0.0-15.0-1.16,35903,List2B,black,man,,,,null,,,,
null,are marrying each other,,html-keyboard-response,215,1117485,0.0-15.0-2.16,35903,List2B,black,man,,,,null,,,,
19793,,,survey-text,216,1137280,0.0-15.0-3.16,35903,List2B,black,man,,,,,"{""Q0"":""dave and ruth are marrying each other""}","<img src=""stim_listB/marry8.gif""style=""height:400px;""></stim_listB>",are marrying each other,
null,"<div style=""font-size:60px;"">+</div>",,html-keyboard-response,217,1137784,0.0-15.0-0.17,35903,List2B,black,man,,,,null,,,,
null,"<img src=""stim_listB/argue5.gif""style=""height:400px;""></stim_listB>",,html-keyboard-response,218,1139794,0.0-15.0-1.17,35903,List2B,black,man,,,,null,,,,
null,is arguing with,,html-keyboard-response,219,1141798,0.0-15.0-2.17,35903,List2B,black,man,,,,null,,,,
11975,,,survey-text,220,1153779,0.0-15.0-3.17,35903,List2B,black,man,,,,,"{""Q0"":""fred and dave are arguing""}","<img src=""stim_listB/argue5.gif""style=""height:400px;""></stim_listB>",is arguing with,
null,"<div style=""font-size:60px;"">+</div>",,html-keyboard-response,221,1154284,0.0-15.0-0.18,35903,List2B,black,man,,,,null,,,,
null,"<img src=""stim_listB/dance8.gif""style=""height:400px;""></stim_listB>",,html-keyboard-response,222,1156294,0.0-15.0-1.18,35903,List2B,black,man,,,,null,,,,
null,are dancing with each other,,html-keyboard-response,223,1158300,0.0-15.0-2.18,35903,List2B,black,man,,,,null,,,,
20871,,,survey-text,224,1179176,0.0-15.0-3.18,35903,List2B,black,man,,,,,"{""Q0"":""jane and beth are dancing with each other""}","<img src=""stim_listB/dance8.gif""style=""height:400px;""></stim_listB>",are dancing with each other,
null,"<div style=""font-size:60px;"">+</div>",,html-keyboard-response,225,1179681,0.0-15.0-0.19,35903,List2B,black,man,,,,null,,,,
null,"<img src=""stim_listB/dance7.gif""style=""height:400px;""></stim_listB>",,html-keyboard-response,226,1181694,0.0-15.0-1.19,35903,List2B,black,man,,,,null,,,,
null,is dancing with,,html-keyboard-response,227,1183708,0.0-15.0-2.19,35903,List2B,black,man,,,,null,,,,
14561,,,survey-text,228,1198274,0.0-15.0-3.19,35903,List2B,black,man,,,,,"{""Q0"":""ruth is dancing with kate""}","<img src=""stim_listB/dance7.gif""style=""height:400px;""></stim_listB>",is dancing with,
2730,"<img src='img/portrait_matrix_list2.jpg' style='width:900px;height:500px;''></img><p>If you have memorised all the portraits and names and are ready to start, press Continue.</p><p><strong>Please note: Your memory of these faces will be tested 4 times during this experiment.</strong></p>",0,html-button-response,229,1201008,0.0-16.0-0.0,35903,List2B,black,man,,,,,,,,
4904,"<img src=""portrait/BM1.jpg""style=""height:400px;""></img>",4,html-button-response,230,1206926,0.0-16.0-1.0,35903,List2B,black,man,,TRUE,4,,,,,
null,CORRECT,,html-keyboard-response,231,1208433,0.0-16.0-2.0-0.0,35903,List2B,black,man,,,,null,,,,
2065,"<img src=""portrait/BM2.jpg""style=""height:400px;""></img>",5,html-button-response,232,1210503,0.0-16.0-4.0,35903,List2B,black,man,,TRUE,5,,,,,
null,CORRECT,,html-keyboard-response,233,1212022,0.0-16.0-5.0-0.0,35903,List2B,black,man,,,,null,,,,
2454,"<img src=""portrait/WW1.jpg""style=""height:400px;""></img>",2,html-button-response,234,1214486,0.0-16.0-7.0,35903,List2B,black,man,,TRUE,1,,,,,
2730,"<img src=""portrait/WW1.jpg""style=""height:400px;""></img>",1,html-button-response,235,1218229,0.0-16.0-9.0-0.0,35903,List2B,black,man,,FALSE,1,,,,,
null,CORRECT,,html-keyboard-response,236,1219739,0.0-16.0-9.0-1.0-0.0,35903,List2B,black,man,,,,null,,,,
4688,"<img src=""portrait/BW2.jpg""style=""height:400px;""></img>",2,html-button-response,237,1224431,0.0-16.0-10.0,35903,List2B,black,man,,TRUE,2,,,,,
null,CORRECT,,html-keyboard-response,238,1225940,0.0-16.0-11.0-0.0,35903,List2B,black,man,,,,null,,,,
4066,"<img src=""portrait/WM2.jpg""style=""height:400px;""></img>",7,html-button-response,239,1230022,0.0-16.0-13.0,35903,List2B,black,man,,TRUE,7,,,,,
null,CORRECT,,html-keyboard-response,240,1231526,0.0-16.0-14.0-0.0,35903,List2B,black,man,,,,null,,,,
17098,"<img src=""portrait/BW1.jpg""style=""height:400px;""></img>",0,html-button-response,241,1248629,0.0-16.0-16.0,35903,List2B,black,man,,TRUE,0,,,,,
null,CORRECT,,html-keyboard-response,242,1250138,0.0-16.0-17.0-0.0,35903,List2B,black,man,,,,null,,,,
2699,"<img src=""portrait/WW2.jpg""style=""height:400px;""></img>",3,html-button-response,243,1252844,0.0-16.0-19.0,35903,List2B,black,man,,TRUE,3,,,,,
null,CORRECT,,html-keyboard-response,244,1254351,0.0-16.0-20.0-0.0,35903,List2B,black,man,,,,null,,,,
1738,"<img src=""portrait/WM1.jpg""style=""height:400px;""></img>",6,html-button-response,245,1256097,0.0-16.0-22.0,35903,List2B,black,man,,TRUE,6,,,,,
null,CORRECT,,html-keyboard-response,246,1257605,0.0-16.0-23.0-0.0,35903,List2B,black,man,,,,null,,,,
2517,<p>You got 7 out of 8 right first time. Press Continue.</p>,0,html-button-response,247,1260128,0.0-16.0-25.0,35903,List2B,black,man,,,,,,,,
1692,"As you did not score 100%, the memory game will repeat. Press Continue.",0,html-button-response,248,1262826,0.0-16.0-26.0-0.0,35903,List2B,black,man,,,,,,,,
2835,"<img src='img/portrait_matrix_list2.jpg' style='width:900px;height:500px;''></img><p>If you have memorised all the portraits and names and are ready to start, press Continue.</p><p><strong>Please note: Your memory of these faces will be tested 4 times during this experiment.</strong></p>",0,html-button-response,249,1266669,0.0-16.1-0.1,35903,List2B,black,man,,,,,,,,
5138,"<img src=""portrait/BM1.jpg""style=""height:400px;""></img>",4,html-button-response,250,1272817,0.0-16.1-1.1,35903,List2B,black,man,,TRUE,4,,,,,
null,CORRECT,,html-keyboard-response,251,1274322,0.0-16.1-2.1-0.1,35903,List2B,black,man,,,,null,,,,
12642,"<img src=""portrait/BM2.jpg""style=""height:400px;""></img>",5,html-button-response,252,1286973,0.0-16.1-4.1,35903,List2B,black,man,,TRUE,5,,,,,
null,CORRECT,,html-keyboard-response,253,1288484,0.0-16.1-5.1-0.1,35903,List2B,black,man,,,,null,,,,
3933,"<img src=""portrait/WW1.jpg""style=""height:400px;""></img>",1,html-button-response,254,1292425,0.0-16.1-7.1,35903,List2B,black,man,,TRUE,1,,,,,
null,CORRECT,,html-keyboard-response,255,1293931,0.0-16.1-8.1-0.1,35903,List2B,black,man,,,,null,,,,
2649,"<img src=""portrait/BW2.jpg""style=""height:400px;""></img>",2,html-button-response,256,1296585,0.0-16.1-10.1,35903,List2B,black,man,,TRUE,2,,,,,
null,CORRECT,,html-keyboard-response,257,1298096,0.0-16.1-11.1-0.1,35903,List2B,black,man,,,,null,,,,
3623,"<img src=""portrait/WM2.jpg""style=""height:400px;""></img>",7,html-button-response,258,1301730,0.0-16.1-13.1,35903,List2B,black,man,,TRUE,7,,,,,
null,CORRECT,,html-keyboard-response,259,1303238,0.0-16.1-14.1-0.1,35903,List2B,black,man,,,,null,,,,
4230,"<img src=""portrait/BW1.jpg""style=""height:400px;""></img>",0,html-button-response,260,1307481,0.0-16.1-16.1,35903,List2B,black,man,,TRUE,0,,,,,
null,CORRECT,,html-keyboard-response,261,1308990,0.0-16.1-17.1-0.1,35903,List2B,black,man,,,,null,,,,
3943,"<img src=""portrait/WW2.jpg""style=""height:400px;""></img>",3,html-button-response,262,1312953,0.0-16.1-19.1,35903,List2B,black,man,,TRUE,3,,,,,
null,CORRECT,,html-keyboard-response,263,1314463,0.0-16.1-20.1-0.1,35903,List2B,black,man,,,,null,,,,
1881,"<img src=""portrait/WM1.jpg""style=""height:400px;""></img>",6,html-button-response,264,1316355,0.0-16.1-22.1,35903,List2B,black,man,,TRUE,6,,,,,
null,CORRECT,,html-keyboard-response,265,1317859,0.0-16.1-23.1-0.1,35903,List2B,black,man,,,,null,,,,
1485,<p>You got 8 out of 8 right first time. Press Continue.</p>,0,html-button-response,266,1319352,0.0-16.1-25.1,35903,List2B,black,man,,,,,,,,
null,"<div style=""font-size:60px;"">+</div>",,html-keyboard-response,267,1320863,0.0-17.0-0.0,35903,List2B,black,man,,,,null,,,,
null,"<img src=""stim_listB/kiss3.gif""style=""height:400px;""></stim_listB>",,html-keyboard-response,268,1322879,0.0-17.0-1.0,35903,List2B,black,man,,,,null,,,,
null,is kissing,,html-keyboard-response,269,1324883,0.0-17.0-2.0,35903,List2B,black,man,,,,null,,,,
11242,,,survey-text,270,1336133,0.0-17.0-3.0,35903,List2B,black,man,,,,,"{""Q0"":""fred is kissing beth""}","<img src=""stim_listB/kiss3.gif""style=""height:400px;""></stim_listB>",is kissing,
null,"<div style=""font-size:60px;"">+</div>",,html-keyboard-response,271,1336637,0.0-17.0-0.1,35903,List2B,black,man,,,,null,,,,
null,"<img src=""stim_listB/shout4.gif""style=""height:400px;""></stim_listB>",,html-keyboard-response,272,1338647,0.0-17.0-1.1,35903,List2B,black,man,,,,null,,,,
null,are shouting at each other,,html-keyboard-response,273,1340652,0.0-17.0-2.1,35903,List2B,black,man,,,,null,,,,
16637,,,survey-text,274,1357294,0.0-17.0-3.1,35903,List2B,black,man,,,,,"{""Q0"":""mike and kate are shouting at each other""}","<img src=""stim_listB/shout4.gif""style=""height:400px;""></stim_listB>",are shouting at each other,
null,"<div style=""font-size:60px;"">+</div>",,html-keyboard-response,275,1357798,0.0-17.0-0.2,35903,List2B,black,man,,,,null,,,,
null,"<img src=""stim_listB/dance5.gif""style=""height:400px;""></stim_listB>",,html-keyboard-response,276,1359802,0.0-17.0-1.2,35903,List2B,black,man,,,,null,,,,
null,is dancing with,,html-keyboard-response,277,1361807,0.0-17.0-2.2,35903,List2B,black,man,,,,null,,,,
18231,,,survey-text,278,1380041,0.0-17.0-3.2,35903,List2B,black,man,,,,,"{""Q0"":""luke is dancing with mike""}","<img src=""stim_listB/dance5.gif""style=""height:400px;""></stim_listB>",is dancing with,
null,"<div style=""font-size:60px;"">+</div>",,html-keyboard-response,279,1380547,0.0-17.0-0.3,35903,List2B,black,man,,,,null,,,,
null,"<img src=""stim_listB/marry7.gif""style=""height:400px;""></stim_listB>",,html-keyboard-response,280,1382559,0.0-17.0-1.3,35903,List2B,black,man,,,,null,,,,
null,is marrying,,html-keyboard-response,281,1384565,0.0-17.0-2.3,35903,List2B,black,man,,,,null,,,,
11137,,,survey-text,282,1395708,0.0-17.0-3.3,35903,List2B,black,man,,,,,"{""Q0"":""beth is marrying jane""}","<img src=""stim_listB/marry7.gif""style=""height:400px;""></stim_listB>",is marrying,
null,"<div style=""font-size:60px;"">+</div>",,html-keyboard-response,283,1396212,0.0-17.0-0.4,35903,List2B,black,man,,,,null,,,,
null,"<img src=""stim_listB/argue4.gif""style=""height:400px;""></stim_listB>",,html-keyboard-response,284,1398216,0.0-17.0-1.4,35903,List2B,black,man,,,,null,,,,
null,are arguing with each other,,html-keyboard-response,285,1400224,0.0-17.0-2.4,35903,List2B,black,man,,,,null,,,,
14396,,,survey-text,286,1414630,0.0-17.0-3.4,35903,List2B,black,man,,,,,"{""Q0"":""fred and kate are arguing with each other""}","<img src=""stim_listB/argue4.gif""style=""height:400px;""></stim_listB>",are arguing with each other,
null,"<div style=""font-size:60px;"">+</div>",,html-keyboard-response,287,1415134,0.0-17.0-0.5,35903,List2B,black,man,,,,null,,,,
null,"<img src=""stim_listB/fight8.gif""style=""height:400px;""></stim_listB>",,html-keyboard-response,288,1417139,0.0-17.0-1.5,35903,List2B,black,man,,,,null,,,,
null,are fighting each other,,html-keyboard-response,289,1419153,0.0-17.0-2.5,35903,List2B,black,man,,,,null,,,,
16102,,,survey-text,290,1435260,0.0-17.0-3.5,35903,List2B,black,man,,,,,"{""Q0"":""ruth and beth are fighting each other""}","<img src=""stim_listB/fight8.gif""style=""height:400px;""></stim_listB>",are fighting each other,
null,"<div style=""font-size:60px;"">+</div>",,html-keyboard-response,291,1435767,0.0-17.0-0.6,35903,List2B,black,man,,,,null,,,,
null,"<img src=""stim_listB/play2.gif""style=""height:400px;""></stim_listB>",,html-keyboard-response,292,1437778,0.0-17.0-1.6,35903,List2B,black,man,,,,null,,,,
null,are playing with each other,,html-keyboard-response,293,1439783,0.0-17.0-2.6,35903,List2B,black,man,,,,null,,,,
12086,,,survey-text,294,1451872,0.0-17.0-3.6,35903,List2B,black,man,,,,,"{""Q0"":""luke and ruth are playing with each other""}","<img src=""stim_listB/play2.gif""style=""height:400px;""></stim_listB>",are playing with each other,
null,"<div style=""font-size:60px;"">+</div>",,html-keyboard-response,295,1452378,0.0-17.0-0.7,35903,List2B,black,man,,,,null,,,,
null,"<img src=""stim_listB/kiss6.gif""style=""height:400px;""></stim_listB>",,html-keyboard-response,296,1454393,0.0-17.0-1.7,35903,List2B,black,man,,,,null,,,,
null,are kissing each other,,html-keyboard-response,297,1456415,0.0-17.0-2.7,35903,List2B,black,man,,,,null,,,,
15449,,,survey-text,298,1471867,0.0-17.0-3.7,35903,List2B,black,man,,,,,"{""Q0"":""mike and dave are kissing each other""}","<img src=""stim_listB/kiss6.gif""style=""height:400px;""></stim_listB>",are kissing each other,
null,"<div style=""font-size:60px;"">+</div>",,html-keyboard-response,299,1472372,0.0-17.0-0.8,35903,List2B,black,man,,,,null,,,,
null,"<img src=""stim_listB/shout2.gif""style=""height:400px;""></stim_listB>",,html-keyboard-response,300,1474384,0.0-17.0-1.8,35903,List2B,black,man,,,,null,,,,
null,are shouting at each other,,html-keyboard-response,301,1476394,0.0-17.0-2.8,35903,List2B,black,man,,,,null,,,,
18016,,,survey-text,302,1494420,0.0-17.0-3.8,35903,List2B,black,man,,,,,"{""Q0"":""dave and jane are shouting at each other""}","<img src=""stim_listB/shout2.gif""style=""height:400px;""></stim_listB>",are shouting at each other,
null,"<div style=""font-size:60px;"">+</div>",,html-keyboard-response,303,1494925,0.0-17.0-0.9,35903,List2B,black,man,,,,null,,,,
null,"<img src=""stim_listB/touch5.gif""style=""height:400px;""></stim_listB>",,html-keyboard-response,304,1496936,0.0-17.0-1.9,35903,List2B,black,man,,,,null,,,,
null,is touching,,html-keyboard-response,305,1498941,0.0-17.0-2.9,35903,List2B,black,man,,,,null,,,,
13946,,,survey-text,306,1512893,0.0-17.0-3.9,35903,List2B,black,man,,,,,"{""Q0"":""mike is touching dave""}","<img src=""stim_listB/touch5.gif""style=""height:400px;""></stim_listB>",is touching,
null,"<div style=""font-size:60px;"">+</div>",,html-keyboard-response,307,1513400,0.0-17.0-0.10,35903,List2B,black,man,,,,null,,,,
null,"<img src=""stim_listB/shout1.gif""style=""height:400px;""></stim_listB>",,html-keyboard-response,308,1515414,0.0-17.0-1.10,35903,List2B,black,man,,,,null,,,,
null,is shouting at,,html-keyboard-response,309,1517419,0.0-17.0-2.10,35903,List2B,black,man,,,,null,,,,
12491,,,survey-text,310,1529916,0.0-17.0-3.10,35903,List2B,black,man,,,,,"{""Q0"":""luke is shouting at ruth""}","<img src=""stim_listB/shout1.gif""style=""height:400px;""></stim_listB>",is shouting at,
null,"<div style=""font-size:60px;"">+</div>",,html-keyboard-response,311,1530421,0.0-17.0-0.11,35903,List2B,black,man,,,,null,,,,
null,"<img src=""stim_listB/talk1.gif""style=""height:400px;""></stim_listB>",,html-keyboard-response,312,1532433,0.0-17.0-1.11,35903,List2B,black,man,,,,null,,,,
null,is talking to,,html-keyboard-response,313,1534442,0.0-17.0-2.11,35903,List2B,black,man,,,,null,,,,
17159,,,survey-text,314,1551606,0.0-17.0-3.11,35903,List2B,black,man,,,,,"{""Q0"":""luke is talking to jane ""}","<img src=""stim_listB/talk1.gif""style=""height:400px;""></stim_listB>",is talking to,
null,"<div style=""font-size:60px;"">+</div>",,html-keyboard-response,315,1552113,0.0-17.0-0.12,35903,List2B,black,man,,,,null,,,,
null,"<img src=""stim_listB/flirt7.gif""style=""height:400px;""></stim_listB>",,html-keyboard-response,316,1554123,0.0-17.0-1.12,35903,List2B,black,man,,,,null,,,,
null,is flirting with,,html-keyboard-response,317,1556126,0.0-17.0-2.12,35903,List2B,black,man,,,,null,,,,
19265,,,survey-text,318,1575393,0.0-17.0-3.12,35903,List2B,black,man,,,,,"{""Q0"":""ruth is flirthing with kate""}","<img src=""stim_listB/flirt7.gif""style=""height:400px;""></stim_listB>",is flirting with,
null,"<div style=""font-size:60px;"">+</div>",,html-keyboard-response,319,1575897,0.0-17.0-0.13,35903,List2B,black,man,,,,null,,,,
null,"<img src=""stim_listB/talk6.gif""style=""height:400px;""></stim_listB>",,html-keyboard-response,320,1577908,0.0-17.0-1.13,35903,List2B,black,man,,,,null,,,,
null,are talking to each other,,html-keyboard-response,321,1579913,0.0-17.0-2.13,35903,List2B,black,man,,,,null,,,,
14435,,,survey-text,322,1594353,0.0-17.0-3.13,35903,List2B,black,man,,,,,"{""Q0"":""fred and dave are talking to each other""}","<img src=""stim_listB/talk6.gif""style=""height:400px;""></stim_listB>",are talking to each other,
null,"<div style=""font-size:60px;"">+</div>",,html-keyboard-response,323,1594859,0.0-17.0-0.14,35903,List2B,black,man,,,,null,,,,
null,"<img src=""stim_listB/play7.gif""style=""height:400px;""></stim_listB>",,html-keyboard-response,324,1596870,0.0-17.0-1.14,35903,List2B,black,man,,,,null,,,,
null,is playing with,,html-keyboard-response,325,1598877,0.0-17.0-2.14,35903,List2B,black,man,,,,null,,,,
14226,,,survey-text,326,1613107,0.0-17.0-3.14,35903,List2B,black,man,,,,,"{""Q0"":""jane is playing with kate""}","<img src=""stim_listB/play7.gif""style=""height:400px;""></stim_listB>",is playing with,
null,"<div style=""font-size:60px;"">+</div>",,html-keyboard-response,327,1613612,0.0-17.0-0.15,35903,List2B,black,man,,,,null,,,,
null,"<img src=""stim_listB/shout7.gif""style=""height:400px;""></stim_listB>",,html-keyboard-response,328,1615625,0.0-17.0-1.15,35903,List2B,black,man,,,,null,,,,
null,is shouting at,,html-keyboard-response,329,1617634,0.0-17.0-2.15,35903,List2B,black,man,,,,null,,,,
13324,,,survey-text,330,1630964,0.0-17.0-3.15,35903,List2B,black,man,,,,,"{""Q0"":""ruth is shouting at beth""}","<img src=""stim_listB/shout7.gif""style=""height:400px;""></stim_listB>",is shouting at,
null,"<div style=""font-size:60px;"">+</div>",,html-keyboard-response,331,1631469,0.0-17.0-0.16,35903,List2B,black,man,,,,null,,,,
null,"<img src=""stim_listB/dance1.gif""style=""height:400px;""></stim_listB>",,html-keyboard-response,332,1633484,0.0-17.0-1.16,35903,List2B,black,man,,,,null,,,,
null,is dancing with,,html-keyboard-response,333,1635491,0.0-17.0-2.16,35903,List2B,black,man,,,,null,,,,
10126,,,survey-text,334,1645622,0.0-17.0-3.16,35903,List2B,black,man,,,,,"{""Q0"":""luke is dancing with jane""}","<img src=""stim_listB/dance1.gif""style=""height:400px;""></stim_listB>",is dancing with,
null,"<div style=""font-size:60px;"">+</div>",,html-keyboard-response,335,1646126,0.0-17.0-0.17,35903,List2B,black,man,,,,null,,,,
null,"<img src=""stim_listB/dance2.gif""style=""height:400px;""></stim_listB>",,html-keyboard-response,336,1648132,0.0-17.0-1.17,35903,List2B,black,man,,,,null,,,,
null,are dancing with each other,,html-keyboard-response,337,1650139,0.0-17.0-2.17,35903,List2B,black,man,,,,null,,,,
17353,,,survey-text,338,1667498,0.0-17.0-3.17,35903,List2B,black,man,,,,,"{""Q0"":""jane and dave are dancing with each other""}","<img src=""stim_listB/dance2.gif""style=""height:400px;""></stim_listB>",are dancing with each other,
null,"<div style=""font-size:60px;"">+</div>",,html-keyboard-response,339,1668004,0.0-17.0-0.18,35903,List2B,black,man,,,,null,,,,
null,"<img src=""stim_listB/play6.gif""style=""height:400px;""></stim_listB>",,html-keyboard-response,340,1670011,0.0-17.0-1.18,35903,List2B,black,man,,,,null,,,,
null,are playing with each other,,html-keyboard-response,341,1672017,0.0-17.0-2.18,35903,List2B,black,man,,,,null,,,,
16559,,,survey-text,342,1688580,0.0-17.0-3.18,35903,List2B,black,man,,,,,"{""Q0"":""fred and luke are playing with each other""}","<img src=""stim_listB/play6.gif""style=""height:400px;""></stim_listB>",are playing with each other,
null,"<div style=""font-size:60px;"">+</div>",,html-keyboard-response,343,1689086,0.0-17.0-0.19,35903,List2B,black,man,,,,null,,,,
null,"<img src=""stim_listB/fight6.gif""style=""height:400px;""></stim_listB>",,html-keyboard-response,344,1691100,0.0-17.0-1.19,35903,List2B,black,man,,,,null,,,,
null,are fighting each other,,html-keyboard-response,345,1693108,0.0-17.0-2.19,35903,List2B,black,man,,,,null,,,,
37538,,,survey-text,346,1730649,0.0-17.0-3.19,35903,List2B,black,man,,,,,"{""Q0"":""luke and fred are fighting each other""}","<img src=""stim_listB/fight6.gif""style=""height:400px;""></stim_listB>",are fighting each other,
3572,"<img src='img/portrait_matrix_list2.jpg' style='width:900px;height:500px;''></img><p>If you have memorised all the portraits and names and are ready to start, press Continue.</p><p><strong>Please note: Your memory of these faces will be tested 4 times during this experiment.</strong></p>",0,html-button-response,347,1734225,0.0-18.0-0.0,35903,List2B,black,man,,,,,,,,
2664,"<img src=""portrait/BM2.jpg""style=""height:400px;""></img>",5,html-button-response,348,1737902,0.0-18.0-1.0,35903,List2B,black,man,,TRUE,5,,,,,
null,CORRECT,,html-keyboard-response,349,1739409,0.0-18.0-2.0-0.0,35903,List2B,black,man,,,,null,,,,
4039,"<img src=""portrait/BM1.jpg""style=""height:400px;""></img>",4,html-button-response,350,1743456,0.0-18.0-4.0,35903,List2B,black,man,,TRUE,4,,,,,
null,CORRECT,,html-keyboard-response,351,1744963,0.0-18.0-5.0-0.0,35903,List2B,black,man,,,,null,,,,
4520,"<img src=""portrait/WW2.jpg""style=""height:400px;""></img>",3,html-button-response,352,1749493,0.0-18.0-7.0,35903,List2B,black,man,,TRUE,3,,,,,
null,CORRECT,,html-keyboard-response,353,1751003,0.0-18.0-8.0-0.0,35903,List2B,black,man,,,,null,,,,
2703,"<img src=""portrait/WM2.jpg""style=""height:400px;""></img>",7,html-button-response,354,1753717,0.0-18.0-10.0,35903,List2B,black,man,,TRUE,7,,,,,
null,CORRECT,,html-keyboard-response,355,1755229,0.0-18.0-11.0-0.0,35903,List2B,black,man,,,,null,,,,
1811,"<img src=""portrait/WM1.jpg""style=""height:400px;""></img>",6,html-button-response,356,1757049,0.0-18.0-13.0,35903,List2B,black,man,,TRUE,6,,,,,
null,CORRECT,,html-keyboard-response,357,1758560,0.0-18.0-14.0-0.0,35903,List2B,black,man,,,,null,,,,
3098,"<img src=""portrait/BW1.jpg""style=""height:400px;""></img>",0,html-button-response,358,1761667,0.0-18.0-16.0,35903,List2B,black,man,,TRUE,0,,,,,
null,CORRECT,,html-keyboard-response,359,1763183,0.0-18.0-17.0-0.0,35903,List2B,black,man,,,,null,,,,
2043,"<img src=""portrait/WW1.jpg""style=""height:400px;""></img>",1,html-button-response,360,1765235,0.0-18.0-19.0,35903,List2B,black,man,,TRUE,1,,,,,
null,CORRECT,,html-keyboard-response,361,1766744,0.0-18.0-20.0-0.0,35903,List2B,black,man,,,,null,,,,
4318,"<img src=""portrait/BW2.jpg""style=""height:400px;""></img>",2,html-button-response,362,1771065,0.0-18.0-22.0,35903,List2B,black,man,,TRUE,2,,,,,
null,CORRECT,,html-keyboard-response,363,1772576,0.0-18.0-23.0-0.0,35903,List2B,black,man,,,,null,,,,
2597,<p>You got 8 out of 8 right first time. Press Continue.</p>,0,html-button-response,364,1775181,0.0-18.0-25.0,35903,List2B,black,man,,,,,,,,
null,"<div style=""font-size:60px;"">+</div>",,html-keyboard-response,365,1776695,0.0-19.0-0.0,35903,List2B,black,man,,,,null,,,,
null,"<img src=""stim_listB/argue7.gif""style=""height:400px;""></stim_listB>",,html-keyboard-response,366,1778718,0.0-19.0-1.0,35903,List2B,black,man,,,,null,,,,
null,is arguing with,,html-keyboard-response,367,1780727,0.0-19.0-2.0,35903,List2B,black,man,,,,null,,,,
11278,,,survey-text,368,1792013,0.0-19.0-3.0,35903,List2B,black,man,,,,,"{""Q0"":""beth is arguing with jane""}","<img src=""stim_listB/argue7.gif""style=""height:400px;""></stim_listB>",is arguing with,
null,"<div style=""font-size:60px;"">+</div>",,html-keyboard-response,369,1792519,0.0-19.0-0.1,35903,List2B,black,man,,,,null,,,,
null,"<img src=""stim_listB/argue3.gif""style=""height:400px;""></stim_listB>",,html-keyboard-response,370,1794530,0.0-19.0-1.1,35903,List2B,black,man,,,,null,,,,
null,is arguing with,,html-keyboard-response,371,1796535,0.0-19.0-2.1,35903,List2B,black,man,,,,null,,,,
14676,,,survey-text,372,1811217,0.0-19.0-3.1,35903,List2B,black,man,,,,,"{""Q0"":""mike is arguing with beth""}","<img src=""stim_listB/argue3.gif""style=""height:400px;""></stim_listB>",is arguing with,
null,"<div style=""font-size:60px;"">+</div>",,html-keyboard-response,373,1811722,0.0-19.0-0.2,35903,List2B,black,man,,,,null,,,,
null,"<img src=""stim_listB/fight3.gif""style=""height:400px;""></stim_listB>",,html-keyboard-response,374,1813733,0.0-19.0-1.2,35903,List2B,black,man,,,,null,,,,
null,is fighting,,html-keyboard-response,375,1815737,0.0-19.0-2.2,35903,List2B,black,man,,,,null,,,,
7557,,,survey-text,376,1823298,0.0-19.0-3.2,35903,List2B,black,man,,,,,"{""Q0"":""""}","<img src=""stim_listB/fight3.gif""style=""height:400px;""></stim_listB>",is fighting,
null,"<div style=""font-size:60px;"">+</div>",,html-keyboard-response,377,1823804,0.0-19.0-0.3,35903,List2B,black,man,,,,null,,,,
null,"<img src=""stim_listB/fight4.gif""style=""height:400px;""></stim_listB>",,html-keyboard-response,378,1825817,0.0-19.0-1.3,35903,List2B,black,man,,,,null,,,,
null,are fighting each other,,html-keyboard-response,379,1827822,0.0-19.0-2.3,35903,List2B,black,man,,,,null,,,,
13581,,,survey-text,380,1841406,0.0-19.0-3.3,35903,List2B,black,man,,,,,"{""Q0"":""fred and beth are fighting""}","<img src=""stim_listB/fight4.gif""style=""height:400px;""></stim_listB>",are fighting each other,
null,"<div style=""font-size:60px;"">+</div>",,html-keyboard-response,381,1841912,0.0-19.0-0.4,35903,List2B,black,man,,,,null,,,,
null,"<img src=""stim_listB/fight5.gif""style=""height:400px;""></stim_listB>",,html-keyboard-response,382,1843925,0.0-19.0-1.4,35903,List2B,black,man,,,,null,,,,
null,is fighting,,html-keyboard-response,383,1845929,0.0-19.0-2.4,35903,List2B,black,man,,,,null,,,,
9564,,,survey-text,384,1855500,0.0-19.0-3.4,35903,List2B,black,man,,,,,"{""Q0"":""mike is fighting dave""}","<img src=""stim_listB/fight5.gif""style=""height:400px;""></stim_listB>",is fighting,
null,"<div style=""font-size:60px;"">+</div>",,html-keyboard-response,385,1856005,0.0-19.0-0.5,35903,List2B,black,man,,,,null,,,,
null,"<img src=""stim_listB/touch6.gif""style=""height:400px;""></stim_listB>",,html-keyboard-response,386,1858025,0.0-19.0-1.5,35903,List2B,black,man,,,,null,,,,
null,are touching each other,,html-keyboard-response,387,1860030,0.0-19.0-2.5,35903,List2B,black,man,,,,null,,,,
13475,,,survey-text,388,1873508,0.0-19.0-3.5,35903,List2B,black,man,,,,,"{""Q0"":""luke and fred are touching each other""}","<img src=""stim_listB/touch6.gif""style=""height:400px;""></stim_listB>",are touching each other,
null,"<div style=""font-size:60px;"">+</div>",,html-keyboard-response,389,1874011,0.0-19.0-0.6,35903,List2B,black,man,,,,null,,,,
null,"<img src=""stim_listB/argue8.gif""style=""height:400px;""></stim_listB>",,html-keyboard-response,390,1876018,0.0-19.0-1.6,35903,List2B,black,man,,,,null,,,,
null,are arguing with each other,,html-keyboard-response,391,1878026,0.0-19.0-2.6,35903,List2B,black,man,,,,null,,,,
14276,,,survey-text,392,1892309,0.0-19.0-3.6,35903,List2B,black,man,,,,,"{""Q0"":""ruth and kate are arguing with each other""}","<img src=""stim_listB/argue8.gif""style=""height:400px;""></stim_listB>",are arguing with each other,
null,"<div style=""font-size:60px;"">+</div>",,html-keyboard-response,393,1892814,0.0-19.0-0.7,35903,List2B,black,man,,,,null,,,,
null,"<img src=""stim_listB/flirt3.gif""style=""height:400px;""></stim_listB>",,html-keyboard-response,394,1894829,0.0-19.0-1.7,35903,List2B,black,man,,,,null,,,,
null,is flirting with,,html-keyboard-response,395,1896834,0.0-19.0-2.7,35903,List2B,black,man,,,,null,,,,
10906,,,survey-text,396,1907751,0.0-19.0-3.7,35903,List2B,black,man,,,,,"{""Q0"":""fred is flirting with kate""}","<img src=""stim_listB/flirt3.gif""style=""height:400px;""></stim_listB>",is flirting with,
null,"<div style=""font-size:60px;"">+</div>",,html-keyboard-response,397,1908258,0.0-19.0-0.8,35903,List2B,black,man,,,,null,,,,
null,"<img src=""stim_listB/marry2.gif""style=""height:400px;""></stim_listB>",,html-keyboard-response,398,1910272,0.0-19.0-1.8,35903,List2B,black,man,,,,null,,,,
null,are marrying each other,,html-keyboard-response,399,1912276,0.0-19.0-2.8,35903,List2B,black,man,,,,null,,,,
12270,,,survey-text,400,1924557,0.0-19.0-3.8,35903,List2B,black,man,,,,,"{""Q0"":""luke and jane are marrying each other""}","<img src=""stim_listB/marry2.gif""style=""height:400px;""></stim_listB>",are marrying each other,
null,"<div style=""font-size:60px;"">+</div>",,html-keyboard-response,401,1925064,0.0-19.0-0.9,35903,List2B,black,man,,,,null,,,,
null,"<img src=""stim_listB/kiss2.gif""style=""height:400px;""></stim_listB>",,html-keyboard-response,402,1927075,0.0-19.0-1.9,35903,List2B,black,man,,,,null,,,,
null,are kissing each other,,html-keyboard-response,403,1929082,0.0-19.0-2.9,35903,List2B,black,man,,,,null,,,,
26482,,,survey-text,404,1955569,0.0-19.0-3.9,35903,List2B,black,man,,,,,"{""Q0"":""dave and jane are kissing each other""}","<img src=""stim_listB/kiss2.gif""style=""height:400px;""></stim_listB>",are kissing each other,
null,"<div style=""font-size:60px;"">+</div>",,html-keyboard-response,405,1956073,0.0-19.0-0.10,35903,List2B,black,man,,,,null,,,,
null,"<img src=""stim_listB/talk4.gif""style=""height:400px;""></stim_listB>",,html-keyboard-response,406,1958086,0.0-19.0-1.10,35903,List2B,black,man,,,,null,,,,
null,are talking to each other,,html-keyboard-response,407,1960092,0.0-19.0-2.10,35903,List2B,black,man,,,,null,,,,
6486,,,survey-text,408,1966583,0.0-19.0-3.10,35903,List2B,black,man,,,,,"{""Q0"":""""}","<img src=""stim_listB/talk4.gif""style=""height:400px;""></stim_listB>",are talking to each other,
null,"<div style=""font-size:60px;"">+</div>",,html-keyboard-response,409,1967096,0.0-19.0-0.11,35903,List2B,black,man,,,,null,,,,
null,"<img src=""stim_listB/talk2.gif""style=""height:400px;""></stim_listB>",,html-keyboard-response,410,1969104,0.0-19.0-1.11,35903,List2B,black,man,,,,null,,,,
null,are talking to each other,,html-keyboard-response,411,1971112,0.0-19.0-2.11,35903,List2B,black,man,,,,null,,,,
15355,,,survey-text,412,1986471,0.0-19.0-3.11,35903,List2B,black,man,,,,,"{""Q0"":""dave and ruth are talking to each other""}","<img src=""stim_listB/talk2.gif""style=""height:400px;""></stim_listB>",are talking to each other,
null,"<div style=""font-size:60px;"">+</div>",,html-keyboard-response,413,1986977,0.0-19.0-0.12,35903,List2B,black,man,,,,null,,,,
null,"<img src=""stim_listB/shout6.gif""style=""height:400px;""></stim_listB>",,html-keyboard-response,414,1988995,0.0-19.0-1.12,35903,List2B,black,man,,,,null,,,,
null,are shouting at each other,,html-keyboard-response,415,1991000,0.0-19.0-2.12,35903,List2B,black,man,,,,null,,,,
13778,,,survey-text,416,2004783,0.0-19.0-3.12,35903,List2B,black,man,,,,,"{""Q0"":""mike and dave are shouting at each other""}","<img src=""stim_listB/shout6.gif""style=""height:400px;""></stim_listB>",are shouting at each other,
null,"<div style=""font-size:60px;"">+</div>",,html-keyboard-response,417,2005286,0.0-19.0-0.13,35903,List2B,black,man,,,,null,,,,
null,"<img src=""stim_listB/kiss8.gif""style=""height:400px;""></stim_listB>",,html-keyboard-response,418,2007319,0.0-19.0-1.13,35903,List2B,black,man,,,,null,,,,
null,are kissing each other,,html-keyboard-response,419,2009329,0.0-19.0-2.13,35903,List2B,black,man,,,,null,,,,
1081,,,survey-text,420,2010415,0.0-19.0-3.13,35903,List2B,black,man,,,,,"{""Q0"":""""}","<img src=""stim_listB/kiss8.gif""style=""height:400px;""></stim_listB>",are kissing each other,
null,"<div style=""font-size:60px;"">+</div>",,html-keyboard-response,421,2010920,0.0-19.0-0.14,35903,List2B,black,man,,,,null,,,,
null,"<img src=""stim_listB/talk7.gif""style=""height:400px;""></stim_listB>",,html-keyboard-response,422,2012933,0.0-19.0-1.14,35903,List2B,black,man,,,,null,,,,
null,is talking to,,html-keyboard-response,423,2014943,0.0-19.0-2.14,35903,List2B,black,man,,,,null,,,,
20008,,,survey-text,424,2034956,0.0-19.0-3.14,35903,List2B,black,man,,,,,"{""Q0"":""jane and kate are talking to each other""}","<img src=""stim_listB/talk7.gif""style=""height:400px;""></stim_listB>",is talking to,
null,"<div style=""font-size:60px;"">+</div>",,html-keyboard-response,425,2035461,0.0-19.0-0.15,35903,List2B,black,man,,,,null,,,,
null,"<img src=""stim_listB/marry4.gif""style=""height:400px;""></stim_listB>",,html-keyboard-response,426,2037472,0.0-19.0-1.15,35903,List2B,black,man,,,,null,,,,
null,are marrying each other,,html-keyboard-response,427,2039477,0.0-19.0-2.15,35903,List2B,black,man,,,,null,,,,
15672,,,survey-text,428,2055155,0.0-19.0-3.15,35903,List2B,black,man,,,,,"{""Q0"":""kate and fred are marrying each other""}","<img src=""stim_listB/marry4.gif""style=""height:400px;""></stim_listB>",are marrying each other,
null,"<div style=""font-size:60px;"">+</div>",,html-keyboard-response,429,2055664,0.0-19.0-0.16,35903,List2B,black,man,,,,null,,,,
null,"<img src=""stim_listB/kiss4.gif""style=""height:400px;""></stim_listB>",,html-keyboard-response,430,2057689,0.0-19.0-1.16,35903,List2B,black,man,,,,null,,,,
null,are kissing each other,,html-keyboard-response,431,2059699,0.0-19.0-2.16,35903,List2B,black,man,,,,null,,,,
11731,,,survey-text,432,2071432,0.0-19.0-3.16,35903,List2B,black,man,,,,,"{""Q0"":""mike and kate are kissing each other""}","<img src=""stim_listB/kiss4.gif""style=""height:400px;""></stim_listB>",are kissing each other,
null,"<div style=""font-size:60px;"">+</div>",,html-keyboard-response,433,2071940,0.0-19.0-0.17,35903,List2B,black,man,,,,null,,,,
null,"<img src=""stim_listB/touch4.gif""style=""height:400px;""></stim_listB>",,html-keyboard-response,434,2073956,0.0-19.0-1.17,35903,List2B,black,man,,,,null,,,,
null,are touching each other,,html-keyboard-response,435,2075961,0.0-19.0-2.17,35903,List2B,black,man,,,,null,,,,
15900,,,survey-text,436,2091867,0.0-19.0-3.17,35903,List2B,black,man,,,,,"{""Q0"":""fred and beth are touching each other""}","<img src=""stim_listB/touch4.gif""style=""height:400px;""></stim_listB>",are touching each other,
null,"<div style=""font-size:60px;"">+</div>",,html-keyboard-response,437,2092373,0.0-19.0-0.18,35903,List2B,black,man,,,,null,,,,
null,"<img src=""stim_listB/fight1.gif""style=""height:400px;""></stim_listB>",,html-keyboard-response,438,2094390,0.0-19.0-1.18,35903,List2B,black,man,,,,null,,,,
null,is fighting,,html-keyboard-response,439,2096404,0.0-19.0-2.18,35903,List2B,black,man,,,,null,,,,
21382,,,survey-text,440,2117796,0.0-19.0-3.18,35903,List2B,black,man,,,,,"{""Q0"":""dave is fighting jane""}","<img src=""stim_listB/fight1.gif""style=""height:400px;""></stim_listB>",is fighting,
null,"<div style=""font-size:60px;"">+</div>",,html-keyboard-response,441,2118301,0.0-19.0-0.19,35903,List2B,black,man,,,,null,,,,
null,"<img src=""stim_listB/flirt1.gif""style=""height:400px;""></stim_listB>",,html-keyboard-response,442,2120310,0.0-19.0-1.19,35903,List2B,black,man,,,,null,,,,
null,is flirting with,,html-keyboard-response,443,2122313,0.0-19.0-2.19,35903,List2B,black,man,,,,null,,,,
10447,,,survey-text,444,2132762,0.0-19.0-3.19,35903,List2B,black,man,,,,,"{""Q0"":""luke is flirting with jane""}","<img src=""stim_listB/flirt1.gif""style=""height:400px;""></stim_listB>",is flirting with,
4127,<p>Thank you for completing that task.</p><p>The final part of this session is a short questionnaire.</p><p>Press Continue.</p>,0,html-button-response,445,2136893,0.0-20.0,35903,List2B,black,man,,,,,,,,
36631,,,survey-text,446,2174530,0.0-21.0,35903,List2B,black,man,,,,,"{""Q0"":""38"",""Q1"":""English"",""Q2"":""English"",""Q3"":""UK"",""Q4"":""black"",""Q5"":""male""}",,,demographics
11028,,,survey-likert,447,2185620,0.0-22.0,35903,List2B,black,man,,,,,"{""Q0"":2}",,,likert_ESS
17932,,,survey-likert,448,2203606,0.0-23.0,35903,List2B,black,man,,,,,"{""Q0"":0}",,,likert_NSSAL_Q1
8324,,,survey-likert,449,2211979,0.0-24.0,35903,List2B,black,man,,,,,"{""Q0"":0}",,,likert_NSSAL_Q2
7466,,,survey-likert,450,2219491,0.0-25.0,35903,List2B,black,man,,,,,"{""Q0"":3}",,,likert_CGRS_Q1
6523,,,survey-likert,451,2226058,0.0-26.0,35903,List2B,black,man,,,,,"{""Q0"":3}",,,likert_CGRS_Q2
3605,,,survey-likert,452,2229710,0.0-27.0,35903,List2B,black,man,,,,,"{""Q0"":3}",,,likert_CGRS_Q3
5100,,,survey-text,453,2234857,0.0-28.0,35903,List2B,black,man,,,,,"{""Q0"":""ccc""}",,,worker_id
5634,,,external-html,454,2240652,0.0-29.0,35903,List2B,black,man,debrief.html,,,,,,,
