rt,stimulus,button_pressed,trial_type,trial_index,time_elapsed,internal_node_id,subject,list,ppt_race,ppt_gender,url,first_guess,correct,key_press,responses,image_type,phrase_type,test_part
2694,Welcome to the experiment. Press Continue to begin.,0,html-button-response,0,2702,0.0-0.0,36091,List2B,white,man,,,,,,,,
37016,,,external-html,1,40777,0.0-1.0,36091,List2B,white,man,consent.html,,,,,,,
8669,"<p>On the next page, you will see portraits of 8 people and their names.</p><p>Your first task is to take a few minutes to memorise the names of these people.</p><p>You will have to recall their names during the rest of the experiment, so it is</p><p>essential that you try to memorise these people and their names as best as you can.</p><br><p><strong>You will then be tested on your memory of these names and portraits.</strong></p><br><p>The experiment will start after you have completed this memory test.</p><br><p>Ready?</p>",0,html-button-response,2,49449,0.0-2.0,36091,List2B,white,man,,,,,,,,
61308,"<img src='img/portrait_matrix_list2.jpg' style='width:900px;height:500px;''></img><p>If you have memorised all the portraits and names and are ready to start, press Continue.</p><p><strong>Please note: Your memory of these faces will be tested 4 times during this experiment.</strong></p>",0,html-button-response,3,111768,0.0-3.0-0.0,36091,List2B,white,man,,,,,,,,
17100,"<img src=""portrait/WM2.jpg""style=""height:400px;""></img>",7,html-button-response,4,129874,0.0-3.0-1.0,36091,List2B,white,man,,TRUE,7,,,,,
null,CORRECT,,html-keyboard-response,5,131392,0.0-3.0-2.0-0.0,36091,List2B,white,man,,,,null,,,,
11702,"<img src=""portrait/BW2.jpg""style=""height:400px;""></img>",1,html-button-response,6,143096,0.0-3.0-4.0,36091,List2B,white,man,,TRUE,2,,,,,
5687,"<img src=""portrait/BW2.jpg""style=""height:400px;""></img>",2,html-button-response,7,149785,0.0-3.0-6.0-0.0,36091,List2B,white,man,,FALSE,2,,,,,
null,CORRECT,,html-keyboard-response,8,151297,0.0-3.0-6.0-1.0-0.0,36091,List2B,white,man,,,,null,,,,
13618,"<img src=""portrait/BM1.jpg""style=""height:400px;""></img>",4,html-button-response,9,164921,0.0-3.0-7.0,36091,List2B,white,man,,TRUE,4,,,,,
null,CORRECT,,html-keyboard-response,10,166435,0.0-3.0-8.0-0.0,36091,List2B,white,man,,,,null,,,,
3736,"<img src=""portrait/BM2.jpg""style=""height:400px;""></img>",5,html-button-response,11,170177,0.0-3.0-10.0,36091,List2B,white,man,,TRUE,5,,,,,
null,CORRECT,,html-keyboard-response,12,171700,0.0-3.0-11.0-0.0,36091,List2B,white,man,,,,null,,,,
5282,"<img src=""portrait/WW2.jpg""style=""height:400px;""></img>",1,html-button-response,13,176985,0.0-3.0-13.0,36091,List2B,white,man,,TRUE,3,,,,,
3459,"<img src=""portrait/WW2.jpg""style=""height:400px;""></img>",3,html-button-response,14,181457,0.0-3.0-15.0-0.0,36091,List2B,white,man,,FALSE,3,,,,,
null,CORRECT,,html-keyboard-response,15,182982,0.0-3.0-15.0-1.0-0.0,36091,List2B,white,man,,,,null,,,,
3863,"<img src=""portrait/WM1.jpg""style=""height:400px;""></img>",6,html-button-response,16,186849,0.0-3.0-16.0,36091,List2B,white,man,,TRUE,6,,,,,
null,CORRECT,,html-keyboard-response,17,188353,0.0-3.0-17.0-0.0,36091,List2B,white,man,,,,null,,,,
5894,"<img src=""portrait/WW1.jpg""style=""height:400px;""></img>",1,html-button-response,18,194251,0.0-3.0-19.0,36091,List2B,white,man,,TRUE,1,,,,,
null,CORRECT,,html-keyboard-response,19,195779,0.0-3.0-20.0-0.0,36091,List2B,white,man,,,,null,,,,
3944,"<img src=""portrait/BW1.jpg""style=""height:400px;""></img>",0,html-button-response,20,199729,0.0-3.0-22.0,36091,List2B,white,man,,TRUE,0,,,,,
null,CORRECT,,html-keyboard-response,21,201233,0.0-3.0-23.0-0.0,36091,List2B,white,man,,,,null,,,,
3335,<p>You got 6 out of 8 right first time. Press Continue.</p>,0,html-button-response,22,204568,0.0-3.0-25.0,36091,List2B,white,man,,,,,,,,
4060,"As you did not score 100%, the memory game will repeat. Press Continue.",0,html-button-response,23,209632,0.0-3.0-26.0-0.0,36091,List2B,white,man,,,,,,,,
18380,"<img src='img/portrait_matrix_list2.jpg' style='width:900px;height:500px;''></img><p>If you have memorised all the portraits and names and are ready to start, press Continue.</p><p><strong>Please note: Your memory of these faces will be tested 4 times during this experiment.</strong></p>",0,html-button-response,24,229016,0.0-3.1-0.1,36091,List2B,white,man,,,,,,,,
3575,"<img src=""portrait/WM2.jpg""style=""height:400px;""></img>",7,html-button-response,25,233602,0.0-3.1-1.1,36091,List2B,white,man,,TRUE,7,,,,,
null,CORRECT,,html-keyboard-response,26,235130,0.0-3.1-2.1-0.1,36091,List2B,white,man,,,,null,,,,
5981,"<img src=""portrait/BW2.jpg""style=""height:400px;""></img>",2,html-button-response,27,241113,0.0-3.1-4.1,36091,List2B,white,man,,TRUE,2,,,,,
null,CORRECT,,html-keyboard-response,28,242634,0.0-3.1-5.1-0.1,36091,List2B,white,man,,,,null,,,,
4660,"<img src=""portrait/BM1.jpg""style=""height:400px;""></img>",4,html-button-response,29,247295,0.0-3.1-7.1,36091,List2B,white,man,,TRUE,4,,,,,
null,CORRECT,,html-keyboard-response,30,248819,0.0-3.1-8.1-0.1,36091,List2B,white,man,,,,null,,,,
5622,"<img src=""portrait/BM2.jpg""style=""height:400px;""></img>",5,html-button-response,31,254441,0.0-3.1-10.1,36091,List2B,white,man,,TRUE,5,,,,,
null,CORRECT,,html-keyboard-response,32,255950,0.0-3.1-11.1-0.1,36091,List2B,white,man,,,,null,,,,
3638,"<img src=""portrait/WW2.jpg""style=""height:400px;""></img>",3,html-button-response,33,259593,0.0-3.1-13.1,36091,List2B,white,man,,TRUE,3,,,,,
null,CORRECT,,html-keyboard-response,34,261104,0.0-3.1-14.1-0.1,36091,List2B,white,man,,,,null,,,,
4061,"<img src=""portrait/WM1.jpg""style=""height:400px;""></img>",6,html-button-response,35,265170,0.0-3.1-16.1,36091,List2B,white,man,,TRUE,6,,,,,
null,CORRECT,,html-keyboard-response,36,266691,0.0-3.1-17.1-0.1,36091,List2B,white,man,,,,null,,,,
4395,"<img src=""portrait/WW1.jpg""style=""height:400px;""></img>",1,html-button-response,37,271089,0.0-3.1-19.1,36091,List2B,white,man,,TRUE,1,,,,,
null,CORRECT,,html-keyboard-response,38,272595,0.0-3.1-20.1-0.1,36091,List2B,white,man,,,,null,,,,
4029,"<img src=""portrait/BW1.jpg""style=""height:400px;""></img>",0,html-button-response,39,276625,0.0-3.1-22.1,36091,List2B,white,man,,TRUE,0,,,,,
null,CORRECT,,html-keyboard-response,40,278138,0.0-3.1-23.1-0.1,36091,List2B,white,man,,,,null,,,,
1260,<p>You got 8 out of 8 right first time. Press Continue.</p>,0,html-button-response,41,279401,0.0-3.1-25.1,36091,List2B,white,man,,,,,,,,
55615,"<p>In this experiment, you will view photographs of the people from the memory game interacting.</p><p>By using the <strong>exact</strong> phrase given <i>after</i> the photograph appears and recalling the correct names of the people in the photographs, form a sentence describing the interaction. You do not need to capitalise names.</p><p>Type your answer in the space provided. Please complete every sentence before moving onto the next trial.</p><p>You will only have a few seconds to memorise each given photograph and phrase before you can respond, so try your best to focus.</p><p>An example is given below. Press 'Continue' when you are ready.</p><img src='img/speaking_example.jpg' style='width:800px;height:460px;''></img>",0,html-button-response,42,336032,0.0-4.0,36091,List2B,white,man,,,,,,,,
1719,"<p>Before the experiment starts, you will watch two example trials. Press 'Continue'.</p>",0,html-button-response,43,338761,0.0-5.0,36091,List2B,white,man,,,,,,,,
null,<img src='img/meet_eg.gif' style='height:400px;''></img>,,html-keyboard-response,44,341779,0.0-6.0,36091,List2B,white,man,,,,null,,,,
null,<p>is meeting</p>,,html-keyboard-response,45,343781,0.0-7.0,36091,List2B,white,man,,,,null,,,,
6059,<p><b>Answer:</b> jane is meeting ruth</p>,0,html-button-response,46,349840,0.0-8.0,36091,List2B,white,man,,,,,,,,
null,<img src='img/look_eg.gif' style='height:400px;''></img>,,html-keyboard-response,47,352855,0.0-9.0,36091,List2B,white,man,,,,null,,,,
null,<p>are looking at each other</p>,,html-keyboard-response,48,354853,0.0-10.0,36091,List2B,white,man,,,,null,,,,
2288,<p><b>Answer:</b> fred and mike are looking at each other</p>,0,html-button-response,49,357145,0.0-11.0,36091,List2B,white,man,,,,,,,,
14973,"<p>Ready to start the experiment?</p><br><p><strong>Remember to describe the picture using a full sentence,</strong></p><p><strong>that combines the names of the people with the <i>exact</i> phrase given.</strong></p><p><strong>To receive full payment you must do this correctly.</strong></p><p><strong> You do not need to capitalise names or use punctuation.</strong></p><br><p>Press 'Continue' to begin.</p>",0,html-button-response,50,373129,0.0-12.0,36091,List2B,white,man,,,,,,,,
null,"<div style=""font-size:60px;"">+</div>",,html-keyboard-response,51,374638,0.0-13.0-0.0,36091,List2B,white,man,,,,null,,,,
null,"<img src=""stim_listB/kiss2.gif""style=""height:400px;""></stim_listB>",,html-keyboard-response,52,376641,0.0-13.0-1.0,36091,List2B,white,man,,,,null,,,,
null,are kissing each other,,html-keyboard-response,53,378641,0.0-13.0-2.0,36091,List2B,white,man,,,,null,,,,
28470,,,survey-text,54,407114,0.0-13.0-3.0,36091,List2B,white,man,,,,,"{""Q0"":""jane and dave are kissing eachother""}","<img src=""stim_listB/kiss2.gif""style=""height:400px;""></stim_listB>",are kissing each other,
null,"<div style=""font-size:60px;"">+</div>",,html-keyboard-response,55,407618,0.0-13.0-0.1,36091,List2B,white,man,,,,null,,,,
null,"<img src=""stim_listB/marry4.gif""style=""height:400px;""></stim_listB>",,html-keyboard-response,56,409622,0.0-13.0-1.1,36091,List2B,white,man,,,,null,,,,
null,are marrying each other,,html-keyboard-response,57,411622,0.0-13.0-2.1,36091,List2B,white,man,,,,null,,,,
24611,,,survey-text,58,436234,0.0-13.0-3.1,36091,List2B,white,man,,,,,"{""Q0"":""kate and fred are marrying eachother""}","<img src=""stim_listB/marry4.gif""style=""height:400px;""></stim_listB>",are marrying each other,
null,"<div style=""font-size:60px;"">+</div>",,html-keyboard-response,59,436746,0.0-13.0-0.2,36091,List2B,white,man,,,,null,,,,
null,"<img src=""stim_listB/kiss3.gif""style=""height:400px;""></stim_listB>",,html-keyboard-response,60,438751,0.0-13.0-1.2,36091,List2B,white,man,,,,null,,,,
null,is kissing,,html-keyboard-response,61,440748,0.0-13.0-2.2,36091,List2B,white,man,,,,null,,,,
15147,,,survey-text,62,455899,0.0-13.0-3.2,36091,List2B,white,man,,,,,"{""Q0"":""beth is kissing fred""}","<img src=""stim_listB/kiss3.gif""style=""height:400px;""></stim_listB>",is kissing,
null,"<div style=""font-size:60px;"">+</div>",,html-keyboard-response,63,456413,0.0-13.0-0.3,36091,List2B,white,man,,,,null,,,,
null,"<img src=""stim_listB/touch6.gif""style=""height:400px;""></stim_listB>",,html-keyboard-response,64,458416,0.0-13.0-1.3,36091,List2B,white,man,,,,null,,,,
null,are touching each other,,html-keyboard-response,65,460416,0.0-13.0-2.3,36091,List2B,white,man,,,,null,,,,
13543,,,survey-text,66,473961,0.0-13.0-3.3,36091,List2B,white,man,,,,,"{""Q0"":""fred and luke are touching eachother""}","<img src=""stim_listB/touch6.gif""style=""height:400px;""></stim_listB>",are touching each other,
null,"<div style=""font-size:60px;"">+</div>",,html-keyboard-response,67,474476,0.0-13.0-0.4,36091,List2B,white,man,,,,null,,,,
null,"<img src=""stim_listB/talk7.gif""style=""height:400px;""></stim_listB>",,html-keyboard-response,68,476484,0.0-13.0-1.4,36091,List2B,white,man,,,,null,,,,
null,is talking to,,html-keyboard-response,69,478483,0.0-13.0-2.4,36091,List2B,white,man,,,,null,,,,
32301,,,survey-text,70,510787,0.0-13.0-3.4,36091,List2B,white,man,,,,,"{""Q0"":""ruth and beth are confused""}","<img src=""stim_listB/talk7.gif""style=""height:400px;""></stim_listB>",is talking to,
null,"<div style=""font-size:60px;"">+</div>",,html-keyboard-response,71,511293,0.0-13.0-0.5,36091,List2B,white,man,,,,null,,,,
null,"<img src=""stim_listB/talk1.gif""style=""height:400px;""></stim_listB>",,html-keyboard-response,72,513298,0.0-13.0-1.5,36091,List2B,white,man,,,,null,,,,
null,is talking to,,html-keyboard-response,73,515302,0.0-13.0-2.5,36091,List2B,white,man,,,,null,,,,
15049,,,survey-text,74,530354,0.0-13.0-3.5,36091,List2B,white,man,,,,,"{""Q0"":""jane is talking to luke""}","<img src=""stim_listB/talk1.gif""style=""height:400px;""></stim_listB>",is talking to,
null,"<div style=""font-size:60px;"">+</div>",,html-keyboard-response,75,530861,0.0-13.0-0.6,36091,List2B,white,man,,,,null,,,,
null,"<img src=""stim_listB/dance7.gif""style=""height:400px;""></stim_listB>",,html-keyboard-response,76,532866,0.0-13.0-1.6,36091,List2B,white,man,,,,null,,,,
null,is dancing with,,html-keyboard-response,77,534868,0.0-13.0-2.6,36091,List2B,white,man,,,,null,,,,
17052,,,survey-text,78,551922,0.0-13.0-3.6,36091,List2B,white,man,,,,,"{""Q0"":""ruth is dacing with kate""}","<img src=""stim_listB/dance7.gif""style=""height:400px;""></stim_listB>",is dancing with,
null,"<div style=""font-size:60px;"">+</div>",,html-keyboard-response,79,552429,0.0-13.0-0.7,36091,List2B,white,man,,,,null,,,,
null,"<img src=""stim_listB/argue7.gif""style=""height:400px;""></stim_listB>",,html-keyboard-response,80,554436,0.0-13.0-1.7,36091,List2B,white,man,,,,null,,,,
null,is arguing with,,html-keyboard-response,81,556434,0.0-13.0-2.7,36091,List2B,white,man,,,,null,,,,
11269,,,survey-text,82,567705,0.0-13.0-3.7,36091,List2B,white,man,,,,,"{""Q0"":""jane is arguing with beth""}","<img src=""stim_listB/argue7.gif""style=""height:400px;""></stim_listB>",is arguing with,
null,"<div style=""font-size:60px;"">+</div>",,html-keyboard-response,83,568209,0.0-13.0-0.8,36091,List2B,white,man,,,,null,,,,
null,"<img src=""stim_listB/dance4.gif""style=""height:400px;""></stim_listB>",,html-keyboard-response,84,570217,0.0-13.0-1.8,36091,List2B,white,man,,,,null,,,,
null,are dancing with each other,,html-keyboard-response,85,572218,0.0-13.0-2.8,36091,List2B,white,man,,,,null,,,,
15342,,,survey-text,86,587563,0.0-13.0-3.8,36091,List2B,white,man,,,,,"{""Q0"":""mike and beth are dancing with eachother""}","<img src=""stim_listB/dance4.gif""style=""height:400px;""></stim_listB>",are dancing with each other,
null,"<div style=""font-size:60px;"">+</div>",,html-keyboard-response,87,588078,0.0-13.0-0.9,36091,List2B,white,man,,,,null,,,,
null,"<img src=""stim_listB/argue5.gif""style=""height:400px;""></stim_listB>",,html-keyboard-response,88,590085,0.0-13.0-1.9,36091,List2B,white,man,,,,null,,,,
null,is arguing with,,html-keyboard-response,89,592088,0.0-13.0-2.9,36091,List2B,white,man,,,,null,,,,
15504,,,survey-text,90,607594,0.0-13.0-3.9,36091,List2B,white,man,,,,,"{""Q0"":""dave is arguing with fred""}","<img src=""stim_listB/argue5.gif""style=""height:400px;""></stim_listB>",is arguing with,
null,"<div style=""font-size:60px;"">+</div>",,html-keyboard-response,91,608108,0.0-13.0-0.10,36091,List2B,white,man,,,,null,,,,
null,"<img src=""stim_listB/argue1.gif""style=""height:400px;""></stim_listB>",,html-keyboard-response,92,610119,0.0-13.0-1.10,36091,List2B,white,man,,,,null,,,,
null,is arguing with,,html-keyboard-response,93,612115,0.0-13.0-2.10,36091,List2B,white,man,,,,null,,,,
12108,,,survey-text,94,624226,0.0-13.0-3.10,36091,List2B,white,man,,,,,"{""Q0"":""dave is arguing with beth""}","<img src=""stim_listB/argue1.gif""style=""height:400px;""></stim_listB>",is arguing with,
null,"<div style=""font-size:60px;"">+</div>",,html-keyboard-response,95,624741,0.0-13.0-0.11,36091,List2B,white,man,,,,null,,,,
null,"<img src=""stim_listB/marry5.gif""style=""height:400px;""></stim_listB>",,html-keyboard-response,96,626748,0.0-13.0-1.11,36091,List2B,white,man,,,,null,,,,
null,is marrying,,html-keyboard-response,97,628748,0.0-13.0-2.11,36091,List2B,white,man,,,,null,,,,
10197,,,survey-text,98,638947,0.0-13.0-3.11,36091,List2B,white,man,,,,,"{""Q0"":""dave is marrying fred""}","<img src=""stim_listB/marry5.gif""style=""height:400px;""></stim_listB>",is marrying,
null,"<div style=""font-size:60px;"">+</div>",,html-keyboard-response,99,639454,0.0-13.0-0.12,36091,List2B,white,man,,,,null,,,,
null,"<img src=""stim_listB/fight4.gif""style=""height:400px;""></stim_listB>",,html-keyboard-response,100,641459,0.0-13.0-1.12,36091,List2B,white,man,,,,null,,,,
null,are fighting each other,,html-keyboard-response,101,643468,0.0-13.0-2.12,36091,List2B,white,man,,,,null,,,,
21898,,,survey-text,102,665371,0.0-13.0-3.12,36091,List2B,white,man,,,,,"{""Q0"":""beth is fighting with fred""}","<img src=""stim_listB/fight4.gif""style=""height:400px;""></stim_listB>",are fighting each other,
null,"<div style=""font-size:60px;"">+</div>",,html-keyboard-response,103,665877,0.0-13.0-0.13,36091,List2B,white,man,,,,null,,,,
null,"<img src=""stim_listB/shout3.gif""style=""height:400px;""></stim_listB>",,html-keyboard-response,104,667882,0.0-13.0-1.13,36091,List2B,white,man,,,,null,,,,
null,is shouting at,,html-keyboard-response,105,669880,0.0-13.0-2.13,36091,List2B,white,man,,,,null,,,,
6439,,,survey-text,106,676323,0.0-13.0-3.13,36091,List2B,white,man,,,,,"{""Q0"":""beth is shouting at fred""}","<img src=""stim_listB/shout3.gif""style=""height:400px;""></stim_listB>",is shouting at,
null,"<div style=""font-size:60px;"">+</div>",,html-keyboard-response,107,676832,0.0-13.0-0.14,36091,List2B,white,man,,,,null,,,,
null,"<img src=""stim_listB/dance8.gif""style=""height:400px;""></stim_listB>",,html-keyboard-response,108,678845,0.0-13.0-1.14,36091,List2B,white,man,,,,null,,,,
null,are dancing with each other,,html-keyboard-response,109,680843,0.0-13.0-2.14,36091,List2B,white,man,,,,null,,,,
11084,,,survey-text,110,691931,0.0-13.0-3.14,36091,List2B,white,man,,,,,"{""Q0"":""jane and beth are dancing with eachother""}","<img src=""stim_listB/dance8.gif""style=""height:400px;""></stim_listB>",are dancing with each other,
null,"<div style=""font-size:60px;"">+</div>",,html-keyboard-response,111,692436,0.0-13.0-0.15,36091,List2B,white,man,,,,null,,,,
null,"<img src=""stim_listB/shout5.gif""style=""height:400px;""></stim_listB>",,html-keyboard-response,112,694443,0.0-13.0-1.15,36091,List2B,white,man,,,,null,,,,
null,is shouting at,,html-keyboard-response,113,696445,0.0-13.0-2.15,36091,List2B,white,man,,,,null,,,,
9092,,,survey-text,114,705538,0.0-13.0-3.15,36091,List2B,white,man,,,,,"{""Q0"":""fred is shouting at luke""}","<img src=""stim_listB/shout5.gif""style=""height:400px;""></stim_listB>",is shouting at,
null,"<div style=""font-size:60px;"">+</div>",,html-keyboard-response,115,706045,0.0-13.0-0.16,36091,List2B,white,man,,,,null,,,,
null,"<img src=""stim_listB/touch2.gif""style=""height:400px;""></stim_listB>",,html-keyboard-response,116,708052,0.0-13.0-1.16,36091,List2B,white,man,,,,null,,,,
null,are touching each other,,html-keyboard-response,117,710049,0.0-13.0-2.16,36091,List2B,white,man,,,,null,,,,
9710,,,survey-text,118,719762,0.0-13.0-3.16,36091,List2B,white,man,,,,,"{""Q0"":""luke and jane are touching eachother""}","<img src=""stim_listB/touch2.gif""style=""height:400px;""></stim_listB>",are touching each other,
null,"<div style=""font-size:60px;"">+</div>",,html-keyboard-response,119,720266,0.0-13.0-0.17,36091,List2B,white,man,,,,null,,,,
null,"<img src=""stim_listB/kiss4.gif""style=""height:400px;""></stim_listB>",,html-keyboard-response,120,722282,0.0-13.0-1.17,36091,List2B,white,man,,,,null,,,,
null,are kissing each other,,html-keyboard-response,121,724266,0.0-13.0-2.17,36091,List2B,white,man,,,,null,,,,
15510,,,survey-text,122,739778,0.0-13.0-3.17,36091,List2B,white,man,,,,,"{""Q0"":""mike and kate are kissing eachother""}","<img src=""stim_listB/kiss4.gif""style=""height:400px;""></stim_listB>",are kissing each other,
null,"<div style=""font-size:60px;"">+</div>",,html-keyboard-response,123,740294,0.0-13.0-0.18,36091,List2B,white,man,,,,null,,,,
null,"<img src=""stim_listB/play4.gif""style=""height:400px;""></stim_listB>",,html-keyboard-response,124,742311,0.0-13.0-1.18,36091,List2B,white,man,,,,null,,,,
null,are playing with each other,,html-keyboard-response,125,744302,0.0-13.0-2.18,36091,List2B,white,man,,,,null,,,,
11579,,,survey-text,126,755882,0.0-13.0-3.18,36091,List2B,white,man,,,,,"{""Q0"":""beth and fred are playing with eachother""}","<img src=""stim_listB/play4.gif""style=""height:400px;""></stim_listB>",are playing with each other,
null,"<div style=""font-size:60px;"">+</div>",,html-keyboard-response,127,756390,0.0-13.0-0.19,36091,List2B,white,man,,,,null,,,,
null,"<img src=""stim_listB/marry6.gif""style=""height:400px;""></stim_listB>",,html-keyboard-response,128,758395,0.0-13.0-1.19,36091,List2B,white,man,,,,null,,,,
null,are marrying each other,,html-keyboard-response,129,760393,0.0-13.0-2.19,36091,List2B,white,man,,,,null,,,,
7317,,,survey-text,130,767714,0.0-13.0-3.19,36091,List2B,white,man,,,,,"{""Q0"":""feed and mike are marrying eachother""}","<img src=""stim_listB/marry6.gif""style=""height:400px;""></stim_listB>",are marrying each other,
9365,"<img src='img/portrait_matrix_list2.jpg' style='width:900px;height:500px;''></img><p>If you have memorised all the portraits and names and are ready to start, press Continue.</p><p><strong>Please note: Your memory of these faces will be tested 4 times during this experiment.</strong></p>",0,html-button-response,131,777081,0.0-14.0-0.0,36091,List2B,white,man,,,,,,,,
5217,"<img src=""portrait/WW2.jpg""style=""height:400px;""></img>",3,html-button-response,132,783314,0.0-14.0-1.0,36091,List2B,white,man,,TRUE,3,,,,,
null,CORRECT,,html-keyboard-response,133,784832,0.0-14.0-2.0-0.0,36091,List2B,white,man,,,,null,,,,
2534,"<img src=""portrait/BM2.jpg""style=""height:400px;""></img>",5,html-button-response,134,787370,0.0-14.0-4.0,36091,List2B,white,man,,TRUE,5,,,,,
null,CORRECT,,html-keyboard-response,135,788868,0.0-14.0-5.0-0.0,36091,List2B,white,man,,,,null,,,,
4002,"<img src=""portrait/BW1.jpg""style=""height:400px;""></img>",0,html-button-response,136,792875,0.0-14.0-7.0,36091,List2B,white,man,,TRUE,0,,,,,
null,CORRECT,,html-keyboard-response,137,794391,0.0-14.0-8.0-0.0,36091,List2B,white,man,,,,null,,,,
2273,"<img src=""portrait/WM1.jpg""style=""height:400px;""></img>",6,html-button-response,138,796667,0.0-14.0-10.0,36091,List2B,white,man,,TRUE,6,,,,,
null,CORRECT,,html-keyboard-response,139,798178,0.0-14.0-11.0-0.0,36091,List2B,white,man,,,,null,,,,
1812,"<img src=""portrait/WW1.jpg""style=""height:400px;""></img>",3,html-button-response,140,799995,0.0-14.0-13.0,36091,List2B,white,man,,TRUE,1,,,,,
6377,"<img src=""portrait/WW1.jpg""style=""height:400px;""></img>",1,html-button-response,141,807377,0.0-14.0-15.0-0.0,36091,List2B,white,man,,FALSE,1,,,,,
null,CORRECT,,html-keyboard-response,142,808897,0.0-14.0-15.0-1.0-0.0,36091,List2B,white,man,,,,null,,,,
4112,"<img src=""portrait/BW2.jpg""style=""height:400px;""></img>",0,html-button-response,143,813013,0.0-14.0-16.0,36091,List2B,white,man,,TRUE,2,,,,,
2436,"<img src=""portrait/BW2.jpg""style=""height:400px;""></img>",2,html-button-response,144,816468,0.0-14.0-18.0-0.0,36091,List2B,white,man,,FALSE,2,,,,,
null,CORRECT,,html-keyboard-response,145,817981,0.0-14.0-18.0-1.0-0.0,36091,List2B,white,man,,,,null,,,,
2403,"<img src=""portrait/WM2.jpg""style=""height:400px;""></img>",7,html-button-response,146,820388,0.0-14.0-19.0,36091,List2B,white,man,,TRUE,7,,,,,
null,CORRECT,,html-keyboard-response,147,821904,0.0-14.0-20.0-0.0,36091,List2B,white,man,,,,null,,,,
1774,"<img src=""portrait/BM1.jpg""style=""height:400px;""></img>",4,html-button-response,148,823683,0.0-14.0-22.0,36091,List2B,white,man,,TRUE,4,,,,,
null,CORRECT,,html-keyboard-response,149,825187,0.0-14.0-23.0-0.0,36091,List2B,white,man,,,,null,,,,
2156,<p>You got 6 out of 8 right first time. Press Continue.</p>,0,html-button-response,150,827346,0.0-14.0-25.0,36091,List2B,white,man,,,,,,,,
1414,"As you did not score 100%, the memory game will repeat. Press Continue.",0,html-button-response,151,829769,0.0-14.0-26.0-0.0,36091,List2B,white,man,,,,,,,,
1288,"<img src='img/portrait_matrix_list2.jpg' style='width:900px;height:500px;''></img><p>If you have memorised all the portraits and names and are ready to start, press Continue.</p><p><strong>Please note: Your memory of these faces will be tested 4 times during this experiment.</strong></p>",0,html-button-response,152,832065,0.0-14.1-0.1,36091,List2B,white,man,,,,,,,,
2606,"<img src=""portrait/WW2.jpg""style=""height:400px;""></img>",3,html-button-response,153,835692,0.0-14.1-1.1,36091,List2B,white,man,,TRUE,3,,,,,
null,CORRECT,,html-keyboard-response,154,837199,0.0-14.1-2.1-0.1,36091,List2B,white,man,,,,null,,,,
2464,"<img src=""portrait/BM2.jpg""style=""height:400px;""></img>",5,html-button-response,155,839667,0.0-14.1-4.1,36091,List2B,white,man,,TRUE,5,,,,,
null,CORRECT,,html-keyboard-response,156,841183,0.0-14.1-5.1-0.1,36091,List2B,white,man,,,,null,,,,
8455,"<img src=""portrait/BW1.jpg""style=""height:400px;""></img>",0,html-button-response,157,849642,0.0-14.1-7.1,36091,List2B,white,man,,TRUE,0,,,,,
null,CORRECT,,html-keyboard-response,158,851160,0.0-14.1-8.1-0.1,36091,List2B,white,man,,,,null,,,,
1889,"<img src=""portrait/WM1.jpg""style=""height:400px;""></img>",6,html-button-response,159,853049,0.0-14.1-10.1,36091,List2B,white,man,,TRUE,6,,,,,
null,CORRECT,,html-keyboard-response,160,854578,0.0-14.1-11.1-0.1,36091,List2B,white,man,,,,null,,,,
7260,"<img src=""portrait/WW1.jpg""style=""height:400px;""></img>",1,html-button-response,161,861841,0.0-14.1-13.1,36091,List2B,white,man,,TRUE,1,,,,,
null,CORRECT,,html-keyboard-response,162,863355,0.0-14.1-14.1-0.1,36091,List2B,white,man,,,,null,,,,
5057,"<img src=""portrait/BW2.jpg""style=""height:400px;""></img>",2,html-button-response,163,868418,0.0-14.1-16.1,36091,List2B,white,man,,TRUE,2,,,,,
null,CORRECT,,html-keyboard-response,164,869923,0.0-14.1-17.1-0.1,36091,List2B,white,man,,,,null,,,,
4387,"<img src=""portrait/WM2.jpg""style=""height:400px;""></img>",7,html-button-response,165,874314,0.0-14.1-19.1,36091,List2B,white,man,,TRUE,7,,,,,
null,CORRECT,,html-keyboard-response,166,875830,0.0-14.1-20.1-0.1,36091,List2B,white,man,,,,null,,,,
2656,"<img src=""portrait/BM1.jpg""style=""height:400px;""></img>",4,html-button-response,167,878490,0.0-14.1-22.1,36091,List2B,white,man,,TRUE,4,,,,,
null,CORRECT,,html-keyboard-response,168,880001,0.0-14.1-23.1-0.1,36091,List2B,white,man,,,,null,,,,
1119,<p>You got 8 out of 8 right first time. Press Continue.</p>,0,html-button-response,169,881122,0.0-14.1-25.1,36091,List2B,white,man,,,,,,,,
null,"<div style=""font-size:60px;"">+</div>",,html-keyboard-response,170,882656,0.0-15.0-0.0,36091,List2B,white,man,,,,null,,,,
null,"<img src=""stim_listB/shout6.gif""style=""height:400px;""></stim_listB>",,html-keyboard-response,171,884658,0.0-15.0-1.0,36091,List2B,white,man,,,,null,,,,
null,are shouting at each other,,html-keyboard-response,172,886671,0.0-15.0-2.0,36091,List2B,white,man,,,,null,,,,
13704,,,survey-text,173,900377,0.0-15.0-3.0,36091,List2B,white,man,,,,,"{""Q0"":""mike and dave are shouting at eachother""}","<img src=""stim_listB/shout6.gif""style=""height:400px;""></stim_listB>",are shouting at each other,
null,"<div style=""font-size:60px;"">+</div>",,html-keyboard-response,174,900893,0.0-15.0-0.1,36091,List2B,white,man,,,,null,,,,
null,"<img src=""stim_listB/kiss8.gif""style=""height:400px;""></stim_listB>",,html-keyboard-response,175,902911,0.0-15.0-1.1,36091,List2B,white,man,,,,null,,,,
null,are kissing each other,,html-keyboard-response,176,904904,0.0-15.0-2.1,36091,List2B,white,man,,,,null,,,,
7910,,,survey-text,177,912818,0.0-15.0-3.1,36091,List2B,white,man,,,,,"{""Q0"":""jane and beth are kissing""}","<img src=""stim_listB/kiss8.gif""style=""height:400px;""></stim_listB>",are kissing each other,
null,"<div style=""font-size:60px;"">+</div>",,html-keyboard-response,178,913334,0.0-15.0-0.2,36091,List2B,white,man,,,,null,,,,
null,"<img src=""stim_listB/argue8.gif""style=""height:400px;""></stim_listB>",,html-keyboard-response,179,915339,0.0-15.0-1.2,36091,List2B,white,man,,,,null,,,,
null,are arguing with each other,,html-keyboard-response,180,917350,0.0-15.0-2.2,36091,List2B,white,man,,,,null,,,,
9991,,,survey-text,181,927348,0.0-15.0-3.2,36091,List2B,white,man,,,,,"{""Q0"":""ruth and beth are arguing with eachother""}","<img src=""stim_listB/argue8.gif""style=""height:400px;""></stim_listB>",are arguing with each other,
null,"<div style=""font-size:60px;"">+</div>",,html-keyboard-response,182,927859,0.0-15.0-0.3,36091,List2B,white,man,,,,null,,,,
null,"<img src=""stim_listB/dance6.gif""style=""height:400px;""></stim_listB>",,html-keyboard-response,183,929864,0.0-15.0-1.3,36091,List2B,white,man,,,,null,,,,
null,are dancing with each other,,html-keyboard-response,184,931862,0.0-15.0-2.3,36091,List2B,white,man,,,,null,,,,
13056,,,survey-text,185,944922,0.0-15.0-3.3,36091,List2B,white,man,,,,,"{""Q0"":""dave and fred are dancing with eachother""}","<img src=""stim_listB/dance6.gif""style=""height:400px;""></stim_listB>",are dancing with each other,
null,"<div style=""font-size:60px;"">+</div>",,html-keyboard-response,186,945425,0.0-15.0-0.4,36091,List2B,white,man,,,,null,,,,
null,"<img src=""stim_listB/flirt2.gif""style=""height:400px;""></stim_listB>",,html-keyboard-response,187,947429,0.0-15.0-1.4,36091,List2B,white,man,,,,null,,,,
null,are flirting with each other,,html-keyboard-response,188,949427,0.0-15.0-2.4,36091,List2B,white,man,,,,null,,,,
108301,,,survey-text,189,1057730,0.0-15.0-3.4,36091,List2B,white,man,,,,,"{""Q0"":""dave and ruth are flirting with eachother""}","<img src=""stim_listB/flirt2.gif""style=""height:400px;""></stim_listB>",are flirting with each other,
null,"<div style=""font-size:60px;"">+</div>",,html-keyboard-response,190,1058246,0.0-15.0-0.5,36091,List2B,white,man,,,,null,,,,
null,"<img src=""stim_listB/play3.gif""style=""height:400px;""></stim_listB>",,html-keyboard-response,191,1060257,0.0-15.0-1.5,36091,List2B,white,man,,,,null,,,,
null,is playing with,,html-keyboard-response,192,1062261,0.0-15.0-2.5,36091,List2B,white,man,,,,null,,,,
7971,,,survey-text,193,1070234,0.0-15.0-3.5,36091,List2B,white,man,,,,,"{""Q0"":""mike and beth are flirting with eachother""}","<img src=""stim_listB/play3.gif""style=""height:400px;""></stim_listB>",is playing with,
null,"<div style=""font-size:60px;"">+</div>",,html-keyboard-response,194,1070752,0.0-15.0-0.6,36091,List2B,white,man,,,,null,,,,
null,"<img src=""stim_listB/touch3.gif""style=""height:400px;""></stim_listB>",,html-keyboard-response,195,1072759,0.0-15.0-1.6,36091,List2B,white,man,,,,null,,,,
null,is touching,,html-keyboard-response,196,1074764,0.0-15.0-2.6,36091,List2B,white,man,,,,null,,,,
8986,,,survey-text,197,1083753,0.0-15.0-3.6,36091,List2B,white,man,,,,,"{""Q0"":""mike is touching beth""}","<img src=""stim_listB/touch3.gif""style=""height:400px;""></stim_listB>",is touching,
null,"<div style=""font-size:60px;"">+</div>",,html-keyboard-response,198,1084257,0.0-15.0-0.7,36091,List2B,white,man,,,,null,,,,
null,"<img src=""stim_listB/talk3.gif""style=""height:400px;""></stim_listB>",,html-keyboard-response,199,1086269,0.0-15.0-1.7,36091,List2B,white,man,,,,null,,,,
null,is talking to,,html-keyboard-response,200,1088266,0.0-15.0-2.7,36091,List2B,white,man,,,,null,,,,
5892,,,survey-text,201,1094162,0.0-15.0-3.7,36091,List2B,white,man,,,,,"{""Q0"":""beth is talking to fred""}","<img src=""stim_listB/talk3.gif""style=""height:400px;""></stim_listB>",is talking to,
null,"<div style=""font-size:60px;"">+</div>",,html-keyboard-response,202,1094678,0.0-15.0-0.8,36091,List2B,white,man,,,,null,,,,
null,"<img src=""stim_listB/flirt7.gif""style=""height:400px;""></stim_listB>",,html-keyboard-response,203,1096694,0.0-15.0-1.8,36091,List2B,white,man,,,,null,,,,
null,is flirting with,,html-keyboard-response,204,1098694,0.0-15.0-2.8,36091,List2B,white,man,,,,null,,,,
6455,,,survey-text,205,1105151,0.0-15.0-3.8,36091,List2B,white,man,,,,,"{""Q0"":""ruth is flirtingwith beth""}","<img src=""stim_listB/flirt7.gif""style=""height:400px;""></stim_listB>",is flirting with,
null,"<div style=""font-size:60px;"">+</div>",,html-keyboard-response,206,1105657,0.0-15.0-0.9,36091,List2B,white,man,,,,null,,,,
null,"<img src=""stim_listB/talk5.gif""style=""height:400px;""></stim_listB>",,html-keyboard-response,207,1107669,0.0-15.0-1.9,36091,List2B,white,man,,,,null,,,,
null,is talking to,,html-keyboard-response,208,1109660,0.0-15.0-2.9,36091,List2B,white,man,,,,null,,,,
6762,,,survey-text,209,1116425,0.0-15.0-3.9,36091,List2B,white,man,,,,,"{""Q0"":""mike is talking to luke""}","<img src=""stim_listB/talk5.gif""style=""height:400px;""></stim_listB>",is talking to,
null,"<div style=""font-size:60px;"">+</div>",,html-keyboard-response,210,1116943,0.0-15.0-0.10,36091,List2B,white,man,,,,null,,,,
null,"<img src=""stim_listB/flirt5.gif""style=""height:400px;""></stim_listB>",,html-keyboard-response,211,1118947,0.0-15.0-1.10,36091,List2B,white,man,,,,null,,,,
null,is flirting with,,html-keyboard-response,212,1120943,0.0-15.0-2.10,36091,List2B,white,man,,,,null,,,,
6774,,,survey-text,213,1127721,0.0-15.0-3.10,36091,List2B,white,man,,,,,"{""Q0"":""mike is firting with luke""}","<img src=""stim_listB/flirt5.gif""style=""height:400px;""></stim_listB>",is flirting with,
null,"<div style=""font-size:60px;"">+</div>",,html-keyboard-response,214,1128235,0.0-15.0-0.11,36091,List2B,white,man,,,,null,,,,
null,"<img src=""stim_listB/talk8.gif""style=""height:400px;""></stim_listB>",,html-keyboard-response,215,1130241,0.0-15.0-1.11,36091,List2B,white,man,,,,null,,,,
null,are talking to each other,,html-keyboard-response,216,1132239,0.0-15.0-2.11,36091,List2B,white,man,,,,null,,,,
19303,,,survey-text,217,1151545,0.0-15.0-3.11,36091,List2B,white,man,,,,,"{""Q0"":""jane and beth are talking to eachother""}","<img src=""stim_listB/talk8.gif""style=""height:400px;""></stim_listB>",are talking to each other,
null,"<div style=""font-size:60px;"">+</div>",,html-keyboard-response,218,1152052,0.0-15.0-0.12,36091,List2B,white,man,,,,null,,,,
null,"<img src=""stim_listB/kiss6.gif""style=""height:400px;""></stim_listB>",,html-keyboard-response,219,1154062,0.0-15.0-1.12,36091,List2B,white,man,,,,null,,,,
null,are kissing each other,,html-keyboard-response,220,1156063,0.0-15.0-2.12,36091,List2B,white,man,,,,null,,,,
10979,,,survey-text,221,1167045,0.0-15.0-3.12,36091,List2B,white,man,,,,,"{""Q0"":""mike and dave are kissing eachother""}","<img src=""stim_listB/kiss6.gif""style=""height:400px;""></stim_listB>",are kissing each other,
null,"<div style=""font-size:60px;"">+</div>",,html-keyboard-response,222,1167556,0.0-15.0-0.13,36091,List2B,white,man,,,,null,,,,
null,"<img src=""stim_listB/argue2.gif""style=""height:400px;""></stim_listB>",,html-keyboard-response,223,1169561,0.0-15.0-1.13,36091,List2B,white,man,,,,null,,,,
null,are arguing with each other,,html-keyboard-response,224,1171556,0.0-15.0-2.13,36091,List2B,white,man,,,,null,,,,
7609,,,survey-text,225,1179169,0.0-15.0-3.13,36091,List2B,white,man,,,,,"{""Q0"":""luke and jane are arguing with eachother""}","<img src=""stim_listB/argue2.gif""style=""height:400px;""></stim_listB>",are arguing with each other,
null,"<div style=""font-size:60px;"">+</div>",,html-keyboard-response,226,1179683,0.0-15.0-0.14,36091,List2B,white,man,,,,null,,,,
null,"<img src=""stim_listB/touch5.gif""style=""height:400px;""></stim_listB>",,html-keyboard-response,227,1181687,0.0-15.0-1.14,36091,List2B,white,man,,,,null,,,,
null,is touching,,html-keyboard-response,228,1183687,0.0-15.0-2.14,36091,List2B,white,man,,,,null,,,,
8242,,,survey-text,229,1191929,0.0-15.0-3.14,36091,List2B,white,man,,,,,"{""Q0"":""mike is touching dave""}","<img src=""stim_listB/touch5.gif""style=""height:400px;""></stim_listB>",is touching,
null,"<div style=""font-size:60px;"">+</div>",,html-keyboard-response,230,1192442,0.0-15.0-0.15,36091,List2B,white,man,,,,null,,,,
null,"<img src=""stim_listB/argue6.gif""style=""height:400px;""></stim_listB>",,html-keyboard-response,231,1194449,0.0-15.0-1.15,36091,List2B,white,man,,,,null,,,,
null,are arguing with each other,,html-keyboard-response,232,1196450,0.0-15.0-2.15,36091,List2B,white,man,,,,null,,,,
11948,,,survey-text,233,1208402,0.0-15.0-3.15,36091,List2B,white,man,,,,,"{""Q0"":""mike and dave are arguing with eachother""}","<img src=""stim_listB/argue6.gif""style=""height:400px;""></stim_listB>",are arguing with each other,
null,"<div style=""font-size:60px;"">+</div>",,html-keyboard-response,234,1208909,0.0-15.0-0.16,36091,List2B,white,man,,,,null,,,,
null,"<img src=""stim_listB/kiss7.gif""style=""height:400px;""></stim_listB>",,html-keyboard-response,235,1210915,0.0-15.0-1.16,36091,List2B,white,man,,,,null,,,,
null,is kissing,,html-keyboard-response,236,1212913,0.0-15.0-2.16,36091,List2B,white,man,,,,null,,,,
8414,,,survey-text,237,1221330,0.0-15.0-3.16,36091,List2B,white,man,,,,,"{""Q0"":""ruth and beth are kissing""}","<img src=""stim_listB/kiss7.gif""style=""height:400px;""></stim_listB>",is kissing,
null,"<div style=""font-size:60px;"">+</div>",,html-keyboard-response,238,1221839,0.0-15.0-0.17,36091,List2B,white,man,,,,null,,,,
null,"<img src=""stim_listB/flirt3.gif""style=""height:400px;""></stim_listB>",,html-keyboard-response,239,1223843,0.0-15.0-1.17,36091,List2B,white,man,,,,null,,,,
null,is flirting with,,html-keyboard-response,240,1225855,0.0-15.0-2.17,36091,List2B,white,man,,,,null,,,,
8398,,,survey-text,241,1234257,0.0-15.0-3.17,36091,List2B,white,man,,,,,"{""Q0"":""kate is flirting with fred""}","<img src=""stim_listB/flirt3.gif""style=""height:400px;""></stim_listB>",is flirting with,
null,"<div style=""font-size:60px;"">+</div>",,html-keyboard-response,242,1234766,0.0-15.0-0.18,36091,List2B,white,man,,,,null,,,,
null,"<img src=""stim_listB/shout7.gif""style=""height:400px;""></stim_listB>",,html-keyboard-response,243,1236771,0.0-15.0-1.18,36091,List2B,white,man,,,,null,,,,
null,is shouting at,,html-keyboard-response,244,1238785,0.0-15.0-2.18,36091,List2B,white,man,,,,null,,,,
6759,,,survey-text,245,1245547,0.0-15.0-3.18,36091,List2B,white,man,,,,,"{""Q0"":""ruth is shouting at beth""}","<img src=""stim_listB/shout7.gif""style=""height:400px;""></stim_listB>",is shouting at,
null,"<div style=""font-size:60px;"">+</div>",,html-keyboard-response,246,1246054,0.0-15.0-0.19,36091,List2B,white,man,,,,null,,,,
null,"<img src=""stim_listB/marry2.gif""style=""height:400px;""></stim_listB>",,html-keyboard-response,247,1248063,0.0-15.0-1.19,36091,List2B,white,man,,,,null,,,,
null,are marrying each other,,html-keyboard-response,248,1250061,0.0-15.0-2.19,36091,List2B,white,man,,,,null,,,,
7708,,,survey-text,249,1257771,0.0-15.0-3.19,36091,List2B,white,man,,,,,"{""Q0"":""jane and luke are marrying eachother""}","<img src=""stim_listB/marry2.gif""style=""height:400px;""></stim_listB>",are marrying each other,
3253,"<img src='img/portrait_matrix_list2.jpg' style='width:900px;height:500px;''></img><p>If you have memorised all the portraits and names and are ready to start, press Continue.</p><p><strong>Please note: Your memory of these faces will be tested 4 times during this experiment.</strong></p>",0,html-button-response,250,1261028,0.0-16.0-0.0,36091,List2B,white,man,,,,,,,,
2380,"<img src=""portrait/BM1.jpg""style=""height:400px;""></img>",4,html-button-response,251,1264425,0.0-16.0-1.0,36091,List2B,white,man,,TRUE,4,,,,,
null,CORRECT,,html-keyboard-response,252,1265940,0.0-16.0-2.0-0.0,36091,List2B,white,man,,,,null,,,,
1593,"<img src=""portrait/WM1.jpg""style=""height:400px;""></img>",6,html-button-response,253,1267537,0.0-16.0-4.0,36091,List2B,white,man,,TRUE,6,,,,,
null,CORRECT,,html-keyboard-response,254,1269062,0.0-16.0-5.0-0.0,36091,List2B,white,man,,,,null,,,,
2583,"<img src=""portrait/BM2.jpg""style=""height:400px;""></img>",5,html-button-response,255,1271649,0.0-16.0-7.0,36091,List2B,white,man,,TRUE,5,,,,,
null,CORRECT,,html-keyboard-response,256,1273167,0.0-16.0-8.0-0.0,36091,List2B,white,man,,,,null,,,,
1525,"<img src=""portrait/WM2.jpg""style=""height:400px;""></img>",7,html-button-response,257,1274696,0.0-16.0-10.0,36091,List2B,white,man,,TRUE,7,,,,,
null,CORRECT,,html-keyboard-response,258,1276219,0.0-16.0-11.0-0.0,36091,List2B,white,man,,,,null,,,,
4083,"<img src=""portrait/WW1.jpg""style=""height:400px;""></img>",1,html-button-response,259,1280305,0.0-16.0-13.0,36091,List2B,white,man,,TRUE,1,,,,,
null,CORRECT,,html-keyboard-response,260,1281823,0.0-16.0-14.0-0.0,36091,List2B,white,man,,,,null,,,,
6925,"<img src=""portrait/BW1.jpg""style=""height:400px;""></img>",0,html-button-response,261,1288751,0.0-16.0-16.0,36091,List2B,white,man,,TRUE,0,,,,,
null,CORRECT,,html-keyboard-response,262,1290278,0.0-16.0-17.0-0.0,36091,List2B,white,man,,,,null,,,,
2231,"<img src=""portrait/WW2.jpg""style=""height:400px;""></img>",3,html-button-response,263,1292513,0.0-16.0-19.0,36091,List2B,white,man,,TRUE,3,,,,,
null,CORRECT,,html-keyboard-response,264,1294015,0.0-16.0-20.0-0.0,36091,List2B,white,man,,,,null,,,,
1908,"<img src=""portrait/BW2.jpg""style=""height:400px;""></img>",2,html-button-response,265,1295929,0.0-16.0-22.0,36091,List2B,white,man,,TRUE,2,,,,,
null,CORRECT,,html-keyboard-response,266,1297438,0.0-16.0-23.0-0.0,36091,List2B,white,man,,,,null,,,,
1615,<p>You got 8 out of 8 right first time. Press Continue.</p>,0,html-button-response,267,1299058,0.0-16.0-25.0,36091,List2B,white,man,,,,,,,,
null,"<div style=""font-size:60px;"">+</div>",,html-keyboard-response,268,1300579,0.0-17.0-0.0,36091,List2B,white,man,,,,null,,,,
null,"<img src=""stim_listB/fight7.gif""style=""height:400px;""></stim_listB>",,html-keyboard-response,269,1302592,0.0-17.0-1.0,36091,List2B,white,man,,,,null,,,,
null,is fighting,,html-keyboard-response,270,1304597,0.0-17.0-2.0,36091,List2B,white,man,,,,null,,,,
8748,,,survey-text,271,1313346,0.0-17.0-3.0,36091,List2B,white,man,,,,,"{""Q0"":""kate is fighting jane""}","<img src=""stim_listB/fight7.gif""style=""height:400px;""></stim_listB>",is fighting,
null,"<div style=""font-size:60px;"">+</div>",,html-keyboard-response,272,1313855,0.0-17.0-0.1,36091,List2B,white,man,,,,null,,,,
null,"<img src=""stim_listB/flirt6.gif""style=""height:400px;""></stim_listB>",,html-keyboard-response,273,1315857,0.0-17.0-1.1,36091,List2B,white,man,,,,null,,,,
null,are flirting with each other,,html-keyboard-response,274,1317871,0.0-17.0-2.1,36091,List2B,white,man,,,,null,,,,
9742,,,survey-text,275,1327617,0.0-17.0-3.1,36091,List2B,white,man,,,,,"{""Q0"":""dave and fred are flirting with eachother""}","<img src=""stim_listB/flirt6.gif""style=""height:400px;""></stim_listB>",are flirting with each other,
null,"<div style=""font-size:60px;"">+</div>",,html-keyboard-response,276,1328123,0.0-17.0-0.2,36091,List2B,white,man,,,,null,,,,
null,"<img src=""stim_listB/shout8.gif""style=""height:400px;""></stim_listB>",,html-keyboard-response,277,1330135,0.0-17.0-1.2,36091,List2B,white,man,,,,null,,,,
null,are shouting at each other,,html-keyboard-response,278,1332131,0.0-17.0-2.2,36091,List2B,white,man,,,,null,,,,
7907,,,survey-text,279,1340040,0.0-17.0-3.2,36091,List2B,white,man,,,,,"{""Q0"":""kate and jane are shouting at eachother""}","<img src=""stim_listB/shout8.gif""style=""height:400px;""></stim_listB>",are shouting at each other,
null,"<div style=""font-size:60px;"">+</div>",,html-keyboard-response,280,1340547,0.0-17.0-0.3,36091,List2B,white,man,,,,null,,,,
null,"<img src=""stim_listB/dance1.gif""style=""height:400px;""></stim_listB>",,html-keyboard-response,281,1342562,0.0-17.0-1.3,36091,List2B,white,man,,,,null,,,,
null,is dancing with,,html-keyboard-response,282,1344565,0.0-17.0-2.3,36091,List2B,white,man,,,,null,,,,
6281,,,survey-text,283,1350848,0.0-17.0-3.3,36091,List2B,white,man,,,,,"{""Q0"":""jane is dancing with luke""}","<img src=""stim_listB/dance1.gif""style=""height:400px;""></stim_listB>",is dancing with,
null,"<div style=""font-size:60px;"">+</div>",,html-keyboard-response,284,1351355,0.0-17.0-0.4,36091,List2B,white,man,,,,null,,,,
null,"<img src=""stim_listB/flirt4.gif""style=""height:400px;""></stim_listB>",,html-keyboard-response,285,1353373,0.0-17.0-1.4,36091,List2B,white,man,,,,null,,,,
null,are flirting with each other,,html-keyboard-response,286,1355357,0.0-17.0-2.4,36091,List2B,white,man,,,,null,,,,
7521,,,survey-text,287,1362881,0.0-17.0-3.4,36091,List2B,white,man,,,,,"{""Q0"":""mike is flirting with beth""}","<img src=""stim_listB/flirt4.gif""style=""height:400px;""></stim_listB>",are flirting with each other,
null,"<div style=""font-size:60px;"">+</div>",,html-keyboard-response,288,1363393,0.0-17.0-0.5,36091,List2B,white,man,,,,null,,,,
null,"<img src=""stim_listB/fight3.gif""style=""height:400px;""></stim_listB>",,html-keyboard-response,289,1365400,0.0-17.0-1.5,36091,List2B,white,man,,,,null,,,,
null,is fighting,,html-keyboard-response,290,1367395,0.0-17.0-2.5,36091,List2B,white,man,,,,null,,,,
9546,,,survey-text,291,1376945,0.0-17.0-3.5,36091,List2B,white,man,,,,,"{""Q0"":""kate is flighting mike""}","<img src=""stim_listB/fight3.gif""style=""height:400px;""></stim_listB>",is fighting,
null,"<div style=""font-size:60px;"">+</div>",,html-keyboard-response,292,1377459,0.0-17.0-0.6,36091,List2B,white,man,,,,null,,,,
null,"<img src=""stim_listB/kiss1.gif""style=""height:400px;""></stim_listB>",,html-keyboard-response,293,1379461,0.0-17.0-1.6,36091,List2B,white,man,,,,null,,,,
null,is kissing,,html-keyboard-response,294,1381459,0.0-17.0-2.6,36091,List2B,white,man,,,,null,,,,
6163,,,survey-text,295,1387626,0.0-17.0-3.6,36091,List2B,white,man,,,,,"{""Q0"":""ruth is kissing luke""}","<img src=""stim_listB/kiss1.gif""style=""height:400px;""></stim_listB>",is kissing,
null,"<div style=""font-size:60px;"">+</div>",,html-keyboard-response,296,1388131,0.0-17.0-0.7,36091,List2B,white,man,,,,null,,,,
null,"<img src=""stim_listB/play5.gif""style=""height:400px;""></stim_listB>",,html-keyboard-response,297,1390140,0.0-17.0-1.7,36091,List2B,white,man,,,,null,,,,
null,is playing with,,html-keyboard-response,298,1392135,0.0-17.0-2.7,36091,List2B,white,man,,,,null,,,,
6654,,,survey-text,299,1398793,0.0-17.0-3.7,36091,List2B,white,man,,,,,"{""Q0"":""dave is playing with mike""}","<img src=""stim_listB/play5.gif""style=""height:400px;""></stim_listB>",is playing with,
null,"<div style=""font-size:60px;"">+</div>",,html-keyboard-response,300,1399309,0.0-17.0-0.8,36091,List2B,white,man,,,,null,,,,
null,"<img src=""stim_listB/shout1.gif""style=""height:400px;""></stim_listB>",,html-keyboard-response,301,1401312,0.0-17.0-1.8,36091,List2B,white,man,,,,null,,,,
null,is shouting at,,html-keyboard-response,302,1403314,0.0-17.0-2.8,36091,List2B,white,man,,,,null,,,,
6715,,,survey-text,303,1410033,0.0-17.0-3.8,36091,List2B,white,man,,,,,"{""Q0"":""ruth is shouting at mike""}","<img src=""stim_listB/shout1.gif""style=""height:400px;""></stim_listB>",is shouting at,
null,"<div style=""font-size:60px;"">+</div>",,html-keyboard-response,304,1410547,0.0-17.0-0.9,36091,List2B,white,man,,,,null,,,,
null,"<img src=""stim_listB/play6.gif""style=""height:400px;""></stim_listB>",,html-keyboard-response,305,1412563,0.0-17.0-1.9,36091,List2B,white,man,,,,null,,,,
null,are playing with each other,,html-keyboard-response,306,1414571,0.0-17.0-2.9,36091,List2B,white,man,,,,null,,,,
17443,,,survey-text,307,1432017,0.0-17.0-3.9,36091,List2B,white,man,,,,,"{""Q0"":""fred and mike are playing with eachother""}","<img src=""stim_listB/play6.gif""style=""height:400px;""></stim_listB>",are playing with each other,
null,"<div style=""font-size:60px;"">+</div>",,html-keyboard-response,308,1432522,0.0-17.0-0.10,36091,List2B,white,man,,,,null,,,,
null,"<img src=""stim_listB/touch1.gif""style=""height:400px;""></stim_listB>",,html-keyboard-response,309,1434526,0.0-17.0-1.10,36091,List2B,white,man,,,,null,,,,
null,is touching,,html-keyboard-response,310,1436527,0.0-17.0-2.10,36091,List2B,white,man,,,,null,,,,
22837,,,survey-text,311,1459368,0.0-17.0-3.10,36091,List2B,white,man,,,,,"{""Q0"":""so sorry missed this one""}","<img src=""stim_listB/touch1.gif""style=""height:400px;""></stim_listB>",is touching,
null,"<div style=""font-size:60px;"">+</div>",,html-keyboard-response,312,1459877,0.0-17.0-0.11,36091,List2B,white,man,,,,null,,,,
null,"<img src=""stim_listB/fight6.gif""style=""height:400px;""></stim_listB>",,html-keyboard-response,313,1461884,0.0-17.0-1.11,36091,List2B,white,man,,,,null,,,,
null,are fighting each other,,html-keyboard-response,314,1463881,0.0-17.0-2.11,36091,List2B,white,man,,,,null,,,,
10215,,,survey-text,315,1474097,0.0-17.0-3.11,36091,List2B,white,man,,,,,"{""Q0"":""mike and fed are fighting with eachother""}","<img src=""stim_listB/fight6.gif""style=""height:400px;""></stim_listB>",are fighting each other,
null,"<div style=""font-size:60px;"">+</div>",,html-keyboard-response,316,1474608,0.0-17.0-0.12,36091,List2B,white,man,,,,null,,,,
null,"<img src=""stim_listB/argue3.gif""style=""height:400px;""></stim_listB>",,html-keyboard-response,317,1476617,0.0-17.0-1.12,36091,List2B,white,man,,,,null,,,,
null,is arguing with,,html-keyboard-response,318,1478610,0.0-17.0-2.12,36091,List2B,white,man,,,,null,,,,
6891,,,survey-text,319,1485504,0.0-17.0-3.12,36091,List2B,white,man,,,,,"{""Q0"":""mike is arguing with beth""}","<img src=""stim_listB/argue3.gif""style=""height:400px;""></stim_listB>",is arguing with,
null,"<div style=""font-size:60px;"">+</div>",,html-keyboard-response,320,1486018,0.0-17.0-0.13,36091,List2B,white,man,,,,null,,,,
null,"<img src=""stim_listB/dance3.gif""style=""height:400px;""></stim_listB>",,html-keyboard-response,321,1488026,0.0-17.0-1.13,36091,List2B,white,man,,,,null,,,,
null,is dancing with,,html-keyboard-response,322,1490020,0.0-17.0-2.13,36091,List2B,white,man,,,,null,,,,
12873,,,survey-text,323,1502897,0.0-17.0-3.13,36091,List2B,white,man,,,,,"{""Q0"":""jane is dancing with fred""}","<img src=""stim_listB/dance3.gif""style=""height:400px;""></stim_listB>",is dancing with,
null,"<div style=""font-size:60px;"">+</div>",,html-keyboard-response,324,1503402,0.0-17.0-0.14,36091,List2B,white,man,,,,null,,,,
null,"<img src=""stim_listB/marry8.gif""style=""height:400px;""></stim_listB>",,html-keyboard-response,325,1505407,0.0-17.0-1.14,36091,List2B,white,man,,,,null,,,,
null,are marrying each other,,html-keyboard-response,326,1507404,0.0-17.0-2.14,36091,List2B,white,man,,,,null,,,,
14839,,,survey-text,327,1522248,0.0-17.0-3.14,36091,List2B,white,man,,,,,"{""Q0"":""beth and kate are marrying eachother""}","<img src=""stim_listB/marry8.gif""style=""height:400px;""></stim_listB>",are marrying each other,
null,"<div style=""font-size:60px;"">+</div>",,html-keyboard-response,328,1522757,0.0-17.0-0.15,36091,List2B,white,man,,,,null,,,,
null,"<img src=""stim_listB/talk4.gif""style=""height:400px;""></stim_listB>",,html-keyboard-response,329,1524762,0.0-17.0-1.15,36091,List2B,white,man,,,,null,,,,
null,are talking to each other,,html-keyboard-response,330,1526769,0.0-17.0-2.15,36091,List2B,white,man,,,,null,,,,
7837,,,survey-text,331,1534608,0.0-17.0-3.15,36091,List2B,white,man,,,,,"{""Q0"":""mike and beth are talking to eachother""}","<img src=""stim_listB/talk4.gif""style=""height:400px;""></stim_listB>",are talking to each other,
null,"<div style=""font-size:60px;"">+</div>",,html-keyboard-response,332,1535126,0.0-17.0-0.16,36091,List2B,white,man,,,,null,,,,
null,"<img src=""stim_listB/play2.gif""style=""height:400px;""></stim_listB>",,html-keyboard-response,333,1537133,0.0-17.0-1.16,36091,List2B,white,man,,,,null,,,,
null,are playing with each other,,html-keyboard-response,334,1539133,0.0-17.0-2.16,36091,List2B,white,man,,,,null,,,,
11665,,,survey-text,335,1550800,0.0-17.0-3.16,36091,List2B,white,man,,,,,"{""Q0"":""jane and mike are playing with eachother""}","<img src=""stim_listB/play2.gif""style=""height:400px;""></stim_listB>",are playing with each other,
null,"<div style=""font-size:60px;"">+</div>",,html-keyboard-response,336,1551312,0.0-17.0-0.17,36091,List2B,white,man,,,,null,,,,
null,"<img src=""stim_listB/talk6.gif""style=""height:400px;""></stim_listB>",,html-keyboard-response,337,1553330,0.0-17.0-1.17,36091,List2B,white,man,,,,null,,,,
null,are talking to each other,,html-keyboard-response,338,1555323,0.0-17.0-2.17,36091,List2B,white,man,,,,null,,,,
10156,,,survey-text,339,1565481,0.0-17.0-3.17,36091,List2B,white,man,,,,,"{""Q0"":""mike and fred are talking to eachother""}","<img src=""stim_listB/talk6.gif""style=""height:400px;""></stim_listB>",are talking to each other,
null,"<div style=""font-size:60px;"">+</div>",,html-keyboard-response,340,1565990,0.0-17.0-0.18,36091,List2B,white,man,,,,null,,,,
null,"<img src=""stim_listB/play7.gif""style=""height:400px;""></stim_listB>",,html-keyboard-response,341,1567993,0.0-17.0-1.18,36091,List2B,white,man,,,,null,,,,
null,is playing with,,html-keyboard-response,342,1570004,0.0-17.0-2.18,36091,List2B,white,man,,,,null,,,,
9075,,,survey-text,343,1579081,0.0-17.0-3.18,36091,List2B,white,man,,,,,"{""Q0"":""jane is playing with kate""}","<img src=""stim_listB/play7.gif""style=""height:400px;""></stim_listB>",is playing with,
null,"<div style=""font-size:60px;"">+</div>",,html-keyboard-response,344,1579599,0.0-17.0-0.19,36091,List2B,white,man,,,,null,,,,
null,"<img src=""stim_listB/fight5.gif""style=""height:400px;""></stim_listB>",,html-keyboard-response,345,1581610,0.0-17.0-1.19,36091,List2B,white,man,,,,null,,,,
null,is fighting,,html-keyboard-response,346,1583606,0.0-17.0-2.19,36091,List2B,white,man,,,,null,,,,
171118,,,survey-text,347,1754728,0.0-17.0-3.19,36091,List2B,white,man,,,,,"{""Q0"":""mike is fighting dave""}","<img src=""stim_listB/fight5.gif""style=""height:400px;""></stim_listB>",is fighting,
3476,"<img src='img/portrait_matrix_list2.jpg' style='width:900px;height:500px;''></img><p>If you have memorised all the portraits and names and are ready to start, press Continue.</p><p><strong>Please note: Your memory of these faces will be tested 4 times during this experiment.</strong></p>",0,html-button-response,348,1758209,0.0-18.0-0.0,36091,List2B,white,man,,,,,,,,
2620,"<img src=""portrait/WW2.jpg""style=""height:400px;""></img>",3,html-button-response,349,1761832,0.0-18.0-1.0,36091,List2B,white,man,,TRUE,3,,,,,
null,CORRECT,,html-keyboard-response,350,1763355,0.0-18.0-2.0-0.0,36091,List2B,white,man,,,,null,,,,
4810,"<img src=""portrait/BW1.jpg""style=""height:400px;""></img>",0,html-button-response,351,1768169,0.0-18.0-4.0,36091,List2B,white,man,,TRUE,0,,,,,
null,CORRECT,,html-keyboard-response,352,1769687,0.0-18.0-5.0-0.0,36091,List2B,white,man,,,,null,,,,
30415,"<img src=""portrait/WM1.jpg""style=""height:400px;""></img>",6,html-button-response,353,1800104,0.0-18.0-7.0,36091,List2B,white,man,,TRUE,6,,,,,
null,CORRECT,,html-keyboard-response,354,1801614,0.0-18.0-8.0-0.0,36091,List2B,white,man,,,,null,,,,
3806,"<img src=""portrait/BM2.jpg""style=""height:400px;""></img>",5,html-button-response,355,1805424,0.0-18.0-10.0,36091,List2B,white,man,,TRUE,5,,,,,
null,CORRECT,,html-keyboard-response,356,1806940,0.0-18.0-11.0-0.0,36091,List2B,white,man,,,,null,,,,
7656,"<img src=""portrait/BW2.jpg""style=""height:400px;""></img>",2,html-button-response,357,1814601,0.0-18.0-13.0,36091,List2B,white,man,,TRUE,2,,,,,
null,CORRECT,,html-keyboard-response,358,1816126,0.0-18.0-14.0-0.0,36091,List2B,white,man,,,,null,,,,
4917,"<img src=""portrait/BM1.jpg""style=""height:400px;""></img>",4,html-button-response,359,1821049,0.0-18.0-16.0,36091,List2B,white,man,,TRUE,4,,,,,
null,CORRECT,,html-keyboard-response,360,1822565,0.0-18.0-17.0-0.0,36091,List2B,white,man,,,,null,,,,
1414,"<img src=""portrait/WM2.jpg""style=""height:400px;""></img>",7,html-button-response,361,1823984,0.0-18.0-19.0,36091,List2B,white,man,,TRUE,7,,,,,
null,CORRECT,,html-keyboard-response,362,1825517,0.0-18.0-20.0-0.0,36091,List2B,white,man,,,,null,,,,
2120,"<img src=""portrait/WW1.jpg""style=""height:400px;""></img>",1,html-button-response,363,1827640,0.0-18.0-22.0,36091,List2B,white,man,,TRUE,1,,,,,
null,CORRECT,,html-keyboard-response,364,1829171,0.0-18.0-23.0-0.0,36091,List2B,white,man,,,,null,,,,
2488,<p>You got 8 out of 8 right first time. Press Continue.</p>,0,html-button-response,365,1831664,0.0-18.0-25.0,36091,List2B,white,man,,,,,,,,
null,"<div style=""font-size:60px;"">+</div>",,html-keyboard-response,366,1833192,0.0-19.0-0.0,36091,List2B,white,man,,,,null,,,,
null,"<img src=""stim_listB/dance2.gif""style=""height:400px;""></stim_listB>",,html-keyboard-response,367,1835196,0.0-19.0-1.0,36091,List2B,white,man,,,,null,,,,
null,are dancing with each other,,html-keyboard-response,368,1837194,0.0-19.0-2.0,36091,List2B,white,man,,,,null,,,,
9195,,,survey-text,369,1846391,0.0-19.0-3.0,36091,List2B,white,man,,,,,"{""Q0"":""dave and ruth are dancing with eachother""}","<img src=""stim_listB/dance2.gif""style=""height:400px;""></stim_listB>",are dancing with each other,
null,"<div style=""font-size:60px;"">+</div>",,html-keyboard-response,370,1846902,0.0-19.0-0.1,36091,List2B,white,man,,,,null,,,,
null,"<img src=""stim_listB/marry7.gif""style=""height:400px;""></stim_listB>",,html-keyboard-response,371,1848920,0.0-19.0-1.1,36091,List2B,white,man,,,,null,,,,
null,is marrying,,html-keyboard-response,372,1850907,0.0-19.0-2.1,36091,List2B,white,man,,,,null,,,,
5787,,,survey-text,373,1856696,0.0-19.0-3.1,36091,List2B,white,man,,,,,"{""Q0"":""beth is marrying jane""}","<img src=""stim_listB/marry7.gif""style=""height:400px;""></stim_listB>",is marrying,
null,"<div style=""font-size:60px;"">+</div>",,html-keyboard-response,374,1857217,0.0-19.0-0.2,36091,List2B,white,man,,,,null,,,,
null,"<img src=""stim_listB/kiss5.gif""style=""height:400px;""></stim_listB>",,html-keyboard-response,375,1859224,0.0-19.0-1.2,36091,List2B,white,man,,,,null,,,,
null,is kissing,,html-keyboard-response,376,1861233,0.0-19.0-2.2,36091,List2B,white,man,,,,null,,,,
7501,,,survey-text,377,1868735,0.0-19.0-3.2,36091,List2B,white,man,,,,,"{""Q0"":""luke is kissing fred""}","<img src=""stim_listB/kiss5.gif""style=""height:400px;""></stim_listB>",is kissing,
null,"<div style=""font-size:60px;"">+</div>",,html-keyboard-response,378,1869243,0.0-19.0-0.3,36091,List2B,white,man,,,,null,,,,
null,"<img src=""stim_listB/talk2.gif""style=""height:400px;""></stim_listB>",,html-keyboard-response,379,1871257,0.0-19.0-1.3,36091,List2B,white,man,,,,null,,,,
null,are talking to each other,,html-keyboard-response,380,1873260,0.0-19.0-2.3,36091,List2B,white,man,,,,null,,,,
10196,,,survey-text,381,1883459,0.0-19.0-3.3,36091,List2B,white,man,,,,,"{""Q0"":""beth and dave are talking to eachother""}","<img src=""stim_listB/talk2.gif""style=""height:400px;""></stim_listB>",are talking to each other,
null,"<div style=""font-size:60px;"">+</div>",,html-keyboard-response,382,1883968,0.0-19.0-0.4,36091,List2B,white,man,,,,null,,,,
null,"<img src=""stim_listB/shout2.gif""style=""height:400px;""></stim_listB>",,html-keyboard-response,383,1885979,0.0-19.0-1.4,36091,List2B,white,man,,,,null,,,,
null,are shouting at each other,,html-keyboard-response,384,1887974,0.0-19.0-2.4,36091,List2B,white,man,,,,null,,,,
10790,,,survey-text,385,1898769,0.0-19.0-3.4,36091,List2B,white,man,,,,,"{""Q0"":""jane and dave are shouting at eachother""}","<img src=""stim_listB/shout2.gif""style=""height:400px;""></stim_listB>",are shouting at each other,
null,"<div style=""font-size:60px;"">+</div>",,html-keyboard-response,386,1899284,0.0-19.0-0.5,36091,List2B,white,man,,,,null,,,,
null,"<img src=""stim_listB/fight2.gif""style=""height:400px;""></stim_listB>",,html-keyboard-response,387,1901291,0.0-19.0-1.5,36091,List2B,white,man,,,,null,,,,
null,are fighting each other,,html-keyboard-response,388,1903286,0.0-19.0-2.5,36091,List2B,white,man,,,,null,,,,
8176,,,survey-text,389,1911463,0.0-19.0-3.5,36091,List2B,white,man,,,,,"{""Q0"":""luke and beth are fighting eachother""}","<img src=""stim_listB/fight2.gif""style=""height:400px;""></stim_listB>",are fighting each other,
null,"<div style=""font-size:60px;"">+</div>",,html-keyboard-response,390,1911979,0.0-19.0-0.6,36091,List2B,white,man,,,,null,,,,
null,"<img src=""stim_listB/marry1.gif""style=""height:400px;""></stim_listB>",,html-keyboard-response,391,1913981,0.0-19.0-1.6,36091,List2B,white,man,,,,null,,,,
null,is marrying,,html-keyboard-response,392,1915979,0.0-19.0-2.6,36091,List2B,white,man,,,,null,,,,
5664,,,survey-text,393,1921648,0.0-19.0-3.6,36091,List2B,white,man,,,,,"{""Q0"":""dave is marrying ruth""}","<img src=""stim_listB/marry1.gif""style=""height:400px;""></stim_listB>",is marrying,
null,"<div style=""font-size:60px;"">+</div>",,html-keyboard-response,394,1922155,0.0-19.0-0.7,36091,List2B,white,man,,,,null,,,,
null,"<img src=""stim_listB/marry3.gif""style=""height:400px;""></stim_listB>",,html-keyboard-response,395,1924160,0.0-19.0-1.7,36091,List2B,white,man,,,,null,,,,
null,is marrying,,html-keyboard-response,396,1926164,0.0-19.0-2.7,36091,List2B,white,man,,,,null,,,,
5866,,,survey-text,397,1932033,0.0-19.0-3.7,36091,List2B,white,man,,,,,"{""Q0"":""beth is marrying mike""}","<img src=""stim_listB/marry3.gif""style=""height:400px;""></stim_listB>",is marrying,
null,"<div style=""font-size:60px;"">+</div>",,html-keyboard-response,398,1932545,0.0-19.0-0.8,36091,List2B,white,man,,,,null,,,,
null,"<img src=""stim_listB/play1.gif""style=""height:400px;""></stim_listB>",,html-keyboard-response,399,1934553,0.0-19.0-1.8,36091,List2B,white,man,,,,null,,,,
null,is playing with,,html-keyboard-response,400,1936549,0.0-19.0-2.8,36091,List2B,white,man,,,,null,,,,
6810,,,survey-text,401,1943359,0.0-19.0-3.8,36091,List2B,white,man,,,,,"{""Q0"":""jane is playing with dave""}","<img src=""stim_listB/play1.gif""style=""height:400px;""></stim_listB>",is playing with,
null,"<div style=""font-size:60px;"">+</div>",,html-keyboard-response,402,1943871,0.0-19.0-0.9,36091,List2B,white,man,,,,null,,,,
null,"<img src=""stim_listB/flirt8.gif""style=""height:400px;""></stim_listB>",,html-keyboard-response,403,1945879,0.0-19.0-1.9,36091,List2B,white,man,,,,null,,,,
null,are flirting with each other,,html-keyboard-response,404,1947877,0.0-19.0-2.9,36091,List2B,white,man,,,,null,,,,
11018,,,survey-text,405,1958897,0.0-19.0-3.9,36091,List2B,white,man,,,,,"{""Q0"":""jane abd beth are flirting with eachother""}","<img src=""stim_listB/flirt8.gif""style=""height:400px;""></stim_listB>",are flirting with each other,
null,"<div style=""font-size:60px;"">+</div>",,html-keyboard-response,406,1959406,0.0-19.0-0.10,36091,List2B,white,man,,,,null,,,,
null,"<img src=""stim_listB/shout4.gif""style=""height:400px;""></stim_listB>",,html-keyboard-response,407,1961409,0.0-19.0-1.10,36091,List2B,white,man,,,,null,,,,
null,are shouting at each other,,html-keyboard-response,408,1963406,0.0-19.0-2.10,36091,List2B,white,man,,,,null,,,,
8923,,,survey-text,409,1972334,0.0-19.0-3.10,36091,List2B,white,man,,,,,"{""Q0"":""kate and mike are shouting at eachother""}","<img src=""stim_listB/shout4.gif""style=""height:400px;""></stim_listB>",are shouting at each other,
null,"<div style=""font-size:60px;"">+</div>",,html-keyboard-response,410,1972848,0.0-19.0-0.11,36091,List2B,white,man,,,,null,,,,
null,"<img src=""stim_listB/play8.gif""style=""height:400px;""></stim_listB>",,html-keyboard-response,411,1974855,0.0-19.0-1.11,36091,List2B,white,man,,,,null,,,,
null,are playing with each other,,html-keyboard-response,412,1976850,0.0-19.0-2.11,36091,List2B,white,man,,,,null,,,,
27426,,,survey-text,413,2004280,0.0-19.0-3.11,36091,List2B,white,man,,,,,"{""Q0"":""ruth and beth are playing with eachother""}","<img src=""stim_listB/play8.gif""style=""height:400px;""></stim_listB>",are playing with each other,
null,"<div style=""font-size:60px;"">+</div>",,html-keyboard-response,414,2004795,0.0-19.0-0.12,36091,List2B,white,man,,,,null,,,,
null,"<img src=""stim_listB/touch7.gif""style=""height:400px;""></stim_listB>",,html-keyboard-response,415,2006798,0.0-19.0-1.12,36091,List2B,white,man,,,,null,,,,
null,is touching,,html-keyboard-response,416,2008796,0.0-19.0-2.12,36091,List2B,white,man,,,,null,,,,
5247,,,survey-text,417,2014047,0.0-19.0-3.12,36091,List2B,white,man,,,,,"{""Q0"":""kate is touching jane""}","<img src=""stim_listB/touch7.gif""style=""height:400px;""></stim_listB>",is touching,
null,"<div style=""font-size:60px;"">+</div>",,html-keyboard-response,418,2014563,0.0-19.0-0.13,36091,List2B,white,man,,,,null,,,,
null,"<img src=""stim_listB/argue4.gif""style=""height:400px;""></stim_listB>",,html-keyboard-response,419,2016576,0.0-19.0-1.13,36091,List2B,white,man,,,,null,,,,
null,are arguing with each other,,html-keyboard-response,420,2018571,0.0-19.0-2.13,36091,List2B,white,man,,,,null,,,,
9716,,,survey-text,421,2028287,0.0-19.0-3.13,36091,List2B,white,man,,,,,"{""Q0"":""beth and fred are arguing with eachother""}","<img src=""stim_listB/argue4.gif""style=""height:400px;""></stim_listB>",are arguing with each other,
null,"<div style=""font-size:60px;"">+</div>",,html-keyboard-response,422,2028800,0.0-19.0-0.14,36091,List2B,white,man,,,,null,,,,
null,"<img src=""stim_listB/touch4.gif""style=""height:400px;""></stim_listB>",,html-keyboard-response,423,2030805,0.0-19.0-1.14,36091,List2B,white,man,,,,null,,,,
null,are touching each other,,html-keyboard-response,424,2032811,0.0-19.0-2.14,36091,List2B,white,man,,,,null,,,,
7785,,,survey-text,425,2040599,0.0-19.0-3.14,36091,List2B,white,man,,,,,"{""Q0"":""fred and beth are touching eachother""}","<img src=""stim_listB/touch4.gif""style=""height:400px;""></stim_listB>",are touching each other,
null,"<div style=""font-size:60px;"">+</div>",,html-keyboard-response,426,2041103,0.0-19.0-0.15,36091,List2B,white,man,,,,null,,,,
null,"<img src=""stim_listB/touch8.gif""style=""height:400px;""></stim_listB>",,html-keyboard-response,427,2043113,0.0-19.0-1.15,36091,List2B,white,man,,,,null,,,,
null,are touching each other,,html-keyboard-response,428,2045110,0.0-19.0-2.15,36091,List2B,white,man,,,,null,,,,
6743,,,survey-text,429,2051857,0.0-19.0-3.15,36091,List2B,white,man,,,,,"{""Q0"":""ruth and beth are touching eachother""}","<img src=""stim_listB/touch8.gif""style=""height:400px;""></stim_listB>",are touching each other,
null,"<div style=""font-size:60px;"">+</div>",,html-keyboard-response,430,2052372,0.0-19.0-0.16,36091,List2B,white,man,,,,null,,,,
null,"<img src=""stim_listB/fight8.gif""style=""height:400px;""></stim_listB>",,html-keyboard-response,431,2054375,0.0-19.0-1.16,36091,List2B,white,man,,,,null,,,,
null,are fighting each other,,html-keyboard-response,432,2056389,0.0-19.0-2.16,36091,List2B,white,man,,,,null,,,,
7039,,,survey-text,433,2063432,0.0-19.0-3.16,36091,List2B,white,man,,,,,"{""Q0"":""ruth and beth are fighting eachother""}","<img src=""stim_listB/fight8.gif""style=""height:400px;""></stim_listB>",are fighting each other,
null,"<div style=""font-size:60px;"">+</div>",,html-keyboard-response,434,2063934,0.0-19.0-0.17,36091,List2B,white,man,,,,null,,,,
null,"<img src=""stim_listB/dance5.gif""style=""height:400px;""></stim_listB>",,html-keyboard-response,435,2065963,0.0-19.0-1.17,36091,List2B,white,man,,,,null,,,,
null,is dancing with,,html-keyboard-response,436,2067952,0.0-19.0-2.17,36091,List2B,white,man,,,,null,,,,
6895,,,survey-text,437,2074848,0.0-19.0-3.17,36091,List2B,white,man,,,,,"{""Q0"":""luke is dancing with mike""}","<img src=""stim_listB/dance5.gif""style=""height:400px;""></stim_listB>",is dancing with,
null,"<div style=""font-size:60px;"">+</div>",,html-keyboard-response,438,2075355,0.0-19.0-0.18,36091,List2B,white,man,,,,null,,,,
null,"<img src=""stim_listB/flirt1.gif""style=""height:400px;""></stim_listB>",,html-keyboard-response,439,2077364,0.0-19.0-1.18,36091,List2B,white,man,,,,null,,,,
null,is flirting with,,html-keyboard-response,440,2079357,0.0-19.0-2.18,36091,List2B,white,man,,,,null,,,,
8046,,,survey-text,441,2087409,0.0-19.0-3.18,36091,List2B,white,man,,,,,"{""Q0"":""jane is flirting with luke""}","<img src=""stim_listB/flirt1.gif""style=""height:400px;""></stim_listB>",is flirting with,
null,"<div style=""font-size:60px;"">+</div>",,html-keyboard-response,442,2087909,0.0-19.0-0.19,36091,List2B,white,man,,,,null,,,,
null,"<img src=""stim_listB/fight1.gif""style=""height:400px;""></stim_listB>",,html-keyboard-response,443,2089922,0.0-19.0-1.19,36091,List2B,white,man,,,,null,,,,
null,is fighting,,html-keyboard-response,444,2091918,0.0-19.0-2.19,36091,List2B,white,man,,,,null,,,,
5805,,,survey-text,445,2097726,0.0-19.0-3.19,36091,List2B,white,man,,,,,"{""Q0"":""jane is fighting dave""}","<img src=""stim_listB/fight1.gif""style=""height:400px;""></stim_listB>",is fighting,
3511,<p>Thank you for completing that task.</p><p>The final part of this session is a short questionnaire.</p><p>Press Continue.</p>,0,html-button-response,446,2101239,0.0-20.0,36091,List2B,white,man,,,,,,,,
31391,,,survey-text,447,2133640,0.0-21.0,36091,List2B,white,man,,,,,"{""Q0"":""25"",""Q1"":""English"",""Q2"":""English"",""Q3"":""England"",""Q4"":""White"",""Q5"":""Male""}",,,demographics
19523,,,survey-likert,448,2153169,0.0-22.0,36091,List2B,white,man,,,,,"{""Q0"":4}",,,likert_ESS
11563,,,survey-likert,449,2164739,0.0-23.0,36091,List2B,white,man,,,,,"{""Q0"":4}",,,likert_NSSAL_Q1
5337,,,survey-likert,450,2170080,0.0-24.0,36091,List2B,white,man,,,,,"{""Q0"":4}",,,likert_NSSAL_Q2
5480,,,survey-likert,451,2175563,0.0-25.0,36091,List2B,white,man,,,,,"{""Q0"":4}",,,likert_CGRS_Q1
4023,,,survey-likert,452,2179592,0.0-26.0,36091,List2B,white,man,,,,,"{""Q0"":4}",,,likert_CGRS_Q2
4189,,,survey-likert,453,2183784,0.0-27.0,36091,List2B,white,man,,,,,"{""Q0"":4}",,,likert_CGRS_Q3
12715,,,survey-text,454,2196504,0.0-28.0,36091,List2B,white,man,,,,,"{""Q0"":""ccc""}",,,worker_id
24008,,,external-html,455,2220871,0.0-29.0,36091,List2B,white,man,debrief.html,,,,,,,
