rt,stimulus,button_pressed,trial_type,trial_index,time_elapsed,internal_node_id,subject,list,ppt_race,ppt_gender,url,first_guess,correct,key_press,responses,image_type,phrase_type,test_part
2065,Welcome to the experiment. Press Continue to begin.,0,html-button-response,0,2067,0.0-0.0,36567,List2B,black,woman,,,,,,,,
81338,,,external-html,1,84575,0.0-1.0,36567,List2B,black,woman,consent.html,,,,,,,
18381,"<p>On the next page, you will see portraits of 8 people and their names.</p><p>Your first task is to take a few minutes to memorise the names of these people.</p><p>You will have to recall their names during the rest of the experiment, so it is</p><p>essential that you try to memorise these people and their names as best as you can.</p><br><p><strong>You will then be tested on your memory of these names and portraits.</strong></p><br><p>The experiment will start after you have completed this memory test.</p><br><p>Ready?</p>",0,html-button-response,2,102957,0.0-2.0,36567,List2B,black,woman,,,,,,,,
78243,"<img src='img/portrait_matrix_list2.jpg' style='width:900px;height:500px;''></img><p>If you have memorised all the portraits and names and are ready to start, press Continue.</p><p><strong>Please note: Your memory of these faces will be tested 4 times during this experiment.</strong></p>",0,html-button-response,3,182203,0.0-3.0-0.0,36567,List2B,black,woman,,,,,,,,
2703,"<img src=""portrait/BM2.jpg""style=""height:400px;""></img>",5,html-button-response,4,185909,0.0-3.0-1.0,36567,List2B,black,woman,,TRUE,5,,,,,
null,CORRECT,,html-keyboard-response,5,187413,0.0-3.0-2.0-0.0,36567,List2B,black,woman,,,,null,,,,
2387,"<img src=""portrait/BM1.jpg""style=""height:400px;""></img>",4,html-button-response,6,189801,0.0-3.0-4.0,36567,List2B,black,woman,,TRUE,4,,,,,
null,CORRECT,,html-keyboard-response,7,191312,0.0-3.0-5.0-0.0,36567,List2B,black,woman,,,,null,,,,
2778,"<img src=""portrait/WM2.jpg""style=""height:400px;""></img>",7,html-button-response,8,194091,0.0-3.0-7.0,36567,List2B,black,woman,,TRUE,7,,,,,
null,CORRECT,,html-keyboard-response,9,195594,0.0-3.0-8.0-0.0,36567,List2B,black,woman,,,,null,,,,
2652,"<img src=""portrait/BW1.jpg""style=""height:400px;""></img>",0,html-button-response,10,198248,0.0-3.0-10.0,36567,List2B,black,woman,,TRUE,0,,,,,
null,CORRECT,,html-keyboard-response,11,199750,0.0-3.0-11.0-0.0,36567,List2B,black,woman,,,,null,,,,
6979,"<img src=""portrait/WM1.jpg""style=""height:400px;""></img>",6,html-button-response,12,206730,0.0-3.0-13.0,36567,List2B,black,woman,,TRUE,6,,,,,
null,CORRECT,,html-keyboard-response,13,208233,0.0-3.0-14.0-0.0,36567,List2B,black,woman,,,,null,,,,
3030,"<img src=""portrait/WW2.jpg""style=""height:400px;""></img>",3,html-button-response,14,211265,0.0-3.0-16.0,36567,List2B,black,woman,,TRUE,3,,,,,
null,CORRECT,,html-keyboard-response,15,212767,0.0-3.0-17.0-0.0,36567,List2B,black,woman,,,,null,,,,
2876,"<img src=""portrait/BW2.jpg""style=""height:400px;""></img>",2,html-button-response,16,215645,0.0-3.0-19.0,36567,List2B,black,woman,,TRUE,2,,,,,
null,CORRECT,,html-keyboard-response,17,217147,0.0-3.0-20.0-0.0,36567,List2B,black,woman,,,,null,,,,
2174,"<img src=""portrait/WW1.jpg""style=""height:400px;""></img>",1,html-button-response,18,219322,0.0-3.0-22.0,36567,List2B,black,woman,,TRUE,1,,,,,
null,CORRECT,,html-keyboard-response,19,220825,0.0-3.0-23.0-0.0,36567,List2B,black,woman,,,,null,,,,
1623,<p>You got 8 out of 8 right first time. Press Continue.</p>,0,html-button-response,20,222449,0.0-3.0-25.0,36567,List2B,black,woman,,,,,,,,
29692,"<p>In this experiment, you will view photographs of the people from the memory game interacting.</p><p>By using the <strong>exact</strong> phrase given <i>after</i> the photograph appears and recalling the correct names of the people in the photographs, form a sentence describing the interaction. You do not need to capitalise names.</p><p>Type your answer in the space provided. Please complete every sentence before moving onto the next trial.</p><p>You will only have a few seconds to memorise each given photograph and phrase before you can respond, so try your best to focus.</p><p>An example is given below. Press 'Continue' when you are ready.</p><img src='img/speaking_example.jpg' style='width:800px;height:460px;''></img>",0,html-button-response,21,253143,0.0-4.0,36567,List2B,black,woman,,,,,,,,
2622,"<p>Before the experiment starts, you will watch two example trials. Press 'Continue'.</p>",0,html-button-response,22,256767,0.0-5.0,36567,List2B,black,woman,,,,,,,,
null,<img src='img/meet_eg.gif' style='height:400px;''></img>,,html-keyboard-response,23,259770,0.0-6.0,36567,List2B,black,woman,,,,null,,,,
null,<p>is meeting</p>,,html-keyboard-response,24,261772,0.0-7.0,36567,List2B,black,woman,,,,null,,,,
2276,<p><b>Answer:</b> jane is meeting ruth</p>,0,html-button-response,25,264049,0.0-8.0,36567,List2B,black,woman,,,,,,,,
null,<img src='img/look_eg.gif' style='height:400px;''></img>,,html-keyboard-response,26,267052,0.0-9.0,36567,List2B,black,woman,,,,null,,,,
null,<p>are looking at each other</p>,,html-keyboard-response,27,269053,0.0-10.0,36567,List2B,black,woman,,,,null,,,,
1093,<p><b>Answer:</b> fred and mike are looking at each other</p>,0,html-button-response,28,270146,0.0-11.0,36567,List2B,black,woman,,,,,,,,
2302,"<p>Ready to start the experiment?</p><br><p><strong>Remember to describe the picture using a full sentence,</strong></p><p><strong>that combines the names of the people with the <i>exact</i> phrase given.</strong></p><p><strong>To receive full payment you must do this correctly.</strong></p><p><strong> You do not need to capitalise names or use punctuation.</strong></p><br><p>Press 'Continue' to begin.</p>",0,html-button-response,29,273449,0.0-12.0,36567,List2B,black,woman,,,,,,,,
null,"<div style=""font-size:60px;"">+</div>",,html-keyboard-response,30,274951,0.0-13.0-0.0,36567,List2B,black,woman,,,,null,,,,
null,"<img src=""stim_listB/fight6.gif""style=""height:400px;""></stim_listB>",,html-keyboard-response,31,276953,0.0-13.0-1.0,36567,List2B,black,woman,,,,null,,,,
null,are fighting each other,,html-keyboard-response,32,278954,0.0-13.0-2.0,36567,List2B,black,woman,,,,null,,,,
9583,,,survey-text,33,288539,0.0-13.0-3.0,36567,List2B,black,woman,,,,,"{""Q0"":""luke and fred are fighting each other""}","<img src=""stim_listB/fight6.gif""style=""height:400px;""></stim_listB>",are fighting each other,
null,"<div style=""font-size:60px;"">+</div>",,html-keyboard-response,34,289041,0.0-13.0-0.1,36567,List2B,black,woman,,,,null,,,,
null,"<img src=""stim_listB/fight5.gif""style=""height:400px;""></stim_listB>",,html-keyboard-response,35,291042,0.0-13.0-1.1,36567,List2B,black,woman,,,,null,,,,
null,is fighting,,html-keyboard-response,36,293043,0.0-13.0-2.1,36567,List2B,black,woman,,,,null,,,,
6282,,,survey-text,37,299326,0.0-13.0-3.1,36567,List2B,black,woman,,,,,"{""Q0"":""dave is fighting mike""}","<img src=""stim_listB/fight5.gif""style=""height:400px;""></stim_listB>",is fighting,
null,"<div style=""font-size:60px;"">+</div>",,html-keyboard-response,38,299827,0.0-13.0-0.2,36567,List2B,black,woman,,,,null,,,,
null,"<img src=""stim_listB/shout4.gif""style=""height:400px;""></stim_listB>",,html-keyboard-response,39,301829,0.0-13.0-1.2,36567,List2B,black,woman,,,,null,,,,
null,are shouting at each other,,html-keyboard-response,40,303831,0.0-13.0-2.2,36567,List2B,black,woman,,,,null,,,,
16209,,,survey-text,41,320040,0.0-13.0-3.2,36567,List2B,black,woman,,,,,"{""Q0"":""jane and mike are shouting at each other""}","<img src=""stim_listB/shout4.gif""style=""height:400px;""></stim_listB>",are shouting at each other,
null,"<div style=""font-size:60px;"">+</div>",,html-keyboard-response,42,320542,0.0-13.0-0.3,36567,List2B,black,woman,,,,null,,,,
null,"<img src=""stim_listB/play6.gif""style=""height:400px;""></stim_listB>",,html-keyboard-response,43,322544,0.0-13.0-1.3,36567,List2B,black,woman,,,,null,,,,
null,are playing with each other,,html-keyboard-response,44,324545,0.0-13.0-2.3,36567,List2B,black,woman,,,,null,,,,
10887,,,survey-text,45,335434,0.0-13.0-3.3,36567,List2B,black,woman,,,,,"{""Q0"":""fred and luke are playing with each other""}","<img src=""stim_listB/play6.gif""style=""height:400px;""></stim_listB>",are playing with each other,
null,"<div style=""font-size:60px;"">+</div>",,html-keyboard-response,46,335936,0.0-13.0-0.4,36567,List2B,black,woman,,,,null,,,,
null,"<img src=""stim_listB/argue3.gif""style=""height:400px;""></stim_listB>",,html-keyboard-response,47,337937,0.0-13.0-1.4,36567,List2B,black,woman,,,,null,,,,
null,is arguing with,,html-keyboard-response,48,339938,0.0-13.0-2.4,36567,List2B,black,woman,,,,null,,,,
6889,,,survey-text,49,346828,0.0-13.0-3.4,36567,List2B,black,woman,,,,,"{""Q0"":""beth is arguing with mike""}","<img src=""stim_listB/argue3.gif""style=""height:400px;""></stim_listB>",is arguing with,
null,"<div style=""font-size:60px;"">+</div>",,html-keyboard-response,50,347330,0.0-13.0-0.5,36567,List2B,black,woman,,,,null,,,,
null,"<img src=""stim_listB/touch8.gif""style=""height:400px;""></stim_listB>",,html-keyboard-response,51,349332,0.0-13.0-1.5,36567,List2B,black,woman,,,,null,,,,
null,are touching each other,,html-keyboard-response,52,351334,0.0-13.0-2.5,36567,List2B,black,woman,,,,null,,,,
9795,,,survey-text,53,361129,0.0-13.0-3.5,36567,List2B,black,woman,,,,,"{""Q0"":""beth and ruth are touching each other""}","<img src=""stim_listB/touch8.gif""style=""height:400px;""></stim_listB>",are touching each other,
null,"<div style=""font-size:60px;"">+</div>",,html-keyboard-response,54,361631,0.0-13.0-0.6,36567,List2B,black,woman,,,,null,,,,
null,"<img src=""stim_listB/flirt6.gif""style=""height:400px;""></stim_listB>",,html-keyboard-response,55,363632,0.0-13.0-1.6,36567,List2B,black,woman,,,,null,,,,
null,are flirting with each other,,html-keyboard-response,56,365634,0.0-13.0-2.6,36567,List2B,black,woman,,,,null,,,,
16511,,,survey-text,57,382145,0.0-13.0-3.6,36567,List2B,black,woman,,,,,"{""Q0"":""fred and dave are flirting with each other""}","<img src=""stim_listB/flirt6.gif""style=""height:400px;""></stim_listB>",are flirting with each other,
null,"<div style=""font-size:60px;"">+</div>",,html-keyboard-response,58,382646,0.0-13.0-0.7,36567,List2B,black,woman,,,,null,,,,
null,"<img src=""stim_listB/shout1.gif""style=""height:400px;""></stim_listB>",,html-keyboard-response,59,384648,0.0-13.0-1.7,36567,List2B,black,woman,,,,null,,,,
null,is shouting at,,html-keyboard-response,60,386649,0.0-13.0-2.7,36567,List2B,black,woman,,,,null,,,,
6702,,,survey-text,61,393352,0.0-13.0-3.7,36567,List2B,black,woman,,,,,"{""Q0"":""ruth is shouting at luke""}","<img src=""stim_listB/shout1.gif""style=""height:400px;""></stim_listB>",is shouting at,
null,"<div style=""font-size:60px;"">+</div>",,html-keyboard-response,62,393853,0.0-13.0-0.8,36567,List2B,black,woman,,,,null,,,,
null,"<img src=""stim_listB/talk7.gif""style=""height:400px;""></stim_listB>",,html-keyboard-response,63,395854,0.0-13.0-1.8,36567,List2B,black,woman,,,,null,,,,
null,is talking to,,html-keyboard-response,64,397856,0.0-13.0-2.8,36567,List2B,black,woman,,,,null,,,,
9356,,,survey-text,65,407212,0.0-13.0-3.8,36567,List2B,black,woman,,,,,"{""Q0"":""kate is talking to ruth""}","<img src=""stim_listB/talk7.gif""style=""height:400px;""></stim_listB>",is talking to,
null,"<div style=""font-size:60px;"">+</div>",,html-keyboard-response,66,407714,0.0-13.0-0.9,36567,List2B,black,woman,,,,null,,,,
null,"<img src=""stim_listB/argue8.gif""style=""height:400px;""></stim_listB>",,html-keyboard-response,67,409716,0.0-13.0-1.9,36567,List2B,black,woman,,,,null,,,,
null,are arguing with each other,,html-keyboard-response,68,411717,0.0-13.0-2.9,36567,List2B,black,woman,,,,null,,,,
10692,,,survey-text,69,422411,0.0-13.0-3.9,36567,List2B,black,woman,,,,,"{""Q0"":""ruth and kate are arguing with each other""}","<img src=""stim_listB/argue8.gif""style=""height:400px;""></stim_listB>",are arguing with each other,
null,"<div style=""font-size:60px;"">+</div>",,html-keyboard-response,70,422912,0.0-13.0-0.10,36567,List2B,black,woman,,,,null,,,,
null,"<img src=""stim_listB/dance5.gif""style=""height:400px;""></stim_listB>",,html-keyboard-response,71,424913,0.0-13.0-1.10,36567,List2B,black,woman,,,,null,,,,
null,is dancing with,,html-keyboard-response,72,426914,0.0-13.0-2.10,36567,List2B,black,woman,,,,null,,,,
7126,,,survey-text,73,434041,0.0-13.0-3.10,36567,List2B,black,woman,,,,,"{""Q0"":""luke is dancing with mike""}","<img src=""stim_listB/dance5.gif""style=""height:400px;""></stim_listB>",is dancing with,
null,"<div style=""font-size:60px;"">+</div>",,html-keyboard-response,74,434542,0.0-13.0-0.11,36567,List2B,black,woman,,,,null,,,,
null,"<img src=""stim_listB/touch1.gif""style=""height:400px;""></stim_listB>",,html-keyboard-response,75,436544,0.0-13.0-1.11,36567,List2B,black,woman,,,,null,,,,
null,is touching,,html-keyboard-response,76,438544,0.0-13.0-2.11,36567,List2B,black,woman,,,,null,,,,
4898,,,survey-text,77,443442,0.0-13.0-3.11,36567,List2B,black,woman,,,,,"{""Q0"":""jane is touching dave""}","<img src=""stim_listB/touch1.gif""style=""height:400px;""></stim_listB>",is touching,
null,"<div style=""font-size:60px;"">+</div>",,html-keyboard-response,78,443944,0.0-13.0-0.12,36567,List2B,black,woman,,,,null,,,,
null,"<img src=""stim_listB/touch5.gif""style=""height:400px;""></stim_listB>",,html-keyboard-response,79,445945,0.0-13.0-1.12,36567,List2B,black,woman,,,,null,,,,
null,is touching,,html-keyboard-response,80,447946,0.0-13.0-2.12,36567,List2B,black,woman,,,,null,,,,
6610,,,survey-text,81,454558,0.0-13.0-3.12,36567,List2B,black,woman,,,,,"{""Q0"":""mike is touching dave""}","<img src=""stim_listB/touch5.gif""style=""height:400px;""></stim_listB>",is touching,
null,"<div style=""font-size:60px;"">+</div>",,html-keyboard-response,82,455059,0.0-13.0-0.13,36567,List2B,black,woman,,,,null,,,,
null,"<img src=""stim_listB/dance1.gif""style=""height:400px;""></stim_listB>",,html-keyboard-response,83,457061,0.0-13.0-1.13,36567,List2B,black,woman,,,,null,,,,
null,is dancing with,,html-keyboard-response,84,459062,0.0-13.0-2.13,36567,List2B,black,woman,,,,null,,,,
6537,,,survey-text,85,465601,0.0-13.0-3.13,36567,List2B,black,woman,,,,,"{""Q0"":""jane is dancing with luke""}","<img src=""stim_listB/dance1.gif""style=""height:400px;""></stim_listB>",is dancing with,
null,"<div style=""font-size:60px;"">+</div>",,html-keyboard-response,86,466103,0.0-13.0-0.14,36567,List2B,black,woman,,,,null,,,,
null,"<img src=""stim_listB/play5.gif""style=""height:400px;""></stim_listB>",,html-keyboard-response,87,468105,0.0-13.0-1.14,36567,List2B,black,woman,,,,null,,,,
null,is playing with,,html-keyboard-response,88,470107,0.0-13.0-2.14,36567,List2B,black,woman,,,,null,,,,
7387,,,survey-text,89,477494,0.0-13.0-3.14,36567,List2B,black,woman,,,,,"{""Q0"":""mike is playing with dave""}","<img src=""stim_listB/play5.gif""style=""height:400px;""></stim_listB>",is playing with,
null,"<div style=""font-size:60px;"">+</div>",,html-keyboard-response,90,477995,0.0-13.0-0.15,36567,List2B,black,woman,,,,null,,,,
null,"<img src=""stim_listB/flirt1.gif""style=""height:400px;""></stim_listB>",,html-keyboard-response,91,479997,0.0-13.0-1.15,36567,List2B,black,woman,,,,null,,,,
null,is flirting with,,html-keyboard-response,92,481999,0.0-13.0-2.15,36567,List2B,black,woman,,,,null,,,,
6171,,,survey-text,93,488170,0.0-13.0-3.15,36567,List2B,black,woman,,,,,"{""Q0"":""luke is flirting with jane""}","<img src=""stim_listB/flirt1.gif""style=""height:400px;""></stim_listB>",is flirting with,
null,"<div style=""font-size:60px;"">+</div>",,html-keyboard-response,94,488671,0.0-13.0-0.16,36567,List2B,black,woman,,,,null,,,,
null,"<img src=""stim_listB/dance3.gif""style=""height:400px;""></stim_listB>",,html-keyboard-response,95,490673,0.0-13.0-1.16,36567,List2B,black,woman,,,,null,,,,
null,is dancing with,,html-keyboard-response,96,492675,0.0-13.0-2.16,36567,List2B,black,woman,,,,null,,,,
8039,,,survey-text,97,500715,0.0-13.0-3.16,36567,List2B,black,woman,,,,,"{""Q0"":""fred is dancing with beth""}","<img src=""stim_listB/dance3.gif""style=""height:400px;""></stim_listB>",is dancing with,
null,"<div style=""font-size:60px;"">+</div>",,html-keyboard-response,98,501217,0.0-13.0-0.17,36567,List2B,black,woman,,,,null,,,,
null,"<img src=""stim_listB/touch3.gif""style=""height:400px;""></stim_listB>",,html-keyboard-response,99,503218,0.0-13.0-1.17,36567,List2B,black,woman,,,,null,,,,
null,is touching,,html-keyboard-response,100,505220,0.0-13.0-2.17,36567,List2B,black,woman,,,,null,,,,
4649,,,survey-text,101,509870,0.0-13.0-3.17,36567,List2B,black,woman,,,,,"{""Q0"":""mike is touching beth""}","<img src=""stim_listB/touch3.gif""style=""height:400px;""></stim_listB>",is touching,
null,"<div style=""font-size:60px;"">+</div>",,html-keyboard-response,102,510373,0.0-13.0-0.18,36567,List2B,black,woman,,,,null,,,,
null,"<img src=""stim_listB/dance6.gif""style=""height:400px;""></stim_listB>",,html-keyboard-response,103,512375,0.0-13.0-1.18,36567,List2B,black,woman,,,,null,,,,
null,are dancing with each other,,html-keyboard-response,104,514376,0.0-13.0-2.18,36567,List2B,black,woman,,,,null,,,,
7758,,,survey-text,105,522135,0.0-13.0-3.18,36567,List2B,black,woman,,,,,"{""Q0"":""fred and dave are dancing with each other""}","<img src=""stim_listB/dance6.gif""style=""height:400px;""></stim_listB>",are dancing with each other,
null,"<div style=""font-size:60px;"">+</div>",,html-keyboard-response,106,522637,0.0-13.0-0.19,36567,List2B,black,woman,,,,null,,,,
null,"<img src=""stim_listB/shout3.gif""style=""height:400px;""></stim_listB>",,html-keyboard-response,107,524639,0.0-13.0-1.19,36567,List2B,black,woman,,,,null,,,,
null,is shouting at,,html-keyboard-response,108,526640,0.0-13.0-2.19,36567,List2B,black,woman,,,,null,,,,
7080,,,survey-text,109,533720,0.0-13.0-3.19,36567,List2B,black,woman,,,,,"{""Q0"":""fred is shouting at beth""}","<img src=""stim_listB/shout3.gif""style=""height:400px;""></stim_listB>",is shouting at,
9392,"<img src='img/portrait_matrix_list2.jpg' style='width:900px;height:500px;''></img><p>If you have memorised all the portraits and names and are ready to start, press Continue.</p><p><strong>Please note: Your memory of these faces will be tested 4 times during this experiment.</strong></p>",0,html-button-response,110,543113,0.0-14.0-0.0,36567,List2B,black,woman,,,,,,,,
6529,"<img src=""portrait/BW2.jpg""style=""height:400px;""></img>",2,html-button-response,111,550644,0.0-14.0-1.0,36567,List2B,black,woman,,TRUE,2,,,,,
null,CORRECT,,html-keyboard-response,112,552146,0.0-14.0-2.0-0.0,36567,List2B,black,woman,,,,null,,,,
1942,"<img src=""portrait/WW1.jpg""style=""height:400px;""></img>",1,html-button-response,113,554088,0.0-14.0-4.0,36567,List2B,black,woman,,TRUE,1,,,,,
null,CORRECT,,html-keyboard-response,114,555591,0.0-14.0-5.0-0.0,36567,List2B,black,woman,,,,null,,,,
2152,"<img src=""portrait/WM1.jpg""style=""height:400px;""></img>",6,html-button-response,115,557744,0.0-14.0-7.0,36567,List2B,black,woman,,TRUE,6,,,,,
null,CORRECT,,html-keyboard-response,116,559247,0.0-14.0-8.0-0.0,36567,List2B,black,woman,,,,null,,,,
1848,"<img src=""portrait/WW2.jpg""style=""height:400px;""></img>",3,html-button-response,117,561096,0.0-14.0-10.0,36567,List2B,black,woman,,TRUE,3,,,,,
null,CORRECT,,html-keyboard-response,118,562598,0.0-14.0-11.0-0.0,36567,List2B,black,woman,,,,null,,,,
2623,"<img src=""portrait/BM2.jpg""style=""height:400px;""></img>",5,html-button-response,119,565222,0.0-14.0-13.0,36567,List2B,black,woman,,TRUE,5,,,,,
null,CORRECT,,html-keyboard-response,120,566727,0.0-14.0-14.0-0.0,36567,List2B,black,woman,,,,null,,,,
3317,"<img src=""portrait/BM1.jpg""style=""height:400px;""></img>",4,html-button-response,121,570046,0.0-14.0-16.0,36567,List2B,black,woman,,TRUE,4,,,,,
null,CORRECT,,html-keyboard-response,122,571552,0.0-14.0-17.0-0.0,36567,List2B,black,woman,,,,null,,,,
6364,"<img src=""portrait/WM2.jpg""style=""height:400px;""></img>",7,html-button-response,123,577918,0.0-14.0-19.0,36567,List2B,black,woman,,TRUE,7,,,,,
null,CORRECT,,html-keyboard-response,124,579423,0.0-14.0-20.0-0.0,36567,List2B,black,woman,,,,null,,,,
4169,"<img src=""portrait/BW1.jpg""style=""height:400px;""></img>",0,html-button-response,125,583592,0.0-14.0-22.0,36567,List2B,black,woman,,TRUE,0,,,,,
null,CORRECT,,html-keyboard-response,126,585099,0.0-14.0-23.0-0.0,36567,List2B,black,woman,,,,null,,,,
1531,<p>You got 8 out of 8 right first time. Press Continue.</p>,0,html-button-response,127,586631,0.0-14.0-25.0,36567,List2B,black,woman,,,,,,,,
null,"<div style=""font-size:60px;"">+</div>",,html-keyboard-response,128,588139,0.0-15.0-0.0,36567,List2B,black,woman,,,,null,,,,
null,"<img src=""stim_listB/argue6.gif""style=""height:400px;""></stim_listB>",,html-keyboard-response,129,590141,0.0-15.0-1.0,36567,List2B,black,woman,,,,null,,,,
null,are arguing with each other,,html-keyboard-response,130,592144,0.0-15.0-2.0,36567,List2B,black,woman,,,,null,,,,
501508,,,survey-text,131,1093653,0.0-15.0-3.0,36567,List2B,black,woman,,,,,"{""Q0"":""luke is fighting with mike""}","<img src=""stim_listB/argue6.gif""style=""height:400px;""></stim_listB>",are arguing with each other,
null,"<div style=""font-size:60px;"">+</div>",,html-keyboard-response,132,1094155,0.0-15.0-0.1,36567,List2B,black,woman,,,,null,,,,
null,"<img src=""stim_listB/fight1.gif""style=""height:400px;""></stim_listB>",,html-keyboard-response,133,1096157,0.0-15.0-1.1,36567,List2B,black,woman,,,,null,,,,
null,is fighting,,html-keyboard-response,134,1098160,0.0-15.0-2.1,36567,List2B,black,woman,,,,null,,,,
9786,,,survey-text,135,1107947,0.0-15.0-3.1,36567,List2B,black,woman,,,,,"{""Q0"":""dave is fighting jane""}","<img src=""stim_listB/fight1.gif""style=""height:400px;""></stim_listB>",is fighting,
null,"<div style=""font-size:60px;"">+</div>",,html-keyboard-response,136,1108450,0.0-15.0-0.2,36567,List2B,black,woman,,,,null,,,,
null,"<img src=""stim_listB/marry4.gif""style=""height:400px;""></stim_listB>",,html-keyboard-response,137,1110454,0.0-15.0-1.2,36567,List2B,black,woman,,,,null,,,,
null,are marrying each other,,html-keyboard-response,138,1112456,0.0-15.0-2.2,36567,List2B,black,woman,,,,null,,,,
126536,,,survey-text,139,1238994,0.0-15.0-3.2,36567,List2B,black,woman,,,,,"{""Q0"":""""}","<img src=""stim_listB/marry4.gif""style=""height:400px;""></stim_listB>",are marrying each other,
null,"<div style=""font-size:60px;"">+</div>",,html-keyboard-response,140,1239496,0.0-15.0-0.3,36567,List2B,black,woman,,,,null,,,,
null,"<img src=""stim_listB/fight3.gif""style=""height:400px;""></stim_listB>",,html-keyboard-response,141,1241497,0.0-15.0-1.3,36567,List2B,black,woman,,,,null,,,,
null,is fighting,,html-keyboard-response,142,1243498,0.0-15.0-2.3,36567,List2B,black,woman,,,,null,,,,
11887,,,survey-text,143,1255386,0.0-15.0-3.3,36567,List2B,black,woman,,,,,"{""Q0"":""kate is fighting mike""}","<img src=""stim_listB/fight3.gif""style=""height:400px;""></stim_listB>",is fighting,
null,"<div style=""font-size:60px;"">+</div>",,html-keyboard-response,144,1255891,0.0-15.0-0.4,36567,List2B,black,woman,,,,null,,,,
null,"<img src=""stim_listB/play2.gif""style=""height:400px;""></stim_listB>",,html-keyboard-response,145,1257894,0.0-15.0-1.4,36567,List2B,black,woman,,,,null,,,,
null,are playing with each other,,html-keyboard-response,146,1259895,0.0-15.0-2.4,36567,List2B,black,woman,,,,null,,,,
10535,,,survey-text,147,1270431,0.0-15.0-3.4,36567,List2B,black,woman,,,,,"{""Q0"":""luke and ruth are playing with each other""}","<img src=""stim_listB/play2.gif""style=""height:400px;""></stim_listB>",are playing with each other,
null,"<div style=""font-size:60px;"">+</div>",,html-keyboard-response,148,1270933,0.0-15.0-0.5,36567,List2B,black,woman,,,,null,,,,
null,"<img src=""stim_listB/kiss7.gif""style=""height:400px;""></stim_listB>",,html-keyboard-response,149,1272938,0.0-15.0-1.5,36567,List2B,black,woman,,,,null,,,,
null,is kissing,,html-keyboard-response,150,1274942,0.0-15.0-2.5,36567,List2B,black,woman,,,,null,,,,
7135,,,survey-text,151,1282079,0.0-15.0-3.5,36567,List2B,black,woman,,,,,"{""Q0"":""beth is kissing ruth""}","<img src=""stim_listB/kiss7.gif""style=""height:400px;""></stim_listB>",is kissing,
null,"<div style=""font-size:60px;"">+</div>",,html-keyboard-response,152,1282581,0.0-15.0-0.6,36567,List2B,black,woman,,,,null,,,,
null,"<img src=""stim_listB/marry1.gif""style=""height:400px;""></stim_listB>",,html-keyboard-response,153,1284584,0.0-15.0-1.6,36567,List2B,black,woman,,,,null,,,,
null,is marrying,,html-keyboard-response,154,1286588,0.0-15.0-2.6,36567,List2B,black,woman,,,,null,,,,
7610,,,survey-text,155,1294198,0.0-15.0-3.6,36567,List2B,black,woman,,,,,"{""Q0"":""ruth is marrying dave""}","<img src=""stim_listB/marry1.gif""style=""height:400px;""></stim_listB>",is marrying,
null,"<div style=""font-size:60px;"">+</div>",,html-keyboard-response,156,1294703,0.0-15.0-0.7,36567,List2B,black,woman,,,,null,,,,
null,"<img src=""stim_listB/marry8.gif""style=""height:400px;""></stim_listB>",,html-keyboard-response,157,1296708,0.0-15.0-1.7,36567,List2B,black,woman,,,,null,,,,
null,are marrying each other,,html-keyboard-response,158,1298711,0.0-15.0-2.7,36567,List2B,black,woman,,,,null,,,,
10112,,,survey-text,159,1308823,0.0-15.0-3.7,36567,List2B,black,woman,,,,,"{""Q0"":""ruth and kate are marrying each other""}","<img src=""stim_listB/marry8.gif""style=""height:400px;""></stim_listB>",are marrying each other,
null,"<div style=""font-size:60px;"">+</div>",,html-keyboard-response,160,1309325,0.0-15.0-0.8,36567,List2B,black,woman,,,,null,,,,
null,"<img src=""stim_listB/dance7.gif""style=""height:400px;""></stim_listB>",,html-keyboard-response,161,1311327,0.0-15.0-1.8,36567,List2B,black,woman,,,,null,,,,
null,is dancing with,,html-keyboard-response,162,1313329,0.0-15.0-2.8,36567,List2B,black,woman,,,,null,,,,
5413,,,survey-text,163,1318743,0.0-15.0-3.8,36567,List2B,black,woman,,,,,"{""Q0"":""kate is dancing with ruth""}","<img src=""stim_listB/dance7.gif""style=""height:400px;""></stim_listB>",is dancing with,
null,"<div style=""font-size:60px;"">+</div>",,html-keyboard-response,164,1319245,0.0-15.0-0.9,36567,List2B,black,woman,,,,null,,,,
null,"<img src=""stim_listB/flirt4.gif""style=""height:400px;""></stim_listB>",,html-keyboard-response,165,1321248,0.0-15.0-1.9,36567,List2B,black,woman,,,,null,,,,
null,are flirting with each other,,html-keyboard-response,166,1323252,0.0-15.0-2.9,36567,List2B,black,woman,,,,null,,,,
11376,,,survey-text,167,1334629,0.0-15.0-3.9,36567,List2B,black,woman,,,,,"{""Q0"":""beth and mike are flirting with each other""}","<img src=""stim_listB/flirt4.gif""style=""height:400px;""></stim_listB>",are flirting with each other,
null,"<div style=""font-size:60px;"">+</div>",,html-keyboard-response,168,1335133,0.0-15.0-0.10,36567,List2B,black,woman,,,,null,,,,
null,"<img src=""stim_listB/kiss1.gif""style=""height:400px;""></stim_listB>",,html-keyboard-response,169,1337135,0.0-15.0-1.10,36567,List2B,black,woman,,,,null,,,,
null,is kissing,,html-keyboard-response,170,1339137,0.0-15.0-2.10,36567,List2B,black,woman,,,,null,,,,
5702,,,survey-text,171,1344840,0.0-15.0-3.10,36567,List2B,black,woman,,,,,"{""Q0"":""luke is kissing ruth""}","<img src=""stim_listB/kiss1.gif""style=""height:400px;""></stim_listB>",is kissing,
null,"<div style=""font-size:60px;"">+</div>",,html-keyboard-response,172,1345343,0.0-15.0-0.11,36567,List2B,black,woman,,,,null,,,,
null,"<img src=""stim_listB/marry6.gif""style=""height:400px;""></stim_listB>",,html-keyboard-response,173,1347348,0.0-15.0-1.11,36567,List2B,black,woman,,,,null,,,,
null,are marrying each other,,html-keyboard-response,174,1349351,0.0-15.0-2.11,36567,List2B,black,woman,,,,null,,,,
10186,,,survey-text,175,1359538,0.0-15.0-3.11,36567,List2B,black,woman,,,,,"{""Q0"":""luke and mike are marrying each other""}","<img src=""stim_listB/marry6.gif""style=""height:400px;""></stim_listB>",are marrying each other,
null,"<div style=""font-size:60px;"">+</div>",,html-keyboard-response,176,1360041,0.0-15.0-0.12,36567,List2B,black,woman,,,,null,,,,
null,"<img src=""stim_listB/touch2.gif""style=""height:400px;""></stim_listB>",,html-keyboard-response,177,1362042,0.0-15.0-1.12,36567,List2B,black,woman,,,,null,,,,
null,are touching each other,,html-keyboard-response,178,1364045,0.0-15.0-2.12,36567,List2B,black,woman,,,,null,,,,
9650,,,survey-text,179,1373696,0.0-15.0-3.12,36567,List2B,black,woman,,,,,"{""Q0"":""luke and ruth are touching each other""}","<img src=""stim_listB/touch2.gif""style=""height:400px;""></stim_listB>",are touching each other,
null,"<div style=""font-size:60px;"">+</div>",,html-keyboard-response,180,1374200,0.0-15.0-0.13,36567,List2B,black,woman,,,,null,,,,
null,"<img src=""stim_listB/talk2.gif""style=""height:400px;""></stim_listB>",,html-keyboard-response,181,1376203,0.0-15.0-1.13,36567,List2B,black,woman,,,,null,,,,
null,are talking to each other,,html-keyboard-response,182,1378205,0.0-15.0-2.13,36567,List2B,black,woman,,,,null,,,,
11721,,,survey-text,183,1389926,0.0-15.0-3.13,36567,List2B,black,woman,,,,,"{""Q0"":""dave and ruth are talking to each other""}","<img src=""stim_listB/talk2.gif""style=""height:400px;""></stim_listB>",are talking to each other,
null,"<div style=""font-size:60px;"">+</div>",,html-keyboard-response,184,1390431,0.0-15.0-0.14,36567,List2B,black,woman,,,,null,,,,
null,"<img src=""stim_listB/shout5.gif""style=""height:400px;""></stim_listB>",,html-keyboard-response,185,1392434,0.0-15.0-1.14,36567,List2B,black,woman,,,,null,,,,
null,is shouting at,,html-keyboard-response,186,1394439,0.0-15.0-2.14,36567,List2B,black,woman,,,,null,,,,
7172,,,survey-text,187,1401611,0.0-15.0-3.14,36567,List2B,black,woman,,,,,"{""Q0"":""fred is shouting at dave""}","<img src=""stim_listB/shout5.gif""style=""height:400px;""></stim_listB>",is shouting at,
null,"<div style=""font-size:60px;"">+</div>",,html-keyboard-response,188,1402115,0.0-15.0-0.15,36567,List2B,black,woman,,,,null,,,,
null,"<img src=""stim_listB/argue7.gif""style=""height:400px;""></stim_listB>",,html-keyboard-response,189,1404117,0.0-15.0-1.15,36567,List2B,black,woman,,,,null,,,,
null,is arguing with,,html-keyboard-response,190,1406122,0.0-15.0-2.15,36567,List2B,black,woman,,,,null,,,,
13505,,,survey-text,191,1419628,0.0-15.0-3.15,36567,List2B,black,woman,,,,,"{""Q0"":""beth is arguing with jane""}","<img src=""stim_listB/argue7.gif""style=""height:400px;""></stim_listB>",is arguing with,
null,"<div style=""font-size:60px;"">+</div>",,html-keyboard-response,192,1420132,0.0-15.0-0.16,36567,List2B,black,woman,,,,null,,,,
null,"<img src=""stim_listB/marry7.gif""style=""height:400px;""></stim_listB>",,html-keyboard-response,193,1422136,0.0-15.0-1.16,36567,List2B,black,woman,,,,null,,,,
null,is marrying,,html-keyboard-response,194,1424139,0.0-15.0-2.16,36567,List2B,black,woman,,,,null,,,,
6225,,,survey-text,195,1430364,0.0-15.0-3.16,36567,List2B,black,woman,,,,,"{""Q0"":""beth is marrying jane""}","<img src=""stim_listB/marry7.gif""style=""height:400px;""></stim_listB>",is marrying,
null,"<div style=""font-size:60px;"">+</div>",,html-keyboard-response,196,1430867,0.0-15.0-0.17,36567,List2B,black,woman,,,,null,,,,
null,"<img src=""stim_listB/touch6.gif""style=""height:400px;""></stim_listB>",,html-keyboard-response,197,1432870,0.0-15.0-1.17,36567,List2B,black,woman,,,,null,,,,
null,are touching each other,,html-keyboard-response,198,1434872,0.0-15.0-2.17,36567,List2B,black,woman,,,,null,,,,
9767,,,survey-text,199,1444639,0.0-15.0-3.17,36567,List2B,black,woman,,,,,"{""Q0"":""fred and luke are touching each other""}","<img src=""stim_listB/touch6.gif""style=""height:400px;""></stim_listB>",are touching each other,
null,"<div style=""font-size:60px;"">+</div>",,html-keyboard-response,200,1445141,0.0-15.0-0.18,36567,List2B,black,woman,,,,null,,,,
null,"<img src=""stim_listB/kiss5.gif""style=""height:400px;""></stim_listB>",,html-keyboard-response,201,1447143,0.0-15.0-1.18,36567,List2B,black,woman,,,,null,,,,
null,is kissing,,html-keyboard-response,202,1449144,0.0-15.0-2.18,36567,List2B,black,woman,,,,null,,,,
5611,,,survey-text,203,1454756,0.0-15.0-3.18,36567,List2B,black,woman,,,,,"{""Q0"":""luke is kissing fred""}","<img src=""stim_listB/kiss5.gif""style=""height:400px;""></stim_listB>",is kissing,
null,"<div style=""font-size:60px;"">+</div>",,html-keyboard-response,204,1455260,0.0-15.0-0.19,36567,List2B,black,woman,,,,null,,,,
null,"<img src=""stim_listB/talk6.gif""style=""height:400px;""></stim_listB>",,html-keyboard-response,205,1457261,0.0-15.0-1.19,36567,List2B,black,woman,,,,null,,,,
null,are talking to each other,,html-keyboard-response,206,1459263,0.0-15.0-2.19,36567,List2B,black,woman,,,,null,,,,
7513,,,survey-text,207,1466776,0.0-15.0-3.19,36567,List2B,black,woman,,,,,"{""Q0"":""dave and fred are talking to each other""}","<img src=""stim_listB/talk6.gif""style=""height:400px;""></stim_listB>",are talking to each other,
8688,"<img src='img/portrait_matrix_list2.jpg' style='width:900px;height:500px;''></img><p>If you have memorised all the portraits and names and are ready to start, press Continue.</p><p><strong>Please note: Your memory of these faces will be tested 4 times during this experiment.</strong></p>",0,html-button-response,208,1475465,0.0-16.0-0.0,36567,List2B,black,woman,,,,,,,,
6906,"<img src=""portrait/WM1.jpg""style=""height:400px;""></img>",6,html-button-response,209,1483373,0.0-16.0-1.0,36567,List2B,black,woman,,TRUE,6,,,,,
null,CORRECT,,html-keyboard-response,210,1484879,0.0-16.0-2.0-0.0,36567,List2B,black,woman,,,,null,,,,
2423,"<img src=""portrait/WW2.jpg""style=""height:400px;""></img>",3,html-button-response,211,1487304,0.0-16.0-4.0,36567,List2B,black,woman,,TRUE,3,,,,,
null,CORRECT,,html-keyboard-response,212,1488809,0.0-16.0-5.0-0.0,36567,List2B,black,woman,,,,null,,,,
2218,"<img src=""portrait/BM2.jpg""style=""height:400px;""></img>",5,html-button-response,213,1491028,0.0-16.0-7.0,36567,List2B,black,woman,,TRUE,5,,,,,
null,CORRECT,,html-keyboard-response,214,1492531,0.0-16.0-8.0-0.0,36567,List2B,black,woman,,,,null,,,,
2429,"<img src=""portrait/WW1.jpg""style=""height:400px;""></img>",1,html-button-response,215,1494960,0.0-16.0-10.0,36567,List2B,black,woman,,TRUE,1,,,,,
null,CORRECT,,html-keyboard-response,216,1496465,0.0-16.0-11.0-0.0,36567,List2B,black,woman,,,,null,,,,
1756,"<img src=""portrait/BM1.jpg""style=""height:400px;""></img>",4,html-button-response,217,1498221,0.0-16.0-13.0,36567,List2B,black,woman,,TRUE,4,,,,,
null,CORRECT,,html-keyboard-response,218,1499727,0.0-16.0-14.0-0.0,36567,List2B,black,woman,,,,null,,,,
1772,"<img src=""portrait/BW2.jpg""style=""height:400px;""></img>",2,html-button-response,219,1501500,0.0-16.0-16.0,36567,List2B,black,woman,,TRUE,2,,,,,
null,CORRECT,,html-keyboard-response,220,1503004,0.0-16.0-17.0-0.0,36567,List2B,black,woman,,,,null,,,,
1622,"<img src=""portrait/BW1.jpg""style=""height:400px;""></img>",0,html-button-response,221,1504628,0.0-16.0-19.0,36567,List2B,black,woman,,TRUE,0,,,,,
null,CORRECT,,html-keyboard-response,222,1506132,0.0-16.0-20.0-0.0,36567,List2B,black,woman,,,,null,,,,
1864,"<img src=""portrait/WM2.jpg""style=""height:400px;""></img>",7,html-button-response,223,1507997,0.0-16.0-22.0,36567,List2B,black,woman,,TRUE,7,,,,,
null,CORRECT,,html-keyboard-response,224,1509501,0.0-16.0-23.0-0.0,36567,List2B,black,woman,,,,null,,,,
1337,<p>You got 8 out of 8 right first time. Press Continue.</p>,0,html-button-response,225,1510839,0.0-16.0-25.0,36567,List2B,black,woman,,,,,,,,
null,"<div style=""font-size:60px;"">+</div>",,html-keyboard-response,226,1512344,0.0-17.0-0.0,36567,List2B,black,woman,,,,null,,,,
null,"<img src=""stim_listB/play1.gif""style=""height:400px;""></stim_listB>",,html-keyboard-response,227,1514348,0.0-17.0-1.0,36567,List2B,black,woman,,,,null,,,,
null,is playing with,,html-keyboard-response,228,1516353,0.0-17.0-2.0,36567,List2B,black,woman,,,,null,,,,
7167,,,survey-text,229,1523520,0.0-17.0-3.0,36567,List2B,black,woman,,,,,"{""Q0"":""dave is playing with jane""}","<img src=""stim_listB/play1.gif""style=""height:400px;""></stim_listB>",is playing with,
null,"<div style=""font-size:60px;"">+</div>",,html-keyboard-response,230,1524026,0.0-17.0-0.1,36567,List2B,black,woman,,,,null,,,,
null,"<img src=""stim_listB/touch4.gif""style=""height:400px;""></stim_listB>",,html-keyboard-response,231,1526029,0.0-17.0-1.1,36567,List2B,black,woman,,,,null,,,,
null,are touching each other,,html-keyboard-response,232,1528032,0.0-17.0-2.1,36567,List2B,black,woman,,,,null,,,,
7022,,,survey-text,233,1535055,0.0-17.0-3.1,36567,List2B,black,woman,,,,,"{""Q0"":""beth and fred are touching each other""}","<img src=""stim_listB/touch4.gif""style=""height:400px;""></stim_listB>",are touching each other,
null,"<div style=""font-size:60px;"">+</div>",,html-keyboard-response,234,1535556,0.0-17.0-0.2,36567,List2B,black,woman,,,,null,,,,
null,"<img src=""stim_listB/talk3.gif""style=""height:400px;""></stim_listB>",,html-keyboard-response,235,1537557,0.0-17.0-1.2,36567,List2B,black,woman,,,,null,,,,
null,is talking to,,html-keyboard-response,236,1539561,0.0-17.0-2.2,36567,List2B,black,woman,,,,null,,,,
6018,,,survey-text,237,1545580,0.0-17.0-3.2,36567,List2B,black,woman,,,,,"{""Q0"":""fred is talking to kate""}","<img src=""stim_listB/talk3.gif""style=""height:400px;""></stim_listB>",is talking to,
null,"<div style=""font-size:60px;"">+</div>",,html-keyboard-response,238,1546084,0.0-17.0-0.3,36567,List2B,black,woman,,,,null,,,,
null,"<img src=""stim_listB/talk8.gif""style=""height:400px;""></stim_listB>",,html-keyboard-response,239,1548087,0.0-17.0-1.3,36567,List2B,black,woman,,,,null,,,,
null,are talking to each other,,html-keyboard-response,240,1550092,0.0-17.0-2.3,36567,List2B,black,woman,,,,null,,,,
10523,,,survey-text,241,1560616,0.0-17.0-3.3,36567,List2B,black,woman,,,,,"{""Q0"":""beth and jane are talking to each other""}","<img src=""stim_listB/talk8.gif""style=""height:400px;""></stim_listB>",are talking to each other,
null,"<div style=""font-size:60px;"">+</div>",,html-keyboard-response,242,1561118,0.0-17.0-0.4,36567,List2B,black,woman,,,,null,,,,
null,"<img src=""stim_listB/flirt7.gif""style=""height:400px;""></stim_listB>",,html-keyboard-response,243,1563120,0.0-17.0-1.4,36567,List2B,black,woman,,,,null,,,,
null,is flirting with,,html-keyboard-response,244,1565121,0.0-17.0-2.4,36567,List2B,black,woman,,,,null,,,,
10137,,,survey-text,245,1575260,0.0-17.0-3.4,36567,List2B,black,woman,,,,,"{""Q0"":""ruth is flirting with kate""}","<img src=""stim_listB/flirt7.gif""style=""height:400px;""></stim_listB>",is flirting with,
null,"<div style=""font-size:60px;"">+</div>",,html-keyboard-response,246,1575762,0.0-17.0-0.5,36567,List2B,black,woman,,,,null,,,,
null,"<img src=""stim_listB/shout8.gif""style=""height:400px;""></stim_listB>",,html-keyboard-response,247,1577766,0.0-17.0-1.5,36567,List2B,black,woman,,,,null,,,,
null,are shouting at each other,,html-keyboard-response,248,1579767,0.0-17.0-2.5,36567,List2B,black,woman,,,,null,,,,
11566,,,survey-text,249,1591333,0.0-17.0-3.5,36567,List2B,black,woman,,,,,"{""Q0"":""kate and jane are shouting at each other""}","<img src=""stim_listB/shout8.gif""style=""height:400px;""></stim_listB>",are shouting at each other,
null,"<div style=""font-size:60px;"">+</div>",,html-keyboard-response,250,1591836,0.0-17.0-0.6,36567,List2B,black,woman,,,,null,,,,
null,"<img src=""stim_listB/fight7.gif""style=""height:400px;""></stim_listB>",,html-keyboard-response,251,1593840,0.0-17.0-1.6,36567,List2B,black,woman,,,,null,,,,
null,is fighting,,html-keyboard-response,252,1595841,0.0-17.0-2.6,36567,List2B,black,woman,,,,null,,,,
15173,,,survey-text,253,1611015,0.0-17.0-3.6,36567,List2B,black,woman,,,,,"{""Q0"":""kate is fighting with jane""}","<img src=""stim_listB/fight7.gif""style=""height:400px;""></stim_listB>",is fighting,
null,"<div style=""font-size:60px;"">+</div>",,html-keyboard-response,254,1611520,0.0-17.0-0.7,36567,List2B,black,woman,,,,null,,,,
null,"<img src=""stim_listB/flirt5.gif""style=""height:400px;""></stim_listB>",,html-keyboard-response,255,1613522,0.0-17.0-1.7,36567,List2B,black,woman,,,,null,,,,
null,is flirting with,,html-keyboard-response,256,1615526,0.0-17.0-2.7,36567,List2B,black,woman,,,,null,,,,
10214,,,survey-text,257,1625740,0.0-17.0-3.7,36567,List2B,black,woman,,,,,"{""Q0"":""luke is flirting with mike""}","<img src=""stim_listB/flirt5.gif""style=""height:400px;""></stim_listB>",is flirting with,
null,"<div style=""font-size:60px;"">+</div>",,html-keyboard-response,258,1626244,0.0-17.0-0.8,36567,List2B,black,woman,,,,null,,,,
null,"<img src=""stim_listB/play7.gif""style=""height:400px;""></stim_listB>",,html-keyboard-response,259,1628248,0.0-17.0-1.8,36567,List2B,black,woman,,,,null,,,,
null,is playing with,,html-keyboard-response,260,1630249,0.0-17.0-2.8,36567,List2B,black,woman,,,,null,,,,
14553,,,survey-text,261,1644803,0.0-17.0-3.8,36567,List2B,black,woman,,,,,"{""Q0"":""kate is playing with jane""}","<img src=""stim_listB/play7.gif""style=""height:400px;""></stim_listB>",is playing with,
null,"<div style=""font-size:60px;"">+</div>",,html-keyboard-response,262,1645308,0.0-17.0-0.9,36567,List2B,black,woman,,,,null,,,,
null,"<img src=""stim_listB/dance2.gif""style=""height:400px;""></stim_listB>",,html-keyboard-response,263,1647310,0.0-17.0-1.9,36567,List2B,black,woman,,,,null,,,,
null,are dancing with each other,,html-keyboard-response,264,1649311,0.0-17.0-2.9,36567,List2B,black,woman,,,,null,,,,
10300,,,survey-text,265,1659611,0.0-17.0-3.9,36567,List2B,black,woman,,,,,"{""Q0"":""ruth and dave are dancing with each other""}","<img src=""stim_listB/dance2.gif""style=""height:400px;""></stim_listB>",are dancing with each other,
null,"<div style=""font-size:60px;"">+</div>",,html-keyboard-response,266,1660112,0.0-17.0-0.10,36567,List2B,black,woman,,,,null,,,,
null,"<img src=""stim_listB/play8.gif""style=""height:400px;""></stim_listB>",,html-keyboard-response,267,1662116,0.0-17.0-1.10,36567,List2B,black,woman,,,,null,,,,
null,are playing with each other,,html-keyboard-response,268,1664119,0.0-17.0-2.10,36567,List2B,black,woman,,,,null,,,,
12256,,,survey-text,269,1676377,0.0-17.0-3.10,36567,List2B,black,woman,,,,,"{""Q0"":""beth and ruth are playing with each other""}","<img src=""stim_listB/play8.gif""style=""height:400px;""></stim_listB>",are playing with each other,
null,"<div style=""font-size:60px;"">+</div>",,html-keyboard-response,270,1676880,0.0-17.0-0.11,36567,List2B,black,woman,,,,null,,,,
null,"<img src=""stim_listB/kiss2.gif""style=""height:400px;""></stim_listB>",,html-keyboard-response,271,1678881,0.0-17.0-1.11,36567,List2B,black,woman,,,,null,,,,
null,are kissing each other,,html-keyboard-response,272,1680882,0.0-17.0-2.11,36567,List2B,black,woman,,,,null,,,,
7937,,,survey-text,273,1688819,0.0-17.0-3.11,36567,List2B,black,woman,,,,,"{""Q0"":""dave and jane are kissing each other""}","<img src=""stim_listB/kiss2.gif""style=""height:400px;""></stim_listB>",are kissing each other,
null,"<div style=""font-size:60px;"">+</div>",,html-keyboard-response,274,1689324,0.0-17.0-0.12,36567,List2B,black,woman,,,,null,,,,
null,"<img src=""stim_listB/talk5.gif""style=""height:400px;""></stim_listB>",,html-keyboard-response,275,1691328,0.0-17.0-1.12,36567,List2B,black,woman,,,,null,,,,
null,is talking to,,html-keyboard-response,276,1693329,0.0-17.0-2.12,36567,List2B,black,woman,,,,null,,,,
6762,,,survey-text,277,1700091,0.0-17.0-3.12,36567,List2B,black,woman,,,,,"{""Q0"":""mike is talking to luke""}","<img src=""stim_listB/talk5.gif""style=""height:400px;""></stim_listB>",is talking to,
null,"<div style=""font-size:60px;"">+</div>",,html-keyboard-response,278,1700595,0.0-17.0-0.13,36567,List2B,black,woman,,,,null,,,,
null,"<img src=""stim_listB/shout2.gif""style=""height:400px;""></stim_listB>",,html-keyboard-response,279,1702597,0.0-17.0-1.13,36567,List2B,black,woman,,,,null,,,,
null,are shouting at each other,,html-keyboard-response,280,1704600,0.0-17.0-2.13,36567,List2B,black,woman,,,,null,,,,
8918,,,survey-text,281,1713518,0.0-17.0-3.13,36567,List2B,black,woman,,,,,"{""Q0"":""jane and dave are shouting at each other""}","<img src=""stim_listB/shout2.gif""style=""height:400px;""></stim_listB>",are shouting at each other,
null,"<div style=""font-size:60px;"">+</div>",,html-keyboard-response,282,1714020,0.0-17.0-0.14,36567,List2B,black,woman,,,,null,,,,
null,"<img src=""stim_listB/flirt8.gif""style=""height:400px;""></stim_listB>",,html-keyboard-response,283,1716023,0.0-17.0-1.14,36567,List2B,black,woman,,,,null,,,,
null,are flirting with each other,,html-keyboard-response,284,1718024,0.0-17.0-2.14,36567,List2B,black,woman,,,,null,,,,
9032,,,survey-text,285,1727056,0.0-17.0-3.14,36567,List2B,black,woman,,,,,"{""Q0"":""beth and jane are flirting with each other""}","<img src=""stim_listB/flirt8.gif""style=""height:400px;""></stim_listB>",are flirting with each other,
null,"<div style=""font-size:60px;"">+</div>",,html-keyboard-response,286,1727560,0.0-17.0-0.15,36567,List2B,black,woman,,,,null,,,,
null,"<img src=""stim_listB/flirt3.gif""style=""height:400px;""></stim_listB>",,html-keyboard-response,287,1729563,0.0-17.0-1.15,36567,List2B,black,woman,,,,null,,,,
null,is flirting with,,html-keyboard-response,288,1731565,0.0-17.0-2.15,36567,List2B,black,woman,,,,null,,,,
7902,,,survey-text,289,1739467,0.0-17.0-3.15,36567,List2B,black,woman,,,,,"{""Q0"":""fred is flirting with kate""}","<img src=""stim_listB/flirt3.gif""style=""height:400px;""></stim_listB>",is flirting with,
null,"<div style=""font-size:60px;"">+</div>",,html-keyboard-response,290,1739970,0.0-17.0-0.16,36567,List2B,black,woman,,,,null,,,,
null,"<img src=""stim_listB/argue4.gif""style=""height:400px;""></stim_listB>",,html-keyboard-response,291,1741973,0.0-17.0-1.16,36567,List2B,black,woman,,,,null,,,,
null,are arguing with each other,,html-keyboard-response,292,1743975,0.0-17.0-2.16,36567,List2B,black,woman,,,,null,,,,
8674,,,survey-text,293,1752650,0.0-17.0-3.16,36567,List2B,black,woman,,,,,"{""Q0"":""kate and fred are arguing with each other""}","<img src=""stim_listB/argue4.gif""style=""height:400px;""></stim_listB>",are arguing with each other,
null,"<div style=""font-size:60px;"">+</div>",,html-keyboard-response,294,1753155,0.0-17.0-0.17,36567,List2B,black,woman,,,,null,,,,
null,"<img src=""stim_listB/play4.gif""style=""height:400px;""></stim_listB>",,html-keyboard-response,295,1755158,0.0-17.0-1.17,36567,List2B,black,woman,,,,null,,,,
null,are playing with each other,,html-keyboard-response,296,1757162,0.0-17.0-2.17,36567,List2B,black,woman,,,,null,,,,
9003,,,survey-text,297,1766166,0.0-17.0-3.17,36567,List2B,black,woman,,,,,"{""Q0"":""fred and beth are playing with each other""}","<img src=""stim_listB/play4.gif""style=""height:400px;""></stim_listB>",are playing with each other,
null,"<div style=""font-size:60px;"">+</div>",,html-keyboard-response,298,1766669,0.0-17.0-0.18,36567,List2B,black,woman,,,,null,,,,
null,"<img src=""stim_listB/talk1.gif""style=""height:400px;""></stim_listB>",,html-keyboard-response,299,1768673,0.0-17.0-1.18,36567,List2B,black,woman,,,,null,,,,
null,is talking to,,html-keyboard-response,300,1770676,0.0-17.0-2.18,36567,List2B,black,woman,,,,null,,,,
6878,,,survey-text,301,1777555,0.0-17.0-3.18,36567,List2B,black,woman,,,,,"{""Q0"":""jane is talking to luke""}","<img src=""stim_listB/talk1.gif""style=""height:400px;""></stim_listB>",is talking to,
null,"<div style=""font-size:60px;"">+</div>",,html-keyboard-response,302,1778059,0.0-17.0-0.19,36567,List2B,black,woman,,,,null,,,,
null,"<img src=""stim_listB/shout6.gif""style=""height:400px;""></stim_listB>",,html-keyboard-response,303,1780061,0.0-17.0-1.19,36567,List2B,black,woman,,,,null,,,,
null,are shouting at each other,,html-keyboard-response,304,1782062,0.0-17.0-2.19,36567,List2B,black,woman,,,,null,,,,
10758,,,survey-text,305,1792821,0.0-17.0-3.19,36567,List2B,black,woman,,,,,"{""Q0"":""mike and dave are shouting at each other""}","<img src=""stim_listB/shout6.gif""style=""height:400px;""></stim_listB>",are shouting at each other,
3159,"<img src='img/portrait_matrix_list2.jpg' style='width:900px;height:500px;''></img><p>If you have memorised all the portraits and names and are ready to start, press Continue.</p><p><strong>Please note: Your memory of these faces will be tested 4 times during this experiment.</strong></p>",0,html-button-response,306,1795980,0.0-18.0-0.0,36567,List2B,black,woman,,,,,,,,
2764,"<img src=""portrait/WM2.jpg""style=""height:400px;""></img>",7,html-button-response,307,1799750,0.0-18.0-1.0,36567,List2B,black,woman,,TRUE,7,,,,,
null,CORRECT,,html-keyboard-response,308,1801257,0.0-18.0-2.0-0.0,36567,List2B,black,woman,,,,null,,,,
1533,"<img src=""portrait/WM1.jpg""style=""height:400px;""></img>",6,html-button-response,309,1802791,0.0-18.0-4.0,36567,List2B,black,woman,,TRUE,6,,,,,
null,CORRECT,,html-keyboard-response,310,1804296,0.0-18.0-5.0-0.0,36567,List2B,black,woman,,,,null,,,,
1162,"<img src=""portrait/BM2.jpg""style=""height:400px;""></img>",5,html-button-response,311,1805458,0.0-18.0-7.0,36567,List2B,black,woman,,TRUE,5,,,,,
null,CORRECT,,html-keyboard-response,312,1806964,0.0-18.0-8.0-0.0,36567,List2B,black,woman,,,,null,,,,
1408,"<img src=""portrait/WW1.jpg""style=""height:400px;""></img>",1,html-button-response,313,1808373,0.0-18.0-10.0,36567,List2B,black,woman,,TRUE,1,,,,,
null,CORRECT,,html-keyboard-response,314,1809882,0.0-18.0-11.0-0.0,36567,List2B,black,woman,,,,null,,,,
1388,"<img src=""portrait/BM1.jpg""style=""height:400px;""></img>",4,html-button-response,315,1811272,0.0-18.0-13.0,36567,List2B,black,woman,,TRUE,4,,,,,
null,CORRECT,,html-keyboard-response,316,1812777,0.0-18.0-14.0-0.0,36567,List2B,black,woman,,,,null,,,,
1346,"<img src=""portrait/WW2.jpg""style=""height:400px;""></img>",3,html-button-response,317,1814123,0.0-18.0-16.0,36567,List2B,black,woman,,TRUE,3,,,,,
null,CORRECT,,html-keyboard-response,318,1815629,0.0-18.0-17.0-0.0,36567,List2B,black,woman,,,,null,,,,
1137,"<img src=""portrait/BW1.jpg""style=""height:400px;""></img>",0,html-button-response,319,1816766,0.0-18.0-19.0,36567,List2B,black,woman,,TRUE,0,,,,,
null,CORRECT,,html-keyboard-response,320,1818275,0.0-18.0-20.0-0.0,36567,List2B,black,woman,,,,null,,,,
1284,"<img src=""portrait/BW2.jpg""style=""height:400px;""></img>",2,html-button-response,321,1819560,0.0-18.0-22.0,36567,List2B,black,woman,,TRUE,2,,,,,
null,CORRECT,,html-keyboard-response,322,1821066,0.0-18.0-23.0-0.0,36567,List2B,black,woman,,,,null,,,,
1398,<p>You got 8 out of 8 right first time. Press Continue.</p>,0,html-button-response,323,1822465,0.0-18.0-25.0,36567,List2B,black,woman,,,,,,,,
null,"<div style=""font-size:60px;"">+</div>",,html-keyboard-response,324,1823967,0.0-19.0-0.0,36567,List2B,black,woman,,,,null,,,,
null,"<img src=""stim_listB/fight4.gif""style=""height:400px;""></stim_listB>",,html-keyboard-response,325,1825969,0.0-19.0-1.0,36567,List2B,black,woman,,,,null,,,,
null,are fighting each other,,html-keyboard-response,326,1827970,0.0-19.0-2.0,36567,List2B,black,woman,,,,null,,,,
22802,,,survey-text,327,1850774,0.0-19.0-3.0,36567,List2B,black,woman,,,,,"{""Q0"":""fred and beth are fighting each other""}","<img src=""stim_listB/fight4.gif""style=""height:400px;""></stim_listB>",are fighting each other,
null,"<div style=""font-size:60px;"">+</div>",,html-keyboard-response,328,1851278,0.0-19.0-0.1,36567,List2B,black,woman,,,,null,,,,
null,"<img src=""stim_listB/marry2.gif""style=""height:400px;""></stim_listB>",,html-keyboard-response,329,1853282,0.0-19.0-1.1,36567,List2B,black,woman,,,,null,,,,
null,are marrying each other,,html-keyboard-response,330,1855285,0.0-19.0-2.1,36567,List2B,black,woman,,,,null,,,,
12238,,,survey-text,331,1867524,0.0-19.0-3.1,36567,List2B,black,woman,,,,,"{""Q0"":""""}","<img src=""stim_listB/marry2.gif""style=""height:400px;""></stim_listB>",are marrying each other,
null,"<div style=""font-size:60px;"">+</div>",,html-keyboard-response,332,1868027,0.0-19.0-0.2,36567,List2B,black,woman,,,,null,,,,
null,"<img src=""stim_listB/fight2.gif""style=""height:400px;""></stim_listB>",,html-keyboard-response,333,1870030,0.0-19.0-1.2,36567,List2B,black,woman,,,,null,,,,
null,are fighting each other,,html-keyboard-response,334,1872032,0.0-19.0-2.2,36567,List2B,black,woman,,,,null,,,,
11099,,,survey-text,335,1883133,0.0-19.0-3.2,36567,List2B,black,woman,,,,,"{""Q0"":""luke and ruth are fighting each other""}","<img src=""stim_listB/fight2.gif""style=""height:400px;""></stim_listB>",are fighting each other,
null,"<div style=""font-size:60px;"">+</div>",,html-keyboard-response,336,1883636,0.0-19.0-0.3,36567,List2B,black,woman,,,,null,,,,
null,"<img src=""stim_listB/kiss3.gif""style=""height:400px;""></stim_listB>",,html-keyboard-response,337,1885640,0.0-19.0-1.3,36567,List2B,black,woman,,,,null,,,,
null,is kissing,,html-keyboard-response,338,1887643,0.0-19.0-2.3,36567,List2B,black,woman,,,,null,,,,
6164,,,survey-text,339,1893807,0.0-19.0-3.3,36567,List2B,black,woman,,,,,"{""Q0"":""fred is kissing beth""}","<img src=""stim_listB/kiss3.gif""style=""height:400px;""></stim_listB>",is kissing,
null,"<div style=""font-size:60px;"">+</div>",,html-keyboard-response,340,1894312,0.0-19.0-0.4,36567,List2B,black,woman,,,,null,,,,
null,"<img src=""stim_listB/flirt2.gif""style=""height:400px;""></stim_listB>",,html-keyboard-response,341,1896316,0.0-19.0-1.4,36567,List2B,black,woman,,,,null,,,,
null,are flirting with each other,,html-keyboard-response,342,1898317,0.0-19.0-2.4,36567,List2B,black,woman,,,,null,,,,
9460,,,survey-text,343,1907778,0.0-19.0-3.4,36567,List2B,black,woman,,,,,"{""Q0"":""dave and ruth are flirting with each other""}","<img src=""stim_listB/flirt2.gif""style=""height:400px;""></stim_listB>",are flirting with each other,
null,"<div style=""font-size:60px;"">+</div>",,html-keyboard-response,344,1908281,0.0-19.0-0.5,36567,List2B,black,woman,,,,null,,,,
null,"<img src=""stim_listB/talk4.gif""style=""height:400px;""></stim_listB>",,html-keyboard-response,345,1910285,0.0-19.0-1.5,36567,List2B,black,woman,,,,null,,,,
null,are talking to each other,,html-keyboard-response,346,1912285,0.0-19.0-2.5,36567,List2B,black,woman,,,,null,,,,
8714,,,survey-text,347,1921000,0.0-19.0-3.5,36567,List2B,black,woman,,,,,"{""Q0"":""mike and beth are talking to each other""}","<img src=""stim_listB/talk4.gif""style=""height:400px;""></stim_listB>",are talking to each other,
null,"<div style=""font-size:60px;"">+</div>",,html-keyboard-response,348,1921501,0.0-19.0-0.6,36567,List2B,black,woman,,,,null,,,,
null,"<img src=""stim_listB/argue1.gif""style=""height:400px;""></stim_listB>",,html-keyboard-response,349,1923506,0.0-19.0-1.6,36567,List2B,black,woman,,,,null,,,,
null,is arguing with,,html-keyboard-response,350,1925507,0.0-19.0-2.6,36567,List2B,black,woman,,,,null,,,,
7736,,,survey-text,351,1933244,0.0-19.0-3.6,36567,List2B,black,woman,,,,,"{""Q0"":""ruth is arguing with dave""}","<img src=""stim_listB/argue1.gif""style=""height:400px;""></stim_listB>",is arguing with,
null,"<div style=""font-size:60px;"">+</div>",,html-keyboard-response,352,1933749,0.0-19.0-0.7,36567,List2B,black,woman,,,,null,,,,
null,"<img src=""stim_listB/argue5.gif""style=""height:400px;""></stim_listB>",,html-keyboard-response,353,1935752,0.0-19.0-1.7,36567,List2B,black,woman,,,,null,,,,
null,is arguing with,,html-keyboard-response,354,1937755,0.0-19.0-2.7,36567,List2B,black,woman,,,,null,,,,
8216,,,survey-text,355,1945971,0.0-19.0-3.7,36567,List2B,black,woman,,,,,"{""Q0"":""fred is arguing with dave""}","<img src=""stim_listB/argue5.gif""style=""height:400px;""></stim_listB>",is arguing with,
null,"<div style=""font-size:60px;"">+</div>",,html-keyboard-response,356,1946474,0.0-19.0-0.8,36567,List2B,black,woman,,,,null,,,,
null,"<img src=""stim_listB/marry3.gif""style=""height:400px;""></stim_listB>",,html-keyboard-response,357,1948479,0.0-19.0-1.8,36567,List2B,black,woman,,,,null,,,,
null,is marrying,,html-keyboard-response,358,1950480,0.0-19.0-2.8,36567,List2B,black,woman,,,,null,,,,
6137,,,survey-text,359,1956617,0.0-19.0-3.8,36567,List2B,black,woman,,,,,"{""Q0"":""mike is marrying beth""}","<img src=""stim_listB/marry3.gif""style=""height:400px;""></stim_listB>",is marrying,
null,"<div style=""font-size:60px;"">+</div>",,html-keyboard-response,360,1957122,0.0-19.0-0.9,36567,List2B,black,woman,,,,null,,,,
null,"<img src=""stim_listB/marry5.gif""style=""height:400px;""></stim_listB>",,html-keyboard-response,361,1959124,0.0-19.0-1.9,36567,List2B,black,woman,,,,null,,,,
null,is marrying,,html-keyboard-response,362,1961128,0.0-19.0-2.9,36567,List2B,black,woman,,,,null,,,,
7146,,,survey-text,363,1968274,0.0-19.0-3.9,36567,List2B,black,woman,,,,,"{""Q0"":""fred is marrying dave""}","<img src=""stim_listB/marry5.gif""style=""height:400px;""></stim_listB>",is marrying,
null,"<div style=""font-size:60px;"">+</div>",,html-keyboard-response,364,1968779,0.0-19.0-0.10,36567,List2B,black,woman,,,,null,,,,
null,"<img src=""stim_listB/dance4.gif""style=""height:400px;""></stim_listB>",,html-keyboard-response,365,1970783,0.0-19.0-1.10,36567,List2B,black,woman,,,,null,,,,
null,are dancing with each other,,html-keyboard-response,366,1972788,0.0-19.0-2.10,36567,List2B,black,woman,,,,null,,,,
9465,,,survey-text,367,1982254,0.0-19.0-3.10,36567,List2B,black,woman,,,,,"{""Q0"":""mike and beth are dancing with each other""}","<img src=""stim_listB/dance4.gif""style=""height:400px;""></stim_listB>",are dancing with each other,
null,"<div style=""font-size:60px;"">+</div>",,html-keyboard-response,368,1982757,0.0-19.0-0.11,36567,List2B,black,woman,,,,null,,,,
null,"<img src=""stim_listB/argue2.gif""style=""height:400px;""></stim_listB>",,html-keyboard-response,369,1984758,0.0-19.0-1.11,36567,List2B,black,woman,,,,null,,,,
null,are arguing with each other,,html-keyboard-response,370,1986760,0.0-19.0-2.11,36567,List2B,black,woman,,,,null,,,,
12375,,,survey-text,371,1999135,0.0-19.0-3.11,36567,List2B,black,woman,,,,,"{""Q0"":""luke and jane are arguing with each other""}","<img src=""stim_listB/argue2.gif""style=""height:400px;""></stim_listB>",are arguing with each other,
null,"<div style=""font-size:60px;"">+</div>",,html-keyboard-response,372,1999636,0.0-19.0-0.12,36567,List2B,black,woman,,,,null,,,,
null,"<img src=""stim_listB/kiss6.gif""style=""height:400px;""></stim_listB>",,html-keyboard-response,373,2001638,0.0-19.0-1.12,36567,List2B,black,woman,,,,null,,,,
null,are kissing each other,,html-keyboard-response,374,2003641,0.0-19.0-2.12,36567,List2B,black,woman,,,,null,,,,
7117,,,survey-text,375,2010759,0.0-19.0-3.12,36567,List2B,black,woman,,,,,"{""Q0"":""dave and mike are kissing each other""}","<img src=""stim_listB/kiss6.gif""style=""height:400px;""></stim_listB>",are kissing each other,
null,"<div style=""font-size:60px;"">+</div>",,html-keyboard-response,376,2011262,0.0-19.0-0.13,36567,List2B,black,woman,,,,null,,,,
null,"<img src=""stim_listB/fight8.gif""style=""height:400px;""></stim_listB>",,html-keyboard-response,377,2013266,0.0-19.0-1.13,36567,List2B,black,woman,,,,null,,,,
null,are fighting each other,,html-keyboard-response,378,2015267,0.0-19.0-2.13,36567,List2B,black,woman,,,,null,,,,
7296,,,survey-text,379,2022564,0.0-19.0-3.13,36567,List2B,black,woman,,,,,"{""Q0"":""ruth and beth are marrying each other""}","<img src=""stim_listB/fight8.gif""style=""height:400px;""></stim_listB>",are fighting each other,
null,"<div style=""font-size:60px;"">+</div>",,html-keyboard-response,380,2023069,0.0-19.0-0.14,36567,List2B,black,woman,,,,null,,,,
null,"<img src=""stim_listB/shout7.gif""style=""height:400px;""></stim_listB>",,html-keyboard-response,381,2025072,0.0-19.0-1.14,36567,List2B,black,woman,,,,null,,,,
null,is shouting at,,html-keyboard-response,382,2027075,0.0-19.0-2.14,36567,List2B,black,woman,,,,null,,,,
6735,,,survey-text,383,2033811,0.0-19.0-3.14,36567,List2B,black,woman,,,,,"{""Q0"":""beth is shouting at ruth""}","<img src=""stim_listB/shout7.gif""style=""height:400px;""></stim_listB>",is shouting at,
null,"<div style=""font-size:60px;"">+</div>",,html-keyboard-response,384,2034316,0.0-19.0-0.15,36567,List2B,black,woman,,,,null,,,,
null,"<img src=""stim_listB/kiss4.gif""style=""height:400px;""></stim_listB>",,html-keyboard-response,385,2036321,0.0-19.0-1.15,36567,List2B,black,woman,,,,null,,,,
null,are kissing each other,,html-keyboard-response,386,2038324,0.0-19.0-2.15,36567,List2B,black,woman,,,,null,,,,
7896,,,survey-text,387,2046220,0.0-19.0-3.15,36567,List2B,black,woman,,,,,"{""Q0"":""mike and kate are kissing each other""}","<img src=""stim_listB/kiss4.gif""style=""height:400px;""></stim_listB>",are kissing each other,
null,"<div style=""font-size:60px;"">+</div>",,html-keyboard-response,388,2046722,0.0-19.0-0.16,36567,List2B,black,woman,,,,null,,,,
null,"<img src=""stim_listB/dance8.gif""style=""height:400px;""></stim_listB>",,html-keyboard-response,389,2048726,0.0-19.0-1.16,36567,List2B,black,woman,,,,null,,,,
null,are dancing with each other,,html-keyboard-response,390,2050728,0.0-19.0-2.16,36567,List2B,black,woman,,,,null,,,,
10229,,,survey-text,391,2060958,0.0-19.0-3.16,36567,List2B,black,woman,,,,,"{""Q0"":""kate and jane are dancing with each other""}","<img src=""stim_listB/dance8.gif""style=""height:400px;""></stim_listB>",are dancing with each other,
null,"<div style=""font-size:60px;"">+</div>",,html-keyboard-response,392,2061459,0.0-19.0-0.17,36567,List2B,black,woman,,,,null,,,,
null,"<img src=""stim_listB/play3.gif""style=""height:400px;""></stim_listB>",,html-keyboard-response,393,2063460,0.0-19.0-1.17,36567,List2B,black,woman,,,,null,,,,
null,is playing with,,html-keyboard-response,394,2065463,0.0-19.0-2.17,36567,List2B,black,woman,,,,null,,,,
8582,,,survey-text,395,2074045,0.0-19.0-3.17,36567,List2B,black,woman,,,,,"{""Q0"":""mike is playing with kate""}","<img src=""stim_listB/play3.gif""style=""height:400px;""></stim_listB>",is playing with,
null,"<div style=""font-size:60px;"">+</div>",,html-keyboard-response,396,2074550,0.0-19.0-0.18,36567,List2B,black,woman,,,,null,,,,
null,"<img src=""stim_listB/kiss8.gif""style=""height:400px;""></stim_listB>",,html-keyboard-response,397,2076553,0.0-19.0-1.18,36567,List2B,black,woman,,,,null,,,,
null,are kissing each other,,html-keyboard-response,398,2078558,0.0-19.0-2.18,36567,List2B,black,woman,,,,null,,,,
8883,,,survey-text,399,2087441,0.0-19.0-3.18,36567,List2B,black,woman,,,,,"{""Q0"":""kate and jane are kissing each other""}","<img src=""stim_listB/kiss8.gif""style=""height:400px;""></stim_listB>",are kissing each other,
null,"<div style=""font-size:60px;"">+</div>",,html-keyboard-response,400,2087943,0.0-19.0-0.19,36567,List2B,black,woman,,,,null,,,,
null,"<img src=""stim_listB/touch7.gif""style=""height:400px;""></stim_listB>",,html-keyboard-response,401,2089946,0.0-19.0-1.19,36567,List2B,black,woman,,,,null,,,,
null,is touching,,html-keyboard-response,402,2091949,0.0-19.0-2.19,36567,List2B,black,woman,,,,null,,,,
6870,,,survey-text,403,2098821,0.0-19.0-3.19,36567,List2B,black,woman,,,,,"{""Q0"":""kate is touching jane""}","<img src=""stim_listB/touch7.gif""style=""height:400px;""></stim_listB>",is touching,
3056,<p>Thank you for completing that task.</p><p>The final part of this session is a short questionnaire.</p><p>Press Continue.</p>,0,html-button-response,404,2101877,0.0-20.0,36567,List2B,black,woman,,,,,,,,
20735,,,survey-text,405,2123617,0.0-21.0,36567,List2B,black,woman,,,,,"{""Q0"":""19"",""Q1"":""English"",""Q2"":""English"",""Q3"":""Canada"",""Q4"":""Black"",""Q5"":""Female""}",,,demographics
7184,,,survey-likert,406,2130802,0.0-22.0,36567,List2B,black,woman,,,,,"{""Q0"":4}",,,likert_ESS
4264,,,survey-likert,407,2135069,0.0-23.0,36567,List2B,black,woman,,,,,"{""Q0"":4}",,,likert_NSSAL_Q1
2730,,,survey-likert,408,2137802,0.0-24.0,36567,List2B,black,woman,,,,,"{""Q0"":4}",,,likert_NSSAL_Q2
4073,,,survey-likert,409,2141878,0.0-25.0,36567,List2B,black,woman,,,,,"{""Q0"":4}",,,likert_CGRS_Q1
2724,,,survey-likert,410,2144605,0.0-26.0,36567,List2B,black,woman,,,,,"{""Q0"":4}",,,likert_CGRS_Q2
2489,,,survey-likert,411,2147098,0.0-27.0,36567,List2B,black,woman,,,,,"{""Q0"":4}",,,likert_CGRS_Q3
9557,,,survey-text,412,2156659,0.0-28.0,36567,List2B,black,woman,,,,,"{""Q0"":""ccc""}",,,worker_id
27718,,,external-html,413,2184681,0.0-29.0,36567,List2B,black,woman,debrief.html,,,,,,,
