rt,stimulus,button_pressed,trial_type,trial_index,time_elapsed,internal_node_id,subject,list,ppt_race,ppt_gender,url,first_guess,correct,key_press,responses,image_type,phrase_type,test_part
77614,Welcome to the experiment. Press Continue to begin.,0,html-button-response,0,77634,0.0-0.0,36850,List2B,black,woman,,,,,,,,
191190,,,external-html,1,270186,0.0-1.0,36850,List2B,black,woman,consent.html,,,,,,,
8991,"<p>On the next page, you will see portraits of 8 people and their names.</p><p>Your first task is to take a few minutes to memorise the names of these people.</p><p>You will have to recall their names during the rest of the experiment, so it is</p><p>essential that you try to memorise these people and their names as best as you can.</p><br><p><strong>You will then be tested on your memory of these names and portraits.</strong></p><br><p>The experiment will start after you have completed this memory test.</p><br><p>Ready?</p>",0,html-button-response,2,279179,0.0-2.0,36850,List2B,black,woman,,,,,,,,
39502,"<img src='img/portrait_matrix_list2.jpg' style='width:900px;height:500px;''></img><p>If you have memorised all the portraits and names and are ready to start, press Continue.</p><p><strong>Please note: Your memory of these faces will be tested 4 times during this experiment.</strong></p>",0,html-button-response,3,319698,0.0-3.0-0.0,36850,List2B,black,woman,,,,,,,,
15625,"<img src=""portrait/WW1.jpg""style=""height:400px;""></img>",1,html-button-response,4,336337,0.0-3.0-1.0,36850,List2B,black,woman,,TRUE,1,,,,,
null,CORRECT,,html-keyboard-response,5,337844,0.0-3.0-2.0-0.0,36850,List2B,black,woman,,,,null,,,,
7523,"<img src=""portrait/BM1.jpg""style=""height:400px;""></img>",4,html-button-response,6,345368,0.0-3.0-4.0,36850,List2B,black,woman,,TRUE,4,,,,,
null,CORRECT,,html-keyboard-response,7,346886,0.0-3.0-5.0-0.0,36850,List2B,black,woman,,,,null,,,,
7323,"<img src=""portrait/BM2.jpg""style=""height:400px;""></img>",5,html-button-response,8,354210,0.0-3.0-7.0,36850,List2B,black,woman,,TRUE,5,,,,,
null,CORRECT,,html-keyboard-response,9,355721,0.0-3.0-8.0-0.0,36850,List2B,black,woman,,,,null,,,,
7194,"<img src=""portrait/WM1.jpg""style=""height:400px;""></img>",6,html-button-response,10,362918,0.0-3.0-10.0,36850,List2B,black,woman,,TRUE,6,,,,,
null,CORRECT,,html-keyboard-response,11,364429,0.0-3.0-11.0-0.0,36850,List2B,black,woman,,,,null,,,,
8052,"<img src=""portrait/WM2.jpg""style=""height:400px;""></img>",7,html-button-response,12,372485,0.0-3.0-13.0,36850,List2B,black,woman,,TRUE,7,,,,,
null,CORRECT,,html-keyboard-response,13,373998,0.0-3.0-14.0-0.0,36850,List2B,black,woman,,,,null,,,,
6118,"<img src=""portrait/WW2.jpg""style=""height:400px;""></img>",3,html-button-response,14,380119,0.0-3.0-16.0,36850,List2B,black,woman,,TRUE,3,,,,,
null,CORRECT,,html-keyboard-response,15,381623,0.0-3.0-17.0-0.0,36850,List2B,black,woman,,,,null,,,,
12250,"<img src=""portrait/BW1.jpg""style=""height:400px;""></img>",0,html-button-response,16,393875,0.0-3.0-19.0,36850,List2B,black,woman,,TRUE,0,,,,,
null,CORRECT,,html-keyboard-response,17,395402,0.0-3.0-20.0-0.0,36850,List2B,black,woman,,,,null,,,,
2189,"<img src=""portrait/BW2.jpg""style=""height:400px;""></img>",2,html-button-response,18,397594,0.0-3.0-22.0,36850,List2B,black,woman,,TRUE,2,,,,,
null,CORRECT,,html-keyboard-response,19,399105,0.0-3.0-23.0-0.0,36850,List2B,black,woman,,,,null,,,,
2519,<p>You got 8 out of 8 right first time. Press Continue.</p>,0,html-button-response,20,401627,0.0-3.0-25.0,36850,List2B,black,woman,,,,,,,,
109583,"<p>In this experiment, you will view photographs of the people from the memory game interacting.</p><p>By using the <strong>exact</strong> phrase given <i>after</i> the photograph appears and recalling the correct names of the people in the photographs, form a sentence describing the interaction. You do not need to capitalise names.</p><p>Type your answer in the space provided. Please complete every sentence before moving onto the next trial.</p><p>You will only have a few seconds to memorise each given photograph and phrase before you can respond, so try your best to focus.</p><p>An example is given below. Press 'Continue' when you are ready.</p><img src='img/speaking_example.jpg' style='width:800px;height:460px;''></img>",0,html-button-response,21,512223,0.0-4.0,36850,List2B,black,woman,,,,,,,,
2202,"<p>Before the experiment starts, you will watch two example trials. Press 'Continue'.</p>",0,html-button-response,22,515442,0.0-5.0,36850,List2B,black,woman,,,,,,,,
null,<img src='img/meet_eg.gif' style='height:400px;''></img>,,html-keyboard-response,23,518456,0.0-6.0,36850,List2B,black,woman,,,,null,,,,
null,<p>is meeting</p>,,html-keyboard-response,24,520468,0.0-7.0,36850,List2B,black,woman,,,,null,,,,
59917,<p><b>Answer:</b> jane is meeting ruth</p>,0,html-button-response,25,580386,0.0-8.0,36850,List2B,black,woman,,,,,,,,
null,<img src='img/look_eg.gif' style='height:400px;''></img>,,html-keyboard-response,26,583397,0.0-9.0,36850,List2B,black,woman,,,,null,,,,
null,<p>are looking at each other</p>,,html-keyboard-response,27,585410,0.0-10.0,36850,List2B,black,woman,,,,null,,,,
2473,<p><b>Answer:</b> fred and mike are looking at each other</p>,0,html-button-response,28,587885,0.0-11.0,36850,List2B,black,woman,,,,,,,,
7056,"<p>Ready to start the experiment?</p><br><p><strong>Remember to describe the picture using a full sentence,</strong></p><p><strong>that combines the names of the people with the <i>exact</i> phrase given.</strong></p><p><strong>To receive full payment you must do this correctly.</strong></p><p><strong> You do not need to capitalise names or use punctuation.</strong></p><br><p>Press 'Continue' to begin.</p>",0,html-button-response,29,595953,0.0-12.0,36850,List2B,black,woman,,,,,,,,
null,"<div style=""font-size:60px;"">+</div>",,html-keyboard-response,30,597464,0.0-13.0-0.0,36850,List2B,black,woman,,,,null,,,,
null,"<img src=""stim_listB/marry8.gif""style=""height:400px;""></stim_listB>",,html-keyboard-response,31,599469,0.0-13.0-1.0,36850,List2B,black,woman,,,,null,,,,
null,are marrying each other,,html-keyboard-response,32,601471,0.0-13.0-2.0,36850,List2B,black,woman,,,,null,,,,
67372,,,survey-text,33,668846,0.0-13.0-3.0,36850,List2B,black,woman,,,,,"{""Q0"":""ruth and kate are marrying each other""}","<img src=""stim_listB/marry8.gif""style=""height:400px;""></stim_listB>",are marrying each other,
null,"<div style=""font-size:60px;"">+</div>",,html-keyboard-response,34,669348,0.0-13.0-0.1,36850,List2B,black,woman,,,,null,,,,
null,"<img src=""stim_listB/talk5.gif""style=""height:400px;""></stim_listB>",,html-keyboard-response,35,671351,0.0-13.0-1.1,36850,List2B,black,woman,,,,null,,,,
null,is talking to,,html-keyboard-response,36,673353,0.0-13.0-2.1,36850,List2B,black,woman,,,,null,,,,
22856,,,survey-text,37,696211,0.0-13.0-3.1,36850,List2B,black,woman,,,,,"{""Q0"":""luke and mike are talking to one another""}","<img src=""stim_listB/talk5.gif""style=""height:400px;""></stim_listB>",is talking to,
null,"<div style=""font-size:60px;"">+</div>",,html-keyboard-response,38,696715,0.0-13.0-0.2,36850,List2B,black,woman,,,,null,,,,
null,"<img src=""stim_listB/argue4.gif""style=""height:400px;""></stim_listB>",,html-keyboard-response,39,698719,0.0-13.0-1.2,36850,List2B,black,woman,,,,null,,,,
null,are arguing with each other,,html-keyboard-response,40,700720,0.0-13.0-2.2,36850,List2B,black,woman,,,,null,,,,
31390,,,survey-text,41,732113,0.0-13.0-3.2,36850,List2B,black,woman,,,,,"{""Q0"":""fred and kate are arguing with one another""}","<img src=""stim_listB/argue4.gif""style=""height:400px;""></stim_listB>",are arguing with each other,
null,"<div style=""font-size:60px;"">+</div>",,html-keyboard-response,42,732617,0.0-13.0-0.3,36850,List2B,black,woman,,,,null,,,,
null,"<img src=""stim_listB/kiss5.gif""style=""height:400px;""></stim_listB>",,html-keyboard-response,43,734622,0.0-13.0-1.3,36850,List2B,black,woman,,,,null,,,,
null,is kissing,,html-keyboard-response,44,736624,0.0-13.0-2.3,36850,List2B,black,woman,,,,null,,,,
13684,,,survey-text,45,750310,0.0-13.0-3.3,36850,List2B,black,woman,,,,,"{""Q0"":""Fred is kissing Luke""}","<img src=""stim_listB/kiss5.gif""style=""height:400px;""></stim_listB>",is kissing,
null,"<div style=""font-size:60px;"">+</div>",,html-keyboard-response,46,750812,0.0-13.0-0.4,36850,List2B,black,woman,,,,null,,,,
null,"<img src=""stim_listB/play8.gif""style=""height:400px;""></stim_listB>",,html-keyboard-response,47,752815,0.0-13.0-1.4,36850,List2B,black,woman,,,,null,,,,
null,are playing with each other,,html-keyboard-response,48,754818,0.0-13.0-2.4,36850,List2B,black,woman,,,,null,,,,
22087,,,survey-text,49,776907,0.0-13.0-3.4,36850,List2B,black,woman,,,,,"{""Q0"":""Beth and Ruth are playing with each other""}","<img src=""stim_listB/play8.gif""style=""height:400px;""></stim_listB>",are playing with each other,
null,"<div style=""font-size:60px;"">+</div>",,html-keyboard-response,50,777411,0.0-13.0-0.5,36850,List2B,black,woman,,,,null,,,,
null,"<img src=""stim_listB/dance8.gif""style=""height:400px;""></stim_listB>",,html-keyboard-response,51,779414,0.0-13.0-1.5,36850,List2B,black,woman,,,,null,,,,
null,are dancing with each other,,html-keyboard-response,52,781416,0.0-13.0-2.5,36850,List2B,black,woman,,,,null,,,,
147260,,,survey-text,53,928678,0.0-13.0-3.5,36850,List2B,black,woman,,,,,"{""Q0"":""Jane and beth are dancing with each other""}","<img src=""stim_listB/dance8.gif""style=""height:400px;""></stim_listB>",are dancing with each other,
null,"<div style=""font-size:60px;"">+</div>",,html-keyboard-response,54,929182,0.0-13.0-0.6,36850,List2B,black,woman,,,,null,,,,
null,"<img src=""stim_listB/touch8.gif""style=""height:400px;""></stim_listB>",,html-keyboard-response,55,931184,0.0-13.0-1.6,36850,List2B,black,woman,,,,null,,,,
null,are touching each other,,html-keyboard-response,56,933187,0.0-13.0-2.6,36850,List2B,black,woman,,,,null,,,,
17360,,,survey-text,57,950550,0.0-13.0-3.6,36850,List2B,black,woman,,,,,"{""Q0"":""beth and ruth are touching each other""}","<img src=""stim_listB/touch8.gif""style=""height:400px;""></stim_listB>",are touching each other,
null,"<div style=""font-size:60px;"">+</div>",,html-keyboard-response,58,951054,0.0-13.0-0.7,36850,List2B,black,woman,,,,null,,,,
null,"<img src=""stim_listB/play4.gif""style=""height:400px;""></stim_listB>",,html-keyboard-response,59,953058,0.0-13.0-1.7,36850,List2B,black,woman,,,,null,,,,
null,are playing with each other,,html-keyboard-response,60,955059,0.0-13.0-2.7,36850,List2B,black,woman,,,,null,,,,
117125,,,survey-text,61,1072187,0.0-13.0-3.7,36850,List2B,black,woman,,,,,"{""Q0"":""beth and fred are playing with each other""}","<img src=""stim_listB/play4.gif""style=""height:400px;""></stim_listB>",are playing with each other,
null,"<div style=""font-size:60px;"">+</div>",,html-keyboard-response,62,1072696,0.0-13.0-0.8,36850,List2B,black,woman,,,,null,,,,
null,"<img src=""stim_listB/shout7.gif""style=""height:400px;""></stim_listB>",,html-keyboard-response,63,1074700,0.0-13.0-1.8,36850,List2B,black,woman,,,,null,,,,
null,is shouting at,,html-keyboard-response,64,1076713,0.0-13.0-2.8,36850,List2B,black,woman,,,,null,,,,
17147,,,survey-text,65,1093862,0.0-13.0-3.8,36850,List2B,black,woman,,,,,"{""Q0"":""ruth is shouting at beth""}","<img src=""stim_listB/shout7.gif""style=""height:400px;""></stim_listB>",is shouting at,
null,"<div style=""font-size:60px;"">+</div>",,html-keyboard-response,66,1094370,0.0-13.0-0.9,36850,List2B,black,woman,,,,null,,,,
null,"<img src=""stim_listB/touch2.gif""style=""height:400px;""></stim_listB>",,html-keyboard-response,67,1096374,0.0-13.0-1.9,36850,List2B,black,woman,,,,null,,,,
null,are touching each other,,html-keyboard-response,68,1098385,0.0-13.0-2.9,36850,List2B,black,woman,,,,null,,,,
47260,,,survey-text,69,1145646,0.0-13.0-3.9,36850,List2B,black,woman,,,,,"{""Q0"":""luke and ruth are touching each other""}","<img src=""stim_listB/touch2.gif""style=""height:400px;""></stim_listB>",are touching each other,
null,"<div style=""font-size:60px;"">+</div>",,html-keyboard-response,70,1146159,0.0-13.0-0.10,36850,List2B,black,woman,,,,null,,,,
null,"<img src=""stim_listB/talk6.gif""style=""height:400px;""></stim_listB>",,html-keyboard-response,71,1148162,0.0-13.0-1.10,36850,List2B,black,woman,,,,null,,,,
null,are talking to each other,,html-keyboard-response,72,1150169,0.0-13.0-2.10,36850,List2B,black,woman,,,,null,,,,
18488,,,survey-text,73,1168659,0.0-13.0-3.10,36850,List2B,black,woman,,,,,"{""Q0"":""dave and fred are talking to one another""}","<img src=""stim_listB/talk6.gif""style=""height:400px;""></stim_listB>",are talking to each other,
null,"<div style=""font-size:60px;"">+</div>",,html-keyboard-response,74,1169166,0.0-13.0-0.11,36850,List2B,black,woman,,,,null,,,,
null,"<img src=""stim_listB/kiss6.gif""style=""height:400px;""></stim_listB>",,html-keyboard-response,75,1171169,0.0-13.0-1.11,36850,List2B,black,woman,,,,null,,,,
null,are kissing each other,,html-keyboard-response,76,1173171,0.0-13.0-2.11,36850,List2B,black,woman,,,,null,,,,
21612,,,survey-text,77,1194784,0.0-13.0-3.11,36850,List2B,black,woman,,,,,"{""Q0"":""mike and dave are kissing each other""}","<img src=""stim_listB/kiss6.gif""style=""height:400px;""></stim_listB>",are kissing each other,
null,"<div style=""font-size:60px;"">+</div>",,html-keyboard-response,78,1195294,0.0-13.0-0.12,36850,List2B,black,woman,,,,null,,,,
null,"<img src=""stim_listB/kiss8.gif""style=""height:400px;""></stim_listB>",,html-keyboard-response,79,1197297,0.0-13.0-1.12,36850,List2B,black,woman,,,,null,,,,
null,are kissing each other,,html-keyboard-response,80,1199302,0.0-13.0-2.12,36850,List2B,black,woman,,,,null,,,,
38740,,,survey-text,81,1238043,0.0-13.0-3.12,36850,List2B,black,woman,,,,,"{""Q0"":""jane and kate are kissing each other""}","<img src=""stim_listB/kiss8.gif""style=""height:400px;""></stim_listB>",are kissing each other,
null,"<div style=""font-size:60px;"">+</div>",,html-keyboard-response,82,1238554,0.0-13.0-0.13,36850,List2B,black,woman,,,,null,,,,
null,"<img src=""stim_listB/argue2.gif""style=""height:400px;""></stim_listB>",,html-keyboard-response,83,1240556,0.0-13.0-1.13,36850,List2B,black,woman,,,,null,,,,
null,are arguing with each other,,html-keyboard-response,84,1242557,0.0-13.0-2.13,36850,List2B,black,woman,,,,null,,,,
16644,,,survey-text,85,1259203,0.0-13.0-3.13,36850,List2B,black,woman,,,,,"{""Q0"":""jane and luke are arguing with each other""}","<img src=""stim_listB/argue2.gif""style=""height:400px;""></stim_listB>",are arguing with each other,
null,"<div style=""font-size:60px;"">+</div>",,html-keyboard-response,86,1259712,0.0-13.0-0.14,36850,List2B,black,woman,,,,null,,,,
null,"<img src=""stim_listB/fight8.gif""style=""height:400px;""></stim_listB>",,html-keyboard-response,87,1261716,0.0-13.0-1.14,36850,List2B,black,woman,,,,null,,,,
null,are fighting each other,,html-keyboard-response,88,1263724,0.0-13.0-2.14,36850,List2B,black,woman,,,,null,,,,
14722,,,survey-text,89,1278446,0.0-13.0-3.14,36850,List2B,black,woman,,,,,"{""Q0"":""beth and ruth are fighting each other""}","<img src=""stim_listB/fight8.gif""style=""height:400px;""></stim_listB>",are fighting each other,
null,"<div style=""font-size:60px;"">+</div>",,html-keyboard-response,90,1278957,0.0-13.0-0.15,36850,List2B,black,woman,,,,null,,,,
null,"<img src=""stim_listB/play1.gif""style=""height:400px;""></stim_listB>",,html-keyboard-response,91,1280959,0.0-13.0-1.15,36850,List2B,black,woman,,,,null,,,,
null,is playing with,,html-keyboard-response,92,1282964,0.0-13.0-2.15,36850,List2B,black,woman,,,,null,,,,
90912,,,survey-text,93,1373878,0.0-13.0-3.15,36850,List2B,black,woman,,,,,"{""Q0"":""dave is playing with jane""}","<img src=""stim_listB/play1.gif""style=""height:400px;""></stim_listB>",is playing with,
null,"<div style=""font-size:60px;"">+</div>",,html-keyboard-response,94,1374390,0.0-13.0-0.16,36850,List2B,black,woman,,,,null,,,,
null,"<img src=""stim_listB/flirt5.gif""style=""height:400px;""></stim_listB>",,html-keyboard-response,95,1376392,0.0-13.0-1.16,36850,List2B,black,woman,,,,null,,,,
null,is flirting with,,html-keyboard-response,96,1378399,0.0-13.0-2.16,36850,List2B,black,woman,,,,null,,,,
10469,,,survey-text,97,1388869,0.0-13.0-3.16,36850,List2B,black,woman,,,,,"{""Q0"":""mike is flirting with luke""}","<img src=""stim_listB/flirt5.gif""style=""height:400px;""></stim_listB>",is flirting with,
null,"<div style=""font-size:60px;"">+</div>",,html-keyboard-response,98,1389377,0.0-13.0-0.17,36850,List2B,black,woman,,,,null,,,,
null,"<img src=""stim_listB/fight7.gif""style=""height:400px;""></stim_listB>",,html-keyboard-response,99,1391380,0.0-13.0-1.17,36850,List2B,black,woman,,,,null,,,,
null,is fighting,,html-keyboard-response,100,1393388,0.0-13.0-2.17,36850,List2B,black,woman,,,,null,,,,
11520,,,survey-text,101,1404910,0.0-13.0-3.17,36850,List2B,black,woman,,,,,"{""Q0"":""jane is fighting kate""}","<img src=""stim_listB/fight7.gif""style=""height:400px;""></stim_listB>",is fighting,
null,"<div style=""font-size:60px;"">+</div>",,html-keyboard-response,102,1405422,0.0-13.0-0.18,36850,List2B,black,woman,,,,null,,,,
null,"<img src=""stim_listB/talk7.gif""style=""height:400px;""></stim_listB>",,html-keyboard-response,103,1407425,0.0-13.0-1.18,36850,List2B,black,woman,,,,null,,,,
null,is talking to,,html-keyboard-response,104,1409430,0.0-13.0-2.18,36850,List2B,black,woman,,,,null,,,,
10134,,,survey-text,105,1419566,0.0-13.0-3.18,36850,List2B,black,woman,,,,,"{""Q0"":""kate is talking to ruth""}","<img src=""stim_listB/talk7.gif""style=""height:400px;""></stim_listB>",is talking to,
null,"<div style=""font-size:60px;"">+</div>",,html-keyboard-response,106,1420078,0.0-13.0-0.19,36850,List2B,black,woman,,,,null,,,,
null,"<img src=""stim_listB/touch4.gif""style=""height:400px;""></stim_listB>",,html-keyboard-response,107,1422079,0.0-13.0-1.19,36850,List2B,black,woman,,,,null,,,,
null,are touching each other,,html-keyboard-response,108,1424090,0.0-13.0-2.19,36850,List2B,black,woman,,,,null,,,,
15733,,,survey-text,109,1439823,0.0-13.0-3.19,36850,List2B,black,woman,,,,,"{""Q0"":""beth and fred are touching each other""}","<img src=""stim_listB/touch4.gif""style=""height:400px;""></stim_listB>",are touching each other,
142670,"<img src='img/portrait_matrix_list2.jpg' style='width:900px;height:500px;''></img><p>If you have memorised all the portraits and names and are ready to start, press Continue.</p><p><strong>Please note: Your memory of these faces will be tested 4 times during this experiment.</strong></p>",0,html-button-response,110,1582496,0.0-14.0-0.0,36850,List2B,black,woman,,,,,,,,
5805,"<img src=""portrait/WW2.jpg""style=""height:400px;""></img>",3,html-button-response,111,1589316,0.0-14.0-1.0,36850,List2B,black,woman,,TRUE,3,,,,,
null,CORRECT,,html-keyboard-response,112,1590822,0.0-14.0-2.0-0.0,36850,List2B,black,woman,,,,null,,,,
5028,"<img src=""portrait/WM2.jpg""style=""height:400px;""></img>",7,html-button-response,113,1595854,0.0-14.0-4.0,36850,List2B,black,woman,,TRUE,7,,,,,
null,CORRECT,,html-keyboard-response,114,1597358,0.0-14.0-5.0-0.0,36850,List2B,black,woman,,,,null,,,,
4579,"<img src=""portrait/BW2.jpg""style=""height:400px;""></img>",2,html-button-response,115,1601940,0.0-14.0-7.0,36850,List2B,black,woman,,TRUE,2,,,,,
null,CORRECT,,html-keyboard-response,116,1603464,0.0-14.0-8.0-0.0,36850,List2B,black,woman,,,,null,,,,
2156,"<img src=""portrait/BM1.jpg""style=""height:400px;""></img>",4,html-button-response,117,1605622,0.0-14.0-10.0,36850,List2B,black,woman,,TRUE,4,,,,,
null,CORRECT,,html-keyboard-response,118,1607138,0.0-14.0-11.0-0.0,36850,List2B,black,woman,,,,null,,,,
2600,"<img src=""portrait/WM1.jpg""style=""height:400px;""></img>",6,html-button-response,119,1609743,0.0-14.0-13.0,36850,List2B,black,woman,,TRUE,6,,,,,
null,CORRECT,,html-keyboard-response,120,1611258,0.0-14.0-14.0-0.0,36850,List2B,black,woman,,,,null,,,,
3101,"<img src=""portrait/BM2.jpg""style=""height:400px;""></img>",5,html-button-response,121,1614361,0.0-14.0-16.0,36850,List2B,black,woman,,TRUE,5,,,,,
null,CORRECT,,html-keyboard-response,122,1615886,0.0-14.0-17.0-0.0,36850,List2B,black,woman,,,,null,,,,
6289,"<img src=""portrait/WW1.jpg""style=""height:400px;""></img>",1,html-button-response,123,1622179,0.0-14.0-19.0,36850,List2B,black,woman,,TRUE,1,,,,,
null,CORRECT,,html-keyboard-response,124,1623689,0.0-14.0-20.0-0.0,36850,List2B,black,woman,,,,null,,,,
5938,"<img src=""portrait/BW1.jpg""style=""height:400px;""></img>",0,html-button-response,125,1629628,0.0-14.0-22.0,36850,List2B,black,woman,,TRUE,0,,,,,
null,CORRECT,,html-keyboard-response,126,1631142,0.0-14.0-23.0-0.0,36850,List2B,black,woman,,,,null,,,,
2090,<p>You got 8 out of 8 right first time. Press Continue.</p>,0,html-button-response,127,1633236,0.0-14.0-25.0,36850,List2B,black,woman,,,,,,,,
null,"<div style=""font-size:60px;"">+</div>",,html-keyboard-response,128,1634759,0.0-15.0-0.0,36850,List2B,black,woman,,,,null,,,,
null,"<img src=""stim_listB/dance6.gif""style=""height:400px;""></stim_listB>",,html-keyboard-response,129,1636761,0.0-15.0-1.0,36850,List2B,black,woman,,,,null,,,,
null,are dancing with each other,,html-keyboard-response,130,1638777,0.0-15.0-2.0,36850,List2B,black,woman,,,,null,,,,
98861,,,survey-text,131,1737641,0.0-15.0-3.0,36850,List2B,black,woman,,,,,"{""Q0"":""dave and fred are dancing with each other""}","<img src=""stim_listB/dance6.gif""style=""height:400px;""></stim_listB>",are dancing with each other,
null,"<div style=""font-size:60px;"">+</div>",,html-keyboard-response,132,1738157,0.0-15.0-0.1,36850,List2B,black,woman,,,,null,,,,
null,"<img src=""stim_listB/kiss3.gif""style=""height:400px;""></stim_listB>",,html-keyboard-response,133,1740161,0.0-15.0-1.1,36850,List2B,black,woman,,,,null,,,,
null,is kissing,,html-keyboard-response,134,1742177,0.0-15.0-2.1,36850,List2B,black,woman,,,,null,,,,
10366,,,survey-text,135,1752545,0.0-15.0-3.1,36850,List2B,black,woman,,,,,"{""Q0"":""fred is kissing beth""}","<img src=""stim_listB/kiss3.gif""style=""height:400px;""></stim_listB>",is kissing,
null,"<div style=""font-size:60px;"">+</div>",,html-keyboard-response,136,1753057,0.0-15.0-0.2,36850,List2B,black,woman,,,,null,,,,
null,"<img src=""stim_listB/marry1.gif""style=""height:400px;""></stim_listB>",,html-keyboard-response,137,1755060,0.0-15.0-1.2,36850,List2B,black,woman,,,,null,,,,
null,is marrying,,html-keyboard-response,138,1757070,0.0-15.0-2.2,36850,List2B,black,woman,,,,null,,,,
25286,,,survey-text,139,1782357,0.0-15.0-3.2,36850,List2B,black,woman,,,,,"{""Q0"":""dave is marrying ruth""}","<img src=""stim_listB/marry1.gif""style=""height:400px;""></stim_listB>",is marrying,
null,"<div style=""font-size:60px;"">+</div>",,html-keyboard-response,140,1782867,0.0-15.0-0.3,36850,List2B,black,woman,,,,null,,,,
null,"<img src=""stim_listB/marry7.gif""style=""height:400px;""></stim_listB>",,html-keyboard-response,141,1784882,0.0-15.0-1.3,36850,List2B,black,woman,,,,null,,,,
null,is marrying,,html-keyboard-response,142,1786893,0.0-15.0-2.3,36850,List2B,black,woman,,,,null,,,,
14281,,,survey-text,143,1801175,0.0-15.0-3.3,36850,List2B,black,woman,,,,,"{""Q0"":""beth is marrying jane""}","<img src=""stim_listB/marry7.gif""style=""height:400px;""></stim_listB>",is marrying,
null,"<div style=""font-size:60px;"">+</div>",,html-keyboard-response,144,1801693,0.0-15.0-0.4,36850,List2B,black,woman,,,,null,,,,
null,"<img src=""stim_listB/dance5.gif""style=""height:400px;""></stim_listB>",,html-keyboard-response,145,1803695,0.0-15.0-1.4,36850,List2B,black,woman,,,,null,,,,
null,is dancing with,,html-keyboard-response,146,1805700,0.0-15.0-2.4,36850,List2B,black,woman,,,,null,,,,
8340,,,survey-text,147,1814041,0.0-15.0-3.4,36850,List2B,black,woman,,,,,"{""Q0"":""luke is dancing with mike""}","<img src=""stim_listB/dance5.gif""style=""height:400px;""></stim_listB>",is dancing with,
null,"<div style=""font-size:60px;"">+</div>",,html-keyboard-response,148,1814552,0.0-15.0-0.5,36850,List2B,black,woman,,,,null,,,,
null,"<img src=""stim_listB/fight4.gif""style=""height:400px;""></stim_listB>",,html-keyboard-response,149,1816554,0.0-15.0-1.5,36850,List2B,black,woman,,,,null,,,,
null,are fighting each other,,html-keyboard-response,150,1818565,0.0-15.0-2.5,36850,List2B,black,woman,,,,null,,,,
120016,,,survey-text,151,1938582,0.0-15.0-3.5,36850,List2B,black,woman,,,,,"{""Q0"":""beth and fred are fighting each other""}","<img src=""stim_listB/fight4.gif""style=""height:400px;""></stim_listB>",are fighting each other,
null,"<div style=""font-size:60px;"">+</div>",,html-keyboard-response,152,1939092,0.0-15.0-0.6,36850,List2B,black,woman,,,,null,,,,
null,"<img src=""stim_listB/talk4.gif""style=""height:400px;""></stim_listB>",,html-keyboard-response,153,1941095,0.0-15.0-1.6,36850,List2B,black,woman,,,,null,,,,
null,are talking to each other,,html-keyboard-response,154,1943105,0.0-15.0-2.6,36850,List2B,black,woman,,,,null,,,,
11199,,,survey-text,155,1954306,0.0-15.0-3.6,36850,List2B,black,woman,,,,,"{""Q0"":""mike and beth are talking to each other""}","<img src=""stim_listB/talk4.gif""style=""height:400px;""></stim_listB>",are talking to each other,
null,"<div style=""font-size:60px;"">+</div>",,html-keyboard-response,156,1954816,0.0-15.0-0.7,36850,List2B,black,woman,,,,null,,,,
null,"<img src=""stim_listB/flirt1.gif""style=""height:400px;""></stim_listB>",,html-keyboard-response,157,1956818,0.0-15.0-1.7,36850,List2B,black,woman,,,,null,,,,
null,is flirting with,,html-keyboard-response,158,1958834,0.0-15.0-2.7,36850,List2B,black,woman,,,,null,,,,
12459,,,survey-text,159,1971295,0.0-15.0-3.7,36850,List2B,black,woman,,,,,"{""Q0"":""luke is flirting with jane""}","<img src=""stim_listB/flirt1.gif""style=""height:400px;""></stim_listB>",is flirting with,
null,"<div style=""font-size:60px;"">+</div>",,html-keyboard-response,160,1971805,0.0-15.0-0.8,36850,List2B,black,woman,,,,null,,,,
null,"<img src=""stim_listB/talk1.gif""style=""height:400px;""></stim_listB>",,html-keyboard-response,161,1973808,0.0-15.0-1.8,36850,List2B,black,woman,,,,null,,,,
null,is talking to,,html-keyboard-response,162,1975809,0.0-15.0-2.8,36850,List2B,black,woman,,,,null,,,,
9811,,,survey-text,163,1985621,0.0-15.0-3.8,36850,List2B,black,woman,,,,,"{""Q0"":""luke is talking to jane""}","<img src=""stim_listB/talk1.gif""style=""height:400px;""></stim_listB>",is talking to,
null,"<div style=""font-size:60px;"">+</div>",,html-keyboard-response,164,1986128,0.0-15.0-0.9,36850,List2B,black,woman,,,,null,,,,
null,"<img src=""stim_listB/flirt8.gif""style=""height:400px;""></stim_listB>",,html-keyboard-response,165,1988130,0.0-15.0-1.9,36850,List2B,black,woman,,,,null,,,,
null,are flirting with each other,,html-keyboard-response,166,1990132,0.0-15.0-2.9,36850,List2B,black,woman,,,,null,,,,
14979,,,survey-text,167,2005113,0.0-15.0-3.9,36850,List2B,black,woman,,,,,"{""Q0"":""jane and beth are flirting with each other""}","<img src=""stim_listB/flirt8.gif""style=""height:400px;""></stim_listB>",are flirting with each other,
null,"<div style=""font-size:60px;"">+</div>",,html-keyboard-response,168,2005617,0.0-15.0-0.10,36850,List2B,black,woman,,,,null,,,,
null,"<img src=""stim_listB/flirt4.gif""style=""height:400px;""></stim_listB>",,html-keyboard-response,169,2007620,0.0-15.0-1.10,36850,List2B,black,woman,,,,null,,,,
null,are flirting with each other,,html-keyboard-response,170,2009622,0.0-15.0-2.10,36850,List2B,black,woman,,,,null,,,,
10436,,,survey-text,171,2020060,0.0-15.0-3.10,36850,List2B,black,woman,,,,,"{""Q0"":""mike and beth are flirting with each other""}","<img src=""stim_listB/flirt4.gif""style=""height:400px;""></stim_listB>",are flirting with each other,
null,"<div style=""font-size:60px;"">+</div>",,html-keyboard-response,172,2020574,0.0-15.0-0.11,36850,List2B,black,woman,,,,null,,,,
null,"<img src=""stim_listB/flirt3.gif""style=""height:400px;""></stim_listB>",,html-keyboard-response,173,2022577,0.0-15.0-1.11,36850,List2B,black,woman,,,,null,,,,
null,is flirting with,,html-keyboard-response,174,2024591,0.0-15.0-2.11,36850,List2B,black,woman,,,,null,,,,
13410,,,survey-text,175,2038003,0.0-15.0-3.11,36850,List2B,black,woman,,,,,"{""Q0"":""kate is talking to fred""}","<img src=""stim_listB/flirt3.gif""style=""height:400px;""></stim_listB>",is flirting with,
null,"<div style=""font-size:60px;"">+</div>",,html-keyboard-response,176,2038506,0.0-15.0-0.12,36850,List2B,black,woman,,,,null,,,,
null,"<img src=""stim_listB/fight3.gif""style=""height:400px;""></stim_listB>",,html-keyboard-response,177,2040508,0.0-15.0-1.12,36850,List2B,black,woman,,,,null,,,,
null,is fighting,,html-keyboard-response,178,2042520,0.0-15.0-2.12,36850,List2B,black,woman,,,,null,,,,
9329,,,survey-text,179,2051852,0.0-15.0-3.12,36850,List2B,black,woman,,,,,"{""Q0"":""kate is fighting mike""}","<img src=""stim_listB/fight3.gif""style=""height:400px;""></stim_listB>",is fighting,
null,"<div style=""font-size:60px;"">+</div>",,html-keyboard-response,180,2052360,0.0-15.0-0.13,36850,List2B,black,woman,,,,null,,,,
null,"<img src=""stim_listB/touch1.gif""style=""height:400px;""></stim_listB>",,html-keyboard-response,181,2054363,0.0-15.0-1.13,36850,List2B,black,woman,,,,null,,,,
null,is touching,,html-keyboard-response,182,2056368,0.0-15.0-2.13,36850,List2B,black,woman,,,,null,,,,
52919,,,survey-text,183,2109289,0.0-15.0-3.13,36850,List2B,black,woman,,,,,"{""Q0"":""dave is touching jane""}","<img src=""stim_listB/touch1.gif""style=""height:400px;""></stim_listB>",is touching,
null,"<div style=""font-size:60px;"">+</div>",,html-keyboard-response,184,2109800,0.0-15.0-0.14,36850,List2B,black,woman,,,,null,,,,
null,"<img src=""stim_listB/flirt7.gif""style=""height:400px;""></stim_listB>",,html-keyboard-response,185,2111803,0.0-15.0-1.14,36850,List2B,black,woman,,,,null,,,,
null,is flirting with,,html-keyboard-response,186,2113806,0.0-15.0-2.14,36850,List2B,black,woman,,,,null,,,,
9594,,,survey-text,187,2123401,0.0-15.0-3.14,36850,List2B,black,woman,,,,,"{""Q0"":""ruth is flirting with kate""}","<img src=""stim_listB/flirt7.gif""style=""height:400px;""></stim_listB>",is flirting with,
null,"<div style=""font-size:60px;"">+</div>",,html-keyboard-response,188,2123913,0.0-15.0-0.15,36850,List2B,black,woman,,,,null,,,,
null,"<img src=""stim_listB/play2.gif""style=""height:400px;""></stim_listB>",,html-keyboard-response,189,2125916,0.0-15.0-1.15,36850,List2B,black,woman,,,,null,,,,
null,are playing with each other,,html-keyboard-response,190,2127925,0.0-15.0-2.15,36850,List2B,black,woman,,,,null,,,,
12181,,,survey-text,191,2140106,0.0-15.0-3.15,36850,List2B,black,woman,,,,,"{""Q0"":""luke and ruth are playing with each other""}","<img src=""stim_listB/play2.gif""style=""height:400px;""></stim_listB>",are playing with each other,
null,"<div style=""font-size:60px;"">+</div>",,html-keyboard-response,192,2140618,0.0-15.0-0.16,36850,List2B,black,woman,,,,null,,,,
null,"<img src=""stim_listB/fight5.gif""style=""height:400px;""></stim_listB>",,html-keyboard-response,193,2142620,0.0-15.0-1.16,36850,List2B,black,woman,,,,null,,,,
null,is fighting,,html-keyboard-response,194,2144628,0.0-15.0-2.16,36850,List2B,black,woman,,,,null,,,,
7933,,,survey-text,195,2152563,0.0-15.0-3.16,36850,List2B,black,woman,,,,,"{""Q0"":""dave is fighting mike""}","<img src=""stim_listB/fight5.gif""style=""height:400px;""></stim_listB>",is fighting,
null,"<div style=""font-size:60px;"">+</div>",,html-keyboard-response,196,2153074,0.0-15.0-0.17,36850,List2B,black,woman,,,,null,,,,
null,"<img src=""stim_listB/talk3.gif""style=""height:400px;""></stim_listB>",,html-keyboard-response,197,2155077,0.0-15.0-1.17,36850,List2B,black,woman,,,,null,,,,
null,is talking to,,html-keyboard-response,198,2157086,0.0-15.0-2.17,36850,List2B,black,woman,,,,null,,,,
14401,,,survey-text,199,2171489,0.0-15.0-3.17,36850,List2B,black,woman,,,,,"{""Q0"":""beth is talking to fred""}","<img src=""stim_listB/talk3.gif""style=""height:400px;""></stim_listB>",is talking to,
null,"<div style=""font-size:60px;"">+</div>",,html-keyboard-response,200,2172000,0.0-15.0-0.18,36850,List2B,black,woman,,,,null,,,,
null,"<img src=""stim_listB/shout3.gif""style=""height:400px;""></stim_listB>",,html-keyboard-response,201,2174004,0.0-15.0-1.18,36850,List2B,black,woman,,,,null,,,,
null,is shouting at,,html-keyboard-response,202,2176008,0.0-15.0-2.18,36850,List2B,black,woman,,,,null,,,,
10667,,,survey-text,203,2186676,0.0-15.0-3.18,36850,List2B,black,woman,,,,,"{""Q0"":""beth is shouting at fred""}","<img src=""stim_listB/shout3.gif""style=""height:400px;""></stim_listB>",is shouting at,
null,"<div style=""font-size:60px;"">+</div>",,html-keyboard-response,204,2187186,0.0-15.0-0.19,36850,List2B,black,woman,,,,null,,,,
null,"<img src=""stim_listB/touch6.gif""style=""height:400px;""></stim_listB>",,html-keyboard-response,205,2189190,0.0-15.0-1.19,36850,List2B,black,woman,,,,null,,,,
null,are touching each other,,html-keyboard-response,206,2191204,0.0-15.0-2.19,36850,List2B,black,woman,,,,null,,,,
14779,,,survey-text,207,2205983,0.0-15.0-3.19,36850,List2B,black,woman,,,,,"{""Q0"":""luke and mike are touching each other""}","<img src=""stim_listB/touch6.gif""style=""height:400px;""></stim_listB>",are touching each other,
6820,"<img src='img/portrait_matrix_list2.jpg' style='width:900px;height:500px;''></img><p>If you have memorised all the portraits and names and are ready to start, press Continue.</p><p><strong>Please note: Your memory of these faces will be tested 4 times during this experiment.</strong></p>",0,html-button-response,208,2212805,0.0-16.0-0.0,36850,List2B,black,woman,,,,,,,,
2055,"<img src=""portrait/BM1.jpg""style=""height:400px;""></img>",4,html-button-response,209,2215870,0.0-16.0-1.0,36850,List2B,black,woman,,TRUE,4,,,,,
null,CORRECT,,html-keyboard-response,210,2217382,0.0-16.0-2.0-0.0,36850,List2B,black,woman,,,,null,,,,
2540,"<img src=""portrait/BW1.jpg""style=""height:400px;""></img>",0,html-button-response,211,2219924,0.0-16.0-4.0,36850,List2B,black,woman,,TRUE,0,,,,,
null,CORRECT,,html-keyboard-response,212,2221437,0.0-16.0-5.0-0.0,36850,List2B,black,woman,,,,null,,,,
2064,"<img src=""portrait/WW1.jpg""style=""height:400px;""></img>",1,html-button-response,213,2223502,0.0-16.0-7.0,36850,List2B,black,woman,,TRUE,1,,,,,
null,CORRECT,,html-keyboard-response,214,2225034,0.0-16.0-8.0-0.0,36850,List2B,black,woman,,,,null,,,,
2322,"<img src=""portrait/WM1.jpg""style=""height:400px;""></img>",6,html-button-response,215,2227360,0.0-16.0-10.0,36850,List2B,black,woman,,TRUE,6,,,,,
null,CORRECT,,html-keyboard-response,216,2228888,0.0-16.0-11.0-0.0,36850,List2B,black,woman,,,,null,,,,
2372,"<img src=""portrait/WW2.jpg""style=""height:400px;""></img>",3,html-button-response,217,2231262,0.0-16.0-13.0,36850,List2B,black,woman,,TRUE,3,,,,,
null,CORRECT,,html-keyboard-response,218,2232792,0.0-16.0-14.0-0.0,36850,List2B,black,woman,,,,null,,,,
3150,"<img src=""portrait/BW2.jpg""style=""height:400px;""></img>",2,html-button-response,219,2235946,0.0-16.0-16.0,36850,List2B,black,woman,,TRUE,2,,,,,
null,CORRECT,,html-keyboard-response,220,2237458,0.0-16.0-17.0-0.0,36850,List2B,black,woman,,,,null,,,,
2292,"<img src=""portrait/WM2.jpg""style=""height:400px;""></img>",7,html-button-response,221,2239754,0.0-16.0-19.0,36850,List2B,black,woman,,TRUE,7,,,,,
null,CORRECT,,html-keyboard-response,222,2241273,0.0-16.0-20.0-0.0,36850,List2B,black,woman,,,,null,,,,
2240,"<img src=""portrait/BM2.jpg""style=""height:400px;""></img>",5,html-button-response,223,2243515,0.0-16.0-22.0,36850,List2B,black,woman,,TRUE,5,,,,,
null,CORRECT,,html-keyboard-response,224,2245027,0.0-16.0-23.0-0.0,36850,List2B,black,woman,,,,null,,,,
2238,<p>You got 8 out of 8 right first time. Press Continue.</p>,0,html-button-response,225,2247268,0.0-16.0-25.0,36850,List2B,black,woman,,,,,,,,
null,"<div style=""font-size:60px;"">+</div>",,html-keyboard-response,226,2248780,0.0-17.0-0.0,36850,List2B,black,woman,,,,null,,,,
null,"<img src=""stim_listB/argue1.gif""style=""height:400px;""></stim_listB>",,html-keyboard-response,227,2250783,0.0-17.0-1.0,36850,List2B,black,woman,,,,null,,,,
null,is arguing with,,html-keyboard-response,228,2252796,0.0-17.0-2.0,36850,List2B,black,woman,,,,null,,,,
89358,,,survey-text,229,2342156,0.0-17.0-3.0,36850,List2B,black,woman,,,,,"{""Q0"":""ruth is arguing with dave""}","<img src=""stim_listB/argue1.gif""style=""height:400px;""></stim_listB>",is arguing with,
null,"<div style=""font-size:60px;"">+</div>",,html-keyboard-response,230,2342666,0.0-17.0-0.1,36850,List2B,black,woman,,,,null,,,,
null,"<img src=""stim_listB/fight6.gif""style=""height:400px;""></stim_listB>",,html-keyboard-response,231,2344668,0.0-17.0-1.1,36850,List2B,black,woman,,,,null,,,,
null,are fighting each other,,html-keyboard-response,232,2346671,0.0-17.0-2.1,36850,List2B,black,woman,,,,null,,,,
14952,,,survey-text,233,2361625,0.0-17.0-3.1,36850,List2B,black,woman,,,,,"{""Q0"":""fred and luke are fighting each other""}","<img src=""stim_listB/fight6.gif""style=""height:400px;""></stim_listB>",are fighting each other,
null,"<div style=""font-size:60px;"">+</div>",,html-keyboard-response,234,2362136,0.0-17.0-0.2,36850,List2B,black,woman,,,,null,,,,
null,"<img src=""stim_listB/dance3.gif""style=""height:400px;""></stim_listB>",,html-keyboard-response,235,2364138,0.0-17.0-1.2,36850,List2B,black,woman,,,,null,,,,
null,is dancing with,,html-keyboard-response,236,2366146,0.0-17.0-2.2,36850,List2B,black,woman,,,,null,,,,
11930,,,survey-text,237,2378078,0.0-17.0-3.2,36850,List2B,black,woman,,,,,"{""Q0"":""kate is dancing with fred""}","<img src=""stim_listB/dance3.gif""style=""height:400px;""></stim_listB>",is dancing with,
null,"<div style=""font-size:60px;"">+</div>",,html-keyboard-response,238,2378589,0.0-17.0-0.3,36850,List2B,black,woman,,,,null,,,,
null,"<img src=""stim_listB/talk2.gif""style=""height:400px;""></stim_listB>",,html-keyboard-response,239,2380593,0.0-17.0-1.3,36850,List2B,black,woman,,,,null,,,,
null,are talking to each other,,html-keyboard-response,240,2382604,0.0-17.0-2.3,36850,List2B,black,woman,,,,null,,,,
8629,,,survey-text,241,2391235,0.0-17.0-3.3,36850,List2B,black,woman,,,,,"{""Q0"":""dave and ruth are talking to each other""}","<img src=""stim_listB/talk2.gif""style=""height:400px;""></stim_listB>",are talking to each other,
null,"<div style=""font-size:60px;"">+</div>",,html-keyboard-response,242,2391747,0.0-17.0-0.4,36850,List2B,black,woman,,,,null,,,,
null,"<img src=""stim_listB/argue3.gif""style=""height:400px;""></stim_listB>",,html-keyboard-response,243,2393751,0.0-17.0-1.4,36850,List2B,black,woman,,,,null,,,,
null,is arguing with,,html-keyboard-response,244,2395753,0.0-17.0-2.4,36850,List2B,black,woman,,,,null,,,,
7906,,,survey-text,245,2403660,0.0-17.0-3.4,36850,List2B,black,woman,,,,,"{""Q0"":""mike is arguing with beth""}","<img src=""stim_listB/argue3.gif""style=""height:400px;""></stim_listB>",is arguing with,
null,"<div style=""font-size:60px;"">+</div>",,html-keyboard-response,246,2404162,0.0-17.0-0.5,36850,List2B,black,woman,,,,null,,,,
null,"<img src=""stim_listB/talk8.gif""style=""height:400px;""></stim_listB>",,html-keyboard-response,247,2406164,0.0-17.0-1.5,36850,List2B,black,woman,,,,null,,,,
null,are talking to each other,,html-keyboard-response,248,2408182,0.0-17.0-2.5,36850,List2B,black,woman,,,,null,,,,
9317,,,survey-text,249,2417500,0.0-17.0-3.5,36850,List2B,black,woman,,,,,"{""Q0"":""beth and jane are talking to each other""}","<img src=""stim_listB/talk8.gif""style=""height:400px;""></stim_listB>",are talking to each other,
null,"<div style=""font-size:60px;"">+</div>",,html-keyboard-response,250,2418010,0.0-17.0-0.6,36850,List2B,black,woman,,,,null,,,,
null,"<img src=""stim_listB/play3.gif""style=""height:400px;""></stim_listB>",,html-keyboard-response,251,2420013,0.0-17.0-1.6,36850,List2B,black,woman,,,,null,,,,
null,is playing with,,html-keyboard-response,252,2422015,0.0-17.0-2.6,36850,List2B,black,woman,,,,null,,,,
8669,,,survey-text,253,2430686,0.0-17.0-3.6,36850,List2B,black,woman,,,,,"{""Q0"":""jane is playing with mike""}","<img src=""stim_listB/play3.gif""style=""height:400px;""></stim_listB>",is playing with,
null,"<div style=""font-size:60px;"">+</div>",,html-keyboard-response,254,2431198,0.0-17.0-0.7,36850,List2B,black,woman,,,,null,,,,
null,"<img src=""stim_listB/fight2.gif""style=""height:400px;""></stim_listB>",,html-keyboard-response,255,2433201,0.0-17.0-1.7,36850,List2B,black,woman,,,,null,,,,
null,are fighting each other,,html-keyboard-response,256,2435214,0.0-17.0-2.7,36850,List2B,black,woman,,,,null,,,,
11714,,,survey-text,257,2446930,0.0-17.0-3.7,36850,List2B,black,woman,,,,,"{""Q0"":""ruth and luke are fighting each other""}","<img src=""stim_listB/fight2.gif""style=""height:400px;""></stim_listB>",are fighting each other,
null,"<div style=""font-size:60px;"">+</div>",,html-keyboard-response,258,2447439,0.0-17.0-0.8,36850,List2B,black,woman,,,,null,,,,
null,"<img src=""stim_listB/touch7.gif""style=""height:400px;""></stim_listB>",,html-keyboard-response,259,2449440,0.0-17.0-1.8,36850,List2B,black,woman,,,,null,,,,
null,is touching,,html-keyboard-response,260,2451453,0.0-17.0-2.8,36850,List2B,black,woman,,,,null,,,,
6049,,,survey-text,261,2457504,0.0-17.0-3.8,36850,List2B,black,woman,,,,,"{""Q0"":""jane is touching beth""}","<img src=""stim_listB/touch7.gif""style=""height:400px;""></stim_listB>",is touching,
null,"<div style=""font-size:60px;"">+</div>",,html-keyboard-response,262,2458011,0.0-17.0-0.9,36850,List2B,black,woman,,,,null,,,,
null,"<img src=""stim_listB/marry5.gif""style=""height:400px;""></stim_listB>",,html-keyboard-response,263,2460015,0.0-17.0-1.9,36850,List2B,black,woman,,,,null,,,,
null,is marrying,,html-keyboard-response,264,2462020,0.0-17.0-2.9,36850,List2B,black,woman,,,,null,,,,
17060,,,survey-text,265,2479083,0.0-17.0-3.9,36850,List2B,black,woman,,,,,"{""Q0"":""luke is fighting dave""}","<img src=""stim_listB/marry5.gif""style=""height:400px;""></stim_listB>",is marrying,
null,"<div style=""font-size:60px;"">+</div>",,html-keyboard-response,266,2479593,0.0-17.0-0.10,36850,List2B,black,woman,,,,null,,,,
null,"<img src=""stim_listB/play5.gif""style=""height:400px;""></stim_listB>",,html-keyboard-response,267,2481596,0.0-17.0-1.10,36850,List2B,black,woman,,,,null,,,,
null,is playing with,,html-keyboard-response,268,2483599,0.0-17.0-2.10,36850,List2B,black,woman,,,,null,,,,
7601,,,survey-text,269,2491201,0.0-17.0-3.10,36850,List2B,black,woman,,,,,"{""Q0"":""dave is playing with mike""}","<img src=""stim_listB/play5.gif""style=""height:400px;""></stim_listB>",is playing with,
null,"<div style=""font-size:60px;"">+</div>",,html-keyboard-response,270,2491716,0.0-17.0-0.11,36850,List2B,black,woman,,,,null,,,,
null,"<img src=""stim_listB/kiss7.gif""style=""height:400px;""></stim_listB>",,html-keyboard-response,271,2493720,0.0-17.0-1.11,36850,List2B,black,woman,,,,null,,,,
null,is kissing,,html-keyboard-response,272,2495729,0.0-17.0-2.11,36850,List2B,black,woman,,,,null,,,,
6712,,,survey-text,273,2502443,0.0-17.0-3.11,36850,List2B,black,woman,,,,,"{""Q0"":""ruth is kissing beth""}","<img src=""stim_listB/kiss7.gif""style=""height:400px;""></stim_listB>",is kissing,
null,"<div style=""font-size:60px;"">+</div>",,html-keyboard-response,274,2502951,0.0-17.0-0.12,36850,List2B,black,woman,,,,null,,,,
null,"<img src=""stim_listB/flirt2.gif""style=""height:400px;""></stim_listB>",,html-keyboard-response,275,2504954,0.0-17.0-1.12,36850,List2B,black,woman,,,,null,,,,
null,are flirting with each other,,html-keyboard-response,276,2506956,0.0-17.0-2.12,36850,List2B,black,woman,,,,null,,,,
15259,,,survey-text,277,2522217,0.0-17.0-3.12,36850,List2B,black,woman,,,,,"{""Q0"":""ruth and dave are flirting with each other""}","<img src=""stim_listB/flirt2.gif""style=""height:400px;""></stim_listB>",are flirting with each other,
null,"<div style=""font-size:60px;"">+</div>",,html-keyboard-response,278,2522726,0.0-17.0-0.13,36850,List2B,black,woman,,,,null,,,,
null,"<img src=""stim_listB/shout2.gif""style=""height:400px;""></stim_listB>",,html-keyboard-response,279,2524729,0.0-17.0-1.13,36850,List2B,black,woman,,,,null,,,,
null,are shouting at each other,,html-keyboard-response,280,2526744,0.0-17.0-2.13,36850,List2B,black,woman,,,,null,,,,
9479,,,survey-text,281,2536225,0.0-17.0-3.13,36850,List2B,black,woman,,,,,"{""Q0"":""jane and dave are shouting at each other""}","<img src=""stim_listB/shout2.gif""style=""height:400px;""></stim_listB>",are shouting at each other,
null,"<div style=""font-size:60px;"">+</div>",,html-keyboard-response,282,2536735,0.0-17.0-0.14,36850,List2B,black,woman,,,,null,,,,
null,"<img src=""stim_listB/argue8.gif""style=""height:400px;""></stim_listB>",,html-keyboard-response,283,2538737,0.0-17.0-1.14,36850,List2B,black,woman,,,,null,,,,
null,are arguing with each other,,html-keyboard-response,284,2540741,0.0-17.0-2.14,36850,List2B,black,woman,,,,null,,,,
11857,,,survey-text,285,2552599,0.0-17.0-3.14,36850,List2B,black,woman,,,,,"{""Q0"":""jane and ruth are arguing with each other""}","<img src=""stim_listB/argue8.gif""style=""height:400px;""></stim_listB>",are arguing with each other,
null,"<div style=""font-size:60px;"">+</div>",,html-keyboard-response,286,2553109,0.0-17.0-0.15,36850,List2B,black,woman,,,,null,,,,
null,"<img src=""stim_listB/play7.gif""style=""height:400px;""></stim_listB>",,html-keyboard-response,287,2555112,0.0-17.0-1.15,36850,List2B,black,woman,,,,null,,,,
null,is playing with,,html-keyboard-response,288,2557120,0.0-17.0-2.15,36850,List2B,black,woman,,,,null,,,,
9091,,,survey-text,289,2566212,0.0-17.0-3.15,36850,List2B,black,woman,,,,,"{""Q0"":""jane is playing with kate""}","<img src=""stim_listB/play7.gif""style=""height:400px;""></stim_listB>",is playing with,
null,"<div style=""font-size:60px;"">+</div>",,html-keyboard-response,290,2566719,0.0-17.0-0.16,36850,List2B,black,woman,,,,null,,,,
null,"<img src=""stim_listB/flirt6.gif""style=""height:400px;""></stim_listB>",,html-keyboard-response,291,2568720,0.0-17.0-1.16,36850,List2B,black,woman,,,,null,,,,
null,are flirting with each other,,html-keyboard-response,292,2570735,0.0-17.0-2.16,36850,List2B,black,woman,,,,null,,,,
10089,,,survey-text,293,2580825,0.0-17.0-3.16,36850,List2B,black,woman,,,,,"{""Q0"":""dave and fred are flirting with each other""}","<img src=""stim_listB/flirt6.gif""style=""height:400px;""></stim_listB>",are flirting with each other,
null,"<div style=""font-size:60px;"">+</div>",,html-keyboard-response,294,2581335,0.0-17.0-0.17,36850,List2B,black,woman,,,,null,,,,
null,"<img src=""stim_listB/dance4.gif""style=""height:400px;""></stim_listB>",,html-keyboard-response,295,2583339,0.0-17.0-1.17,36850,List2B,black,woman,,,,null,,,,
null,are dancing with each other,,html-keyboard-response,296,2585349,0.0-17.0-2.17,36850,List2B,black,woman,,,,null,,,,
10462,,,survey-text,297,2595814,0.0-17.0-3.17,36850,List2B,black,woman,,,,,"{""Q0"":""beth and mike are dancing with each other""}","<img src=""stim_listB/dance4.gif""style=""height:400px;""></stim_listB>",are dancing with each other,
null,"<div style=""font-size:60px;"">+</div>",,html-keyboard-response,298,2596323,0.0-17.0-0.18,36850,List2B,black,woman,,,,null,,,,
null,"<img src=""stim_listB/argue5.gif""style=""height:400px;""></stim_listB>",,html-keyboard-response,299,2598327,0.0-17.0-1.18,36850,List2B,black,woman,,,,null,,,,
null,is arguing with,,html-keyboard-response,300,2600331,0.0-17.0-2.18,36850,List2B,black,woman,,,,null,,,,
7303,,,survey-text,301,2607636,0.0-17.0-3.18,36850,List2B,black,woman,,,,,"{""Q0"":""dave is arguing with fred""}","<img src=""stim_listB/argue5.gif""style=""height:400px;""></stim_listB>",is arguing with,
null,"<div style=""font-size:60px;"">+</div>",,html-keyboard-response,302,2608145,0.0-17.0-0.19,36850,List2B,black,woman,,,,null,,,,
null,"<img src=""stim_listB/shout4.gif""style=""height:400px;""></stim_listB>",,html-keyboard-response,303,2610148,0.0-17.0-1.19,36850,List2B,black,woman,,,,null,,,,
null,are shouting at each other,,html-keyboard-response,304,2612158,0.0-17.0-2.19,36850,List2B,black,woman,,,,null,,,,
12213,,,survey-text,305,2624373,0.0-17.0-3.19,36850,List2B,black,woman,,,,,"{""Q0"":""kate and mike are shouting at each other""}","<img src=""stim_listB/shout4.gif""style=""height:400px;""></stim_listB>",are shouting at each other,
2417,"<img src='img/portrait_matrix_list2.jpg' style='width:900px;height:500px;''></img><p>If you have memorised all the portraits and names and are ready to start, press Continue.</p><p><strong>Please note: Your memory of these faces will be tested 4 times during this experiment.</strong></p>",0,html-button-response,306,2626793,0.0-18.0-0.0,36850,List2B,black,woman,,,,,,,,
1985,"<img src=""portrait/WW1.jpg""style=""height:400px;""></img>",1,html-button-response,307,2629796,0.0-18.0-1.0,36850,List2B,black,woman,,TRUE,1,,,,,
null,CORRECT,,html-keyboard-response,308,2631306,0.0-18.0-2.0-0.0,36850,List2B,black,woman,,,,null,,,,
3822,"<img src=""portrait/BM1.jpg""style=""height:400px;""></img>",4,html-button-response,309,2635130,0.0-18.0-4.0,36850,List2B,black,woman,,TRUE,4,,,,,
null,CORRECT,,html-keyboard-response,310,2636637,0.0-18.0-5.0-0.0,36850,List2B,black,woman,,,,null,,,,
2342,"<img src=""portrait/WM2.jpg""style=""height:400px;""></img>",7,html-button-response,311,2638983,0.0-18.0-7.0,36850,List2B,black,woman,,TRUE,7,,,,,
null,CORRECT,,html-keyboard-response,312,2640492,0.0-18.0-8.0-0.0,36850,List2B,black,woman,,,,null,,,,
1885,"<img src=""portrait/WW2.jpg""style=""height:400px;""></img>",3,html-button-response,313,2642380,0.0-18.0-10.0,36850,List2B,black,woman,,TRUE,3,,,,,
null,CORRECT,,html-keyboard-response,314,2643892,0.0-18.0-11.0-0.0,36850,List2B,black,woman,,,,null,,,,
3152,"<img src=""portrait/BW1.jpg""style=""height:400px;""></img>",0,html-button-response,315,2647050,0.0-18.0-13.0,36850,List2B,black,woman,,TRUE,0,,,,,
null,CORRECT,,html-keyboard-response,316,2648569,0.0-18.0-14.0-0.0,36850,List2B,black,woman,,,,null,,,,
1946,"<img src=""portrait/BW2.jpg""style=""height:400px;""></img>",2,html-button-response,317,2650519,0.0-18.0-16.0,36850,List2B,black,woman,,TRUE,2,,,,,
null,CORRECT,,html-keyboard-response,318,2652044,0.0-18.0-17.0-0.0,36850,List2B,black,woman,,,,null,,,,
2509,"<img src=""portrait/WM1.jpg""style=""height:400px;""></img>",6,html-button-response,319,2654556,0.0-18.0-19.0,36850,List2B,black,woman,,TRUE,6,,,,,
null,CORRECT,,html-keyboard-response,320,2656062,0.0-18.0-20.0-0.0,36850,List2B,black,woman,,,,null,,,,
1726,"<img src=""portrait/BM2.jpg""style=""height:400px;""></img>",5,html-button-response,321,2657792,0.0-18.0-22.0,36850,List2B,black,woman,,TRUE,5,,,,,
null,CORRECT,,html-keyboard-response,322,2659317,0.0-18.0-23.0-0.0,36850,List2B,black,woman,,,,null,,,,
2874,<p>You got 8 out of 8 right first time. Press Continue.</p>,0,html-button-response,323,2662193,0.0-18.0-25.0,36850,List2B,black,woman,,,,,,,,
null,"<div style=""font-size:60px;"">+</div>",,html-keyboard-response,324,2663717,0.0-19.0-0.0,36850,List2B,black,woman,,,,null,,,,
null,"<img src=""stim_listB/marry6.gif""style=""height:400px;""></stim_listB>",,html-keyboard-response,325,2665720,0.0-19.0-1.0,36850,List2B,black,woman,,,,null,,,,
null,are marrying each other,,html-keyboard-response,326,2667735,0.0-19.0-2.0,36850,List2B,black,woman,,,,null,,,,
10948,,,survey-text,327,2678685,0.0-19.0-3.0,36850,List2B,black,woman,,,,,"{""Q0"":""luke and mike are marrying each other""}","<img src=""stim_listB/marry6.gif""style=""height:400px;""></stim_listB>",are marrying each other,
null,"<div style=""font-size:60px;"">+</div>",,html-keyboard-response,328,2679190,0.0-19.0-0.1,36850,List2B,black,woman,,,,null,,,,
null,"<img src=""stim_listB/marry3.gif""style=""height:400px;""></stim_listB>",,html-keyboard-response,329,2681194,0.0-19.0-1.1,36850,List2B,black,woman,,,,null,,,,
null,is marrying,,html-keyboard-response,330,2683195,0.0-19.0-2.1,36850,List2B,black,woman,,,,null,,,,
7906,,,survey-text,331,2691103,0.0-19.0-3.1,36850,List2B,black,woman,,,,,"{""Q0"":""luke is marrying beth""}","<img src=""stim_listB/marry3.gif""style=""height:400px;""></stim_listB>",is marrying,
null,"<div style=""font-size:60px;"">+</div>",,html-keyboard-response,332,2691606,0.0-19.0-0.2,36850,List2B,black,woman,,,,null,,,,
null,"<img src=""stim_listB/kiss2.gif""style=""height:400px;""></stim_listB>",,html-keyboard-response,333,2693610,0.0-19.0-1.2,36850,List2B,black,woman,,,,null,,,,
null,are kissing each other,,html-keyboard-response,334,2695613,0.0-19.0-2.2,36850,List2B,black,woman,,,,null,,,,
11577,,,survey-text,335,2707192,0.0-19.0-3.2,36850,List2B,black,woman,,,,,"{""Q0"":""jane and dave are kissing each other""}","<img src=""stim_listB/kiss2.gif""style=""height:400px;""></stim_listB>",are kissing each other,
null,"<div style=""font-size:60px;"">+</div>",,html-keyboard-response,336,2707696,0.0-19.0-0.3,36850,List2B,black,woman,,,,null,,,,
null,"<img src=""stim_listB/argue6.gif""style=""height:400px;""></stim_listB>",,html-keyboard-response,337,2709699,0.0-19.0-1.3,36850,List2B,black,woman,,,,null,,,,
null,are arguing with each other,,html-keyboard-response,338,2711700,0.0-19.0-2.3,36850,List2B,black,woman,,,,null,,,,
12062,,,survey-text,339,2723763,0.0-19.0-3.3,36850,List2B,black,woman,,,,,"{""Q0"":""luke and mike are arguing with each other""}","<img src=""stim_listB/argue6.gif""style=""height:400px;""></stim_listB>",are arguing with each other,
null,"<div style=""font-size:60px;"">+</div>",,html-keyboard-response,340,2724274,0.0-19.0-0.4,36850,List2B,black,woman,,,,null,,,,
null,"<img src=""stim_listB/argue7.gif""style=""height:400px;""></stim_listB>",,html-keyboard-response,341,2726278,0.0-19.0-1.4,36850,List2B,black,woman,,,,null,,,,
null,is arguing with,,html-keyboard-response,342,2728281,0.0-19.0-2.4,36850,List2B,black,woman,,,,null,,,,
10022,,,survey-text,343,2738305,0.0-19.0-3.4,36850,List2B,black,woman,,,,,"{""Q0"":""jane is arguing with beth""}","<img src=""stim_listB/argue7.gif""style=""height:400px;""></stim_listB>",is arguing with,
null,"<div style=""font-size:60px;"">+</div>",,html-keyboard-response,344,2738808,0.0-19.0-0.5,36850,List2B,black,woman,,,,null,,,,
null,"<img src=""stim_listB/shout8.gif""style=""height:400px;""></stim_listB>",,html-keyboard-response,345,2740811,0.0-19.0-1.5,36850,List2B,black,woman,,,,null,,,,
null,are shouting at each other,,html-keyboard-response,346,2742814,0.0-19.0-2.5,36850,List2B,black,woman,,,,null,,,,
10081,,,survey-text,347,2752897,0.0-19.0-3.5,36850,List2B,black,woman,,,,,"{""Q0"":""kate and jane are shouting at each other""}","<img src=""stim_listB/shout8.gif""style=""height:400px;""></stim_listB>",are shouting at each other,
null,"<div style=""font-size:60px;"">+</div>",,html-keyboard-response,348,2753404,0.0-19.0-0.6,36850,List2B,black,woman,,,,null,,,,
null,"<img src=""stim_listB/kiss4.gif""style=""height:400px;""></stim_listB>",,html-keyboard-response,349,2755407,0.0-19.0-1.6,36850,List2B,black,woman,,,,null,,,,
null,are kissing each other,,html-keyboard-response,350,2757418,0.0-19.0-2.6,36850,List2B,black,woman,,,,null,,,,
10379,,,survey-text,351,2767799,0.0-19.0-3.6,36850,List2B,black,woman,,,,,"{""Q0"":""mike and kate are kissing each other""}","<img src=""stim_listB/kiss4.gif""style=""height:400px;""></stim_listB>",are kissing each other,
null,"<div style=""font-size:60px;"">+</div>",,html-keyboard-response,352,2768302,0.0-19.0-0.7,36850,List2B,black,woman,,,,null,,,,
null,"<img src=""stim_listB/kiss1.gif""style=""height:400px;""></stim_listB>",,html-keyboard-response,353,2770309,0.0-19.0-1.7,36850,List2B,black,woman,,,,null,,,,
null,is kissing,,html-keyboard-response,354,2772311,0.0-19.0-2.7,36850,List2B,black,woman,,,,null,,,,
7720,,,survey-text,355,2780033,0.0-19.0-3.7,36850,List2B,black,woman,,,,,"{""Q0"":""luke is kissing ruth""}","<img src=""stim_listB/kiss1.gif""style=""height:400px;""></stim_listB>",is kissing,
null,"<div style=""font-size:60px;"">+</div>",,html-keyboard-response,356,2780542,0.0-19.0-0.8,36850,List2B,black,woman,,,,null,,,,
null,"<img src=""stim_listB/dance2.gif""style=""height:400px;""></stim_listB>",,html-keyboard-response,357,2782545,0.0-19.0-1.8,36850,List2B,black,woman,,,,null,,,,
null,are dancing with each other,,html-keyboard-response,358,2784557,0.0-19.0-2.8,36850,List2B,black,woman,,,,null,,,,
19319,,,survey-text,359,2803878,0.0-19.0-3.8,36850,List2B,black,woman,,,,,"{""Q0"":""ruth and dave are dancing with each other""}","<img src=""stim_listB/dance2.gif""style=""height:400px;""></stim_listB>",are dancing with each other,
null,"<div style=""font-size:60px;"">+</div>",,html-keyboard-response,360,2804384,0.0-19.0-0.9,36850,List2B,black,woman,,,,null,,,,
null,"<img src=""stim_listB/fight1.gif""style=""height:400px;""></stim_listB>",,html-keyboard-response,361,2806386,0.0-19.0-1.9,36850,List2B,black,woman,,,,null,,,,
null,is fighting,,html-keyboard-response,362,2808396,0.0-19.0-2.9,36850,List2B,black,woman,,,,null,,,,
8272,,,survey-text,363,2816670,0.0-19.0-3.9,36850,List2B,black,woman,,,,,"{""Q0"":""jane is fighting dave""}","<img src=""stim_listB/fight1.gif""style=""height:400px;""></stim_listB>",is fighting,
null,"<div style=""font-size:60px;"">+</div>",,html-keyboard-response,364,2817175,0.0-19.0-0.10,36850,List2B,black,woman,,,,null,,,,
null,"<img src=""stim_listB/touch5.gif""style=""height:400px;""></stim_listB>",,html-keyboard-response,365,2819180,0.0-19.0-1.10,36850,List2B,black,woman,,,,null,,,,
null,is touching,,html-keyboard-response,366,2821195,0.0-19.0-2.10,36850,List2B,black,woman,,,,null,,,,
5722,,,survey-text,367,2826919,0.0-19.0-3.10,36850,List2B,black,woman,,,,,"{""Q0"":""dave is touching mike""}","<img src=""stim_listB/touch5.gif""style=""height:400px;""></stim_listB>",is touching,
null,"<div style=""font-size:60px;"">+</div>",,html-keyboard-response,368,2827430,0.0-19.0-0.11,36850,List2B,black,woman,,,,null,,,,
null,"<img src=""stim_listB/marry2.gif""style=""height:400px;""></stim_listB>",,html-keyboard-response,369,2829433,0.0-19.0-1.11,36850,List2B,black,woman,,,,null,,,,
null,are marrying each other,,html-keyboard-response,370,2831446,0.0-19.0-2.11,36850,List2B,black,woman,,,,null,,,,
8695,,,survey-text,371,2840144,0.0-19.0-3.11,36850,List2B,black,woman,,,,,"{""Q0"":""luke and jane are marrying each other""}","<img src=""stim_listB/marry2.gif""style=""height:400px;""></stim_listB>",are marrying each other,
null,"<div style=""font-size:60px;"">+</div>",,html-keyboard-response,372,2840655,0.0-19.0-0.12,36850,List2B,black,woman,,,,null,,,,
null,"<img src=""stim_listB/shout5.gif""style=""height:400px;""></stim_listB>",,html-keyboard-response,373,2842658,0.0-19.0-1.12,36850,List2B,black,woman,,,,null,,,,
null,is shouting at,,html-keyboard-response,374,2844660,0.0-19.0-2.12,36850,List2B,black,woman,,,,null,,,,
8085,,,survey-text,375,2852747,0.0-19.0-3.12,36850,List2B,black,woman,,,,,"{""Q0"":""luke is shouting at fred""}","<img src=""stim_listB/shout5.gif""style=""height:400px;""></stim_listB>",is shouting at,
null,"<div style=""font-size:60px;"">+</div>",,html-keyboard-response,376,2853249,0.0-19.0-0.13,36850,List2B,black,woman,,,,null,,,,
null,"<img src=""stim_listB/shout1.gif""style=""height:400px;""></stim_listB>",,html-keyboard-response,377,2855252,0.0-19.0-1.13,36850,List2B,black,woman,,,,null,,,,
null,is shouting at,,html-keyboard-response,378,2857266,0.0-19.0-2.13,36850,List2B,black,woman,,,,null,,,,
7021,,,survey-text,379,2864288,0.0-19.0-3.13,36850,List2B,black,woman,,,,,"{""Q0"":""luke is shouting at ruth""}","<img src=""stim_listB/shout1.gif""style=""height:400px;""></stim_listB>",is shouting at,
null,"<div style=""font-size:60px;"">+</div>",,html-keyboard-response,380,2864804,0.0-19.0-0.14,36850,List2B,black,woman,,,,null,,,,
null,"<img src=""stim_listB/touch3.gif""style=""height:400px;""></stim_listB>",,html-keyboard-response,381,2866807,0.0-19.0-1.14,36850,List2B,black,woman,,,,null,,,,
null,is touching,,html-keyboard-response,382,2868821,0.0-19.0-2.14,36850,List2B,black,woman,,,,null,,,,
7157,,,survey-text,383,2875981,0.0-19.0-3.14,36850,List2B,black,woman,,,,,"{""Q0"":""kate is touching mike""}","<img src=""stim_listB/touch3.gif""style=""height:400px;""></stim_listB>",is touching,
null,"<div style=""font-size:60px;"">+</div>",,html-keyboard-response,384,2876499,0.0-19.0-0.15,36850,List2B,black,woman,,,,null,,,,
null,"<img src=""stim_listB/play6.gif""style=""height:400px;""></stim_listB>",,html-keyboard-response,385,2878503,0.0-19.0-1.15,36850,List2B,black,woman,,,,null,,,,
null,are playing with each other,,html-keyboard-response,386,2880511,0.0-19.0-2.15,36850,List2B,black,woman,,,,null,,,,
14351,,,survey-text,387,2894864,0.0-19.0-3.15,36850,List2B,black,woman,,,,,"{""Q0"":""luke and fred are playing with each other""}","<img src=""stim_listB/play6.gif""style=""height:400px;""></stim_listB>",are playing with each other,
null,"<div style=""font-size:60px;"">+</div>",,html-keyboard-response,388,2895368,0.0-19.0-0.16,36850,List2B,black,woman,,,,null,,,,
null,"<img src=""stim_listB/shout6.gif""style=""height:400px;""></stim_listB>",,html-keyboard-response,389,2897372,0.0-19.0-1.16,36850,List2B,black,woman,,,,null,,,,
null,are shouting at each other,,html-keyboard-response,390,2899384,0.0-19.0-2.16,36850,List2B,black,woman,,,,null,,,,
12270,,,survey-text,391,2911657,0.0-19.0-3.16,36850,List2B,black,woman,,,,,"{""Q0"":""dave and mike are shouting at each other""}","<img src=""stim_listB/shout6.gif""style=""height:400px;""></stim_listB>",are shouting at each other,
null,"<div style=""font-size:60px;"">+</div>",,html-keyboard-response,392,2912166,0.0-19.0-0.17,36850,List2B,black,woman,,,,null,,,,
null,"<img src=""stim_listB/marry4.gif""style=""height:400px;""></stim_listB>",,html-keyboard-response,393,2914170,0.0-19.0-1.17,36850,List2B,black,woman,,,,null,,,,
null,are marrying each other,,html-keyboard-response,394,2916178,0.0-19.0-2.17,36850,List2B,black,woman,,,,null,,,,
9499,,,survey-text,395,2925678,0.0-19.0-3.17,36850,List2B,black,woman,,,,,"{""Q0"":""kate and fred are marrying each other""}","<img src=""stim_listB/marry4.gif""style=""height:400px;""></stim_listB>",are marrying each other,
null,"<div style=""font-size:60px;"">+</div>",,html-keyboard-response,396,2926186,0.0-19.0-0.18,36850,List2B,black,woman,,,,null,,,,
null,"<img src=""stim_listB/dance7.gif""style=""height:400px;""></stim_listB>",,html-keyboard-response,397,2928188,0.0-19.0-1.18,36850,List2B,black,woman,,,,null,,,,
null,is dancing with,,html-keyboard-response,398,2930193,0.0-19.0-2.18,36850,List2B,black,woman,,,,null,,,,
9207,,,survey-text,399,2939401,0.0-19.0-3.18,36850,List2B,black,woman,,,,,"{""Q0"":""kate is dancing with ruth""}","<img src=""stim_listB/dance7.gif""style=""height:400px;""></stim_listB>",is dancing with,
null,"<div style=""font-size:60px;"">+</div>",,html-keyboard-response,400,2939903,0.0-19.0-0.19,36850,List2B,black,woman,,,,null,,,,
null,"<img src=""stim_listB/dance1.gif""style=""height:400px;""></stim_listB>",,html-keyboard-response,401,2941906,0.0-19.0-1.19,36850,List2B,black,woman,,,,null,,,,
null,is dancing with,,html-keyboard-response,402,2943908,0.0-19.0-2.19,36850,List2B,black,woman,,,,null,,,,
8712,,,survey-text,403,2952622,0.0-19.0-3.19,36850,List2B,black,woman,,,,,"{""Q0"":""jane is dancing with luke""}","<img src=""stim_listB/dance1.gif""style=""height:400px;""></stim_listB>",is dancing with,
2024,<p>Thank you for completing that task.</p><p>The final part of this session is a short questionnaire.</p><p>Press Continue.</p>,0,html-button-response,404,2954649,0.0-20.0,36850,List2B,black,woman,,,,,,,,
24663,,,survey-text,405,2980322,0.0-21.0,36850,List2B,black,woman,,,,,"{""Q0"":""37"",""Q1"":""English"",""Q2"":""Engish"",""Q3"":""United States"",""Q4"":""Black"",""Q5"":""Female""}",,,demographics
9182,,,survey-likert,406,2989510,0.0-22.0,36850,List2B,black,woman,,,,,"{""Q0"":4}",,,likert_ESS
4416,,,survey-likert,407,2993946,0.0-23.0,36850,List2B,black,woman,,,,,"{""Q0"":4}",,,likert_NSSAL_Q1
5483,,,survey-likert,408,2999446,0.0-24.0,36850,List2B,black,woman,,,,,"{""Q0"":4}",,,likert_NSSAL_Q2
5503,,,survey-likert,409,3004967,0.0-25.0,36850,List2B,black,woman,,,,,"{""Q0"":4}",,,likert_CGRS_Q1
4797,,,survey-likert,410,3009782,0.0-26.0,36850,List2B,black,woman,,,,,"{""Q0"":4}",,,likert_CGRS_Q2
3767,,,survey-likert,411,3013565,0.0-27.0,36850,List2B,black,woman,,,,,"{""Q0"":4}",,,likert_CGRS_Q3
8942,,,survey-text,412,3022525,0.0-28.0,36850,List2B,black,woman,,,,,"{""Q0"":""ccc""}",,,worker_id
16553,,,external-html,413,3039500,0.0-29.0,36850,List2B,black,woman,debrief.html,,,,,,,
