rt,stimulus,button_pressed,trial_type,trial_index,time_elapsed,internal_node_id,subject,list,ppt_race,ppt_gender,url,first_guess,correct,key_press,responses,image_type,phrase_type,test_part
6961,Welcome to the experiment. Press Continue to begin.,0,html-button-response,0,6964,0.0-0.0,37240,List1B,white,man,,,,,,,,
11019,,,external-html,1,19228,0.0-1.0,37240,List1B,white,man,consent.html,,,,,,,
16399,"<p>On the next page, you will see portraits of 8 people and their names.</p><p>Your first task is to take a few minutes to memorise the names of these people.</p><p>You will have to recall their names during the rest of the experiment, so it is</p><p>essential that you try to memorise these people and their names as best as you can.</p><br><p><strong>You will then be tested on your memory of these names and portraits.</strong></p><br><p>The experiment will start after you have completed this memory test.</p><br><p>Ready?</p>",0,html-button-response,2,35627,0.0-2.0,37240,List1B,white,man,,,,,,,,
25205,"<img src='img/portrait_matrix_list1.jpg' style='width:900px;height:500px;''></img><p>If you have memorised all the portraits and names and are ready to start, press Continue.</p><p><strong>Please note: Your memory of these faces will be tested 4 times during this experiment.</strong></p>",0,html-button-response,3,61836,0.0-3.0-0.0,37240,List1B,white,man,,,,,,,,
5109,"<img src=""portrait/WW2.jpg""style=""height:400px;""></img>",3,html-button-response,4,67948,0.0-3.0-1.0,37240,List1B,white,man,,TRUE,3,,,,,
null,CORRECT,,html-keyboard-response,5,69453,0.0-3.0-2.0-0.0,37240,List1B,white,man,,,,null,,,,
6582,"<img src=""portrait/BM2.jpg""style=""height:400px;""></img>",5,html-button-response,6,76036,0.0-3.0-4.0,37240,List1B,white,man,,TRUE,5,,,,,
null,CORRECT,,html-keyboard-response,7,77552,0.0-3.0-5.0-0.0,37240,List1B,white,man,,,,null,,,,
5419,"<img src=""portrait/WM1.jpg""style=""height:400px;""></img>",6,html-button-response,8,82972,0.0-3.0-7.0,37240,List1B,white,man,,TRUE,6,,,,,
null,CORRECT,,html-keyboard-response,9,84476,0.0-3.0-8.0-0.0,37240,List1B,white,man,,,,null,,,,
5831,"<img src=""portrait/WM2.jpg""style=""height:400px;""></img>",7,html-button-response,10,90308,0.0-3.0-10.0,37240,List1B,white,man,,TRUE,7,,,,,
null,CORRECT,,html-keyboard-response,11,91820,0.0-3.0-11.0-0.0,37240,List1B,white,man,,,,null,,,,
4846,"<img src=""portrait/BW2.jpg""style=""height:400px;""></img>",2,html-button-response,12,96668,0.0-3.0-13.0,37240,List1B,white,man,,TRUE,2,,,,,
null,CORRECT,,html-keyboard-response,13,98200,0.0-3.0-14.0-0.0,37240,List1B,white,man,,,,null,,,,
10450,"<img src=""portrait/BW1.jpg""style=""height:400px;""></img>",0,html-button-response,14,108652,0.0-3.0-16.0,37240,List1B,white,man,,TRUE,0,,,,,
null,CORRECT,,html-keyboard-response,15,110166,0.0-3.0-17.0-0.0,37240,List1B,white,man,,,,null,,,,
6301,"<img src=""portrait/BM1.jpg""style=""height:400px;""></img>",4,html-button-response,16,116469,0.0-3.0-19.0,37240,List1B,white,man,,TRUE,4,,,,,
null,CORRECT,,html-keyboard-response,17,117982,0.0-3.0-20.0-0.0,37240,List1B,white,man,,,,null,,,,
4732,"<img src=""portrait/WW1.jpg""style=""height:400px;""></img>",1,html-button-response,18,122717,0.0-3.0-22.0,37240,List1B,white,man,,TRUE,1,,,,,
null,CORRECT,,html-keyboard-response,19,124228,0.0-3.0-23.0-0.0,37240,List1B,white,man,,,,null,,,,
3175,<p>You got 8 out of 8 right first time. Press Continue.</p>,0,html-button-response,20,127404,0.0-3.0-25.0,37240,List1B,white,man,,,,,,,,
22476,"<p>In this experiment, you will view photographs of the people from the memory game interacting.</p><p>By using the <strong>exact</strong> phrase given <i>after</i> the photograph appears and recalling the correct names of the people in the photographs, form a sentence describing the interaction. You do not need to capitalise names.</p><p>Type your answer in the space provided. Please complete every sentence before moving onto the next trial.</p><p>You will only have a few seconds to memorise each given photograph and phrase before you can respond, so try your best to focus.</p><p>An example is given below. Press 'Continue' when you are ready.</p><img src='img/speaking_example.jpg' style='width:800px;height:460px;''></img>",0,html-button-response,21,150885,0.0-4.0,37240,List1B,white,man,,,,,,,,
6849,"<p>Before the experiment starts, you will watch two example trials. Press 'Continue'.</p>",0,html-button-response,22,158741,0.0-5.0,37240,List1B,white,man,,,,,,,,
null,<img src='img/meet_eg.gif' style='height:400px;''></img>,,html-keyboard-response,23,161754,0.0-6.0,37240,List1B,white,man,,,,null,,,,
null,<p>is meeting</p>,,html-keyboard-response,24,163764,0.0-7.0,37240,List1B,white,man,,,,null,,,,
34143,<p><b>Answer:</b> kate is meeting beth</p>,0,html-button-response,25,197909,0.0-8.0,37240,List1B,white,man,,,,,,,,
null,<img src='img/look_eg.gif' style='height:400px;''></img>,,html-keyboard-response,26,200917,0.0-9.0,37240,List1B,white,man,,,,null,,,,
null,<p>are looking at each other</p>,,html-keyboard-response,27,202925,0.0-10.0,37240,List1B,white,man,,,,null,,,,
1646,<p><b>Answer:</b> luke and dave are looking at each other</p>,0,html-button-response,28,204573,0.0-11.0,37240,List1B,white,man,,,,,,,,
7214,"<p>Ready to start the experiment?</p><br><p><strong>Remember to describe the picture using a full sentence,</strong></p><p><strong>that combines the names of the people with the <i>exact</i> phrase given.</strong></p><p><strong>To receive full payment you must do this correctly.</strong></p><p><strong> You do not need to capitalise names or use punctuation.</strong></p><br><p>Press 'Continue' to begin.</p>",0,html-button-response,29,212789,0.0-12.0,37240,List1B,white,man,,,,,,,,
null,"<div style=""font-size:60px;"">+</div>",,html-keyboard-response,30,214305,0.0-13.0-0.0,37240,List1B,white,man,,,,null,,,,
null,"<img src=""stim_listB/marry5.gif""style=""height:400px;""></stim_listB>",,html-keyboard-response,31,216309,0.0-13.0-1.0,37240,List1B,white,man,,,,null,,,,
null,is marrying,,html-keyboard-response,32,218311,0.0-13.0-2.0,37240,List1B,white,man,,,,null,,,,
27931,,,survey-text,33,246245,0.0-13.0-3.0,37240,List1B,white,man,,,,,"{""Q0"":""Luke and Fred are marrying.""}","<img src=""stim_listB/marry5.gif""style=""height:400px;""></stim_listB>",is marrying,
null,"<div style=""font-size:60px;"">+</div>",,html-keyboard-response,34,246751,0.0-13.0-0.1,37240,List1B,white,man,,,,null,,,,
null,"<img src=""stim_listB/kiss4.gif""style=""height:400px;""></stim_listB>",,html-keyboard-response,35,248752,0.0-13.0-1.1,37240,List1B,white,man,,,,null,,,,
null,are kissing each other,,html-keyboard-response,36,250757,0.0-13.0-2.1,37240,List1B,white,man,,,,null,,,,
14327,,,survey-text,37,265085,0.0-13.0-3.1,37240,List1B,white,man,,,,,"{""Q0"":""Dave and Jane are kissing.""}","<img src=""stim_listB/kiss4.gif""style=""height:400px;""></stim_listB>",are kissing each other,
null,"<div style=""font-size:60px;"">+</div>",,html-keyboard-response,38,265586,0.0-13.0-0.2,37240,List1B,white,man,,,,null,,,,
null,"<img src=""stim_listB/talk3.gif""style=""height:400px;""></stim_listB>",,html-keyboard-response,39,267590,0.0-13.0-1.2,37240,List1B,white,man,,,,null,,,,
null,is talking to,,html-keyboard-response,40,269604,0.0-13.0-2.2,37240,List1B,white,man,,,,null,,,,
14088,,,survey-text,41,283693,0.0-13.0-3.2,37240,List1B,white,man,,,,,"{""Q0"":""Luke and Jane are talking.""}","<img src=""stim_listB/talk3.gif""style=""height:400px;""></stim_listB>",is talking to,
null,"<div style=""font-size:60px;"">+</div>",,html-keyboard-response,42,284195,0.0-13.0-0.3,37240,List1B,white,man,,,,null,,,,
null,"<img src=""stim_listB/play2.gif""style=""height:400px;""></stim_listB>",,html-keyboard-response,43,286208,0.0-13.0-1.3,37240,List1B,white,man,,,,null,,,,
null,are playing with each other,,html-keyboard-response,44,288224,0.0-13.0-2.3,37240,List1B,white,man,,,,null,,,,
44332,,,survey-text,45,332557,0.0-13.0-3.3,37240,List1B,white,man,,,,,"{""Q0"":""Beth and Fred are playing with each other. ""}","<img src=""stim_listB/play2.gif""style=""height:400px;""></stim_listB>",are playing with each other,
null,"<div style=""font-size:60px;"">+</div>",,html-keyboard-response,46,333058,0.0-13.0-0.4,37240,List1B,white,man,,,,null,,,,
null,"<img src=""stim_listB/marry1.gif""style=""height:400px;""></stim_listB>",,html-keyboard-response,47,335061,0.0-13.0-1.4,37240,List1B,white,man,,,,null,,,,
null,is marrying,,html-keyboard-response,48,337075,0.0-13.0-2.4,37240,List1B,white,man,,,,null,,,,
20826,,,survey-text,49,357901,0.0-13.0-3.4,37240,List1B,white,man,,,,,"{""Q0"":""Kate and Mike are talking.""}","<img src=""stim_listB/marry1.gif""style=""height:400px;""></stim_listB>",is marrying,
null,"<div style=""font-size:60px;"">+</div>",,html-keyboard-response,50,358405,0.0-13.0-0.5,37240,List1B,white,man,,,,null,,,,
null,"<img src=""stim_listB/argue2.gif""style=""height:400px;""></stim_listB>",,html-keyboard-response,51,360409,0.0-13.0-1.5,37240,List1B,white,man,,,,null,,,,
null,are arguing with each other,,html-keyboard-response,52,362425,0.0-13.0-2.5,37240,List1B,white,man,,,,null,,,,
16675,,,survey-text,53,379101,0.0-13.0-3.5,37240,List1B,white,man,,,,,"{""Q0"":""Fred and Kate are arguing.""}","<img src=""stim_listB/argue2.gif""style=""height:400px;""></stim_listB>",are arguing with each other,
null,"<div style=""font-size:60px;"">+</div>",,html-keyboard-response,54,379624,0.0-13.0-0.6,37240,List1B,white,man,,,,null,,,,
null,"<img src=""stim_listB/play1.gif""style=""height:400px;""></stim_listB>",,html-keyboard-response,55,381642,0.0-13.0-1.6,37240,List1B,white,man,,,,null,,,,
null,is playing with,,html-keyboard-response,56,383658,0.0-13.0-2.6,37240,List1B,white,man,,,,null,,,,
13171,,,survey-text,57,396829,0.0-13.0-3.6,37240,List1B,white,man,,,,,"{""Q0"":""Kate and Mike are playing.""}","<img src=""stim_listB/play1.gif""style=""height:400px;""></stim_listB>",is playing with,
null,"<div style=""font-size:60px;"">+</div>",,html-keyboard-response,58,397330,0.0-13.0-0.7,37240,List1B,white,man,,,,null,,,,
null,"<img src=""stim_listB/kiss3.gif""style=""height:400px;""></stim_listB>",,html-keyboard-response,59,399339,0.0-13.0-1.7,37240,List1B,white,man,,,,null,,,,
null,is kissing,,html-keyboard-response,60,401353,0.0-13.0-2.7,37240,List1B,white,man,,,,null,,,,
10644,,,survey-text,61,411997,0.0-13.0-3.7,37240,List1B,white,man,,,,,"{""Q0"":""Ruth and Luke are kissing.""}","<img src=""stim_listB/kiss3.gif""style=""height:400px;""></stim_listB>",is kissing,
null,"<div style=""font-size:60px;"">+</div>",,html-keyboard-response,62,412508,0.0-13.0-0.8,37240,List1B,white,man,,,,null,,,,
null,"<img src=""stim_listB/argue6.gif""style=""height:400px;""></stim_listB>",,html-keyboard-response,63,414524,0.0-13.0-1.8,37240,List1B,white,man,,,,null,,,,
null,are arguing with each other,,html-keyboard-response,64,416532,0.0-13.0-2.8,37240,List1B,white,man,,,,null,,,,
11913,,,survey-text,65,428445,0.0-13.0-3.8,37240,List1B,white,man,,,,,"{""Q0"":""Dave and Fred are arguing.""}","<img src=""stim_listB/argue6.gif""style=""height:400px;""></stim_listB>",are arguing with each other,
null,"<div style=""font-size:60px;"">+</div>",,html-keyboard-response,66,428952,0.0-13.0-0.9,37240,List1B,white,man,,,,null,,,,
null,"<img src=""stim_listB/fight7.gif""style=""height:400px;""></stim_listB>",,html-keyboard-response,67,430955,0.0-13.0-1.9,37240,List1B,white,man,,,,null,,,,
null,is fighting,,html-keyboard-response,68,432969,0.0-13.0-2.9,37240,List1B,white,man,,,,null,,,,
13476,,,survey-text,69,446446,0.0-13.0-3.9,37240,List1B,white,man,,,,,"{""Q0"":""Kate and Jane are fighting.""}","<img src=""stim_listB/fight7.gif""style=""height:400px;""></stim_listB>",is fighting,
null,"<div style=""font-size:60px;"">+</div>",,html-keyboard-response,70,446947,0.0-13.0-0.10,37240,List1B,white,man,,,,null,,,,
null,"<img src=""stim_listB/fight5.gif""style=""height:400px;""></stim_listB>",,html-keyboard-response,71,448952,0.0-13.0-1.10,37240,List1B,white,man,,,,null,,,,
null,is fighting,,html-keyboard-response,72,450961,0.0-13.0-2.10,37240,List1B,white,man,,,,null,,,,
10811,,,survey-text,73,461774,0.0-13.0-3.10,37240,List1B,white,man,,,,,"{""Q0"":""Mike and Dave are fighting.""}","<img src=""stim_listB/fight5.gif""style=""height:400px;""></stim_listB>",is fighting,
null,"<div style=""font-size:60px;"">+</div>",,html-keyboard-response,74,462275,0.0-13.0-0.11,37240,List1B,white,man,,,,null,,,,
null,"<img src=""stim_listB/flirt1.gif""style=""height:400px;""></stim_listB>",,html-keyboard-response,75,464284,0.0-13.0-1.11,37240,List1B,white,man,,,,null,,,,
null,is flirting with,,html-keyboard-response,76,466300,0.0-13.0-2.11,37240,List1B,white,man,,,,null,,,,
16744,,,survey-text,77,483046,0.0-13.0-3.11,37240,List1B,white,man,,,,,"{""Q0"":""Beth and Fred are flirting.""}","<img src=""stim_listB/flirt1.gif""style=""height:400px;""></stim_listB>",is flirting with,
null,"<div style=""font-size:60px;"">+</div>",,html-keyboard-response,78,483547,0.0-13.0-0.12,37240,List1B,white,man,,,,null,,,,
null,"<img src=""stim_listB/flirt7.gif""style=""height:400px;""></stim_listB>",,html-keyboard-response,79,485550,0.0-13.0-1.12,37240,List1B,white,man,,,,null,,,,
null,is flirting with,,html-keyboard-response,80,487562,0.0-13.0-2.12,37240,List1B,white,man,,,,null,,,,
11955,,,survey-text,81,499518,0.0-13.0-3.12,37240,List1B,white,man,,,,,"{""Q0"":""Beth and Kate are flirting.""}","<img src=""stim_listB/flirt7.gif""style=""height:400px;""></stim_listB>",is flirting with,
null,"<div style=""font-size:60px;"">+</div>",,html-keyboard-response,82,500019,0.0-13.0-0.13,37240,List1B,white,man,,,,null,,,,
null,"<img src=""stim_listB/touch3.gif""style=""height:400px;""></stim_listB>",,html-keyboard-response,83,502030,0.0-13.0-1.13,37240,List1B,white,man,,,,null,,,,
null,is touching,,html-keyboard-response,84,504046,0.0-13.0-2.13,37240,List1B,white,man,,,,null,,,,
23002,,,survey-text,85,527048,0.0-13.0-3.13,37240,List1B,white,man,,,,,"{""Q0"":""Jane and Luke are touching.""}","<img src=""stim_listB/touch3.gif""style=""height:400px;""></stim_listB>",is touching,
null,"<div style=""font-size:60px;"">+</div>",,html-keyboard-response,86,527549,0.0-13.0-0.14,37240,List1B,white,man,,,,null,,,,
null,"<img src=""stim_listB/talk8.gif""style=""height:400px;""></stim_listB>",,html-keyboard-response,87,529555,0.0-13.0-1.14,37240,List1B,white,man,,,,null,,,,
null,are talking to each other,,html-keyboard-response,88,531564,0.0-13.0-2.14,37240,List1B,white,man,,,,null,,,,
15803,,,survey-text,89,547368,0.0-13.0-3.14,37240,List1B,white,man,,,,,"{""Q0"":""Kate and Ruth are talking.""}","<img src=""stim_listB/talk8.gif""style=""height:400px;""></stim_listB>",are talking to each other,
null,"<div style=""font-size:60px;"">+</div>",,html-keyboard-response,90,547870,0.0-13.0-0.15,37240,List1B,white,man,,,,null,,,,
null,"<img src=""stim_listB/dance2.gif""style=""height:400px;""></stim_listB>",,html-keyboard-response,91,549874,0.0-13.0-1.15,37240,List1B,white,man,,,,null,,,,
null,are dancing with each other,,html-keyboard-response,92,551885,0.0-13.0-2.15,37240,List1B,white,man,,,,null,,,,
10734,,,survey-text,93,562620,0.0-13.0-3.15,37240,List1B,white,man,,,,,"{""Q0"":""Mike and Beth are dancing.""}","<img src=""stim_listB/dance2.gif""style=""height:400px;""></stim_listB>",are dancing with each other,
null,"<div style=""font-size:60px;"">+</div>",,html-keyboard-response,94,563123,0.0-13.0-0.16,37240,List1B,white,man,,,,null,,,,
null,"<img src=""stim_listB/touch6.gif""style=""height:400px;""></stim_listB>",,html-keyboard-response,95,565126,0.0-13.0-1.16,37240,List1B,white,man,,,,null,,,,
null,are touching each other,,html-keyboard-response,96,567135,0.0-13.0-2.16,37240,List1B,white,man,,,,null,,,,
11658,,,survey-text,97,578795,0.0-13.0-3.16,37240,List1B,white,man,,,,,"{""Q0"":""Fred and Luke are touching.""}","<img src=""stim_listB/touch6.gif""style=""height:400px;""></stim_listB>",are touching each other,
null,"<div style=""font-size:60px;"">+</div>",,html-keyboard-response,98,579297,0.0-13.0-0.17,37240,List1B,white,man,,,,null,,,,
null,"<img src=""stim_listB/kiss8.gif""style=""height:400px;""></stim_listB>",,html-keyboard-response,99,581304,0.0-13.0-1.17,37240,List1B,white,man,,,,null,,,,
null,are kissing each other,,html-keyboard-response,100,583306,0.0-13.0-2.17,37240,List1B,white,man,,,,null,,,,
17880,,,survey-text,101,601187,0.0-13.0-3.17,37240,List1B,white,man,,,,,"{""Q0"":""Kate and Jane are kissing. ""}","<img src=""stim_listB/kiss8.gif""style=""height:400px;""></stim_listB>",are kissing each other,
null,"<div style=""font-size:60px;"">+</div>",,html-keyboard-response,102,601688,0.0-13.0-0.18,37240,List1B,white,man,,,,null,,,,
null,"<img src=""stim_listB/play7.gif""style=""height:400px;""></stim_listB>",,html-keyboard-response,103,603694,0.0-13.0-1.18,37240,List1B,white,man,,,,null,,,,
null,is playing with,,html-keyboard-response,104,605710,0.0-13.0-2.18,37240,List1B,white,man,,,,null,,,,
18312,,,survey-text,105,624023,0.0-13.0-3.18,37240,List1B,white,man,,,,,"{""Q0"":""Kate and Jane are talking.""}","<img src=""stim_listB/play7.gif""style=""height:400px;""></stim_listB>",is playing with,
null,"<div style=""font-size:60px;"">+</div>",,html-keyboard-response,106,624524,0.0-13.0-0.19,37240,List1B,white,man,,,,null,,,,
null,"<img src=""stim_listB/shout5.gif""style=""height:400px;""></stim_listB>",,html-keyboard-response,107,626527,0.0-13.0-1.19,37240,List1B,white,man,,,,null,,,,
null,is shouting at,,html-keyboard-response,108,628533,0.0-13.0-2.19,37240,List1B,white,man,,,,null,,,,
10257,,,survey-text,109,638791,0.0-13.0-3.19,37240,List1B,white,man,,,,,"{""Q0"":""Dave and Fred are shouting.""}","<img src=""stim_listB/shout5.gif""style=""height:400px;""></stim_listB>",is shouting at,
3815,"<img src='img/portrait_matrix_list1.jpg' style='width:900px;height:500px;''></img><p>If you have memorised all the portraits and names and are ready to start, press Continue.</p><p><strong>Please note: Your memory of these faces will be tested 4 times during this experiment.</strong></p>",0,html-button-response,110,642607,0.0-14.0-0.0,37240,List1B,white,man,,,,,,,,
5125,"<img src=""portrait/WW1.jpg""style=""height:400px;""></img>",1,html-button-response,111,648735,0.0-14.0-1.0,37240,List1B,white,man,,TRUE,1,,,,,
null,CORRECT,,html-keyboard-response,112,650240,0.0-14.0-2.0-0.0,37240,List1B,white,man,,,,null,,,,
3581,"<img src=""portrait/BW2.jpg""style=""height:400px;""></img>",2,html-button-response,113,653823,0.0-14.0-4.0,37240,List1B,white,man,,TRUE,2,,,,,
null,CORRECT,,html-keyboard-response,114,655338,0.0-14.0-5.0-0.0,37240,List1B,white,man,,,,null,,,,
4131,"<img src=""portrait/WM2.jpg""style=""height:400px;""></img>",7,html-button-response,115,659471,0.0-14.0-7.0,37240,List1B,white,man,,TRUE,7,,,,,
null,CORRECT,,html-keyboard-response,116,660981,0.0-14.0-8.0-0.0,37240,List1B,white,man,,,,null,,,,
3136,"<img src=""portrait/WW2.jpg""style=""height:400px;""></img>",3,html-button-response,117,664119,0.0-14.0-10.0,37240,List1B,white,man,,TRUE,3,,,,,
null,CORRECT,,html-keyboard-response,118,665621,0.0-14.0-11.0-0.0,37240,List1B,white,man,,,,null,,,,
3776,"<img src=""portrait/BM1.jpg""style=""height:400px;""></img>",4,html-button-response,119,669399,0.0-14.0-13.0,37240,List1B,white,man,,TRUE,4,,,,,
null,CORRECT,,html-keyboard-response,120,670912,0.0-14.0-14.0-0.0,37240,List1B,white,man,,,,null,,,,
5645,"<img src=""portrait/BW1.jpg""style=""height:400px;""></img>",0,html-button-response,121,676559,0.0-14.0-16.0,37240,List1B,white,man,,TRUE,0,,,,,
null,CORRECT,,html-keyboard-response,122,678076,0.0-14.0-17.0-0.0,37240,List1B,white,man,,,,null,,,,
3143,"<img src=""portrait/BM2.jpg""style=""height:400px;""></img>",5,html-button-response,123,681220,0.0-14.0-19.0,37240,List1B,white,man,,TRUE,5,,,,,
null,CORRECT,,html-keyboard-response,124,682723,0.0-14.0-20.0-0.0,37240,List1B,white,man,,,,null,,,,
4432,"<img src=""portrait/WM1.jpg""style=""height:400px;""></img>",6,html-button-response,125,687157,0.0-14.0-22.0,37240,List1B,white,man,,TRUE,6,,,,,
null,CORRECT,,html-keyboard-response,126,688659,0.0-14.0-23.0-0.0,37240,List1B,white,man,,,,null,,,,
1528,<p>You got 8 out of 8 right first time. Press Continue.</p>,0,html-button-response,127,690188,0.0-14.0-25.0,37240,List1B,white,man,,,,,,,,
null,"<div style=""font-size:60px;"">+</div>",,html-keyboard-response,128,691695,0.0-15.0-0.0,37240,List1B,white,man,,,,null,,,,
null,"<img src=""stim_listB/talk5.gif""style=""height:400px;""></stim_listB>",,html-keyboard-response,129,693698,0.0-15.0-1.0,37240,List1B,white,man,,,,null,,,,
null,is talking to,,html-keyboard-response,130,695704,0.0-15.0-2.0,37240,List1B,white,man,,,,null,,,,
12195,,,survey-text,131,707900,0.0-15.0-3.0,37240,List1B,white,man,,,,,"{""Q0"":""Fred and Dave are talking.""}","<img src=""stim_listB/talk5.gif""style=""height:400px;""></stim_listB>",is talking to,
null,"<div style=""font-size:60px;"">+</div>",,html-keyboard-response,132,708402,0.0-15.0-0.1,37240,List1B,white,man,,,,null,,,,
null,"<img src=""stim_listB/touch7.gif""style=""height:400px;""></stim_listB>",,html-keyboard-response,133,710405,0.0-15.0-1.1,37240,List1B,white,man,,,,null,,,,
null,is touching,,html-keyboard-response,134,712411,0.0-15.0-2.1,37240,List1B,white,man,,,,null,,,,
12784,,,survey-text,135,725196,0.0-15.0-3.1,37240,List1B,white,man,,,,,"{""Q0"":""Kate and Jane are touching.""}","<img src=""stim_listB/touch7.gif""style=""height:400px;""></stim_listB>",is touching,
null,"<div style=""font-size:60px;"">+</div>",,html-keyboard-response,136,725698,0.0-15.0-0.2,37240,List1B,white,man,,,,null,,,,
null,"<img src=""stim_listB/dance6.gif""style=""height:400px;""></stim_listB>",,html-keyboard-response,137,727718,0.0-15.0-1.2,37240,List1B,white,man,,,,null,,,,
null,are dancing with each other,,html-keyboard-response,138,729736,0.0-15.0-2.2,37240,List1B,white,man,,,,null,,,,
14255,,,survey-text,139,743993,0.0-15.0-3.2,37240,List1B,white,man,,,,,"{""Q0"":""Luke and Mike are dancing with each other.""}","<img src=""stim_listB/dance6.gif""style=""height:400px;""></stim_listB>",are dancing with each other,
null,"<div style=""font-size:60px;"">+</div>",,html-keyboard-response,140,744493,0.0-15.0-0.3,37240,List1B,white,man,,,,null,,,,
null,"<img src=""stim_listB/touch4.gif""style=""height:400px;""></stim_listB>",,html-keyboard-response,141,746501,0.0-15.0-1.3,37240,List1B,white,man,,,,null,,,,
null,are touching each other,,html-keyboard-response,142,748505,0.0-15.0-2.3,37240,List1B,white,man,,,,null,,,,
16006,,,survey-text,143,764512,0.0-15.0-3.3,37240,List1B,white,man,,,,,"{""Q0"":""Luke and Ruth are touching each other.""}","<img src=""stim_listB/touch4.gif""style=""height:400px;""></stim_listB>",are touching each other,
null,"<div style=""font-size:60px;"">+</div>",,html-keyboard-response,144,765014,0.0-15.0-0.4,37240,List1B,white,man,,,,null,,,,
null,"<img src=""stim_listB/fight4.gif""style=""height:400px;""></stim_listB>",,html-keyboard-response,145,767019,0.0-15.0-1.4,37240,List1B,white,man,,,,null,,,,
null,are fighting each other,,html-keyboard-response,146,769025,0.0-15.0-2.4,37240,List1B,white,man,,,,null,,,,
12110,,,survey-text,147,781136,0.0-15.0-3.4,37240,List1B,white,man,,,,,"{""Q0"":""Luke and Ruth are fighting each other.""}","<img src=""stim_listB/fight4.gif""style=""height:400px;""></stim_listB>",are fighting each other,
null,"<div style=""font-size:60px;"">+</div>",,html-keyboard-response,148,781638,0.0-15.0-0.5,37240,List1B,white,man,,,,null,,,,
null,"<img src=""stim_listB/shout3.gif""style=""height:400px;""></stim_listB>",,html-keyboard-response,149,783640,0.0-15.0-1.5,37240,List1B,white,man,,,,null,,,,
null,is shouting at,,html-keyboard-response,150,785656,0.0-15.0-2.5,37240,List1B,white,man,,,,null,,,,
17345,,,survey-text,151,803002,0.0-15.0-3.5,37240,List1B,white,man,,,,,"{""Q0"":""Ruth and Luke are shouting at each other.""}","<img src=""stim_listB/shout3.gif""style=""height:400px;""></stim_listB>",is shouting at,
null,"<div style=""font-size:60px;"">+</div>",,html-keyboard-response,152,803506,0.0-15.0-0.6,37240,List1B,white,man,,,,null,,,,
null,"<img src=""stim_listB/shout8.gif""style=""height:400px;""></stim_listB>",,html-keyboard-response,153,805511,0.0-15.0-1.6,37240,List1B,white,man,,,,null,,,,
null,are shouting at each other,,html-keyboard-response,154,807514,0.0-15.0-2.6,37240,List1B,white,man,,,,null,,,,
13303,,,survey-text,155,820819,0.0-15.0-3.6,37240,List1B,white,man,,,,,"{""Q0"":""Kate and Jane are shouting at each other. ""}","<img src=""stim_listB/shout8.gif""style=""height:400px;""></stim_listB>",are shouting at each other,
null,"<div style=""font-size:60px;"">+</div>",,html-keyboard-response,156,821319,0.0-15.0-0.7,37240,List1B,white,man,,,,null,,,,
null,"<img src=""stim_listB/marry8.gif""style=""height:400px;""></stim_listB>",,html-keyboard-response,157,823323,0.0-15.0-1.7,37240,List1B,white,man,,,,null,,,,
null,are marrying each other,,html-keyboard-response,158,825335,0.0-15.0-2.7,37240,List1B,white,man,,,,null,,,,
17730,,,survey-text,159,843066,0.0-15.0-3.7,37240,List1B,white,man,,,,,"{""Q0"":""Beth and Kate are marrying each other. ""}","<img src=""stim_listB/marry8.gif""style=""height:400px;""></stim_listB>",are marrying each other,
null,"<div style=""font-size:60px;"">+</div>",,html-keyboard-response,160,843568,0.0-15.0-0.8,37240,List1B,white,man,,,,null,,,,
null,"<img src=""stim_listB/flirt8.gif""style=""height:400px;""></stim_listB>",,html-keyboard-response,161,845578,0.0-15.0-1.8,37240,List1B,white,man,,,,null,,,,
null,are flirting with each other,,html-keyboard-response,162,847591,0.0-15.0-2.8,37240,List1B,white,man,,,,null,,,,
17182,,,survey-text,163,864774,0.0-15.0-3.8,37240,List1B,white,man,,,,,"{""Q0"":""Ruth and Kate are flirting with each other.""}","<img src=""stim_listB/flirt8.gif""style=""height:400px;""></stim_listB>",are flirting with each other,
null,"<div style=""font-size:60px;"">+</div>",,html-keyboard-response,164,865276,0.0-15.0-0.9,37240,List1B,white,man,,,,null,,,,
null,"<img src=""stim_listB/shout2.gif""style=""height:400px;""></stim_listB>",,html-keyboard-response,165,867279,0.0-15.0-1.9,37240,List1B,white,man,,,,null,,,,
null,are shouting at each other,,html-keyboard-response,166,869293,0.0-15.0-2.9,37240,List1B,white,man,,,,null,,,,
17791,,,survey-text,167,887086,0.0-15.0-3.9,37240,List1B,white,man,,,,,"{""Q0"":""Mike and Kate are shouting at each other. ""}","<img src=""stim_listB/shout2.gif""style=""height:400px;""></stim_listB>",are shouting at each other,
null,"<div style=""font-size:60px;"">+</div>",,html-keyboard-response,168,887587,0.0-15.0-0.10,37240,List1B,white,man,,,,null,,,,
null,"<img src=""stim_listB/touch5.gif""style=""height:400px;""></stim_listB>",,html-keyboard-response,169,889597,0.0-15.0-1.10,37240,List1B,white,man,,,,null,,,,
null,is touching,,html-keyboard-response,170,891606,0.0-15.0-2.10,37240,List1B,white,man,,,,null,,,,
16086,,,survey-text,171,907694,0.0-15.0-3.10,37240,List1B,white,man,,,,,"{""Q0"":""Mike and Dave are touching each other.""}","<img src=""stim_listB/touch5.gif""style=""height:400px;""></stim_listB>",is touching,
null,"<div style=""font-size:60px;"">+</div>",,html-keyboard-response,172,908195,0.0-15.0-0.11,37240,List1B,white,man,,,,null,,,,
null,"<img src=""stim_listB/argue7.gif""style=""height:400px;""></stim_listB>",,html-keyboard-response,173,910198,0.0-15.0-1.11,37240,List1B,white,man,,,,null,,,,
null,is arguing with,,html-keyboard-response,174,912202,0.0-15.0-2.11,37240,List1B,white,man,,,,null,,,,
13876,,,survey-text,175,926079,0.0-15.0-3.11,37240,List1B,white,man,,,,,"{""Q0"":""Ruth and Kate are arguing. ""}","<img src=""stim_listB/argue7.gif""style=""height:400px;""></stim_listB>",is arguing with,
null,"<div style=""font-size:60px;"">+</div>",,html-keyboard-response,176,926596,0.0-15.0-0.12,37240,List1B,white,man,,,,null,,,,
null,"<img src=""stim_listB/shout4.gif""style=""height:400px;""></stim_listB>",,html-keyboard-response,177,928599,0.0-15.0-1.12,37240,List1B,white,man,,,,null,,,,
null,are shouting at each other,,html-keyboard-response,178,930605,0.0-15.0-2.12,37240,List1B,white,man,,,,null,,,,
14538,,,survey-text,179,945143,0.0-15.0-3.12,37240,List1B,white,man,,,,,"{""Q0"":""Dave and Jane are arguing with each other.""}","<img src=""stim_listB/shout4.gif""style=""height:400px;""></stim_listB>",are shouting at each other,
null,"<div style=""font-size:60px;"">+</div>",,html-keyboard-response,180,945645,0.0-15.0-0.13,37240,List1B,white,man,,,,null,,,,
null,"<img src=""stim_listB/kiss5.gif""style=""height:400px;""></stim_listB>",,html-keyboard-response,181,947648,0.0-15.0-1.13,37240,List1B,white,man,,,,null,,,,
null,is kissing,,html-keyboard-response,182,949663,0.0-15.0-2.13,37240,List1B,white,man,,,,null,,,,
9984,,,survey-text,183,959647,0.0-15.0-3.13,37240,List1B,white,man,,,,,"{""Q0"":""Dave and Fred is kissing.""}","<img src=""stim_listB/kiss5.gif""style=""height:400px;""></stim_listB>",is kissing,
null,"<div style=""font-size:60px;"">+</div>",,html-keyboard-response,184,960148,0.0-15.0-0.14,37240,List1B,white,man,,,,null,,,,
null,"<img src=""stim_listB/argue5.gif""style=""height:400px;""></stim_listB>",,html-keyboard-response,185,962158,0.0-15.0-1.14,37240,List1B,white,man,,,,null,,,,
null,is arguing with,,html-keyboard-response,186,964163,0.0-15.0-2.14,37240,List1B,white,man,,,,null,,,,
38792,,,survey-text,187,1002956,0.0-15.0-3.14,37240,List1B,white,man,,,,,"{""Q0"":""Mike and Luke is arguing.""}","<img src=""stim_listB/argue5.gif""style=""height:400px;""></stim_listB>",is arguing with,
null,"<div style=""font-size:60px;"">+</div>",,html-keyboard-response,188,1003466,0.0-15.0-0.15,37240,List1B,white,man,,,,null,,,,
null,"<img src=""stim_listB/marry7.gif""style=""height:400px;""></stim_listB>",,html-keyboard-response,189,1005468,0.0-15.0-1.15,37240,List1B,white,man,,,,null,,,,
null,is marrying,,html-keyboard-response,190,1007480,0.0-15.0-2.15,37240,List1B,white,man,,,,null,,,,
16306,,,survey-text,191,1023788,0.0-15.0-3.15,37240,List1B,white,man,,,,,"{""Q0"":""Kate and Jane is marrying.""}","<img src=""stim_listB/marry7.gif""style=""height:400px;""></stim_listB>",is marrying,
null,"<div style=""font-size:60px;"">+</div>",,html-keyboard-response,192,1024289,0.0-15.0-0.16,37240,List1B,white,man,,,,null,,,,
null,"<img src=""stim_listB/fight8.gif""style=""height:400px;""></stim_listB>",,html-keyboard-response,193,1026300,0.0-15.0-1.16,37240,List1B,white,man,,,,null,,,,
null,are fighting each other,,html-keyboard-response,194,1028319,0.0-15.0-2.16,37240,List1B,white,man,,,,null,,,,
22540,,,survey-text,195,1050860,0.0-15.0-3.16,37240,List1B,white,man,,,,,"{""Q0"":""Beth and Ruth are fighting each other. ""}","<img src=""stim_listB/fight8.gif""style=""height:400px;""></stim_listB>",are fighting each other,
null,"<div style=""font-size:60px;"">+</div>",,html-keyboard-response,196,1051361,0.0-15.0-0.17,37240,List1B,white,man,,,,null,,,,
null,"<img src=""stim_listB/marry3.gif""style=""height:400px;""></stim_listB>",,html-keyboard-response,197,1053365,0.0-15.0-1.17,37240,List1B,white,man,,,,null,,,,
null,is marrying,,html-keyboard-response,198,1055372,0.0-15.0-2.17,37240,List1B,white,man,,,,null,,,,
15175,,,survey-text,199,1070548,0.0-15.0-3.17,37240,List1B,white,man,,,,,"{""Q0"":""Dave and Ruth is marrying.""}","<img src=""stim_listB/marry3.gif""style=""height:400px;""></stim_listB>",is marrying,
null,"<div style=""font-size:60px;"">+</div>",,html-keyboard-response,200,1071055,0.0-15.0-0.18,37240,List1B,white,man,,,,null,,,,
null,"<img src=""stim_listB/play6.gif""style=""height:400px;""></stim_listB>",,html-keyboard-response,201,1073059,0.0-15.0-1.18,37240,List1B,white,man,,,,null,,,,
null,are playing with each other,,html-keyboard-response,202,1075064,0.0-15.0-2.18,37240,List1B,white,man,,,,null,,,,
13556,,,survey-text,203,1088620,0.0-15.0-3.18,37240,List1B,white,man,,,,,"{""Q0"":""Fred and Dave is playing with each other.""}","<img src=""stim_listB/play6.gif""style=""height:400px;""></stim_listB>",are playing with each other,
null,"<div style=""font-size:60px;"">+</div>",,html-keyboard-response,204,1089122,0.0-15.0-0.19,37240,List1B,white,man,,,,null,,,,
null,"<img src=""stim_listB/fight3.gif""style=""height:400px;""></stim_listB>",,html-keyboard-response,205,1091124,0.0-15.0-1.19,37240,List1B,white,man,,,,null,,,,
null,is fighting,,html-keyboard-response,206,1093131,0.0-15.0-2.19,37240,List1B,white,man,,,,null,,,,
18472,,,survey-text,207,1111604,0.0-15.0-3.19,37240,List1B,white,man,,,,,"{""Q0"":""Dave and Jane is fighting. ""}","<img src=""stim_listB/fight3.gif""style=""height:400px;""></stim_listB>",is fighting,
3012,"<img src='img/portrait_matrix_list1.jpg' style='width:900px;height:500px;''></img><p>If you have memorised all the portraits and names and are ready to start, press Continue.</p><p><strong>Please note: Your memory of these faces will be tested 4 times during this experiment.</strong></p>",0,html-button-response,208,1114617,0.0-16.0-0.0,37240,List1B,white,man,,,,,,,,
5926,"<img src=""portrait/BW1.jpg""style=""height:400px;""></img>",0,html-button-response,209,1121545,0.0-16.0-1.0,37240,List1B,white,man,,TRUE,0,,,,,
null,CORRECT,,html-keyboard-response,210,1123057,0.0-16.0-2.0-0.0,37240,List1B,white,man,,,,null,,,,
5735,"<img src=""portrait/WM1.jpg""style=""height:400px;""></img>",6,html-button-response,211,1128793,0.0-16.0-4.0,37240,List1B,white,man,,TRUE,6,,,,,
null,CORRECT,,html-keyboard-response,212,1130295,0.0-16.0-5.0-0.0,37240,List1B,white,man,,,,null,,,,
11272,"<img src=""portrait/WM2.jpg""style=""height:400px;""></img>",7,html-button-response,213,1141569,0.0-16.0-7.0,37240,List1B,white,man,,TRUE,7,,,,,
null,CORRECT,,html-keyboard-response,214,1143071,0.0-16.0-8.0-0.0,37240,List1B,white,man,,,,null,,,,
2760,"<img src=""portrait/WW2.jpg""style=""height:400px;""></img>",3,html-button-response,215,1145833,0.0-16.0-10.0,37240,List1B,white,man,,TRUE,3,,,,,
null,CORRECT,,html-keyboard-response,216,1147354,0.0-16.0-11.0-0.0,37240,List1B,white,man,,,,null,,,,
3190,"<img src=""portrait/BM2.jpg""style=""height:400px;""></img>",5,html-button-response,217,1150545,0.0-16.0-13.0,37240,List1B,white,man,,TRUE,5,,,,,
null,CORRECT,,html-keyboard-response,218,1152068,0.0-16.0-14.0-0.0,37240,List1B,white,man,,,,null,,,,
3315,"<img src=""portrait/BW2.jpg""style=""height:400px;""></img>",2,html-button-response,219,1155385,0.0-16.0-16.0,37240,List1B,white,man,,TRUE,2,,,,,
null,CORRECT,,html-keyboard-response,220,1156889,0.0-16.0-17.0-0.0,37240,List1B,white,man,,,,null,,,,
3271,"<img src=""portrait/WW1.jpg""style=""height:400px;""></img>",1,html-button-response,221,1160161,0.0-16.0-19.0,37240,List1B,white,man,,TRUE,1,,,,,
null,CORRECT,,html-keyboard-response,222,1161690,0.0-16.0-20.0-0.0,37240,List1B,white,man,,,,null,,,,
3725,"<img src=""portrait/BM1.jpg""style=""height:400px;""></img>",4,html-button-response,223,1165417,0.0-16.0-22.0,37240,List1B,white,man,,TRUE,4,,,,,
null,CORRECT,,html-keyboard-response,224,1166945,0.0-16.0-23.0-0.0,37240,List1B,white,man,,,,null,,,,
1325,<p>You got 8 out of 8 right first time. Press Continue.</p>,0,html-button-response,225,1168272,0.0-16.0-25.0,37240,List1B,white,man,,,,,,,,
null,"<div style=""font-size:60px;"">+</div>",,html-keyboard-response,226,1169776,0.0-17.0-0.0,37240,List1B,white,man,,,,null,,,,
null,"<img src=""stim_listB/touch8.gif""style=""height:400px;""></stim_listB>",,html-keyboard-response,227,1171784,0.0-17.0-1.0,37240,List1B,white,man,,,,null,,,,
null,are touching each other,,html-keyboard-response,228,1173785,0.0-17.0-2.0,37240,List1B,white,man,,,,null,,,,
19531,,,survey-text,229,1193317,0.0-17.0-3.0,37240,List1B,white,man,,,,,"{""Q0"":""Beth and Kate are touching each other.""}","<img src=""stim_listB/touch8.gif""style=""height:400px;""></stim_listB>",are touching each other,
null,"<div style=""font-size:60px;"">+</div>",,html-keyboard-response,230,1193819,0.0-17.0-0.1,37240,List1B,white,man,,,,null,,,,
null,"<img src=""stim_listB/marry6.gif""style=""height:400px;""></stim_listB>",,html-keyboard-response,231,1195833,0.0-17.0-1.1,37240,List1B,white,man,,,,null,,,,
null,are marrying each other,,html-keyboard-response,232,1197836,0.0-17.0-2.1,37240,List1B,white,man,,,,null,,,,
11968,,,survey-text,233,1209805,0.0-17.0-3.1,37240,List1B,white,man,,,,,"{""Q0"":""Fred and Dave are marrying each other.""}","<img src=""stim_listB/marry6.gif""style=""height:400px;""></stim_listB>",are marrying each other,
null,"<div style=""font-size:60px;"">+</div>",,html-keyboard-response,234,1210306,0.0-17.0-0.2,37240,List1B,white,man,,,,null,,,,
null,"<img src=""stim_listB/marry4.gif""style=""height:400px;""></stim_listB>",,html-keyboard-response,235,1212317,0.0-17.0-1.2,37240,List1B,white,man,,,,null,,,,
null,are marrying each other,,html-keyboard-response,236,1214318,0.0-17.0-2.2,37240,List1B,white,man,,,,null,,,,
13118,,,survey-text,237,1227437,0.0-17.0-3.2,37240,List1B,white,man,,,,,"{""Q0"":""Luke and Jane are marrying each other.""}","<img src=""stim_listB/marry4.gif""style=""height:400px;""></stim_listB>",are marrying each other,
null,"<div style=""font-size:60px;"">+</div>",,html-keyboard-response,238,1227939,0.0-17.0-0.3,37240,List1B,white,man,,,,null,,,,
null,"<img src=""stim_listB/play5.gif""style=""height:400px;""></stim_listB>",,html-keyboard-response,239,1229944,0.0-17.0-1.3,37240,List1B,white,man,,,,null,,,,
null,is playing with,,html-keyboard-response,240,1231950,0.0-17.0-2.3,37240,List1B,white,man,,,,null,,,,
9411,,,survey-text,241,1241362,0.0-17.0-3.3,37240,List1B,white,man,,,,,"{""Q0"":""Dave and Mike are playing.""}","<img src=""stim_listB/play5.gif""style=""height:400px;""></stim_listB>",is playing with,
null,"<div style=""font-size:60px;"">+</div>",,html-keyboard-response,242,1241875,0.0-17.0-0.4,37240,List1B,white,man,,,,null,,,,
null,"<img src=""stim_listB/shout6.gif""style=""height:400px;""></stim_listB>",,html-keyboard-response,243,1243878,0.0-17.0-1.4,37240,List1B,white,man,,,,null,,,,
null,are shouting at each other,,html-keyboard-response,244,1245894,0.0-17.0-2.4,37240,List1B,white,man,,,,null,,,,
22378,,,survey-text,245,1268274,0.0-17.0-3.4,37240,List1B,white,man,,,,,"{""Q0"":""Dave and Mike are shouting at each other.""}","<img src=""stim_listB/shout6.gif""style=""height:400px;""></stim_listB>",are shouting at each other,
null,"<div style=""font-size:60px;"">+</div>",,html-keyboard-response,246,1268789,0.0-17.0-0.5,37240,List1B,white,man,,,,null,,,,
null,"<img src=""stim_listB/shout1.gif""style=""height:400px;""></stim_listB>",,html-keyboard-response,247,1270793,0.0-17.0-1.5,37240,List1B,white,man,,,,null,,,,
null,is shouting at,,html-keyboard-response,248,1272805,0.0-17.0-2.5,37240,List1B,white,man,,,,null,,,,
12004,,,survey-text,249,1284810,0.0-17.0-3.5,37240,List1B,white,man,,,,,"{""Q0"":""Fred and Beth are shouting.""}","<img src=""stim_listB/shout1.gif""style=""height:400px;""></stim_listB>",is shouting at,
null,"<div style=""font-size:60px;"">+</div>",,html-keyboard-response,250,1285311,0.0-17.0-0.6,37240,List1B,white,man,,,,null,,,,
null,"<img src=""stim_listB/dance8.gif""style=""height:400px;""></stim_listB>",,html-keyboard-response,251,1287321,0.0-17.0-1.6,37240,List1B,white,man,,,,null,,,,
null,are dancing with each other,,html-keyboard-response,252,1289338,0.0-17.0-2.6,37240,List1B,white,man,,,,null,,,,
10915,,,survey-text,253,1300254,0.0-17.0-3.6,37240,List1B,white,man,,,,,"{""Q0"":""Ruth and Kate are dancing.""}","<img src=""stim_listB/dance8.gif""style=""height:400px;""></stim_listB>",are dancing with each other,
null,"<div style=""font-size:60px;"">+</div>",,html-keyboard-response,254,1300756,0.0-17.0-0.7,37240,List1B,white,man,,,,null,,,,
null,"<img src=""stim_listB/flirt3.gif""style=""height:400px;""></stim_listB>",,html-keyboard-response,255,1302761,0.0-17.0-1.7,37240,List1B,white,man,,,,null,,,,
null,is flirting with,,html-keyboard-response,256,1304777,0.0-17.0-2.7,37240,List1B,white,man,,,,null,,,,
10260,,,survey-text,257,1315038,0.0-17.0-3.7,37240,List1B,white,man,,,,,"{""Q0"":""Luke and Jane are flirting.""}","<img src=""stim_listB/flirt3.gif""style=""height:400px;""></stim_listB>",is flirting with,
null,"<div style=""font-size:60px;"">+</div>",,html-keyboard-response,258,1315539,0.0-17.0-0.8,37240,List1B,white,man,,,,null,,,,
null,"<img src=""stim_listB/touch1.gif""style=""height:400px;""></stim_listB>",,html-keyboard-response,259,1317542,0.0-17.0-1.8,37240,List1B,white,man,,,,null,,,,
null,is touching,,html-keyboard-response,260,1319558,0.0-17.0-2.8,37240,List1B,white,man,,,,null,,,,
12735,,,survey-text,261,1332294,0.0-17.0-3.8,37240,List1B,white,man,,,,,"{""Q0"":""Mike and Kate are touching.""}","<img src=""stim_listB/touch1.gif""style=""height:400px;""></stim_listB>",is touching,
null,"<div style=""font-size:60px;"">+</div>",,html-keyboard-response,262,1332796,0.0-17.0-0.9,37240,List1B,white,man,,,,null,,,,
null,"<img src=""stim_listB/fight6.gif""style=""height:400px;""></stim_listB>",,html-keyboard-response,263,1334802,0.0-17.0-1.9,37240,List1B,white,man,,,,null,,,,
null,are fighting each other,,html-keyboard-response,264,1336807,0.0-17.0-2.9,37240,List1B,white,man,,,,null,,,,
16190,,,survey-text,265,1352998,0.0-17.0-3.9,37240,List1B,white,man,,,,,"{""Q0"":""Fred and Luke are fighting each other.""}","<img src=""stim_listB/fight6.gif""style=""height:400px;""></stim_listB>",are fighting each other,
null,"<div style=""font-size:60px;"">+</div>",,html-keyboard-response,266,1353513,0.0-17.0-0.10,37240,List1B,white,man,,,,null,,,,
null,"<img src=""stim_listB/fight1.gif""style=""height:400px;""></stim_listB>",,html-keyboard-response,267,1355516,0.0-17.0-1.10,37240,List1B,white,man,,,,null,,,,
null,is fighting,,html-keyboard-response,268,1357529,0.0-17.0-2.10,37240,List1B,white,man,,,,null,,,,
9299,,,survey-text,269,1366830,0.0-17.0-3.10,37240,List1B,white,man,,,,,"{""Q0"":""Mike and Kate are fighting.""}","<img src=""stim_listB/fight1.gif""style=""height:400px;""></stim_listB>",is fighting,
null,"<div style=""font-size:60px;"">+</div>",,html-keyboard-response,270,1367331,0.0-17.0-0.11,37240,List1B,white,man,,,,null,,,,
null,"<img src=""stim_listB/flirt5.gif""style=""height:400px;""></stim_listB>",,html-keyboard-response,271,1369345,0.0-17.0-1.11,37240,List1B,white,man,,,,null,,,,
null,is flirting with,,html-keyboard-response,272,1371347,0.0-17.0-2.11,37240,List1B,white,man,,,,null,,,,
12194,,,survey-text,273,1383543,0.0-17.0-3.11,37240,List1B,white,man,,,,,"{""Q0"":""Fred and Dave are flirting.""}","<img src=""stim_listB/flirt5.gif""style=""height:400px;""></stim_listB>",is flirting with,
null,"<div style=""font-size:60px;"">+</div>",,html-keyboard-response,274,1384043,0.0-17.0-0.12,37240,List1B,white,man,,,,null,,,,
null,"<img src=""stim_listB/kiss2.gif""style=""height:400px;""></stim_listB>",,html-keyboard-response,275,1386045,0.0-17.0-1.12,37240,List1B,white,man,,,,null,,,,
null,are kissing each other,,html-keyboard-response,276,1388053,0.0-17.0-2.12,37240,List1B,white,man,,,,null,,,,
10768,,,survey-text,277,1398823,0.0-17.0-3.12,37240,List1B,white,man,,,,,"{""Q0"":""Mike and Kate are kissing each other.""}","<img src=""stim_listB/kiss2.gif""style=""height:400px;""></stim_listB>",are kissing each other,
null,"<div style=""font-size:60px;"">+</div>",,html-keyboard-response,278,1399324,0.0-17.0-0.13,37240,List1B,white,man,,,,null,,,,
null,"<img src=""stim_listB/flirt2.gif""style=""height:400px;""></stim_listB>",,html-keyboard-response,279,1401327,0.0-17.0-1.13,37240,List1B,white,man,,,,null,,,,
null,are flirting with each other,,html-keyboard-response,280,1403341,0.0-17.0-2.13,37240,List1B,white,man,,,,null,,,,
18880,,,survey-text,281,1422222,0.0-17.0-3.13,37240,List1B,white,man,,,,,"{""Q0"":""Mike and Beth are flirting with each other.""}","<img src=""stim_listB/flirt2.gif""style=""height:400px;""></stim_listB>",are flirting with each other,
null,"<div style=""font-size:60px;"">+</div>",,html-keyboard-response,282,1422724,0.0-17.0-0.14,37240,List1B,white,man,,,,null,,,,
null,"<img src=""stim_listB/dance5.gif""style=""height:400px;""></stim_listB>",,html-keyboard-response,283,1424738,0.0-17.0-1.14,37240,List1B,white,man,,,,null,,,,
null,is dancing with,,html-keyboard-response,284,1426742,0.0-17.0-2.14,37240,List1B,white,man,,,,null,,,,
12071,,,survey-text,285,1438814,0.0-17.0-3.14,37240,List1B,white,man,,,,,"{""Q0"":""Dave and Fred is dancing.""}","<img src=""stim_listB/dance5.gif""style=""height:400px;""></stim_listB>",is dancing with,
null,"<div style=""font-size:60px;"">+</div>",,html-keyboard-response,286,1439315,0.0-17.0-0.15,37240,List1B,white,man,,,,null,,,,
null,"<img src=""stim_listB/talk6.gif""style=""height:400px;""></stim_listB>",,html-keyboard-response,287,1441324,0.0-17.0-1.15,37240,List1B,white,man,,,,null,,,,
null,are talking to each other,,html-keyboard-response,288,1443326,0.0-17.0-2.15,37240,List1B,white,man,,,,null,,,,
25183,,,survey-text,289,1468510,0.0-17.0-3.15,37240,List1B,white,man,,,,,"{""Q0"":""Mike and Luke are talking to each other.""}","<img src=""stim_listB/talk6.gif""style=""height:400px;""></stim_listB>",are talking to each other,
null,"<div style=""font-size:60px;"">+</div>",,html-keyboard-response,290,1469011,0.0-17.0-0.16,37240,List1B,white,man,,,,null,,,,
null,"<img src=""stim_listB/fight2.gif""style=""height:400px;""></stim_listB>",,html-keyboard-response,291,1471013,0.0-17.0-1.16,37240,List1B,white,man,,,,null,,,,
null,are fighting each other,,html-keyboard-response,292,1473029,0.0-17.0-2.16,37240,List1B,white,man,,,,null,,,,
9061,,,survey-text,293,1482092,0.0-17.0-3.16,37240,List1B,white,man,,,,,"{""Q0"":""Fred and Beth are fighting.""}","<img src=""stim_listB/fight2.gif""style=""height:400px;""></stim_listB>",are fighting each other,
null,"<div style=""font-size:60px;"">+</div>",,html-keyboard-response,294,1482593,0.0-17.0-0.17,37240,List1B,white,man,,,,null,,,,
null,"<img src=""stim_listB/dance4.gif""style=""height:400px;""></stim_listB>",,html-keyboard-response,295,1484596,0.0-17.0-1.17,37240,List1B,white,man,,,,null,,,,
null,are dancing with each other,,html-keyboard-response,296,1486609,0.0-17.0-2.17,37240,List1B,white,man,,,,null,,,,
27049,,,survey-text,297,1513660,0.0-17.0-3.17,37240,List1B,white,man,,,,,"{""Q0"":""Dave and Ruth are dancing.""}","<img src=""stim_listB/dance4.gif""style=""height:400px;""></stim_listB>",are dancing with each other,
null,"<div style=""font-size:60px;"">+</div>",,html-keyboard-response,298,1514161,0.0-17.0-0.18,37240,List1B,white,man,,,,null,,,,
null,"<img src=""stim_listB/kiss6.gif""style=""height:400px;""></stim_listB>",,html-keyboard-response,299,1516164,0.0-17.0-1.18,37240,List1B,white,man,,,,null,,,,
null,are kissing each other,,html-keyboard-response,300,1518166,0.0-17.0-2.18,37240,List1B,white,man,,,,null,,,,
38739,,,survey-text,301,1556907,0.0-17.0-3.18,37240,List1B,white,man,,,,,"{""Q0"":""Dave and Mike are dancing.""}","<img src=""stim_listB/kiss6.gif""style=""height:400px;""></stim_listB>",are kissing each other,
null,"<div style=""font-size:60px;"">+</div>",,html-keyboard-response,302,1557408,0.0-17.0-0.19,37240,List1B,white,man,,,,null,,,,
null,"<img src=""stim_listB/marry2.gif""style=""height:400px;""></stim_listB>",,html-keyboard-response,303,1559412,0.0-17.0-1.19,37240,List1B,white,man,,,,null,,,,
null,are marrying each other,,html-keyboard-response,304,1561423,0.0-17.0-2.19,37240,List1B,white,man,,,,null,,,,
17226,,,survey-text,305,1578651,0.0-17.0-3.19,37240,List1B,white,man,,,,,"{""Q0"":""Fred and Kate are marrying.""}","<img src=""stim_listB/marry2.gif""style=""height:400px;""></stim_listB>",are marrying each other,
2871,"<img src='img/portrait_matrix_list1.jpg' style='width:900px;height:500px;''></img><p>If you have memorised all the portraits and names and are ready to start, press Continue.</p><p><strong>Please note: Your memory of these faces will be tested 4 times during this experiment.</strong></p>",0,html-button-response,306,1581523,0.0-18.0-0.0,37240,List1B,white,man,,,,,,,,
5429,"<img src=""portrait/BW1.jpg""style=""height:400px;""></img>",0,html-button-response,307,1587955,0.0-18.0-1.0,37240,List1B,white,man,,TRUE,0,,,,,
null,CORRECT,,html-keyboard-response,308,1589468,0.0-18.0-2.0-0.0,37240,List1B,white,man,,,,null,,,,
1668,"<img src=""portrait/WW2.jpg""style=""height:400px;""></img>",3,html-button-response,309,1591138,0.0-18.0-4.0,37240,List1B,white,man,,TRUE,3,,,,,
null,CORRECT,,html-keyboard-response,310,1592668,0.0-18.0-5.0-0.0,37240,List1B,white,man,,,,null,,,,
1822,"<img src=""portrait/BM1.jpg""style=""height:400px;""></img>",4,html-button-response,311,1594490,0.0-18.0-7.0,37240,List1B,white,man,,TRUE,4,,,,,
null,CORRECT,,html-keyboard-response,312,1596008,0.0-18.0-8.0-0.0,37240,List1B,white,man,,,,null,,,,
5516,"<img src=""portrait/BM2.jpg""style=""height:400px;""></img>",5,html-button-response,313,1601525,0.0-18.0-10.0,37240,List1B,white,man,,TRUE,5,,,,,
null,CORRECT,,html-keyboard-response,314,1603049,0.0-18.0-11.0-0.0,37240,List1B,white,man,,,,null,,,,
5243,"<img src=""portrait/WM1.jpg""style=""height:400px;""></img>",6,html-button-response,315,1608293,0.0-18.0-13.0,37240,List1B,white,man,,TRUE,6,,,,,
null,CORRECT,,html-keyboard-response,316,1609823,0.0-18.0-14.0-0.0,37240,List1B,white,man,,,,null,,,,
3709,"<img src=""portrait/WW1.jpg""style=""height:400px;""></img>",1,html-button-response,317,1613533,0.0-18.0-16.0,37240,List1B,white,man,,TRUE,1,,,,,
null,CORRECT,,html-keyboard-response,318,1615057,0.0-18.0-17.0-0.0,37240,List1B,white,man,,,,null,,,,
2764,"<img src=""portrait/WM2.jpg""style=""height:400px;""></img>",7,html-button-response,319,1617821,0.0-18.0-19.0,37240,List1B,white,man,,TRUE,7,,,,,
null,CORRECT,,html-keyboard-response,320,1619339,0.0-18.0-20.0-0.0,37240,List1B,white,man,,,,null,,,,
2746,"<img src=""portrait/BW2.jpg""style=""height:400px;""></img>",2,html-button-response,321,1622085,0.0-18.0-22.0,37240,List1B,white,man,,TRUE,2,,,,,
null,CORRECT,,html-keyboard-response,322,1623609,0.0-18.0-23.0-0.0,37240,List1B,white,man,,,,null,,,,
1571,<p>You got 8 out of 8 right first time. Press Continue.</p>,0,html-button-response,323,1625181,0.0-18.0-25.0,37240,List1B,white,man,,,,,,,,
null,"<div style=""font-size:60px;"">+</div>",,html-keyboard-response,324,1626689,0.0-19.0-0.0,37240,List1B,white,man,,,,null,,,,
null,"<img src=""stim_listB/shout7.gif""style=""height:400px;""></stim_listB>",,html-keyboard-response,325,1628692,0.0-19.0-1.0,37240,List1B,white,man,,,,null,,,,
null,is shouting at,,html-keyboard-response,326,1630694,0.0-19.0-2.0,37240,List1B,white,man,,,,null,,,,
12678,,,survey-text,327,1643373,0.0-19.0-3.0,37240,List1B,white,man,,,,,"{""Q0"":""Ruth and Beth are shouting.""}","<img src=""stim_listB/shout7.gif""style=""height:400px;""></stim_listB>",is shouting at,
null,"<div style=""font-size:60px;"">+</div>",,html-keyboard-response,328,1643875,0.0-19.0-0.1,37240,List1B,white,man,,,,null,,,,
null,"<img src=""stim_listB/argue3.gif""style=""height:400px;""></stim_listB>",,html-keyboard-response,329,1645878,0.0-19.0-1.1,37240,List1B,white,man,,,,null,,,,
null,is arguing with,,html-keyboard-response,330,1647885,0.0-19.0-2.1,37240,List1B,white,man,,,,null,,,,
10359,,,survey-text,331,1658245,0.0-19.0-3.1,37240,List1B,white,man,,,,,"{""Q0"":""Dave and Ruth are arguing.""}","<img src=""stim_listB/argue3.gif""style=""height:400px;""></stim_listB>",is arguing with,
null,"<div style=""font-size:60px;"">+</div>",,html-keyboard-response,332,1658746,0.0-19.0-0.2,37240,List1B,white,man,,,,null,,,,
null,"<img src=""stim_listB/touch2.gif""style=""height:400px;""></stim_listB>",,html-keyboard-response,333,1660752,0.0-19.0-1.2,37240,List1B,white,man,,,,null,,,,
null,are touching each other,,html-keyboard-response,334,1662768,0.0-19.0-2.2,37240,List1B,white,man,,,,null,,,,
11613,,,survey-text,335,1674383,0.0-19.0-3.2,37240,List1B,white,man,,,,,"{""Q0"":""Fred and Beth are touching each other.""}","<img src=""stim_listB/touch2.gif""style=""height:400px;""></stim_listB>",are touching each other,
null,"<div style=""font-size:60px;"">+</div>",,html-keyboard-response,336,1674888,0.0-19.0-0.3,37240,List1B,white,man,,,,null,,,,
null,"<img src=""stim_listB/argue4.gif""style=""height:400px;""></stim_listB>",,html-keyboard-response,337,1676891,0.0-19.0-1.3,37240,List1B,white,man,,,,null,,,,
null,are arguing with each other,,html-keyboard-response,338,1678907,0.0-19.0-2.3,37240,List1B,white,man,,,,null,,,,
10683,,,survey-text,339,1689591,0.0-19.0-3.3,37240,List1B,white,man,,,,,"{""Q0"":""Luke and Jane are talking.""}","<img src=""stim_listB/argue4.gif""style=""height:400px;""></stim_listB>",are arguing with each other,
null,"<div style=""font-size:60px;"">+</div>",,html-keyboard-response,340,1690093,0.0-19.0-0.4,37240,List1B,white,man,,,,null,,,,
null,"<img src=""stim_listB/argue1.gif""style=""height:400px;""></stim_listB>",,html-keyboard-response,341,1692109,0.0-19.0-1.4,37240,List1B,white,man,,,,null,,,,
null,is arguing with,,html-keyboard-response,342,1694118,0.0-19.0-2.4,37240,List1B,white,man,,,,null,,,,
10976,,,survey-text,343,1705095,0.0-19.0-3.4,37240,List1B,white,man,,,,,"{""Q0"":""Mike and Beth are arguing. ""}","<img src=""stim_listB/argue1.gif""style=""height:400px;""></stim_listB>",is arguing with,
null,"<div style=""font-size:60px;"">+</div>",,html-keyboard-response,344,1705597,0.0-19.0-0.5,37240,List1B,white,man,,,,null,,,,
null,"<img src=""stim_listB/talk1.gif""style=""height:400px;""></stim_listB>",,html-keyboard-response,345,1707607,0.0-19.0-1.5,37240,List1B,white,man,,,,null,,,,
null,is talking to,,html-keyboard-response,346,1709609,0.0-19.0-2.5,37240,List1B,white,man,,,,null,,,,
13296,,,survey-text,347,1722906,0.0-19.0-3.5,37240,List1B,white,man,,,,,"{""Q0"":""Kate and Fred are arguing.""}","<img src=""stim_listB/talk1.gif""style=""height:400px;""></stim_listB>",is talking to,
null,"<div style=""font-size:60px;"">+</div>",,html-keyboard-response,348,1723416,0.0-19.0-0.6,37240,List1B,white,man,,,,null,,,,
null,"<img src=""stim_listB/talk4.gif""style=""height:400px;""></stim_listB>",,html-keyboard-response,349,1725420,0.0-19.0-1.6,37240,List1B,white,man,,,,null,,,,
null,are talking to each other,,html-keyboard-response,350,1727426,0.0-19.0-2.6,37240,List1B,white,man,,,,null,,,,
17743,,,survey-text,351,1745170,0.0-19.0-3.6,37240,List1B,white,man,,,,,"{""Q0"":""Ruth and Dave are talking to each other.""}","<img src=""stim_listB/talk4.gif""style=""height:400px;""></stim_listB>",are talking to each other,
null,"<div style=""font-size:60px;"">+</div>",,html-keyboard-response,352,1745672,0.0-19.0-0.7,37240,List1B,white,man,,,,null,,,,
null,"<img src=""stim_listB/play8.gif""style=""height:400px;""></stim_listB>",,html-keyboard-response,353,1747682,0.0-19.0-1.7,37240,List1B,white,man,,,,null,,,,
null,are playing with each other,,html-keyboard-response,354,1749684,0.0-19.0-2.7,37240,List1B,white,man,,,,null,,,,
18173,,,survey-text,355,1767858,0.0-19.0-3.7,37240,List1B,white,man,,,,,"{""Q0"":""Ruth and Beth are playing with each other. ""}","<img src=""stim_listB/play8.gif""style=""height:400px;""></stim_listB>",are playing with each other,
null,"<div style=""font-size:60px;"">+</div>",,html-keyboard-response,356,1768359,0.0-19.0-0.8,37240,List1B,white,man,,,,null,,,,
null,"<img src=""stim_listB/kiss7.gif""style=""height:400px;""></stim_listB>",,html-keyboard-response,357,1770363,0.0-19.0-1.8,37240,List1B,white,man,,,,null,,,,
null,is kissing,,html-keyboard-response,358,1772372,0.0-19.0-2.8,37240,List1B,white,man,,,,null,,,,
10923,,,survey-text,359,1783298,0.0-19.0-3.8,37240,List1B,white,man,,,,,"{""Q0"":""Ruth and Beth are kissing.""}","<img src=""stim_listB/kiss7.gif""style=""height:400px;""></stim_listB>",is kissing,
null,"<div style=""font-size:60px;"">+</div>",,html-keyboard-response,360,1783799,0.0-19.0-0.9,37240,List1B,white,man,,,,null,,,,
null,"<img src=""stim_listB/flirt4.gif""style=""height:400px;""></stim_listB>",,html-keyboard-response,361,1785802,0.0-19.0-1.9,37240,List1B,white,man,,,,null,,,,
null,are flirting with each other,,html-keyboard-response,362,1787816,0.0-19.0-2.9,37240,List1B,white,man,,,,null,,,,
22216,,,survey-text,363,1810034,0.0-19.0-3.9,37240,List1B,white,man,,,,,"{""Q0"":""Dave and Ruth are flirting with each other.""}","<img src=""stim_listB/flirt4.gif""style=""height:400px;""></stim_listB>",are flirting with each other,
null,"<div style=""font-size:60px;"">+</div>",,html-keyboard-response,364,1810535,0.0-19.0-0.10,37240,List1B,white,man,,,,null,,,,
null,"<img src=""stim_listB/talk7.gif""style=""height:400px;""></stim_listB>",,html-keyboard-response,365,1812548,0.0-19.0-1.10,37240,List1B,white,man,,,,null,,,,
null,is talking to,,html-keyboard-response,366,1814557,0.0-19.0-2.10,37240,List1B,white,man,,,,null,,,,
13867,,,survey-text,367,1828426,0.0-19.0-3.10,37240,List1B,white,man,,,,,"{""Q0"":""Jane and Beth are talking.""}","<img src=""stim_listB/talk7.gif""style=""height:400px;""></stim_listB>",is talking to,
null,"<div style=""font-size:60px;"">+</div>",,html-keyboard-response,368,1828927,0.0-19.0-0.11,37240,List1B,white,man,,,,null,,,,
null,"<img src=""stim_listB/dance3.gif""style=""height:400px;""></stim_listB>",,html-keyboard-response,369,1830932,0.0-19.0-1.11,37240,List1B,white,man,,,,null,,,,
null,is dancing with,,html-keyboard-response,370,1832934,0.0-19.0-2.11,37240,List1B,white,man,,,,null,,,,
7730,,,survey-text,371,1840666,0.0-19.0-3.11,37240,List1B,white,man,,,,,"{""Q0"":""Luke and Jane are dancing.""}","<img src=""stim_listB/dance3.gif""style=""height:400px;""></stim_listB>",is dancing with,
null,"<div style=""font-size:60px;"">+</div>",,html-keyboard-response,372,1841167,0.0-19.0-0.12,37240,List1B,white,man,,,,null,,,,
null,"<img src=""stim_listB/flirt6.gif""style=""height:400px;""></stim_listB>",,html-keyboard-response,373,1843170,0.0-19.0-1.12,37240,List1B,white,man,,,,null,,,,
null,are flirting with each other,,html-keyboard-response,374,1845180,0.0-19.0-2.12,37240,List1B,white,man,,,,null,,,,
15952,,,survey-text,375,1861133,0.0-19.0-3.12,37240,List1B,white,man,,,,,"{""Q0"":""Mike and Luke are flirting with each other.""}","<img src=""stim_listB/flirt6.gif""style=""height:400px;""></stim_listB>",are flirting with each other,
null,"<div style=""font-size:60px;"">+</div>",,html-keyboard-response,376,1861634,0.0-19.0-0.13,37240,List1B,white,man,,,,null,,,,
null,"<img src=""stim_listB/dance1.gif""style=""height:400px;""></stim_listB>",,html-keyboard-response,377,1863649,0.0-19.0-1.13,37240,List1B,white,man,,,,null,,,,
null,is dancing with,,html-keyboard-response,378,1865654,0.0-19.0-2.13,37240,List1B,white,man,,,,null,,,,
36061,,,survey-text,379,1901717,0.0-19.0-3.13,37240,List1B,white,man,,,,,"{""Q0"":""mIKE and kATE ARE DANCING. ""}","<img src=""stim_listB/dance1.gif""style=""height:400px;""></stim_listB>",is dancing with,
null,"<div style=""font-size:60px;"">+</div>",,html-keyboard-response,380,1902218,0.0-19.0-0.14,37240,List1B,white,man,,,,null,,,,
null,"<img src=""stim_listB/play3.gif""style=""height:400px;""></stim_listB>",,html-keyboard-response,381,1904221,0.0-19.0-1.14,37240,List1B,white,man,,,,null,,,,
null,is playing with,,html-keyboard-response,382,1906227,0.0-19.0-2.14,37240,List1B,white,man,,,,null,,,,
15249,,,survey-text,383,1921477,0.0-19.0-3.14,37240,List1B,white,man,,,,,"{""Q0"":""Dave and Jane are playing.""}","<img src=""stim_listB/play3.gif""style=""height:400px;""></stim_listB>",is playing with,
null,"<div style=""font-size:60px;"">+</div>",,html-keyboard-response,384,1921990,0.0-19.0-0.15,37240,List1B,white,man,,,,null,,,,
null,"<img src=""stim_listB/kiss1.gif""style=""height:400px;""></stim_listB>",,html-keyboard-response,385,1923997,0.0-19.0-1.15,37240,List1B,white,man,,,,null,,,,
null,is kissing,,html-keyboard-response,386,1925999,0.0-19.0-2.15,37240,List1B,white,man,,,,null,,,,
13525,,,survey-text,387,1939525,0.0-19.0-3.15,37240,List1B,white,man,,,,,"{""Q0"":""Fred and Beth are kissing.""}","<img src=""stim_listB/kiss1.gif""style=""height:400px;""></stim_listB>",is kissing,
null,"<div style=""font-size:60px;"">+</div>",,html-keyboard-response,388,1940027,0.0-19.0-0.16,37240,List1B,white,man,,,,null,,,,
null,"<img src=""stim_listB/dance7.gif""style=""height:400px;""></stim_listB>",,html-keyboard-response,389,1942030,0.0-19.0-1.16,37240,List1B,white,man,,,,null,,,,
null,is dancing with,,html-keyboard-response,390,1944042,0.0-19.0-2.16,37240,List1B,white,man,,,,null,,,,
16522,,,survey-text,391,1960565,0.0-19.0-3.16,37240,List1B,white,man,,,,,"{""Q0"":""Jane is dancing with Beth.""}","<img src=""stim_listB/dance7.gif""style=""height:400px;""></stim_listB>",is dancing with,
null,"<div style=""font-size:60px;"">+</div>",,html-keyboard-response,392,1961066,0.0-19.0-0.17,37240,List1B,white,man,,,,null,,,,
null,"<img src=""stim_listB/play4.gif""style=""height:400px;""></stim_listB>",,html-keyboard-response,393,1963068,0.0-19.0-1.17,37240,List1B,white,man,,,,null,,,,
null,are playing with each other,,html-keyboard-response,394,1965076,0.0-19.0-2.17,37240,List1B,white,man,,,,null,,,,
9465,,,survey-text,395,1974543,0.0-19.0-3.17,37240,List1B,white,man,,,,,"{""Q0"":""Luke and Ruth are talking.""}","<img src=""stim_listB/play4.gif""style=""height:400px;""></stim_listB>",are playing with each other,
null,"<div style=""font-size:60px;"">+</div>",,html-keyboard-response,396,1975045,0.0-19.0-0.18,37240,List1B,white,man,,,,null,,,,
null,"<img src=""stim_listB/talk2.gif""style=""height:400px;""></stim_listB>",,html-keyboard-response,397,1977048,0.0-19.0-1.18,37240,List1B,white,man,,,,null,,,,
null,are talking to each other,,html-keyboard-response,398,1979053,0.0-19.0-2.18,37240,List1B,white,man,,,,null,,,,
10025,,,survey-text,399,1989079,0.0-19.0-3.18,37240,List1B,white,man,,,,,"{""Q0"":""Beth and Mike are talking.""}","<img src=""stim_listB/talk2.gif""style=""height:400px;""></stim_listB>",are talking to each other,
null,"<div style=""font-size:60px;"">+</div>",,html-keyboard-response,400,1989580,0.0-19.0-0.19,37240,List1B,white,man,,,,null,,,,
null,"<img src=""stim_listB/argue8.gif""style=""height:400px;""></stim_listB>",,html-keyboard-response,401,1991584,0.0-19.0-1.19,37240,List1B,white,man,,,,null,,,,
null,are arguing with each other,,html-keyboard-response,402,1993594,0.0-19.0-2.19,37240,List1B,white,man,,,,null,,,,
13051,,,survey-text,403,2006647,0.0-19.0-3.19,37240,List1B,white,man,,,,,"{""Q0"":""Jane and Beth are arguing.""}","<img src=""stim_listB/argue8.gif""style=""height:400px;""></stim_listB>",are arguing with each other,
2431,<p>Thank you for completing that task.</p><p>The final part of this session is a short questionnaire.</p><p>Press Continue.</p>,0,html-button-response,404,2009079,0.0-20.0,37240,List1B,white,man,,,,,,,,
21547,,,survey-text,405,2031629,0.0-21.0,37240,List1B,white,man,,,,,"{""Q0"":""58"",""Q1"":""English"",""Q2"":""English"",""Q3"":""USA"",""Q4"":""White"",""Q5"":""Male""}",,,demographics
4862,,,survey-likert,406,2036493,0.0-22.0,37240,List1B,white,man,,,,,"{""Q0"":4}",,,likert_ESS
4887,,,survey-likert,407,2041381,0.0-23.0,37240,List1B,white,man,,,,,"{""Q0"":4}",,,likert_NSSAL_Q1
3791,,,survey-likert,408,2045173,0.0-24.0,37240,List1B,white,man,,,,,"{""Q0"":4}",,,likert_NSSAL_Q2
4319,,,survey-likert,409,2049493,0.0-25.0,37240,List1B,white,man,,,,,"{""Q0"":4}",,,likert_CGRS_Q1
2575,,,survey-likert,410,2052069,0.0-26.0,37240,List1B,white,man,,,,,"{""Q0"":4}",,,likert_CGRS_Q2
2055,,,survey-likert,411,2054125,0.0-27.0,37240,List1B,white,man,,,,,"{""Q0"":4}",,,likert_CGRS_Q3
11495,,,survey-text,412,2065621,0.0-28.0,37240,List1B,white,man,,,,,"{""Q0"":""ccc""}",,,worker_id
10684,,,external-html,413,2076549,0.0-29.0,37240,List1B,white,man,debrief.html,,,,,,,
