rt,stimulus,button_pressed,trial_type,trial_index,time_elapsed,internal_node_id,subject,list,ppt_race,ppt_gender,url,first_guess,correct,key_press,responses,image_type,phrase_type,test_part
2340,Welcome to the experiment. Press Continue to begin.,0,html-button-response,0,2353,0.0-0.0,3762,List2A,black,man,,,,,,,,
48871,,,external-html,1,52531,0.0-1.0,3762,List2A,black,man,consent.html,,,,,,,
12863,"<p>On the next page, you will see portraits of 8 people and their names.</p><p>Your first task is to take a few minutes to memorise the names of these people.</p><p>You will have to recall their names during the rest of the experiment, so it is</p><p>essential that you try to memorise these people and their names as best as you can.</p><br><p><strong>You will then be tested on your memory of these names and portraits.</strong></p><br><p>The experiment will start after you have completed this memory test.</p><br><p>Ready?</p>",0,html-button-response,2,65401,0.0-2.0,3762,List2A,black,man,,,,,,,,
59463,"<img src='img/portrait_matrix_list2.jpg' style='width:900px;height:500px;''></img><p>If you have memorised all the portraits and names and are ready to start, press Continue.</p><p><strong>Please note: Your memory of these faces will be tested 4 times during this experiment.</strong></p>",0,html-button-response,3,125896,0.0-3.0-0.0,3762,List2A,black,man,,,,,,,,
4537,"<img src=""portrait/BW1.jpg""style=""height:400px;""></img>",0,html-button-response,4,131443,0.0-3.0-1.0,3762,List2A,black,man,,TRUE,0,,,,,
null,CORRECT,,html-keyboard-response,5,132953,0.0-3.0-2.0-0.0,3762,List2A,black,man,,,,null,,,,
4515,"<img src=""portrait/WM1.jpg""style=""height:400px;""></img>",6,html-button-response,6,137478,0.0-3.0-4.0,3762,List2A,black,man,,TRUE,6,,,,,
null,CORRECT,,html-keyboard-response,7,139044,0.0-3.0-5.0-0.0,3762,List2A,black,man,,,,null,,,,
7166,"<img src=""portrait/WW1.jpg""style=""height:400px;""></img>",1,html-button-response,8,146215,0.0-3.0-7.0,3762,List2A,black,man,,TRUE,1,,,,,
null,CORRECT,,html-keyboard-response,9,147722,0.0-3.0-8.0-0.0,3762,List2A,black,man,,,,null,,,,
4476,"<img src=""portrait/BW2.jpg""style=""height:400px;""></img>",2,html-button-response,10,152206,0.0-3.0-10.0,3762,List2A,black,man,,TRUE,2,,,,,
null,CORRECT,,html-keyboard-response,11,153721,0.0-3.0-11.0-0.0,3762,List2A,black,man,,,,null,,,,
8032,"<img src=""portrait/BM1.jpg""style=""height:400px;""></img>",4,html-button-response,12,161764,0.0-3.0-13.0,3762,List2A,black,man,,TRUE,4,,,,,
null,CORRECT,,html-keyboard-response,13,163289,0.0-3.0-14.0-0.0,3762,List2A,black,man,,,,null,,,,
8185,"<img src=""portrait/WM2.jpg""style=""height:400px;""></img>",5,html-button-response,14,171478,0.0-3.0-16.0,3762,List2A,black,man,,TRUE,7,,,,,
13003,"<img src=""portrait/WM2.jpg""style=""height:400px;""></img>",7,html-button-response,15,185506,0.0-3.0-18.0-0.0,3762,List2A,black,man,,FALSE,7,,,,,
null,CORRECT,,html-keyboard-response,16,187033,0.0-3.0-18.0-1.0-0.0,3762,List2A,black,man,,,,null,,,,
10201,"<img src=""portrait/WW2.jpg""style=""height:400px;""></img>",3,html-button-response,17,197239,0.0-3.0-19.0,3762,List2A,black,man,,TRUE,3,,,,,
null,CORRECT,,html-keyboard-response,18,198771,0.0-3.0-20.0-0.0,3762,List2A,black,man,,,,null,,,,
4858,"<img src=""portrait/BM2.jpg""style=""height:400px;""></img>",5,html-button-response,19,203642,0.0-3.0-22.0,3762,List2A,black,man,,TRUE,5,,,,,
null,CORRECT,,html-keyboard-response,20,205152,0.0-3.0-23.0-0.0,3762,List2A,black,man,,,,null,,,,
2186,<p>You got 7 out of 8 right first time. Press Continue.</p>,0,html-button-response,21,207347,0.0-3.0-25.0,3762,List2A,black,man,,,,,,,,
3560,"As you did not score 100%, the memory game will repeat. Press Continue.",0,html-button-response,22,211914,0.0-3.0-26.0-0.0,3762,List2A,black,man,,,,,,,,
6284,"<img src='img/portrait_matrix_list2.jpg' style='width:900px;height:500px;''></img><p>If you have memorised all the portraits and names and are ready to start, press Continue.</p><p><strong>Please note: Your memory of these faces will be tested 4 times during this experiment.</strong></p>",0,html-button-response,23,219211,0.0-3.1-0.1,3762,List2A,black,man,,,,,,,,
6748,"<img src=""portrait/BW1.jpg""style=""height:400px;""></img>",0,html-button-response,24,226971,0.0-3.1-1.1,3762,List2A,black,man,,TRUE,0,,,,,
null,CORRECT,,html-keyboard-response,25,228548,0.0-3.1-2.1-0.1,3762,List2A,black,man,,,,null,,,,
6838,"<img src=""portrait/WM1.jpg""style=""height:400px;""></img>",6,html-button-response,26,235400,0.0-3.1-4.1,3762,List2A,black,man,,TRUE,6,,,,,
null,CORRECT,,html-keyboard-response,27,236928,0.0-3.1-5.1-0.1,3762,List2A,black,man,,,,null,,,,
4138,"<img src=""portrait/WW1.jpg""style=""height:400px;""></img>",1,html-button-response,28,241073,0.0-3.1-7.1,3762,List2A,black,man,,TRUE,1,,,,,
null,CORRECT,,html-keyboard-response,29,242596,0.0-3.1-8.1-0.1,3762,List2A,black,man,,,,null,,,,
3037,"<img src=""portrait/BW2.jpg""style=""height:400px;""></img>",2,html-button-response,30,245640,0.0-3.1-10.1,3762,List2A,black,man,,TRUE,2,,,,,
null,CORRECT,,html-keyboard-response,31,247152,0.0-3.1-11.1-0.1,3762,List2A,black,man,,,,null,,,,
5363,"<img src=""portrait/BM1.jpg""style=""height:400px;""></img>",4,html-button-response,32,252522,0.0-3.1-13.1,3762,List2A,black,man,,TRUE,4,,,,,
null,CORRECT,,html-keyboard-response,33,254051,0.0-3.1-14.1-0.1,3762,List2A,black,man,,,,null,,,,
5994,"<img src=""portrait/WM2.jpg""style=""height:400px;""></img>",7,html-button-response,34,260051,0.0-3.1-16.1,3762,List2A,black,man,,TRUE,7,,,,,
null,CORRECT,,html-keyboard-response,35,261576,0.0-3.1-17.1-0.1,3762,List2A,black,man,,,,null,,,,
2977,"<img src=""portrait/WW2.jpg""style=""height:400px;""></img>",3,html-button-response,36,264572,0.0-3.1-19.1,3762,List2A,black,man,,TRUE,3,,,,,
null,CORRECT,,html-keyboard-response,37,266089,0.0-3.1-20.1-0.1,3762,List2A,black,man,,,,null,,,,
5268,"<img src=""portrait/BM2.jpg""style=""height:400px;""></img>",5,html-button-response,38,271361,0.0-3.1-22.1,3762,List2A,black,man,,TRUE,5,,,,,
null,CORRECT,,html-keyboard-response,39,272892,0.0-3.1-23.1-0.1,3762,List2A,black,man,,,,null,,,,
5485,<p>You got 8 out of 8 right first time. Press Continue.</p>,0,html-button-response,40,278385,0.0-3.1-25.1,3762,List2A,black,man,,,,,,,,
53691,"<p>In this experiment, you will view photographs of the people from the memory game interacting.</p><p>By using the <strong>exact</strong> phrase given <i>after</i> the photograph appears and recalling the correct names of the people in the photographs, form a sentence describing the interaction. You do not need to capitalise names.</p><p>Type your answer in the space provided. Please complete every sentence before moving onto the next trial.</p><p>You will only have a few seconds to memorise each given photograph and phrase before you can respond, so try your best to focus.</p><p>An example is given below. Press 'Continue' when you are ready.</p><img src='img/speaking_example.jpg' style='width:800px;height:460px;''></img>",0,html-button-response,41,333094,0.0-4.0,3762,List2A,black,man,,,,,,,,
4721,"<p>Before the experiment starts, you will watch two example trials. Press 'Continue'.</p>",0,html-button-response,42,338825,0.0-5.0,3762,List2A,black,man,,,,,,,,
null,<img src='img/meet_eg.gif' style='height:400px;''></img>,,html-keyboard-response,43,341841,0.0-6.0,3762,List2A,black,man,,,,null,,,,
null,<p>is meeting</p>,,html-keyboard-response,44,343874,0.0-7.0,3762,List2A,black,man,,,,null,,,,
67385,<p><b>Answer:</b> jane is meeting ruth</p>,0,html-button-response,45,411262,0.0-8.0,3762,List2A,black,man,,,,,,,,
null,<img src='img/look_eg.gif' style='height:400px;''></img>,,html-keyboard-response,46,414275,0.0-9.0,3762,List2A,black,man,,,,null,,,,
null,<p>are looking at each other</p>,,html-keyboard-response,47,416286,0.0-10.0,3762,List2A,black,man,,,,null,,,,
22123,<p><b>Answer:</b> fred and mike are looking at each other</p>,0,html-button-response,48,438414,0.0-11.0,3762,List2A,black,man,,,,,,,,
7042,"<p>Ready to start the experiment?</p><br><p><strong>Remember to describe the picture using a full sentence,</strong></p><p><strong>that combines the names of the people with the <i>exact</i> phrase given.</strong></p><p><strong>To receive full payment you must do this correctly.</strong></p><p><strong> You do not need to capitalise names or use punctuation.</strong></p><br><p>Press 'Continue' to begin.</p>",0,html-button-response,49,446471,0.0-12.0,3762,List2A,black,man,,,,,,,,
null,"<div style=""font-size:60px;"">+</div>",,html-keyboard-response,50,447977,0.0-13.0-0.0,3762,List2A,black,man,,,,null,,,,
null,"<img src=""stim_listA/play2.gif""style=""height:400px;""></stim_listA>",,html-keyboard-response,51,449987,0.0-13.0-1.0,3762,List2A,black,man,,,,null,,,,
null,are playing with each other,,html-keyboard-response,52,451999,0.0-13.0-2.0,3762,List2A,black,man,,,,null,,,,
27315,,,survey-text,53,479321,0.0-13.0-3.0,3762,List2A,black,man,,,,,"{""Q0"":""Luke is playing with Ruth""}","<img src=""stim_listA/play2.gif""style=""height:400px;""></stim_listA>",are playing with each other,
null,"<div style=""font-size:60px;"">+</div>",,html-keyboard-response,54,479838,0.0-13.0-0.1,3762,List2A,black,man,,,,null,,,,
null,"<img src=""stim_listA/marry1.gif""style=""height:400px;""></stim_listA>",,html-keyboard-response,55,481852,0.0-13.0-1.1,3762,List2A,black,man,,,,null,,,,
null,is marrying,,html-keyboard-response,56,483870,0.0-13.0-2.1,3762,List2A,black,man,,,,null,,,,
11060,,,survey-text,57,494937,0.0-13.0-3.1,3762,List2A,black,man,,,,,"{""Q0"":""Ruth is marrying Dave""}","<img src=""stim_listA/marry1.gif""style=""height:400px;""></stim_listA>",is marrying,
null,"<div style=""font-size:60px;"">+</div>",,html-keyboard-response,58,495451,0.0-13.0-0.2,3762,List2A,black,man,,,,null,,,,
null,"<img src=""stim_listA/dance6.gif""style=""height:400px;""></stim_listA>",,html-keyboard-response,59,497501,0.0-13.0-1.2,3762,List2A,black,man,,,,null,,,,
null,are dancing with each other,,html-keyboard-response,60,499505,0.0-13.0-2.2,3762,List2A,black,man,,,,null,,,,
14213,,,survey-text,61,513722,0.0-13.0-3.2,3762,List2A,black,man,,,,,"{""Q0"":""Fred and Dave are dancing""}","<img src=""stim_listA/dance6.gif""style=""height:400px;""></stim_listA>",are dancing with each other,
null,"<div style=""font-size:60px;"">+</div>",,html-keyboard-response,62,514240,0.0-13.0-0.3,3762,List2A,black,man,,,,null,,,,
null,"<img src=""stim_listA/shout1.gif""style=""height:400px;""></stim_listA>",,html-keyboard-response,63,516300,0.0-13.0-1.3,3762,List2A,black,man,,,,null,,,,
null,is shouting at,,html-keyboard-response,64,518323,0.0-13.0-2.3,3762,List2A,black,man,,,,null,,,,
18592,,,survey-text,65,536920,0.0-13.0-3.3,3762,List2A,black,man,,,,,"{""Q0"":""Luke is shouting at Ruth.""}","<img src=""stim_listA/shout1.gif""style=""height:400px;""></stim_listA>",is shouting at,
null,"<div style=""font-size:60px;"">+</div>",,html-keyboard-response,66,537426,0.0-13.0-0.4,3762,List2A,black,man,,,,null,,,,
null,"<img src=""stim_listA/kiss7.gif""style=""height:400px;""></stim_listA>",,html-keyboard-response,67,539450,0.0-13.0-1.4,3762,List2A,black,man,,,,null,,,,
null,is kissing,,html-keyboard-response,68,541455,0.0-13.0-2.4,3762,List2A,black,man,,,,null,,,,
13228,,,survey-text,69,554690,0.0-13.0-3.4,3762,List2A,black,man,,,,,"{""Q0"":""Beth is kissing Ruth""}","<img src=""stim_listA/kiss7.gif""style=""height:400px;""></stim_listA>",is kissing,
null,"<div style=""font-size:60px;"">+</div>",,html-keyboard-response,70,555209,0.0-13.0-0.5,3762,List2A,black,man,,,,null,,,,
null,"<img src=""stim_listA/talk7.gif""style=""height:400px;""></stim_listA>",,html-keyboard-response,71,557225,0.0-13.0-1.5,3762,List2A,black,man,,,,null,,,,
null,is talking to,,html-keyboard-response,72,559236,0.0-13.0-2.5,3762,List2A,black,man,,,,null,,,,
15743,,,survey-text,73,574985,0.0-13.0-3.5,3762,List2A,black,man,,,,,"{""Q0"":""kate is talking to ruth""}","<img src=""stim_listA/talk7.gif""style=""height:400px;""></stim_listA>",is talking to,
null,"<div style=""font-size:60px;"">+</div>",,html-keyboard-response,74,575504,0.0-13.0-0.6,3762,List2A,black,man,,,,null,,,,
null,"<img src=""stim_listA/argue2.gif""style=""height:400px;""></stim_listA>",,html-keyboard-response,75,577529,0.0-13.0-1.6,3762,List2A,black,man,,,,null,,,,
null,are arguing with each other,,html-keyboard-response,76,579542,0.0-13.0-2.6,3762,List2A,black,man,,,,null,,,,
13883,,,survey-text,77,593429,0.0-13.0-3.6,3762,List2A,black,man,,,,,"{""Q0"":""Luke and jane are arguing""}","<img src=""stim_listA/argue2.gif""style=""height:400px;""></stim_listA>",are arguing with each other,
null,"<div style=""font-size:60px;"">+</div>",,html-keyboard-response,78,593938,0.0-13.0-0.7,3762,List2A,black,man,,,,null,,,,
null,"<img src=""stim_listA/kiss5.gif""style=""height:400px;""></stim_listA>",,html-keyboard-response,79,595941,0.0-13.0-1.7,3762,List2A,black,man,,,,null,,,,
null,is kissing,,html-keyboard-response,80,597948,0.0-13.0-2.7,3762,List2A,black,man,,,,null,,,,
11817,,,survey-text,81,609771,0.0-13.0-3.7,3762,List2A,black,man,,,,,"{""Q0"":""fred and luke are kissing .""}","<img src=""stim_listA/kiss5.gif""style=""height:400px;""></stim_listA>",is kissing,
null,"<div style=""font-size:60px;"">+</div>",,html-keyboard-response,82,610284,0.0-13.0-0.8,3762,List2A,black,man,,,,null,,,,
null,"<img src=""stim_listA/marry7.gif""style=""height:400px;""></stim_listA>",,html-keyboard-response,83,612299,0.0-13.0-1.8,3762,List2A,black,man,,,,null,,,,
null,is marrying,,html-keyboard-response,84,614303,0.0-13.0-2.8,3762,List2A,black,man,,,,null,,,,
16802,,,survey-text,85,631108,0.0-13.0-3.8,3762,List2A,black,man,,,,,"{""Q0"":""beth and jane are marrying""}","<img src=""stim_listA/marry7.gif""style=""height:400px;""></stim_listA>",is marrying,
null,"<div style=""font-size:60px;"">+</div>",,html-keyboard-response,86,631615,0.0-13.0-0.9,3762,List2A,black,man,,,,null,,,,
null,"<img src=""stim_listA/argue6.gif""style=""height:400px;""></stim_listA>",,html-keyboard-response,87,633619,0.0-13.0-1.9,3762,List2A,black,man,,,,null,,,,
null,are arguing with each other,,html-keyboard-response,88,635635,0.0-13.0-2.9,3762,List2A,black,man,,,,null,,,,
15219,,,survey-text,89,650857,0.0-13.0-3.9,3762,List2A,black,man,,,,,"{""Q0"":""mike and luke are arguing with each other""}","<img src=""stim_listA/argue6.gif""style=""height:400px;""></stim_listA>",are arguing with each other,
null,"<div style=""font-size:60px;"">+</div>",,html-keyboard-response,90,651365,0.0-13.0-0.10,3762,List2A,black,man,,,,null,,,,
null,"<img src=""stim_listA/flirt5.gif""style=""height:400px;""></stim_listA>",,html-keyboard-response,91,653376,0.0-13.0-1.10,3762,List2A,black,man,,,,null,,,,
null,is flirting with,,html-keyboard-response,92,655387,0.0-13.0-2.10,3762,List2A,black,man,,,,null,,,,
8538,,,survey-text,93,663931,0.0-13.0-3.10,3762,List2A,black,man,,,,,"{""Q0"":""Luke is flirting with Mike""}","<img src=""stim_listA/flirt5.gif""style=""height:400px;""></stim_listA>",is flirting with,
null,"<div style=""font-size:60px;"">+</div>",,html-keyboard-response,94,664436,0.0-13.0-0.11,3762,List2A,black,man,,,,null,,,,
null,"<img src=""stim_listA/kiss3.gif""style=""height:400px;""></stim_listA>",,html-keyboard-response,95,666440,0.0-13.0-1.11,3762,List2A,black,man,,,,null,,,,
null,is kissing,,html-keyboard-response,96,668455,0.0-13.0-2.11,3762,List2A,black,man,,,,null,,,,
14788,,,survey-text,97,683248,0.0-13.0-3.11,3762,List2A,black,man,,,,,"{""Q0"":""Beth is kissing Fed""}","<img src=""stim_listA/kiss3.gif""style=""height:400px;""></stim_listA>",is kissing,
null,"<div style=""font-size:60px;"">+</div>",,html-keyboard-response,98,683756,0.0-13.0-0.12,3762,List2A,black,man,,,,null,,,,
null,"<img src=""stim_listA/talk4.gif""style=""height:400px;""></stim_listA>",,html-keyboard-response,99,685762,0.0-13.0-1.12,3762,List2A,black,man,,,,null,,,,
null,are talking to each other,,html-keyboard-response,100,687770,0.0-13.0-2.12,3762,List2A,black,man,,,,null,,,,
23444,,,survey-text,101,711218,0.0-13.0-3.12,3762,List2A,black,man,,,,,"{""Q0"":""Mike is talking to Beth""}","<img src=""stim_listA/talk4.gif""style=""height:400px;""></stim_listA>",are talking to each other,
null,"<div style=""font-size:60px;"">+</div>",,html-keyboard-response,102,711723,0.0-13.0-0.13,3762,List2A,black,man,,,,null,,,,
null,"<img src=""stim_listA/flirt2.gif""style=""height:400px;""></stim_listA>",,html-keyboard-response,103,713743,0.0-13.0-1.13,3762,List2A,black,man,,,,null,,,,
null,are flirting with each other,,html-keyboard-response,104,715746,0.0-13.0-2.13,3762,List2A,black,man,,,,null,,,,
11489,,,survey-text,105,727240,0.0-13.0-3.13,3762,List2A,black,man,,,,,"{""Q0"":""Ruth is flirting with Dave""}","<img src=""stim_listA/flirt2.gif""style=""height:400px;""></stim_listA>",are flirting with each other,
null,"<div style=""font-size:60px;"">+</div>",,html-keyboard-response,106,727744,0.0-13.0-0.14,3762,List2A,black,man,,,,null,,,,
null,"<img src=""stim_listA/kiss6.gif""style=""height:400px;""></stim_listA>",,html-keyboard-response,107,729773,0.0-13.0-1.14,3762,List2A,black,man,,,,null,,,,
null,are kissing each other,,html-keyboard-response,108,731784,0.0-13.0-2.14,3762,List2A,black,man,,,,null,,,,
12253,,,survey-text,109,744040,0.0-13.0-3.14,3762,List2A,black,man,,,,,"{""Q0"":""Dave and Mike are kissing each other""}","<img src=""stim_listA/kiss6.gif""style=""height:400px;""></stim_listA>",are kissing each other,
null,"<div style=""font-size:60px;"">+</div>",,html-keyboard-response,110,744551,0.0-13.0-0.15,3762,List2A,black,man,,,,null,,,,
null,"<img src=""stim_listA/fight8.gif""style=""height:400px;""></stim_listA>",,html-keyboard-response,111,746569,0.0-13.0-1.15,3762,List2A,black,man,,,,null,,,,
null,are fighting each other,,html-keyboard-response,112,748584,0.0-13.0-2.15,3762,List2A,black,man,,,,null,,,,
10190,,,survey-text,113,758778,0.0-13.0-3.15,3762,List2A,black,man,,,,,"{""Q0"":""Beth and Ruth are fighting each other""}","<img src=""stim_listA/fight8.gif""style=""height:400px;""></stim_listA>",are fighting each other,
null,"<div style=""font-size:60px;"">+</div>",,html-keyboard-response,114,759286,0.0-13.0-0.16,3762,List2A,black,man,,,,null,,,,
null,"<img src=""stim_listA/touch7.gif""style=""height:400px;""></stim_listA>",,html-keyboard-response,115,761293,0.0-13.0-1.16,3762,List2A,black,man,,,,null,,,,
null,is touching,,html-keyboard-response,116,763299,0.0-13.0-2.16,3762,List2A,black,man,,,,null,,,,
9107,,,survey-text,117,772411,0.0-13.0-3.16,3762,List2A,black,man,,,,,"{""Q0"":""Jane is touching Kate""}","<img src=""stim_listA/touch7.gif""style=""height:400px;""></stim_listA>",is touching,
null,"<div style=""font-size:60px;"">+</div>",,html-keyboard-response,118,772928,0.0-13.0-0.17,3762,List2A,black,man,,,,null,,,,
null,"<img src=""stim_listA/argue5.gif""style=""height:400px;""></stim_listA>",,html-keyboard-response,119,774953,0.0-13.0-1.17,3762,List2A,black,man,,,,null,,,,
null,is arguing with,,html-keyboard-response,120,776969,0.0-13.0-2.17,3762,List2A,black,man,,,,null,,,,
8276,,,survey-text,121,785249,0.0-13.0-3.17,3762,List2A,black,man,,,,,"{""Q0"":""Fred is arguing with Dave""}","<img src=""stim_listA/argue5.gif""style=""height:400px;""></stim_listA>",is arguing with,
null,"<div style=""font-size:60px;"">+</div>",,html-keyboard-response,122,785767,0.0-13.0-0.18,3762,List2A,black,man,,,,null,,,,
null,"<img src=""stim_listA/play6.gif""style=""height:400px;""></stim_listA>",,html-keyboard-response,123,787787,0.0-13.0-1.18,3762,List2A,black,man,,,,null,,,,
null,are playing with each other,,html-keyboard-response,124,789791,0.0-13.0-2.18,3762,List2A,black,man,,,,null,,,,
9332,,,survey-text,125,799126,0.0-13.0-3.18,3762,List2A,black,man,,,,,"{""Q0"":""Luke and Fred are playing with each other""}","<img src=""stim_listA/play6.gif""style=""height:400px;""></stim_listA>",are playing with each other,
null,"<div style=""font-size:60px;"">+</div>",,html-keyboard-response,126,799631,0.0-13.0-0.19,3762,List2A,black,man,,,,null,,,,
null,"<img src=""stim_listA/dance8.gif""style=""height:400px;""></stim_listA>",,html-keyboard-response,127,801664,0.0-13.0-1.19,3762,List2A,black,man,,,,null,,,,
null,are dancing with each other,,html-keyboard-response,128,803676,0.0-13.0-2.19,3762,List2A,black,man,,,,null,,,,
10400,,,survey-text,129,814081,0.0-13.0-3.19,3762,List2A,black,man,,,,,"{""Q0"":""Beth and Jane are dancing with each other""}","<img src=""stim_listA/dance8.gif""style=""height:400px;""></stim_listA>",are dancing with each other,
14444,"<img src='img/portrait_matrix_list2.jpg' style='width:900px;height:500px;''></img><p>If you have memorised all the portraits and names and are ready to start, press Continue.</p><p><strong>Please note: Your memory of these faces will be tested 4 times during this experiment.</strong></p>",0,html-button-response,130,828531,0.0-14.0-0.0,3762,List2A,black,man,,,,,,,,
3536,"<img src=""portrait/BW2.jpg""style=""height:400px;""></img>",2,html-button-response,131,833078,0.0-14.0-1.0,3762,List2A,black,man,,TRUE,2,,,,,
null,CORRECT,,html-keyboard-response,132,834589,0.0-14.0-2.0-0.0,3762,List2A,black,man,,,,null,,,,
3976,"<img src=""portrait/WW1.jpg""style=""height:400px;""></img>",1,html-button-response,133,838570,0.0-14.0-4.0,3762,List2A,black,man,,TRUE,1,,,,,
null,CORRECT,,html-keyboard-response,134,840085,0.0-14.0-5.0-0.0,3762,List2A,black,man,,,,null,,,,
2601,"<img src=""portrait/WM2.jpg""style=""height:400px;""></img>",7,html-button-response,135,842691,0.0-14.0-7.0,3762,List2A,black,man,,TRUE,7,,,,,
null,CORRECT,,html-keyboard-response,136,844219,0.0-14.0-8.0-0.0,3762,List2A,black,man,,,,null,,,,
3428,"<img src=""portrait/BM1.jpg""style=""height:400px;""></img>",4,html-button-response,137,847652,0.0-14.0-10.0,3762,List2A,black,man,,TRUE,4,,,,,
null,CORRECT,,html-keyboard-response,138,849183,0.0-14.0-11.0-0.0,3762,List2A,black,man,,,,null,,,,
3675,"<img src=""portrait/BW1.jpg""style=""height:400px;""></img>",0,html-button-response,139,852863,0.0-14.0-13.0,3762,List2A,black,man,,TRUE,0,,,,,
null,CORRECT,,html-keyboard-response,140,854374,0.0-14.0-14.0-0.0,3762,List2A,black,man,,,,null,,,,
3072,"<img src=""portrait/BM2.jpg""style=""height:400px;""></img>",5,html-button-response,141,857451,0.0-14.0-16.0,3762,List2A,black,man,,TRUE,5,,,,,
null,CORRECT,,html-keyboard-response,142,858995,0.0-14.0-17.0-0.0,3762,List2A,black,man,,,,null,,,,
3021,"<img src=""portrait/WM1.jpg""style=""height:400px;""></img>",6,html-button-response,143,862029,0.0-14.0-19.0,3762,List2A,black,man,,TRUE,6,,,,,
null,CORRECT,,html-keyboard-response,144,863553,0.0-14.0-20.0-0.0,3762,List2A,black,man,,,,null,,,,
2834,"<img src=""portrait/WW2.jpg""style=""height:400px;""></img>",3,html-button-response,145,866391,0.0-14.0-22.0,3762,List2A,black,man,,TRUE,3,,,,,
null,CORRECT,,html-keyboard-response,146,867923,0.0-14.0-23.0-0.0,3762,List2A,black,man,,,,null,,,,
1885,<p>You got 8 out of 8 right first time. Press Continue.</p>,0,html-button-response,147,869816,0.0-14.0-25.0,3762,List2A,black,man,,,,,,,,
null,"<div style=""font-size:60px;"">+</div>",,html-keyboard-response,148,871343,0.0-15.0-0.0,3762,List2A,black,man,,,,null,,,,
null,"<img src=""stim_listA/marry6.gif""style=""height:400px;""></stim_listA>",,html-keyboard-response,149,873349,0.0-15.0-1.0,3762,List2A,black,man,,,,null,,,,
null,are marrying each other,,html-keyboard-response,150,875371,0.0-15.0-2.0,3762,List2A,black,man,,,,null,,,,
9008,,,survey-text,151,884389,0.0-15.0-3.0,3762,List2A,black,man,,,,,"{""Q0"":""Mike and luke are marrying each other""}","<img src=""stim_listA/marry6.gif""style=""height:400px;""></stim_listA>",are marrying each other,
null,"<div style=""font-size:60px;"">+</div>",,html-keyboard-response,152,884901,0.0-15.0-0.1,3762,List2A,black,man,,,,null,,,,
null,"<img src=""stim_listA/marry5.gif""style=""height:400px;""></stim_listA>",,html-keyboard-response,153,886906,0.0-15.0-1.1,3762,List2A,black,man,,,,null,,,,
null,is marrying,,html-keyboard-response,154,888916,0.0-15.0-2.1,3762,List2A,black,man,,,,null,,,,
8910,,,survey-text,155,897829,0.0-15.0-3.1,3762,List2A,black,man,,,,,"{""Q0"":""Fred is marrying Dave""}","<img src=""stim_listA/marry5.gif""style=""height:400px;""></stim_listA>",is marrying,
null,"<div style=""font-size:60px;"">+</div>",,html-keyboard-response,156,898347,0.0-15.0-0.2,3762,List2A,black,man,,,,null,,,,
null,"<img src=""stim_listA/fight2.gif""style=""height:400px;""></stim_listA>",,html-keyboard-response,157,900353,0.0-15.0-1.2,3762,List2A,black,man,,,,null,,,,
null,are fighting each other,,html-keyboard-response,158,902367,0.0-15.0-2.2,3762,List2A,black,man,,,,null,,,,
12770,,,survey-text,159,915141,0.0-15.0-3.2,3762,List2A,black,man,,,,,"{""Q0"":""Luke and Ruth are fighting each other.""}","<img src=""stim_listA/fight2.gif""style=""height:400px;""></stim_listA>",are fighting each other,
null,"<div style=""font-size:60px;"">+</div>",,html-keyboard-response,160,915651,0.0-15.0-0.3,3762,List2A,black,man,,,,null,,,,
null,"<img src=""stim_listA/fight1.gif""style=""height:400px;""></stim_listA>",,html-keyboard-response,161,917656,0.0-15.0-1.3,3762,List2A,black,man,,,,null,,,,
null,is fighting,,html-keyboard-response,162,919661,0.0-15.0-2.3,3762,List2A,black,man,,,,null,,,,
7832,,,survey-text,163,927497,0.0-15.0-3.3,3762,List2A,black,man,,,,,"{""Q0"":""Jane is fighting Dave.""}","<img src=""stim_listA/fight1.gif""style=""height:400px;""></stim_listA>",is fighting,
null,"<div style=""font-size:60px;"">+</div>",,html-keyboard-response,164,928013,0.0-15.0-0.4,3762,List2A,black,man,,,,null,,,,
null,"<img src=""stim_listA/dance3.gif""style=""height:400px;""></stim_listA>",,html-keyboard-response,165,930021,0.0-15.0-1.4,3762,List2A,black,man,,,,null,,,,
null,is dancing with,,html-keyboard-response,166,932034,0.0-15.0-2.4,3762,List2A,black,man,,,,null,,,,
8564,,,survey-text,167,940605,0.0-15.0-3.4,3762,List2A,black,man,,,,,"{""Q0"":""Fred is dancing with Kate""}","<img src=""stim_listA/dance3.gif""style=""height:400px;""></stim_listA>",is dancing with,
null,"<div style=""font-size:60px;"">+</div>",,html-keyboard-response,168,941121,0.0-15.0-0.5,3762,List2A,black,man,,,,null,,,,
null,"<img src=""stim_listA/touch6.gif""style=""height:400px;""></stim_listA>",,html-keyboard-response,169,943126,0.0-15.0-1.5,3762,List2A,black,man,,,,null,,,,
null,are touching each other,,html-keyboard-response,170,945133,0.0-15.0-2.5,3762,List2A,black,man,,,,null,,,,
11213,,,survey-text,171,956351,0.0-15.0-3.5,3762,List2A,black,man,,,,,"{""Q0"":""Luke and fred are touching each other""}","<img src=""stim_listA/touch6.gif""style=""height:400px;""></stim_listA>",are touching each other,
null,"<div style=""font-size:60px;"">+</div>",,html-keyboard-response,172,956857,0.0-15.0-0.6,3762,List2A,black,man,,,,null,,,,
null,"<img src=""stim_listA/argue3.gif""style=""height:400px;""></stim_listA>",,html-keyboard-response,173,958869,0.0-15.0-1.6,3762,List2A,black,man,,,,null,,,,
null,is arguing with,,html-keyboard-response,174,960876,0.0-15.0-2.6,3762,List2A,black,man,,,,null,,,,
10778,,,survey-text,175,971665,0.0-15.0-3.6,3762,List2A,black,man,,,,,"{""Q0"":""Beth is arguing with Mike.""}","<img src=""stim_listA/argue3.gif""style=""height:400px;""></stim_listA>",is arguing with,
null,"<div style=""font-size:60px;"">+</div>",,html-keyboard-response,176,972172,0.0-15.0-0.7,3762,List2A,black,man,,,,null,,,,
null,"<img src=""stim_listA/flirt7.gif""style=""height:400px;""></stim_listA>",,html-keyboard-response,177,974179,0.0-15.0-1.7,3762,List2A,black,man,,,,null,,,,
null,is flirting with,,html-keyboard-response,178,976189,0.0-15.0-2.7,3762,List2A,black,man,,,,null,,,,
10191,,,survey-text,179,986384,0.0-15.0-3.7,3762,List2A,black,man,,,,,"{""Q0"":""Ruth is flirting with Kate.""}","<img src=""stim_listA/flirt7.gif""style=""height:400px;""></stim_listA>",is flirting with,
null,"<div style=""font-size:60px;"">+</div>",,html-keyboard-response,180,986889,0.0-15.0-0.8,3762,List2A,black,man,,,,null,,,,
null,"<img src=""stim_listA/talk6.gif""style=""height:400px;""></stim_listA>",,html-keyboard-response,181,988897,0.0-15.0-1.8,3762,List2A,black,man,,,,null,,,,
null,are talking to each other,,html-keyboard-response,182,990904,0.0-15.0-2.8,3762,List2A,black,man,,,,null,,,,
9071,,,survey-text,183,999978,0.0-15.0-3.8,3762,List2A,black,man,,,,,"{""Q0"":""Fred and Dave are talking to each other. ""}","<img src=""stim_listA/talk6.gif""style=""height:400px;""></stim_listA>",are talking to each other,
null,"<div style=""font-size:60px;"">+</div>",,html-keyboard-response,184,1000489,0.0-15.0-0.9,3762,List2A,black,man,,,,null,,,,
null,"<img src=""stim_listA/shout4.gif""style=""height:400px;""></stim_listA>",,html-keyboard-response,185,1002505,0.0-15.0-1.9,3762,List2A,black,man,,,,null,,,,
null,are shouting at each other,,html-keyboard-response,186,1004515,0.0-15.0-2.9,3762,List2A,black,man,,,,null,,,,
14785,,,survey-text,187,1019308,0.0-15.0-3.9,3762,List2A,black,man,,,,,"{""Q0"":""Mike and Kate are shouting at each other. ""}","<img src=""stim_listA/shout4.gif""style=""height:400px;""></stim_listA>",are shouting at each other,
null,"<div style=""font-size:60px;"">+</div>",,html-keyboard-response,188,1019815,0.0-15.0-0.10,3762,List2A,black,man,,,,null,,,,
null,"<img src=""stim_listA/touch3.gif""style=""height:400px;""></stim_listA>",,html-keyboard-response,189,1021833,0.0-15.0-1.10,3762,List2A,black,man,,,,null,,,,
null,is touching,,html-keyboard-response,190,1023842,0.0-15.0-2.10,3762,List2A,black,man,,,,null,,,,
6357,,,survey-text,191,1030202,0.0-15.0-3.10,3762,List2A,black,man,,,,,"{""Q0"":""Mike is touching Kate.""}","<img src=""stim_listA/touch3.gif""style=""height:400px;""></stim_listA>",is touching,
null,"<div style=""font-size:60px;"">+</div>",,html-keyboard-response,192,1030719,0.0-15.0-0.11,3762,List2A,black,man,,,,null,,,,
null,"<img src=""stim_listA/fight5.gif""style=""height:400px;""></stim_listA>",,html-keyboard-response,193,1032754,0.0-15.0-1.11,3762,List2A,black,man,,,,null,,,,
null,is fighting,,html-keyboard-response,194,1034763,0.0-15.0-2.11,3762,List2A,black,man,,,,null,,,,
8109,,,survey-text,195,1042875,0.0-15.0-3.11,3762,List2A,black,man,,,,,"{""Q0"":""Mike is fighting Dave.""}","<img src=""stim_listA/fight5.gif""style=""height:400px;""></stim_listA>",is fighting,
null,"<div style=""font-size:60px;"">+</div>",,html-keyboard-response,196,1043393,0.0-15.0-0.12,3762,List2A,black,man,,,,null,,,,
null,"<img src=""stim_listA/kiss8.gif""style=""height:400px;""></stim_listA>",,html-keyboard-response,197,1045418,0.0-15.0-1.12,3762,List2A,black,man,,,,null,,,,
null,are kissing each other,,html-keyboard-response,198,1047431,0.0-15.0-2.12,3762,List2A,black,man,,,,null,,,,
18327,,,survey-text,199,1065765,0.0-15.0-3.12,3762,List2A,black,man,,,,,"{""Q0"":""Jane and kate are kissing each other.""}","<img src=""stim_listA/kiss8.gif""style=""height:400px;""></stim_listA>",are kissing each other,
null,"<div style=""font-size:60px;"">+</div>",,html-keyboard-response,200,1066280,0.0-15.0-0.13,3762,List2A,black,man,,,,null,,,,
null,"<img src=""stim_listA/kiss1.gif""style=""height:400px;""></stim_listA>",,html-keyboard-response,201,1068352,0.0-15.0-1.13,3762,List2A,black,man,,,,null,,,,
null,is kissing,,html-keyboard-response,202,1070359,0.0-15.0-2.13,3762,List2A,black,man,,,,null,,,,
12813,,,survey-text,203,1083176,0.0-15.0-3.13,3762,List2A,black,man,,,,,"{""Q0"":""Luke is kissing Ruth.""}","<img src=""stim_listA/kiss1.gif""style=""height:400px;""></stim_listA>",is kissing,
null,"<div style=""font-size:60px;"">+</div>",,html-keyboard-response,204,1083690,0.0-15.0-0.14,3762,List2A,black,man,,,,null,,,,
null,"<img src=""stim_listA/touch4.gif""style=""height:400px;""></stim_listA>",,html-keyboard-response,205,1085723,0.0-15.0-1.14,3762,List2A,black,man,,,,null,,,,
null,are touching each other,,html-keyboard-response,206,1087733,0.0-15.0-2.14,3762,List2A,black,man,,,,null,,,,
14646,,,survey-text,207,1102384,0.0-15.0-3.14,3762,List2A,black,man,,,,,"{""Q0"":""Beth and Fred are touching each other. ""}","<img src=""stim_listA/touch4.gif""style=""height:400px;""></stim_listA>",are touching each other,
null,"<div style=""font-size:60px;"">+</div>",,html-keyboard-response,208,1102902,0.0-15.0-0.15,3762,List2A,black,man,,,,null,,,,
null,"<img src=""stim_listA/flirt1.gif""style=""height:400px;""></stim_listA>",,html-keyboard-response,209,1104910,0.0-15.0-1.15,3762,List2A,black,man,,,,null,,,,
null,is flirting with,,html-keyboard-response,210,1106920,0.0-15.0-2.15,3762,List2A,black,man,,,,null,,,,
7534,,,survey-text,211,1114459,0.0-15.0-3.15,3762,List2A,black,man,,,,,"{""Q0"":""Luke is flirting with Jane.""}","<img src=""stim_listA/flirt1.gif""style=""height:400px;""></stim_listA>",is flirting with,
null,"<div style=""font-size:60px;"">+</div>",,html-keyboard-response,212,1114970,0.0-15.0-0.16,3762,List2A,black,man,,,,null,,,,
null,"<img src=""stim_listA/shout7.gif""style=""height:400px;""></stim_listA>",,html-keyboard-response,213,1116974,0.0-15.0-1.16,3762,List2A,black,man,,,,null,,,,
null,is shouting at,,html-keyboard-response,214,1118980,0.0-15.0-2.16,3762,List2A,black,man,,,,null,,,,
9183,,,survey-text,215,1128173,0.0-15.0-3.16,3762,List2A,black,man,,,,,"{""Q0"":""Beth is shouting at Ruth.""}","<img src=""stim_listA/shout7.gif""style=""height:400px;""></stim_listA>",is shouting at,
null,"<div style=""font-size:60px;"">+</div>",,html-keyboard-response,216,1128680,0.0-15.0-0.17,3762,List2A,black,man,,,,null,,,,
null,"<img src=""stim_listA/marry3.gif""style=""height:400px;""></stim_listA>",,html-keyboard-response,217,1130695,0.0-15.0-1.17,3762,List2A,black,man,,,,null,,,,
null,is marrying,,html-keyboard-response,218,1132711,0.0-15.0-2.17,3762,List2A,black,man,,,,null,,,,
7395,,,survey-text,219,1140110,0.0-15.0-3.17,3762,List2A,black,man,,,,,"{""Q0"":""Mike is marrying Beth.""}","<img src=""stim_listA/marry3.gif""style=""height:400px;""></stim_listA>",is marrying,
null,"<div style=""font-size:60px;"">+</div>",,html-keyboard-response,220,1140619,0.0-15.0-0.18,3762,List2A,black,man,,,,null,,,,
null,"<img src=""stim_listA/dance5.gif""style=""height:400px;""></stim_listA>",,html-keyboard-response,221,1142628,0.0-15.0-1.18,3762,List2A,black,man,,,,null,,,,
null,is dancing with,,html-keyboard-response,222,1144647,0.0-15.0-2.18,3762,List2A,black,man,,,,null,,,,
7878,,,survey-text,223,1152531,0.0-15.0-3.18,3762,List2A,black,man,,,,,"{""Q0"":""Mike is dancing with Luke.""}","<img src=""stim_listA/dance5.gif""style=""height:400px;""></stim_listA>",is dancing with,
null,"<div style=""font-size:60px;"">+</div>",,html-keyboard-response,224,1153050,0.0-15.0-0.19,3762,List2A,black,man,,,,null,,,,
null,"<img src=""stim_listA/marry2.gif""style=""height:400px;""></stim_listA>",,html-keyboard-response,225,1155055,0.0-15.0-1.19,3762,List2A,black,man,,,,null,,,,
null,are marrying each other,,html-keyboard-response,226,1157059,0.0-15.0-2.19,3762,List2A,black,man,,,,null,,,,
16942,,,survey-text,227,1174008,0.0-15.0-3.19,3762,List2A,black,man,,,,,"{""Q0"":""Luke and Jane are marrying each other.""}","<img src=""stim_listA/marry2.gif""style=""height:400px;""></stim_listA>",are marrying each other,
5186,"<img src='img/portrait_matrix_list2.jpg' style='width:900px;height:500px;''></img><p>If you have memorised all the portraits and names and are ready to start, press Continue.</p><p><strong>Please note: Your memory of these faces will be tested 4 times during this experiment.</strong></p>",0,html-button-response,228,1179200,0.0-16.0-0.0,3762,List2A,black,man,,,,,,,,
4568,"<img src=""portrait/BM2.jpg""style=""height:400px;""></img>",5,html-button-response,229,1184794,0.0-16.0-1.0,3762,List2A,black,man,,TRUE,5,,,,,
null,CORRECT,,html-keyboard-response,230,1186304,0.0-16.0-2.0-0.0,3762,List2A,black,man,,,,null,,,,
3261,"<img src=""portrait/BW1.jpg""style=""height:400px;""></img>",0,html-button-response,231,1189570,0.0-16.0-4.0,3762,List2A,black,man,,TRUE,0,,,,,
null,CORRECT,,html-keyboard-response,232,1191105,0.0-16.0-5.0-0.0,3762,List2A,black,man,,,,null,,,,
3395,"<img src=""portrait/WW1.jpg""style=""height:400px;""></img>",1,html-button-response,233,1194504,0.0-16.0-7.0,3762,List2A,black,man,,TRUE,1,,,,,
null,CORRECT,,html-keyboard-response,234,1196031,0.0-16.0-8.0-0.0,3762,List2A,black,man,,,,null,,,,
2023,"<img src=""portrait/BM1.jpg""style=""height:400px;""></img>",4,html-button-response,235,1198064,0.0-16.0-10.0,3762,List2A,black,man,,TRUE,4,,,,,
null,CORRECT,,html-keyboard-response,236,1199585,0.0-16.0-11.0-0.0,3762,List2A,black,man,,,,null,,,,
1848,"<img src=""portrait/WM2.jpg""style=""height:400px;""></img>",7,html-button-response,237,1201446,0.0-16.0-13.0,3762,List2A,black,man,,TRUE,7,,,,,
null,CORRECT,,html-keyboard-response,238,1202965,0.0-16.0-14.0-0.0,3762,List2A,black,man,,,,null,,,,
2744,"<img src=""portrait/WW2.jpg""style=""height:400px;""></img>",3,html-button-response,239,1205715,0.0-16.0-16.0,3762,List2A,black,man,,TRUE,3,,,,,
null,CORRECT,,html-keyboard-response,240,1207224,0.0-16.0-17.0-0.0,3762,List2A,black,man,,,,null,,,,
3447,"<img src=""portrait/BW2.jpg""style=""height:400px;""></img>",2,html-button-response,241,1210677,0.0-16.0-19.0,3762,List2A,black,man,,TRUE,2,,,,,
null,CORRECT,,html-keyboard-response,242,1212196,0.0-16.0-20.0-0.0,3762,List2A,black,man,,,,null,,,,
4438,"<img src=""portrait/WM1.jpg""style=""height:400px;""></img>",6,html-button-response,243,1216639,0.0-16.0-22.0,3762,List2A,black,man,,TRUE,6,,,,,
null,CORRECT,,html-keyboard-response,244,1218161,0.0-16.0-23.0-0.0,3762,List2A,black,man,,,,null,,,,
2088,<p>You got 8 out of 8 right first time. Press Continue.</p>,0,html-button-response,245,1220252,0.0-16.0-25.0,3762,List2A,black,man,,,,,,,,
null,"<div style=""font-size:60px;"">+</div>",,html-keyboard-response,246,1221767,0.0-17.0-0.0,3762,List2A,black,man,,,,null,,,,
null,"<img src=""stim_listA/flirt3.gif""style=""height:400px;""></stim_listA>",,html-keyboard-response,247,1223820,0.0-17.0-1.0,3762,List2A,black,man,,,,null,,,,
null,is flirting with,,html-keyboard-response,248,1225834,0.0-17.0-2.0,3762,List2A,black,man,,,,null,,,,
10215,,,survey-text,249,1236057,0.0-17.0-3.0,3762,List2A,black,man,,,,,"{""Q0"":""Kate is flriting with Fred.""}","<img src=""stim_listA/flirt3.gif""style=""height:400px;""></stim_listA>",is flirting with,
null,"<div style=""font-size:60px;"">+</div>",,html-keyboard-response,250,1236568,0.0-17.0-0.1,3762,List2A,black,man,,,,null,,,,
null,"<img src=""stim_listA/marry4.gif""style=""height:400px;""></stim_listA>",,html-keyboard-response,251,1238575,0.0-17.0-1.1,3762,List2A,black,man,,,,null,,,,
null,are marrying each other,,html-keyboard-response,252,1240590,0.0-17.0-2.1,3762,List2A,black,man,,,,null,,,,
17471,,,survey-text,253,1258067,0.0-17.0-3.1,3762,List2A,black,man,,,,,"{""Q0"":""Kate is marrying Fred""}","<img src=""stim_listA/marry4.gif""style=""height:400px;""></stim_listA>",are marrying each other,
null,"<div style=""font-size:60px;"">+</div>",,html-keyboard-response,254,1258572,0.0-17.0-0.2,3762,List2A,black,man,,,,null,,,,
null,"<img src=""stim_listA/play1.gif""style=""height:400px;""></stim_listA>",,html-keyboard-response,255,1260584,0.0-17.0-1.2,3762,List2A,black,man,,,,null,,,,
null,is playing with,,html-keyboard-response,256,1262589,0.0-17.0-2.2,3762,List2A,black,man,,,,null,,,,
13655,,,survey-text,257,1276248,0.0-17.0-3.2,3762,List2A,black,man,,,,,"{""Q0"":""Jane is playing with Dave.""}","<img src=""stim_listA/play1.gif""style=""height:400px;""></stim_listA>",is playing with,
null,"<div style=""font-size:60px;"">+</div>",,html-keyboard-response,258,1276766,0.0-17.0-0.3,3762,List2A,black,man,,,,null,,,,
null,"<img src=""stim_listA/kiss4.gif""style=""height:400px;""></stim_listA>",,html-keyboard-response,259,1278776,0.0-17.0-1.3,3762,List2A,black,man,,,,null,,,,
null,are kissing each other,,html-keyboard-response,260,1280794,0.0-17.0-2.3,3762,List2A,black,man,,,,null,,,,
14650,,,survey-text,261,1295452,0.0-17.0-3.3,3762,List2A,black,man,,,,,"{""Q0"":""Mike and Kate are kissing each other. ""}","<img src=""stim_listA/kiss4.gif""style=""height:400px;""></stim_listA>",are kissing each other,
null,"<div style=""font-size:60px;"">+</div>",,html-keyboard-response,262,1295969,0.0-17.0-0.4,3762,List2A,black,man,,,,null,,,,
null,"<img src=""stim_listA/talk8.gif""style=""height:400px;""></stim_listA>",,html-keyboard-response,263,1297976,0.0-17.0-1.4,3762,List2A,black,man,,,,null,,,,
null,are talking to each other,,html-keyboard-response,264,1299990,0.0-17.0-2.4,3762,List2A,black,man,,,,null,,,,
13521,,,survey-text,265,1313515,0.0-17.0-3.4,3762,List2A,black,man,,,,,"{""Q0"":""Beth and Jane are talking to each other. ""}","<img src=""stim_listA/talk8.gif""style=""height:400px;""></stim_listA>",are talking to each other,
null,"<div style=""font-size:60px;"">+</div>",,html-keyboard-response,266,1314019,0.0-17.0-0.5,3762,List2A,black,man,,,,null,,,,
null,"<img src=""stim_listA/argue1.gif""style=""height:400px;""></stim_listA>",,html-keyboard-response,267,1316022,0.0-17.0-1.5,3762,List2A,black,man,,,,null,,,,
null,is arguing with,,html-keyboard-response,268,1318034,0.0-17.0-2.5,3762,List2A,black,man,,,,null,,,,
9164,,,survey-text,269,1327203,0.0-17.0-3.5,3762,List2A,black,man,,,,,"{""Q0"":""Ruth is arguing with Dave.""}","<img src=""stim_listA/argue1.gif""style=""height:400px;""></stim_listA>",is arguing with,
null,"<div style=""font-size:60px;"">+</div>",,html-keyboard-response,270,1327711,0.0-17.0-0.6,3762,List2A,black,man,,,,null,,,,
null,"<img src=""stim_listA/shout5.gif""style=""height:400px;""></stim_listA>",,html-keyboard-response,271,1329726,0.0-17.0-1.6,3762,List2A,black,man,,,,null,,,,
null,is shouting at,,html-keyboard-response,272,1331739,0.0-17.0-2.6,3762,List2A,black,man,,,,null,,,,
12841,,,survey-text,273,1344585,0.0-17.0-3.6,3762,List2A,black,man,,,,,"{""Q0"":""Luke is shouting at Fred""}","<img src=""stim_listA/shout5.gif""style=""height:400px;""></stim_listA>",is shouting at,
null,"<div style=""font-size:60px;"">+</div>",,html-keyboard-response,274,1345105,0.0-17.0-0.7,3762,List2A,black,man,,,,null,,,,
null,"<img src=""stim_listA/play4.gif""style=""height:400px;""></stim_listA>",,html-keyboard-response,275,1347120,0.0-17.0-1.7,3762,List2A,black,man,,,,null,,,,
null,are playing with each other,,html-keyboard-response,276,1349125,0.0-17.0-2.7,3762,List2A,black,man,,,,null,,,,
9798,,,survey-text,277,1358930,0.0-17.0-3.7,3762,List2A,black,man,,,,,"{""Q0"":""Beth and Fred are playing with each other. ""}","<img src=""stim_listA/play4.gif""style=""height:400px;""></stim_listA>",are playing with each other,
null,"<div style=""font-size:60px;"">+</div>",,html-keyboard-response,278,1359440,0.0-17.0-0.8,3762,List2A,black,man,,,,null,,,,
null,"<img src=""stim_listA/argue4.gif""style=""height:400px;""></stim_listA>",,html-keyboard-response,279,1361462,0.0-17.0-1.8,3762,List2A,black,man,,,,null,,,,
null,are arguing with each other,,html-keyboard-response,280,1363487,0.0-17.0-2.8,3762,List2A,black,man,,,,null,,,,
10623,,,survey-text,281,1374114,0.0-17.0-3.8,3762,List2A,black,man,,,,,"{""Q0"":""Kate and Fred are arguing with each other.""}","<img src=""stim_listA/argue4.gif""style=""height:400px;""></stim_listA>",are arguing with each other,
null,"<div style=""font-size:60px;"">+</div>",,html-keyboard-response,282,1374657,0.0-17.0-0.9,3762,List2A,black,man,,,,null,,,,
null,"<img src=""stim_listA/play8.gif""style=""height:400px;""></stim_listA>",,html-keyboard-response,283,1376664,0.0-17.0-1.9,3762,List2A,black,man,,,,null,,,,
null,are playing with each other,,html-keyboard-response,284,1378669,0.0-17.0-2.9,3762,List2A,black,man,,,,null,,,,
12652,,,survey-text,285,1391324,0.0-17.0-3.9,3762,List2A,black,man,,,,,"{""Q0"":""Beth and Ruth are playing with each other. ""}","<img src=""stim_listA/play8.gif""style=""height:400px;""></stim_listA>",are playing with each other,
null,"<div style=""font-size:60px;"">+</div>",,html-keyboard-response,286,1391834,0.0-17.0-0.10,3762,List2A,black,man,,,,null,,,,
null,"<img src=""stim_listA/play3.gif""style=""height:400px;""></stim_listA>",,html-keyboard-response,287,1393839,0.0-17.0-1.10,3762,List2A,black,man,,,,null,,,,
null,is playing with,,html-keyboard-response,288,1395849,0.0-17.0-2.10,3762,List2A,black,man,,,,null,,,,
7744,,,survey-text,289,1403601,0.0-17.0-3.10,3762,List2A,black,man,,,,,"{""Q0"":""Kate is playing with Mike.""}","<img src=""stim_listA/play3.gif""style=""height:400px;""></stim_listA>",is playing with,
null,"<div style=""font-size:60px;"">+</div>",,html-keyboard-response,290,1404114,0.0-17.0-0.11,3762,List2A,black,man,,,,null,,,,
null,"<img src=""stim_listA/fight3.gif""style=""height:400px;""></stim_listA>",,html-keyboard-response,291,1406118,0.0-17.0-1.11,3762,List2A,black,man,,,,null,,,,
null,is fighting,,html-keyboard-response,292,1408123,0.0-17.0-2.11,3762,List2A,black,man,,,,null,,,,
9844,,,survey-text,293,1417973,0.0-17.0-3.11,3762,List2A,black,man,,,,,"{""Q0"":""Kate is fighting Mike.""}","<img src=""stim_listA/fight3.gif""style=""height:400px;""></stim_listA>",is fighting,
null,"<div style=""font-size:60px;"">+</div>",,html-keyboard-response,294,1418509,0.0-17.0-0.12,3762,List2A,black,man,,,,null,,,,
null,"<img src=""stim_listA/fight4.gif""style=""height:400px;""></stim_listA>",,html-keyboard-response,295,1420518,0.0-17.0-1.12,3762,List2A,black,man,,,,null,,,,
null,are fighting each other,,html-keyboard-response,296,1422527,0.0-17.0-2.12,3762,List2A,black,man,,,,null,,,,
10582,,,survey-text,297,1433113,0.0-17.0-3.12,3762,List2A,black,man,,,,,"{""Q0"":""Beth and Fred are fighting each other. ""}","<img src=""stim_listA/fight4.gif""style=""height:400px;""></stim_listA>",are fighting each other,
null,"<div style=""font-size:60px;"">+</div>",,html-keyboard-response,298,1433629,0.0-17.0-0.13,3762,List2A,black,man,,,,null,,,,
null,"<img src=""stim_listA/talk2.gif""style=""height:400px;""></stim_listA>",,html-keyboard-response,299,1435647,0.0-17.0-1.13,3762,List2A,black,man,,,,null,,,,
null,are talking to each other,,html-keyboard-response,300,1437653,0.0-17.0-2.13,3762,List2A,black,man,,,,null,,,,
11983,,,survey-text,301,1449645,0.0-17.0-3.13,3762,List2A,black,man,,,,,"{""Q0"":""Ruth and Dave are talking to each other. ""}","<img src=""stim_listA/talk2.gif""style=""height:400px;""></stim_listA>",are talking to each other,
null,"<div style=""font-size:60px;"">+</div>",,html-keyboard-response,302,1450152,0.0-17.0-0.14,3762,List2A,black,man,,,,null,,,,
null,"<img src=""stim_listA/shout8.gif""style=""height:400px;""></stim_listA>",,html-keyboard-response,303,1452177,0.0-17.0-1.14,3762,List2A,black,man,,,,null,,,,
null,are shouting at each other,,html-keyboard-response,304,1454186,0.0-17.0-2.14,3762,List2A,black,man,,,,null,,,,
9371,,,survey-text,305,1463561,0.0-17.0-3.14,3762,List2A,black,man,,,,,"{""Q0"":""Kate and Jane are shouting at each other.""}","<img src=""stim_listA/shout8.gif""style=""height:400px;""></stim_listA>",are shouting at each other,
null,"<div style=""font-size:60px;"">+</div>",,html-keyboard-response,306,1464078,0.0-17.0-0.15,3762,List2A,black,man,,,,null,,,,
null,"<img src=""stim_listA/dance1.gif""style=""height:400px;""></stim_listA>",,html-keyboard-response,307,1466088,0.0-17.0-1.15,3762,List2A,black,man,,,,null,,,,
null,is dancing with,,html-keyboard-response,308,1468095,0.0-17.0-2.15,3762,List2A,black,man,,,,null,,,,
7123,,,survey-text,309,1475222,0.0-17.0-3.15,3762,List2A,black,man,,,,,"{""Q0"":""Luke is dancing with Jane.""}","<img src=""stim_listA/dance1.gif""style=""height:400px;""></stim_listA>",is dancing with,
null,"<div style=""font-size:60px;"">+</div>",,html-keyboard-response,310,1475727,0.0-17.0-0.16,3762,List2A,black,man,,,,null,,,,
null,"<img src=""stim_listA/flirt6.gif""style=""height:400px;""></stim_listA>",,html-keyboard-response,311,1477744,0.0-17.0-1.16,3762,List2A,black,man,,,,null,,,,
null,are flirting with each other,,html-keyboard-response,312,1479753,0.0-17.0-2.16,3762,List2A,black,man,,,,null,,,,
9251,,,survey-text,313,1489062,0.0-17.0-3.16,3762,List2A,black,man,,,,,"{""Q0"":""Fred and Dave are flirting with each other. ""}","<img src=""stim_listA/flirt6.gif""style=""height:400px;""></stim_listA>",are flirting with each other,
null,"<div style=""font-size:60px;"">+</div>",,html-keyboard-response,314,1489568,0.0-17.0-0.17,3762,List2A,black,man,,,,null,,,,
null,"<img src=""stim_listA/marry8.gif""style=""height:400px;""></stim_listA>",,html-keyboard-response,315,1491575,0.0-17.0-1.17,3762,List2A,black,man,,,,null,,,,
null,are marrying each other,,html-keyboard-response,316,1493581,0.0-17.0-2.17,3762,List2A,black,man,,,,null,,,,
9415,,,survey-text,317,1503004,0.0-17.0-3.17,3762,List2A,black,man,,,,,"{""Q0"":""Ruth and Kate are marrying each other. ""}","<img src=""stim_listA/marry8.gif""style=""height:400px;""></stim_listA>",are marrying each other,
null,"<div style=""font-size:60px;"">+</div>",,html-keyboard-response,318,1503524,0.0-17.0-0.18,3762,List2A,black,man,,,,null,,,,
null,"<img src=""stim_listA/play7.gif""style=""height:400px;""></stim_listA>",,html-keyboard-response,319,1505532,0.0-17.0-1.18,3762,List2A,black,man,,,,null,,,,
null,is playing with,,html-keyboard-response,320,1507541,0.0-17.0-2.18,3762,List2A,black,man,,,,null,,,,
6957,,,survey-text,321,1514501,0.0-17.0-3.18,3762,List2A,black,man,,,,,"{""Q0"":""Jane is playing with Kate. ""}","<img src=""stim_listA/play7.gif""style=""height:400px;""></stim_listA>",is playing with,
null,"<div style=""font-size:60px;"">+</div>",,html-keyboard-response,322,1515015,0.0-17.0-0.19,3762,List2A,black,man,,,,null,,,,
null,"<img src=""stim_listA/touch5.gif""style=""height:400px;""></stim_listA>",,html-keyboard-response,323,1517041,0.0-17.0-1.19,3762,List2A,black,man,,,,null,,,,
null,is touching,,html-keyboard-response,324,1519052,0.0-17.0-2.19,3762,List2A,black,man,,,,null,,,,
7038,,,survey-text,325,1526097,0.0-17.0-3.19,3762,List2A,black,man,,,,,"{""Q0"":""Mike is touching Dave.""}","<img src=""stim_listA/touch5.gif""style=""height:400px;""></stim_listA>",is touching,
5000,"<img src='img/portrait_matrix_list2.jpg' style='width:900px;height:500px;''></img><p>If you have memorised all the portraits and names and are ready to start, press Continue.</p><p><strong>Please note: Your memory of these faces will be tested 4 times during this experiment.</strong></p>",0,html-button-response,326,1531103,0.0-18.0-0.0,3762,List2A,black,man,,,,,,,,
3827,"<img src=""portrait/BW2.jpg""style=""height:400px;""></img>",2,html-button-response,327,1535948,0.0-18.0-1.0,3762,List2A,black,man,,TRUE,2,,,,,
null,CORRECT,,html-keyboard-response,328,1537464,0.0-18.0-2.0-0.0,3762,List2A,black,man,,,,null,,,,
2234,"<img src=""portrait/WM1.jpg""style=""height:400px;""></img>",6,html-button-response,329,1539705,0.0-18.0-4.0,3762,List2A,black,man,,TRUE,6,,,,,
null,CORRECT,,html-keyboard-response,330,1541221,0.0-18.0-5.0-0.0,3762,List2A,black,man,,,,null,,,,
2814,"<img src=""portrait/WW2.jpg""style=""height:400px;""></img>",3,html-button-response,331,1544041,0.0-18.0-7.0,3762,List2A,black,man,,TRUE,3,,,,,
null,CORRECT,,html-keyboard-response,332,1545568,0.0-18.0-8.0-0.0,3762,List2A,black,man,,,,null,,,,
2519,"<img src=""portrait/WM2.jpg""style=""height:400px;""></img>",7,html-button-response,333,1548097,0.0-18.0-10.0,3762,List2A,black,man,,TRUE,7,,,,,
null,CORRECT,,html-keyboard-response,334,1549612,0.0-18.0-11.0-0.0,3762,List2A,black,man,,,,null,,,,
4154,"<img src=""portrait/BM1.jpg""style=""height:400px;""></img>",4,html-button-response,335,1553777,0.0-18.0-13.0,3762,List2A,black,man,,TRUE,4,,,,,
null,CORRECT,,html-keyboard-response,336,1555287,0.0-18.0-14.0-0.0,3762,List2A,black,man,,,,null,,,,
5093,"<img src=""portrait/WW1.jpg""style=""height:400px;""></img>",1,html-button-response,337,1560387,0.0-18.0-16.0,3762,List2A,black,man,,TRUE,1,,,,,
null,CORRECT,,html-keyboard-response,338,1561897,0.0-18.0-17.0-0.0,3762,List2A,black,man,,,,null,,,,
2898,"<img src=""portrait/BW1.jpg""style=""height:400px;""></img>",0,html-button-response,339,1564806,0.0-18.0-19.0,3762,List2A,black,man,,TRUE,0,,,,,
null,CORRECT,,html-keyboard-response,340,1566324,0.0-18.0-20.0-0.0,3762,List2A,black,man,,,,null,,,,
2278,"<img src=""portrait/BM2.jpg""style=""height:400px;""></img>",5,html-button-response,341,1568610,0.0-18.0-22.0,3762,List2A,black,man,,TRUE,5,,,,,
null,CORRECT,,html-keyboard-response,342,1570131,0.0-18.0-23.0-0.0,3762,List2A,black,man,,,,null,,,,
1705,<p>You got 8 out of 8 right first time. Press Continue.</p>,0,html-button-response,343,1571841,0.0-18.0-25.0,3762,List2A,black,man,,,,,,,,
null,"<div style=""font-size:60px;"">+</div>",,html-keyboard-response,344,1573361,0.0-19.0-0.0,3762,List2A,black,man,,,,null,,,,
null,"<img src=""stim_listA/dance7.gif""style=""height:400px;""></stim_listA>",,html-keyboard-response,345,1575376,0.0-19.0-1.0,3762,List2A,black,man,,,,null,,,,
null,is dancing with,,html-keyboard-response,346,1577381,0.0-19.0-2.0,3762,List2A,black,man,,,,null,,,,
10916,,,survey-text,347,1588301,0.0-19.0-3.0,3762,List2A,black,man,,,,,"{""Q0"":""Ruth is dancing with Kate.""}","<img src=""stim_listA/dance7.gif""style=""height:400px;""></stim_listA>",is dancing with,
null,"<div style=""font-size:60px;"">+</div>",,html-keyboard-response,348,1588808,0.0-19.0-0.1,3762,List2A,black,man,,,,null,,,,
null,"<img src=""stim_listA/touch1.gif""style=""height:400px;""></stim_listA>",,html-keyboard-response,349,1590813,0.0-19.0-1.1,3762,List2A,black,man,,,,null,,,,
null,is touching,,html-keyboard-response,350,1592832,0.0-19.0-2.1,3762,List2A,black,man,,,,null,,,,
7210,,,survey-text,351,1600045,0.0-19.0-3.1,3762,List2A,black,man,,,,,"{""Q0"":""Jane is touching Dave. ""}","<img src=""stim_listA/touch1.gif""style=""height:400px;""></stim_listA>",is touching,
null,"<div style=""font-size:60px;"">+</div>",,html-keyboard-response,352,1600559,0.0-19.0-0.2,3762,List2A,black,man,,,,null,,,,
null,"<img src=""stim_listA/shout3.gif""style=""height:400px;""></stim_listA>",,html-keyboard-response,353,1602573,0.0-19.0-1.2,3762,List2A,black,man,,,,null,,,,
null,is shouting at,,html-keyboard-response,354,1604580,0.0-19.0-2.2,3762,List2A,black,man,,,,null,,,,
7553,,,survey-text,355,1612137,0.0-19.0-3.2,3762,List2A,black,man,,,,,"{""Q0"":""Beth is shouting at Fred.""}","<img src=""stim_listA/shout3.gif""style=""height:400px;""></stim_listA>",is shouting at,
null,"<div style=""font-size:60px;"">+</div>",,html-keyboard-response,356,1612644,0.0-19.0-0.3,3762,List2A,black,man,,,,null,,,,
null,"<img src=""stim_listA/play5.gif""style=""height:400px;""></stim_listA>",,html-keyboard-response,357,1614648,0.0-19.0-1.3,3762,List2A,black,man,,,,null,,,,
null,is playing with,,html-keyboard-response,358,1616650,0.0-19.0-2.3,3762,List2A,black,man,,,,null,,,,
9185,,,survey-text,359,1625840,0.0-19.0-3.3,3762,List2A,black,man,,,,,"{""Q0"":""Mike is playing with Dave.""}","<img src=""stim_listA/play5.gif""style=""height:400px;""></stim_listA>",is playing with,
null,"<div style=""font-size:60px;"">+</div>",,html-keyboard-response,360,1626356,0.0-19.0-0.4,3762,List2A,black,man,,,,null,,,,
null,"<img src=""stim_listA/flirt8.gif""style=""height:400px;""></stim_listA>",,html-keyboard-response,361,1628402,0.0-19.0-1.4,3762,List2A,black,man,,,,null,,,,
null,are flirting with each other,,html-keyboard-response,362,1630408,0.0-19.0-2.4,3762,List2A,black,man,,,,null,,,,
10606,,,survey-text,363,1641020,0.0-19.0-3.4,3762,List2A,black,man,,,,,"{""Q0"":""Jane and Beth are fliriting with each other. ""}","<img src=""stim_listA/flirt8.gif""style=""height:400px;""></stim_listA>",are flirting with each other,
null,"<div style=""font-size:60px;"">+</div>",,html-keyboard-response,364,1641530,0.0-19.0-0.5,3762,List2A,black,man,,,,null,,,,
null,"<img src=""stim_listA/dance2.gif""style=""height:400px;""></stim_listA>",,html-keyboard-response,365,1643538,0.0-19.0-1.5,3762,List2A,black,man,,,,null,,,,
null,are dancing with each other,,html-keyboard-response,366,1645562,0.0-19.0-2.5,3762,List2A,black,man,,,,null,,,,
17169,,,survey-text,367,1662734,0.0-19.0-3.5,3762,List2A,black,man,,,,,"{""Q0"":""Dave and Ruth are dancing with each other. ""}","<img src=""stim_listA/dance2.gif""style=""height:400px;""></stim_listA>",are dancing with each other,
null,"<div style=""font-size:60px;"">+</div>",,html-keyboard-response,368,1663244,0.0-19.0-0.6,3762,List2A,black,man,,,,null,,,,
null,"<img src=""stim_listA/argue8.gif""style=""height:400px;""></stim_listA>",,html-keyboard-response,369,1665248,0.0-19.0-1.6,3762,List2A,black,man,,,,null,,,,
null,are arguing with each other,,html-keyboard-response,370,1667254,0.0-19.0-2.6,3762,List2A,black,man,,,,null,,,,
13731,,,survey-text,371,1680993,0.0-19.0-3.6,3762,List2A,black,man,,,,,"{""Q0"":""Ruth and Kate are arguing with each other. ""}","<img src=""stim_listA/argue8.gif""style=""height:400px;""></stim_listA>",are arguing with each other,
null,"<div style=""font-size:60px;"">+</div>",,html-keyboard-response,372,1681500,0.0-19.0-0.7,3762,List2A,black,man,,,,null,,,,
null,"<img src=""stim_listA/shout6.gif""style=""height:400px;""></stim_listA>",,html-keyboard-response,373,1683508,0.0-19.0-1.7,3762,List2A,black,man,,,,null,,,,
null,are shouting at each other,,html-keyboard-response,374,1685514,0.0-19.0-2.7,3762,List2A,black,man,,,,null,,,,
11093,,,survey-text,375,1696612,0.0-19.0-3.7,3762,List2A,black,man,,,,,"{""Q0"":""Mike and Dave are shouting at each other. ""}","<img src=""stim_listA/shout6.gif""style=""height:400px;""></stim_listA>",are shouting at each other,
null,"<div style=""font-size:60px;"">+</div>",,html-keyboard-response,376,1697127,0.0-19.0-0.8,3762,List2A,black,man,,,,null,,,,
null,"<img src=""stim_listA/kiss2.gif""style=""height:400px;""></stim_listA>",,html-keyboard-response,377,1699130,0.0-19.0-1.8,3762,List2A,black,man,,,,null,,,,
null,are kissing each other,,html-keyboard-response,378,1701145,0.0-19.0-2.8,3762,List2A,black,man,,,,null,,,,
13550,,,survey-text,379,1714701,0.0-19.0-3.8,3762,List2A,black,man,,,,,"{""Q0"":""Jane and Dave are kissing each other. ""}","<img src=""stim_listA/kiss2.gif""style=""height:400px;""></stim_listA>",are kissing each other,
null,"<div style=""font-size:60px;"">+</div>",,html-keyboard-response,380,1715211,0.0-19.0-0.9,3762,List2A,black,man,,,,null,,,,
null,"<img src=""stim_listA/touch2.gif""style=""height:400px;""></stim_listA>",,html-keyboard-response,381,1717223,0.0-19.0-1.9,3762,List2A,black,man,,,,null,,,,
null,are touching each other,,html-keyboard-response,382,1719226,0.0-19.0-2.9,3762,List2A,black,man,,,,null,,,,
13726,,,survey-text,383,1732956,0.0-19.0-3.9,3762,List2A,black,man,,,,,"{""Q0"":""Luke and Ruth are touching each other. ""}","<img src=""stim_listA/touch2.gif""style=""height:400px;""></stim_listA>",are touching each other,
null,"<div style=""font-size:60px;"">+</div>",,html-keyboard-response,384,1733470,0.0-19.0-0.10,3762,List2A,black,man,,,,null,,,,
null,"<img src=""stim_listA/talk5.gif""style=""height:400px;""></stim_listA>",,html-keyboard-response,385,1735495,0.0-19.0-1.10,3762,List2A,black,man,,,,null,,,,
null,is talking to,,html-keyboard-response,386,1737502,0.0-19.0-2.10,3762,List2A,black,man,,,,null,,,,
7445,,,survey-text,387,1744952,0.0-19.0-3.10,3762,List2A,black,man,,,,,"{""Q0"":""Mike is talking to Luke.""}","<img src=""stim_listA/talk5.gif""style=""height:400px;""></stim_listA>",is talking to,
null,"<div style=""font-size:60px;"">+</div>",,html-keyboard-response,388,1745471,0.0-19.0-0.11,3762,List2A,black,man,,,,null,,,,
null,"<img src=""stim_listA/argue7.gif""style=""height:400px;""></stim_listA>",,html-keyboard-response,389,1747486,0.0-19.0-1.11,3762,List2A,black,man,,,,null,,,,
null,is arguing with,,html-keyboard-response,390,1749498,0.0-19.0-2.11,3762,List2A,black,man,,,,null,,,,
8172,,,survey-text,391,1757675,0.0-19.0-3.11,3762,List2A,black,man,,,,,"{""Q0"":""Beth is arguing with Jane.""}","<img src=""stim_listA/argue7.gif""style=""height:400px;""></stim_listA>",is arguing with,
null,"<div style=""font-size:60px;"">+</div>",,html-keyboard-response,392,1758187,0.0-19.0-0.12,3762,List2A,black,man,,,,null,,,,
null,"<img src=""stim_listA/touch8.gif""style=""height:400px;""></stim_listA>",,html-keyboard-response,393,1760208,0.0-19.0-1.12,3762,List2A,black,man,,,,null,,,,
null,are touching each other,,html-keyboard-response,394,1762214,0.0-19.0-2.12,3762,List2A,black,man,,,,null,,,,
10393,,,survey-text,395,1772612,0.0-19.0-3.12,3762,List2A,black,man,,,,,"{""Q0"":""Beth and Ruth are touching each other. ""}","<img src=""stim_listA/touch8.gif""style=""height:400px;""></stim_listA>",are touching each other,
null,"<div style=""font-size:60px;"">+</div>",,html-keyboard-response,396,1773120,0.0-19.0-0.13,3762,List2A,black,man,,,,null,,,,
null,"<img src=""stim_listA/shout2.gif""style=""height:400px;""></stim_listA>",,html-keyboard-response,397,1775138,0.0-19.0-1.13,3762,List2A,black,man,,,,null,,,,
null,are shouting at each other,,html-keyboard-response,398,1777145,0.0-19.0-2.13,3762,List2A,black,man,,,,null,,,,
11013,,,survey-text,399,1788162,0.0-19.0-3.13,3762,List2A,black,man,,,,,"{""Q0"":""Dave and Jane are shouting at each other ""}","<img src=""stim_listA/shout2.gif""style=""height:400px;""></stim_listA>",are shouting at each other,
null,"<div style=""font-size:60px;"">+</div>",,html-keyboard-response,400,1788672,0.0-19.0-0.14,3762,List2A,black,man,,,,null,,,,
null,"<img src=""stim_listA/fight6.gif""style=""height:400px;""></stim_listA>",,html-keyboard-response,401,1790692,0.0-19.0-1.14,3762,List2A,black,man,,,,null,,,,
null,are fighting each other,,html-keyboard-response,402,1792697,0.0-19.0-2.14,3762,List2A,black,man,,,,null,,,,
14997,,,survey-text,403,1807699,0.0-19.0-3.14,3762,List2A,black,man,,,,,"{""Q0"":""Luke and Fred are fighting each other. ""}","<img src=""stim_listA/fight6.gif""style=""height:400px;""></stim_listA>",are fighting each other,
null,"<div style=""font-size:60px;"">+</div>",,html-keyboard-response,404,1808220,0.0-19.0-0.15,3762,List2A,black,man,,,,null,,,,
null,"<img src=""stim_listA/dance4.gif""style=""height:400px;""></stim_listA>",,html-keyboard-response,405,1810243,0.0-19.0-1.15,3762,List2A,black,man,,,,null,,,,
null,are dancing with each other,,html-keyboard-response,406,1812246,0.0-19.0-2.15,3762,List2A,black,man,,,,null,,,,
13543,,,survey-text,407,1825801,0.0-19.0-3.15,3762,List2A,black,man,,,,,"{""Q0"":""Beht and Fred ae dancing with each other. ""}","<img src=""stim_listA/dance4.gif""style=""height:400px;""></stim_listA>",are dancing with each other,
null,"<div style=""font-size:60px;"">+</div>",,html-keyboard-response,408,1826316,0.0-19.0-0.16,3762,List2A,black,man,,,,null,,,,
null,"<img src=""stim_listA/talk3.gif""style=""height:400px;""></stim_listA>",,html-keyboard-response,409,1828331,0.0-19.0-1.16,3762,List2A,black,man,,,,null,,,,
null,is talking to,,html-keyboard-response,410,1830358,0.0-19.0-2.16,3762,List2A,black,man,,,,null,,,,
14974,,,survey-text,411,1845336,0.0-19.0-3.16,3762,List2A,black,man,,,,,"{""Q0"":""Fred is talking to Kate.""}","<img src=""stim_listA/talk3.gif""style=""height:400px;""></stim_listA>",is talking to,
null,"<div style=""font-size:60px;"">+</div>",,html-keyboard-response,412,1845841,0.0-19.0-0.17,3762,List2A,black,man,,,,null,,,,
null,"<img src=""stim_listA/fight7.gif""style=""height:400px;""></stim_listA>",,html-keyboard-response,413,1847845,0.0-19.0-1.17,3762,List2A,black,man,,,,null,,,,
null,is fighting,,html-keyboard-response,414,1849851,0.0-19.0-2.17,3762,List2A,black,man,,,,null,,,,
7465,,,survey-text,415,1857322,0.0-19.0-3.17,3762,List2A,black,man,,,,,"{""Q0"":""Jane is fighting Kate.""}","<img src=""stim_listA/fight7.gif""style=""height:400px;""></stim_listA>",is fighting,
null,"<div style=""font-size:60px;"">+</div>",,html-keyboard-response,416,1857848,0.0-19.0-0.18,3762,List2A,black,man,,,,null,,,,
null,"<img src=""stim_listA/talk1.gif""style=""height:400px;""></stim_listA>",,html-keyboard-response,417,1859854,0.0-19.0-1.18,3762,List2A,black,man,,,,null,,,,
null,is talking to,,html-keyboard-response,418,1861874,0.0-19.0-2.18,3762,List2A,black,man,,,,null,,,,
7197,,,survey-text,419,1869077,0.0-19.0-3.18,3762,List2A,black,man,,,,,"{""Q0"":""Luke is talking to Jane.""}","<img src=""stim_listA/talk1.gif""style=""height:400px;""></stim_listA>",is talking to,
null,"<div style=""font-size:60px;"">+</div>",,html-keyboard-response,420,1869593,0.0-19.0-0.19,3762,List2A,black,man,,,,null,,,,
null,"<img src=""stim_listA/flirt4.gif""style=""height:400px;""></stim_listA>",,html-keyboard-response,421,1871600,0.0-19.0-1.19,3762,List2A,black,man,,,,null,,,,
null,are flirting with each other,,html-keyboard-response,422,1873610,0.0-19.0-2.19,3762,List2A,black,man,,,,null,,,,
16231,,,survey-text,423,1889845,0.0-19.0-3.19,3762,List2A,black,man,,,,,"{""Q0"":""Fred and Beth are flirting with each other.""}","<img src=""stim_listA/flirt4.gif""style=""height:400px;""></stim_listA>",are flirting with each other,
2709,<p>Thank you for completing that task.</p><p>The final part of this session is a short questionnaire.</p><p>Press Continue.</p>,0,html-button-response,424,1892564,0.0-20.0,3762,List2A,black,man,,,,,,,,
40398,,,survey-text,425,1933976,0.0-21.0,3762,List2A,black,man,,,,,"{""Q0"":""32"",""Q1"":""english"",""Q2"":""english"",""Q3"":""Unites States of America"",""Q4"":""african american"",""Q5"":""Male""}",,,demographics
12487,,,survey-likert,426,1946485,0.0-22.0,3762,List2A,black,man,,,,,"{""Q0"":3}",,,likert_ESS
10814,,,survey-likert,427,1957307,0.0-23.0,3762,List2A,black,man,,,,,"{""Q0"":5}",,,likert_NSSAL_Q1
5337,,,survey-likert,428,1962660,0.0-24.0,3762,List2A,black,man,,,,,"{""Q0"":5}",,,likert_NSSAL_Q2
6134,,,survey-likert,429,1968802,0.0-25.0,3762,List2A,black,man,,,,,"{""Q0"":3}",,,likert_CGRS_Q1
4720,,,survey-likert,430,1973531,0.0-26.0,3762,List2A,black,man,,,,,"{""Q0"":3}",,,likert_CGRS_Q2
3771,,,survey-likert,431,1977308,0.0-27.0,3762,List2A,black,man,,,,,"{""Q0"":3}",,,likert_CGRS_Q3
11839,,,survey-text,432,1989155,0.0-28.0,3762,List2A,black,man,,,,,"{""Q0"":""ccc""}",,,worker_id
5257,,,external-html,433,1994733,0.0-29.0,3762,List2A,black,man,debrief.html,,,,,,,
