rt,stimulus,button_pressed,trial_type,trial_index,time_elapsed,internal_node_id,subject,list,ppt_race,ppt_gender,url,first_guess,correct,key_press,responses,image_type,phrase_type,test_part
2408,Welcome to the experiment. Press Continue to begin.,0,html-button-response,0,2410,0.0-0.0,37780,List2A,black,woman,,,,,,,,
76758,,,external-html,1,80219,0.0-1.0,37780,List2A,black,woman,consent.html,,,,,,,
16978,"<p>On the next page, you will see portraits of 8 people and their names.</p><p>Your first task is to take a few minutes to memorise the names of these people.</p><p>You will have to recall their names during the rest of the experiment, so it is</p><p>essential that you try to memorise these people and their names as best as you can.</p><br><p><strong>You will then be tested on your memory of these names and portraits.</strong></p><br><p>The experiment will start after you have completed this memory test.</p><br><p>Ready?</p>",0,html-button-response,2,97199,0.0-2.0,37780,List2A,black,woman,,,,,,,,
30668,"<img src='img/portrait_matrix_list2.jpg' style='width:900px;height:500px;''></img><p>If you have memorised all the portraits and names and are ready to start, press Continue.</p><p><strong>Please note: Your memory of these faces will be tested 4 times during this experiment.</strong></p>",0,html-button-response,3,128869,0.0-3.0-0.0,37780,List2A,black,woman,,,,,,,,
13069,"<img src=""portrait/BM1.jpg""style=""height:400px;""></img>",4,html-button-response,4,142940,0.0-3.0-1.0,37780,List2A,black,woman,,TRUE,4,,,,,
null,CORRECT,,html-keyboard-response,5,144443,0.0-3.0-2.0-0.0,37780,List2A,black,woman,,,,null,,,,
7890,"<img src=""portrait/WM1.jpg""style=""height:400px;""></img>",7,html-button-response,6,152334,0.0-3.0-4.0,37780,List2A,black,woman,,TRUE,6,,,,,
7511,"<img src=""portrait/WM1.jpg""style=""height:400px;""></img>",6,html-button-response,7,160848,0.0-3.0-6.0-0.0,37780,List2A,black,woman,,FALSE,6,,,,,
null,CORRECT,,html-keyboard-response,8,162350,0.0-3.0-6.0-1.0-0.0,37780,List2A,black,woman,,,,null,,,,
4968,"<img src=""portrait/WW2.jpg""style=""height:400px;""></img>",3,html-button-response,9,167319,0.0-3.0-7.0,37780,List2A,black,woman,,TRUE,3,,,,,
null,CORRECT,,html-keyboard-response,10,168821,0.0-3.0-8.0-0.0,37780,List2A,black,woman,,,,null,,,,
7927,"<img src=""portrait/WW1.jpg""style=""height:400px;""></img>",0,html-button-response,11,176749,0.0-3.0-10.0,37780,List2A,black,woman,,TRUE,1,,,,,
5652,"<img src=""portrait/WW1.jpg""style=""height:400px;""></img>",1,html-button-response,12,183403,0.0-3.0-12.0-0.0,37780,List2A,black,woman,,FALSE,1,,,,,
null,CORRECT,,html-keyboard-response,13,184905,0.0-3.0-12.0-1.0-0.0,37780,List2A,black,woman,,,,null,,,,
6037,"<img src=""portrait/BM2.jpg""style=""height:400px;""></img>",5,html-button-response,14,190943,0.0-3.0-13.0,37780,List2A,black,woman,,TRUE,5,,,,,
null,CORRECT,,html-keyboard-response,15,192445,0.0-3.0-14.0-0.0,37780,List2A,black,woman,,,,null,,,,
7938,"<img src=""portrait/BW1.jpg""style=""height:400px;""></img>",2,html-button-response,16,200383,0.0-3.0-16.0,37780,List2A,black,woman,,TRUE,0,,,,,
5844,"<img src=""portrait/BW1.jpg""style=""height:400px;""></img>",0,html-button-response,17,207229,0.0-3.0-18.0-0.0,37780,List2A,black,woman,,FALSE,0,,,,,
null,CORRECT,,html-keyboard-response,18,208731,0.0-3.0-18.0-1.0-0.0,37780,List2A,black,woman,,,,null,,,,
5771,"<img src=""portrait/BW2.jpg""style=""height:400px;""></img>",2,html-button-response,19,214504,0.0-3.0-19.0,37780,List2A,black,woman,,TRUE,2,,,,,
null,CORRECT,,html-keyboard-response,20,216005,0.0-3.0-20.0-0.0,37780,List2A,black,woman,,,,null,,,,
3342,"<img src=""portrait/WM2.jpg""style=""height:400px;""></img>",7,html-button-response,21,219349,0.0-3.0-22.0,37780,List2A,black,woman,,TRUE,7,,,,,
null,CORRECT,,html-keyboard-response,22,220850,0.0-3.0-23.0-0.0,37780,List2A,black,woman,,,,null,,,,
2639,<p>You got 5 out of 8 right first time. Press Continue.</p>,0,html-button-response,23,223489,0.0-3.0-25.0,37780,List2A,black,woman,,,,,,,,
4139,"As you did not score 100%, the memory game will repeat. Press Continue.",0,html-button-response,24,228629,0.0-3.0-26.0-0.0,37780,List2A,black,woman,,,,,,,,
22683,"<img src='img/portrait_matrix_list2.jpg' style='width:900px;height:500px;''></img><p>If you have memorised all the portraits and names and are ready to start, press Continue.</p><p><strong>Please note: Your memory of these faces will be tested 4 times during this experiment.</strong></p>",0,html-button-response,25,252315,0.0-3.1-0.1,37780,List2A,black,woman,,,,,,,,
7946,"<img src=""portrait/BM1.jpg""style=""height:400px;""></img>",4,html-button-response,26,261263,0.0-3.1-1.1,37780,List2A,black,woman,,TRUE,4,,,,,
null,CORRECT,,html-keyboard-response,27,262765,0.0-3.1-2.1-0.1,37780,List2A,black,woman,,,,null,,,,
5491,"<img src=""portrait/WM1.jpg""style=""height:400px;""></img>",6,html-button-response,28,268258,0.0-3.1-4.1,37780,List2A,black,woman,,TRUE,6,,,,,
null,CORRECT,,html-keyboard-response,29,269759,0.0-3.1-5.1-0.1,37780,List2A,black,woman,,,,null,,,,
2500,"<img src=""portrait/WW2.jpg""style=""height:400px;""></img>",3,html-button-response,30,272260,0.0-3.1-7.1,37780,List2A,black,woman,,TRUE,3,,,,,
null,CORRECT,,html-keyboard-response,31,273762,0.0-3.1-8.1-0.1,37780,List2A,black,woman,,,,null,,,,
5200,"<img src=""portrait/WW1.jpg""style=""height:400px;""></img>",1,html-button-response,32,278963,0.0-3.1-10.1,37780,List2A,black,woman,,TRUE,1,,,,,
null,CORRECT,,html-keyboard-response,33,280464,0.0-3.1-11.1-0.1,37780,List2A,black,woman,,,,null,,,,
2444,"<img src=""portrait/BM2.jpg""style=""height:400px;""></img>",5,html-button-response,34,282910,0.0-3.1-13.1,37780,List2A,black,woman,,TRUE,5,,,,,
null,CORRECT,,html-keyboard-response,35,284411,0.0-3.1-14.1-0.1,37780,List2A,black,woman,,,,null,,,,
6890,"<img src=""portrait/BW1.jpg""style=""height:400px;""></img>",2,html-button-response,36,291303,0.0-3.1-16.1,37780,List2A,black,woman,,TRUE,0,,,,,
4225,"<img src=""portrait/BW1.jpg""style=""height:400px;""></img>",0,html-button-response,37,296529,0.0-3.1-18.1-0.1,37780,List2A,black,woman,,FALSE,0,,,,,
null,CORRECT,,html-keyboard-response,38,298031,0.0-3.1-18.1-1.1-0.1,37780,List2A,black,woman,,,,null,,,,
9748,"<img src=""portrait/BW2.jpg""style=""height:400px;""></img>",2,html-button-response,39,307781,0.0-3.1-19.1,37780,List2A,black,woman,,TRUE,2,,,,,
null,CORRECT,,html-keyboard-response,40,309283,0.0-3.1-20.1-0.1,37780,List2A,black,woman,,,,null,,,,
4275,"<img src=""portrait/WM2.jpg""style=""height:400px;""></img>",7,html-button-response,41,313558,0.0-3.1-22.1,37780,List2A,black,woman,,TRUE,7,,,,,
null,CORRECT,,html-keyboard-response,42,315060,0.0-3.1-23.1-0.1,37780,List2A,black,woman,,,,null,,,,
2270,<p>You got 7 out of 8 right first time. Press Continue.</p>,0,html-button-response,43,317331,0.0-3.1-25.1,37780,List2A,black,woman,,,,,,,,
18239,"As you did not score 100%, the memory game will repeat. Press Continue.",0,html-button-response,44,336572,0.0-3.1-26.1-0.1,37780,List2A,black,woman,,,,,,,,
21606,"<img src='img/portrait_matrix_list2.jpg' style='width:900px;height:500px;''></img><p>If you have memorised all the portraits and names and are ready to start, press Continue.</p><p><strong>Please note: Your memory of these faces will be tested 4 times during this experiment.</strong></p>",0,html-button-response,45,359181,0.0-3.2-0.2,37780,List2A,black,woman,,,,,,,,
3639,"<img src=""portrait/BM1.jpg""style=""height:400px;""></img>",4,html-button-response,46,363822,0.0-3.2-1.2,37780,List2A,black,woman,,TRUE,4,,,,,
null,CORRECT,,html-keyboard-response,47,365323,0.0-3.2-2.2-0.2,37780,List2A,black,woman,,,,null,,,,
4609,"<img src=""portrait/WM1.jpg""style=""height:400px;""></img>",6,html-button-response,48,369933,0.0-3.2-4.2,37780,List2A,black,woman,,TRUE,6,,,,,
null,CORRECT,,html-keyboard-response,49,371436,0.0-3.2-5.2-0.2,37780,List2A,black,woman,,,,null,,,,
3019,"<img src=""portrait/WW2.jpg""style=""height:400px;""></img>",3,html-button-response,50,374456,0.0-3.2-7.2,37780,List2A,black,woman,,TRUE,3,,,,,
null,CORRECT,,html-keyboard-response,51,375958,0.0-3.2-8.2-0.2,37780,List2A,black,woman,,,,null,,,,
2630,"<img src=""portrait/WW1.jpg""style=""height:400px;""></img>",1,html-button-response,52,378589,0.0-3.2-10.2,37780,List2A,black,woman,,TRUE,1,,,,,
null,CORRECT,,html-keyboard-response,53,380090,0.0-3.2-11.2-0.2,37780,List2A,black,woman,,,,null,,,,
4576,"<img src=""portrait/BM2.jpg""style=""height:400px;""></img>",5,html-button-response,54,384670,0.0-3.2-13.2,37780,List2A,black,woman,,TRUE,5,,,,,
null,CORRECT,,html-keyboard-response,55,386171,0.0-3.2-14.2-0.2,37780,List2A,black,woman,,,,null,,,,
3492,"<img src=""portrait/BW1.jpg""style=""height:400px;""></img>",0,html-button-response,56,389665,0.0-3.2-16.2,37780,List2A,black,woman,,TRUE,0,,,,,
null,CORRECT,,html-keyboard-response,57,391166,0.0-3.2-17.2-0.2,37780,List2A,black,woman,,,,null,,,,
19088,"<img src=""portrait/BW2.jpg""style=""height:400px;""></img>",0,html-button-response,58,410255,0.0-3.2-19.2,37780,List2A,black,woman,,TRUE,2,,,,,
6931,"<img src=""portrait/BW2.jpg""style=""height:400px;""></img>",2,html-button-response,59,418188,0.0-3.2-21.2-0.2,37780,List2A,black,woman,,FALSE,2,,,,,
null,CORRECT,,html-keyboard-response,60,419690,0.0-3.2-21.2-1.2-0.2,37780,List2A,black,woman,,,,null,,,,
3856,"<img src=""portrait/WM2.jpg""style=""height:400px;""></img>",7,html-button-response,61,423548,0.0-3.2-22.2,37780,List2A,black,woman,,TRUE,7,,,,,
null,CORRECT,,html-keyboard-response,62,425049,0.0-3.2-23.2-0.2,37780,List2A,black,woman,,,,null,,,,
2175,<p>You got 7 out of 8 right first time. Press Continue.</p>,0,html-button-response,63,427225,0.0-3.2-25.2,37780,List2A,black,woman,,,,,,,,
1846,"As you did not score 100%, the memory game will repeat. Press Continue.",0,html-button-response,64,430072,0.0-3.2-26.2-0.2,37780,List2A,black,woman,,,,,,,,
9215,"<img src='img/portrait_matrix_list2.jpg' style='width:900px;height:500px;''></img><p>If you have memorised all the portraits and names and are ready to start, press Continue.</p><p><strong>Please note: Your memory of these faces will be tested 4 times during this experiment.</strong></p>",0,html-button-response,65,440289,0.0-3.3-0.3,37780,List2A,black,woman,,,,,,,,
1732,"<img src=""portrait/BM1.jpg""style=""height:400px;""></img>",4,html-button-response,66,443023,0.0-3.3-1.3,37780,List2A,black,woman,,TRUE,4,,,,,
null,CORRECT,,html-keyboard-response,67,444525,0.0-3.3-2.3-0.3,37780,List2A,black,woman,,,,null,,,,
4796,"<img src=""portrait/WM1.jpg""style=""height:400px;""></img>",6,html-button-response,68,449321,0.0-3.3-4.3,37780,List2A,black,woman,,TRUE,6,,,,,
null,CORRECT,,html-keyboard-response,69,450823,0.0-3.3-5.3-0.3,37780,List2A,black,woman,,,,null,,,,
1867,"<img src=""portrait/WW2.jpg""style=""height:400px;""></img>",3,html-button-response,70,452691,0.0-3.3-7.3,37780,List2A,black,woman,,TRUE,3,,,,,
null,CORRECT,,html-keyboard-response,71,454194,0.0-3.3-8.3-0.3,37780,List2A,black,woman,,,,null,,,,
3832,"<img src=""portrait/WW1.jpg""style=""height:400px;""></img>",1,html-button-response,72,458027,0.0-3.3-10.3,37780,List2A,black,woman,,TRUE,1,,,,,
null,CORRECT,,html-keyboard-response,73,459529,0.0-3.3-11.3-0.3,37780,List2A,black,woman,,,,null,,,,
2044,"<img src=""portrait/BM2.jpg""style=""height:400px;""></img>",5,html-button-response,74,461575,0.0-3.3-13.3,37780,List2A,black,woman,,TRUE,5,,,,,
null,CORRECT,,html-keyboard-response,75,463076,0.0-3.3-14.3-0.3,37780,List2A,black,woman,,,,null,,,,
10067,"<img src=""portrait/BW1.jpg""style=""height:400px;""></img>",1,html-button-response,76,473145,0.0-3.3-16.3,37780,List2A,black,woman,,TRUE,0,,,,,
7271,"<img src=""portrait/BW1.jpg""style=""height:400px;""></img>",0,html-button-response,77,481418,0.0-3.3-18.3-0.3,37780,List2A,black,woman,,FALSE,0,,,,,
null,CORRECT,,html-keyboard-response,78,482919,0.0-3.3-18.3-1.3-0.3,37780,List2A,black,woman,,,,null,,,,
3510,"<img src=""portrait/BW2.jpg""style=""height:400px;""></img>",2,html-button-response,79,486431,0.0-3.3-19.3,37780,List2A,black,woman,,TRUE,2,,,,,
null,CORRECT,,html-keyboard-response,80,487932,0.0-3.3-20.3-0.3,37780,List2A,black,woman,,,,null,,,,
1980,"<img src=""portrait/WM2.jpg""style=""height:400px;""></img>",7,html-button-response,81,489912,0.0-3.3-22.3,37780,List2A,black,woman,,TRUE,7,,,,,
null,CORRECT,,html-keyboard-response,82,491414,0.0-3.3-23.3-0.3,37780,List2A,black,woman,,,,null,,,,
1318,<p>You got 7 out of 8 right first time. Press Continue.</p>,0,html-button-response,83,492732,0.0-3.3-25.3,37780,List2A,black,woman,,,,,,,,
1936,"As you did not score 100%, the memory game will repeat. Press Continue.",0,html-button-response,84,495669,0.0-3.3-26.3-0.3,37780,List2A,black,woman,,,,,,,,
20819,"<img src='img/portrait_matrix_list2.jpg' style='width:900px;height:500px;''></img><p>If you have memorised all the portraits and names and are ready to start, press Continue.</p><p><strong>Please note: Your memory of these faces will be tested 4 times during this experiment.</strong></p>",0,html-button-response,85,517490,0.0-3.4-0.4,37780,List2A,black,woman,,,,,,,,
3793,"<img src=""portrait/BM1.jpg""style=""height:400px;""></img>",4,html-button-response,86,522284,0.0-3.4-1.4,37780,List2A,black,woman,,TRUE,4,,,,,
null,CORRECT,,html-keyboard-response,87,523786,0.0-3.4-2.4-0.4,37780,List2A,black,woman,,,,null,,,,
4703,"<img src=""portrait/WM1.jpg""style=""height:400px;""></img>",6,html-button-response,88,528489,0.0-3.4-4.4,37780,List2A,black,woman,,TRUE,6,,,,,
null,CORRECT,,html-keyboard-response,89,529991,0.0-3.4-5.4-0.4,37780,List2A,black,woman,,,,null,,,,
3013,"<img src=""portrait/WW2.jpg""style=""height:400px;""></img>",3,html-button-response,90,533006,0.0-3.4-7.4,37780,List2A,black,woman,,TRUE,3,,,,,
null,CORRECT,,html-keyboard-response,91,534507,0.0-3.4-8.4-0.4,37780,List2A,black,woman,,,,null,,,,
2338,"<img src=""portrait/WW1.jpg""style=""height:400px;""></img>",1,html-button-response,92,536846,0.0-3.4-10.4,37780,List2A,black,woman,,TRUE,1,,,,,
null,CORRECT,,html-keyboard-response,93,538347,0.0-3.4-11.4-0.4,37780,List2A,black,woman,,,,null,,,,
1997,"<img src=""portrait/BM2.jpg""style=""height:400px;""></img>",5,html-button-response,94,540346,0.0-3.4-13.4,37780,List2A,black,woman,,TRUE,5,,,,,
null,CORRECT,,html-keyboard-response,95,541847,0.0-3.4-14.4-0.4,37780,List2A,black,woman,,,,null,,,,
1695,"<img src=""portrait/BW1.jpg""style=""height:400px;""></img>",0,html-button-response,96,543543,0.0-3.4-16.4,37780,List2A,black,woman,,TRUE,0,,,,,
null,CORRECT,,html-keyboard-response,97,545044,0.0-3.4-17.4-0.4,37780,List2A,black,woman,,,,null,,,,
4503,"<img src=""portrait/BW2.jpg""style=""height:400px;""></img>",2,html-button-response,98,549548,0.0-3.4-19.4,37780,List2A,black,woman,,TRUE,2,,,,,
null,CORRECT,,html-keyboard-response,99,551049,0.0-3.4-20.4-0.4,37780,List2A,black,woman,,,,null,,,,
1760,"<img src=""portrait/WM2.jpg""style=""height:400px;""></img>",7,html-button-response,100,552810,0.0-3.4-22.4,37780,List2A,black,woman,,TRUE,7,,,,,
null,CORRECT,,html-keyboard-response,101,554315,0.0-3.4-23.4-0.4,37780,List2A,black,woman,,,,null,,,,
2024,<p>You got 8 out of 8 right first time. Press Continue.</p>,0,html-button-response,102,556340,0.0-3.4-25.4,37780,List2A,black,woman,,,,,,,,
39827,"<p>In this experiment, you will view photographs of the people from the memory game interacting.</p><p>By using the <strong>exact</strong> phrase given <i>after</i> the photograph appears and recalling the correct names of the people in the photographs, form a sentence describing the interaction. You do not need to capitalise names.</p><p>Type your answer in the space provided. Please complete every sentence before moving onto the next trial.</p><p>You will only have a few seconds to memorise each given photograph and phrase before you can respond, so try your best to focus.</p><p>An example is given below. Press 'Continue' when you are ready.</p><img src='img/speaking_example.jpg' style='width:800px;height:460px;''></img>",0,html-button-response,103,597169,0.0-4.0,37780,List2A,black,woman,,,,,,,,
3520,"<p>Before the experiment starts, you will watch two example trials. Press 'Continue'.</p>",0,html-button-response,104,601690,0.0-5.0,37780,List2A,black,woman,,,,,,,,
null,<img src='img/meet_eg.gif' style='height:400px;''></img>,,html-keyboard-response,105,604692,0.0-6.0,37780,List2A,black,woman,,,,null,,,,
null,<p>is meeting</p>,,html-keyboard-response,106,606692,0.0-7.0,37780,List2A,black,woman,,,,null,,,,
4205,<p><b>Answer:</b> jane is meeting ruth</p>,0,html-button-response,107,610898,0.0-8.0,37780,List2A,black,woman,,,,,,,,
null,<img src='img/look_eg.gif' style='height:400px;''></img>,,html-keyboard-response,108,613900,0.0-9.0,37780,List2A,black,woman,,,,null,,,,
null,<p>are looking at each other</p>,,html-keyboard-response,109,615901,0.0-10.0,37780,List2A,black,woman,,,,null,,,,
5166,<p><b>Answer:</b> fred and mike are looking at each other</p>,0,html-button-response,110,621068,0.0-11.0,37780,List2A,black,woman,,,,,,,,
8547,"<p>Ready to start the experiment?</p><br><p><strong>Remember to describe the picture using a full sentence,</strong></p><p><strong>that combines the names of the people with the <i>exact</i> phrase given.</strong></p><p><strong>To receive full payment you must do this correctly.</strong></p><p><strong> You do not need to capitalise names or use punctuation.</strong></p><br><p>Press 'Continue' to begin.</p>",0,html-button-response,111,630616,0.0-12.0,37780,List2A,black,woman,,,,,,,,
null,"<div style=""font-size:60px;"">+</div>",,html-keyboard-response,112,632118,0.0-13.0-0.0,37780,List2A,black,woman,,,,null,,,,
null,"<img src=""stim_listA/talk5.gif""style=""height:400px;""></stim_listA>",,html-keyboard-response,113,634120,0.0-13.0-1.0,37780,List2A,black,woman,,,,null,,,,
null,is talking to,,html-keyboard-response,114,636120,0.0-13.0-2.0,37780,List2A,black,woman,,,,null,,,,
15617,,,survey-text,115,651739,0.0-13.0-3.0,37780,List2A,black,woman,,,,,"{""Q0"":""mike is talking to luke""}","<img src=""stim_listA/talk5.gif""style=""height:400px;""></stim_listA>",is talking to,
null,"<div style=""font-size:60px;"">+</div>",,html-keyboard-response,116,652240,0.0-13.0-0.1,37780,List2A,black,woman,,,,null,,,,
null,"<img src=""stim_listA/talk6.gif""style=""height:400px;""></stim_listA>",,html-keyboard-response,117,654241,0.0-13.0-1.1,37780,List2A,black,woman,,,,null,,,,
null,are talking to each other,,html-keyboard-response,118,656242,0.0-13.0-2.1,37780,List2A,black,woman,,,,null,,,,
16774,,,survey-text,119,673016,0.0-13.0-3.1,37780,List2A,black,woman,,,,,"{""Q0"":""fred and dave are talking to each other""}","<img src=""stim_listA/talk6.gif""style=""height:400px;""></stim_listA>",are talking to each other,
null,"<div style=""font-size:60px;"">+</div>",,html-keyboard-response,120,673517,0.0-13.0-0.2,37780,List2A,black,woman,,,,null,,,,
null,"<img src=""stim_listA/touch5.gif""style=""height:400px;""></stim_listA>",,html-keyboard-response,121,675518,0.0-13.0-1.2,37780,List2A,black,woman,,,,null,,,,
null,is touching,,html-keyboard-response,122,677519,0.0-13.0-2.2,37780,List2A,black,woman,,,,null,,,,
18171,,,survey-text,123,695690,0.0-13.0-3.2,37780,List2A,black,woman,,,,,"{""Q0"":""mike is touching dave""}","<img src=""stim_listA/touch5.gif""style=""height:400px;""></stim_listA>",is touching,
null,"<div style=""font-size:60px;"">+</div>",,html-keyboard-response,124,696191,0.0-13.0-0.3,37780,List2A,black,woman,,,,null,,,,
null,"<img src=""stim_listA/marry4.gif""style=""height:400px;""></stim_listA>",,html-keyboard-response,125,698193,0.0-13.0-1.3,37780,List2A,black,woman,,,,null,,,,
null,are marrying each other,,html-keyboard-response,126,700193,0.0-13.0-2.3,37780,List2A,black,woman,,,,null,,,,
21723,,,survey-text,127,721917,0.0-13.0-3.3,37780,List2A,black,woman,,,,,"{""Q0"":""fred and kate are marrying each other""}","<img src=""stim_listA/marry4.gif""style=""height:400px;""></stim_listA>",are marrying each other,
null,"<div style=""font-size:60px;"">+</div>",,html-keyboard-response,128,722418,0.0-13.0-0.4,37780,List2A,black,woman,,,,null,,,,
null,"<img src=""stim_listA/talk3.gif""style=""height:400px;""></stim_listA>",,html-keyboard-response,129,724420,0.0-13.0-1.4,37780,List2A,black,woman,,,,null,,,,
null,is talking to,,html-keyboard-response,130,726421,0.0-13.0-2.4,37780,List2A,black,woman,,,,null,,,,
24754,,,survey-text,131,751176,0.0-13.0-3.4,37780,List2A,black,woman,,,,,"{""Q0"":""fred is talking to kate""}","<img src=""stim_listA/talk3.gif""style=""height:400px;""></stim_listA>",is talking to,
null,"<div style=""font-size:60px;"">+</div>",,html-keyboard-response,132,751676,0.0-13.0-0.5,37780,List2A,black,woman,,,,null,,,,
null,"<img src=""stim_listA/fight8.gif""style=""height:400px;""></stim_listA>",,html-keyboard-response,133,753678,0.0-13.0-1.5,37780,List2A,black,woman,,,,null,,,,
null,are fighting each other,,html-keyboard-response,134,755678,0.0-13.0-2.5,37780,List2A,black,woman,,,,null,,,,
20176,,,survey-text,135,775856,0.0-13.0-3.5,37780,List2A,black,woman,,,,,"{""Q0"":""luke and beth are fighting each other""}","<img src=""stim_listA/fight8.gif""style=""height:400px;""></stim_listA>",are fighting each other,
null,"<div style=""font-size:60px;"">+</div>",,html-keyboard-response,136,776357,0.0-13.0-0.6,37780,List2A,black,woman,,,,null,,,,
null,"<img src=""stim_listA/dance4.gif""style=""height:400px;""></stim_listA>",,html-keyboard-response,137,778358,0.0-13.0-1.6,37780,List2A,black,woman,,,,null,,,,
null,are dancing with each other,,html-keyboard-response,138,780359,0.0-13.0-2.6,37780,List2A,black,woman,,,,null,,,,
32185,,,survey-text,139,812545,0.0-13.0-3.6,37780,List2A,black,woman,,,,,"{""Q0"":""mike and kate are dancing with each other""}","<img src=""stim_listA/dance4.gif""style=""height:400px;""></stim_listA>",are dancing with each other,
null,"<div style=""font-size:60px;"">+</div>",,html-keyboard-response,140,813046,0.0-13.0-0.7,37780,List2A,black,woman,,,,null,,,,
null,"<img src=""stim_listA/kiss1.gif""style=""height:400px;""></stim_listA>",,html-keyboard-response,141,815047,0.0-13.0-1.7,37780,List2A,black,woman,,,,null,,,,
null,is kissing,,html-keyboard-response,142,817048,0.0-13.0-2.7,37780,List2A,black,woman,,,,null,,,,
13470,,,survey-text,143,830520,0.0-13.0-3.7,37780,List2A,black,woman,,,,,"{""Q0"":""ruth is kissing luke""}","<img src=""stim_listA/kiss1.gif""style=""height:400px;""></stim_listA>",is kissing,
null,"<div style=""font-size:60px;"">+</div>",,html-keyboard-response,144,831021,0.0-13.0-0.8,37780,List2A,black,woman,,,,null,,,,
null,"<img src=""stim_listA/touch6.gif""style=""height:400px;""></stim_listA>",,html-keyboard-response,145,833022,0.0-13.0-1.8,37780,List2A,black,woman,,,,null,,,,
null,are touching each other,,html-keyboard-response,146,835022,0.0-13.0-2.8,37780,List2A,black,woman,,,,null,,,,
21055,,,survey-text,147,856079,0.0-13.0-3.8,37780,List2A,black,woman,,,,,"{""Q0"":""luke is touching fred""}","<img src=""stim_listA/touch6.gif""style=""height:400px;""></stim_listA>",are touching each other,
null,"<div style=""font-size:60px;"">+</div>",,html-keyboard-response,148,856580,0.0-13.0-0.9,37780,List2A,black,woman,,,,null,,,,
null,"<img src=""stim_listA/marry3.gif""style=""height:400px;""></stim_listA>",,html-keyboard-response,149,858582,0.0-13.0-1.9,37780,List2A,black,woman,,,,null,,,,
null,is marrying,,html-keyboard-response,150,860582,0.0-13.0-2.9,37780,List2A,black,woman,,,,null,,,,
11426,,,survey-text,151,872009,0.0-13.0-3.9,37780,List2A,black,woman,,,,,"{""Q0"":""mike is marrying kate""}","<img src=""stim_listA/marry3.gif""style=""height:400px;""></stim_listA>",is marrying,
null,"<div style=""font-size:60px;"">+</div>",,html-keyboard-response,152,872510,0.0-13.0-0.10,37780,List2A,black,woman,,,,null,,,,
null,"<img src=""stim_listA/play6.gif""style=""height:400px;""></stim_listA>",,html-keyboard-response,153,874511,0.0-13.0-1.10,37780,List2A,black,woman,,,,null,,,,
null,are playing with each other,,html-keyboard-response,154,876512,0.0-13.0-2.10,37780,List2A,black,woman,,,,null,,,,
22206,,,survey-text,155,898718,0.0-13.0-3.10,37780,List2A,black,woman,,,,,"{""Q0"":""fred and luke are playing with each other""}","<img src=""stim_listA/play6.gif""style=""height:400px;""></stim_listA>",are playing with each other,
null,"<div style=""font-size:60px;"">+</div>",,html-keyboard-response,156,899219,0.0-13.0-0.11,37780,List2A,black,woman,,,,null,,,,
null,"<img src=""stim_listA/flirt8.gif""style=""height:400px;""></stim_listA>",,html-keyboard-response,157,901221,0.0-13.0-1.11,37780,List2A,black,woman,,,,null,,,,
null,are flirting with each other,,html-keyboard-response,158,903222,0.0-13.0-2.11,37780,List2A,black,woman,,,,null,,,,
21870,,,survey-text,159,925092,0.0-13.0-3.11,37780,List2A,black,woman,,,,,"{""Q0"":""kate and jane are flirting with each other""}","<img src=""stim_listA/flirt8.gif""style=""height:400px;""></stim_listA>",are flirting with each other,
null,"<div style=""font-size:60px;"">+</div>",,html-keyboard-response,160,925593,0.0-13.0-0.12,37780,List2A,black,woman,,,,null,,,,
null,"<img src=""stim_listA/dance3.gif""style=""height:400px;""></stim_listA>",,html-keyboard-response,161,927598,0.0-13.0-1.12,37780,List2A,black,woman,,,,null,,,,
null,is dancing with,,html-keyboard-response,162,929598,0.0-13.0-2.12,37780,List2A,black,woman,,,,null,,,,
11881,,,survey-text,163,941480,0.0-13.0-3.12,37780,List2A,black,woman,,,,,"{""Q0"":""fred is dancing with kate""}","<img src=""stim_listA/dance3.gif""style=""height:400px;""></stim_listA>",is dancing with,
null,"<div style=""font-size:60px;"">+</div>",,html-keyboard-response,164,941982,0.0-13.0-0.13,37780,List2A,black,woman,,,,null,,,,
null,"<img src=""stim_listA/talk4.gif""style=""height:400px;""></stim_listA>",,html-keyboard-response,165,943983,0.0-13.0-1.13,37780,List2A,black,woman,,,,null,,,,
null,are talking to each other,,html-keyboard-response,166,945984,0.0-13.0-2.13,37780,List2A,black,woman,,,,null,,,,
23711,,,survey-text,167,969695,0.0-13.0-3.13,37780,List2A,black,woman,,,,,"{""Q0"":""mike and beth are talking to each other""}","<img src=""stim_listA/talk4.gif""style=""height:400px;""></stim_listA>",are talking to each other,
null,"<div style=""font-size:60px;"">+</div>",,html-keyboard-response,168,970196,0.0-13.0-0.14,37780,List2A,black,woman,,,,null,,,,
null,"<img src=""stim_listA/play7.gif""style=""height:400px;""></stim_listA>",,html-keyboard-response,169,972198,0.0-13.0-1.14,37780,List2A,black,woman,,,,null,,,,
null,is playing with,,html-keyboard-response,170,974198,0.0-13.0-2.14,37780,List2A,black,woman,,,,null,,,,
18355,,,survey-text,171,992553,0.0-13.0-3.14,37780,List2A,black,woman,,,,,"{""Q0"":""jane is playing with kate""}","<img src=""stim_listA/play7.gif""style=""height:400px;""></stim_listA>",is playing with,
null,"<div style=""font-size:60px;"">+</div>",,html-keyboard-response,172,993054,0.0-13.0-0.15,37780,List2A,black,woman,,,,null,,,,
null,"<img src=""stim_listA/shout3.gif""style=""height:400px;""></stim_listA>",,html-keyboard-response,173,995055,0.0-13.0-1.15,37780,List2A,black,woman,,,,null,,,,
null,is shouting at,,html-keyboard-response,174,997056,0.0-13.0-2.15,37780,List2A,black,woman,,,,null,,,,
22883,,,survey-text,175,1019940,0.0-13.0-3.15,37780,List2A,black,woman,,,,,"{""Q0"":""fred is shouting at beth""}","<img src=""stim_listA/shout3.gif""style=""height:400px;""></stim_listA>",is shouting at,
null,"<div style=""font-size:60px;"">+</div>",,html-keyboard-response,176,1020441,0.0-13.0-0.16,37780,List2A,black,woman,,,,null,,,,
null,"<img src=""stim_listA/kiss5.gif""style=""height:400px;""></stim_listA>",,html-keyboard-response,177,1022447,0.0-13.0-1.16,37780,List2A,black,woman,,,,null,,,,
null,is kissing,,html-keyboard-response,178,1024447,0.0-13.0-2.16,37780,List2A,black,woman,,,,null,,,,
19642,,,survey-text,179,1044090,0.0-13.0-3.16,37780,List2A,black,woman,,,,,"{""Q0"":""luke is kissing fred""}","<img src=""stim_listA/kiss5.gif""style=""height:400px;""></stim_listA>",is kissing,
null,"<div style=""font-size:60px;"">+</div>",,html-keyboard-response,180,1044591,0.0-13.0-0.17,37780,List2A,black,woman,,,,null,,,,
null,"<img src=""stim_listA/shout8.gif""style=""height:400px;""></stim_listA>",,html-keyboard-response,181,1046596,0.0-13.0-1.17,37780,List2A,black,woman,,,,null,,,,
null,are shouting at each other,,html-keyboard-response,182,1048597,0.0-13.0-2.17,37780,List2A,black,woman,,,,null,,,,
22895,,,survey-text,183,1071493,0.0-13.0-3.17,37780,List2A,black,woman,,,,,"{""Q0"":""jane and beth are shouting at each other""}","<img src=""stim_listA/shout8.gif""style=""height:400px;""></stim_listA>",are shouting at each other,
null,"<div style=""font-size:60px;"">+</div>",,html-keyboard-response,184,1071994,0.0-13.0-0.18,37780,List2A,black,woman,,,,null,,,,
null,"<img src=""stim_listA/talk1.gif""style=""height:400px;""></stim_listA>",,html-keyboard-response,185,1073995,0.0-13.0-1.18,37780,List2A,black,woman,,,,null,,,,
null,is talking to,,html-keyboard-response,186,1075996,0.0-13.0-2.18,37780,List2A,black,woman,,,,null,,,,
12175,,,survey-text,187,1088171,0.0-13.0-3.18,37780,List2A,black,woman,,,,,"{""Q0"":""jane is talking to luke""}","<img src=""stim_listA/talk1.gif""style=""height:400px;""></stim_listA>",is talking to,
null,"<div style=""font-size:60px;"">+</div>",,html-keyboard-response,188,1088672,0.0-13.0-0.19,37780,List2A,black,woman,,,,null,,,,
null,"<img src=""stim_listA/dance5.gif""style=""height:400px;""></stim_listA>",,html-keyboard-response,189,1090674,0.0-13.0-1.19,37780,List2A,black,woman,,,,null,,,,
null,is dancing with,,html-keyboard-response,190,1092675,0.0-13.0-2.19,37780,List2A,black,woman,,,,null,,,,
26074,,,survey-text,191,1118749,0.0-13.0-3.19,37780,List2A,black,woman,,,,,"{""Q0"":""kate and beth are arguing""}","<img src=""stim_listA/dance5.gif""style=""height:400px;""></stim_listA>",is dancing with,
17122,"<img src='img/portrait_matrix_list2.jpg' style='width:900px;height:500px;''></img><p>If you have memorised all the portraits and names and are ready to start, press Continue.</p><p><strong>Please note: Your memory of these faces will be tested 4 times during this experiment.</strong></p>",0,html-button-response,192,1135873,0.0-14.0-0.0,37780,List2A,black,woman,,,,,,,,
3033,"<img src=""portrait/BM1.jpg""style=""height:400px;""></img>",4,html-button-response,193,1139907,0.0-14.0-1.0,37780,List2A,black,woman,,TRUE,4,,,,,
null,CORRECT,,html-keyboard-response,194,1141410,0.0-14.0-2.0-0.0,37780,List2A,black,woman,,,,null,,,,
3724,"<img src=""portrait/WM1.jpg""style=""height:400px;""></img>",6,html-button-response,195,1145135,0.0-14.0-4.0,37780,List2A,black,woman,,TRUE,6,,,,,
null,CORRECT,,html-keyboard-response,196,1146637,0.0-14.0-5.0-0.0,37780,List2A,black,woman,,,,null,,,,
5325,"<img src=""portrait/BW1.jpg""style=""height:400px;""></img>",0,html-button-response,197,1151963,0.0-14.0-7.0,37780,List2A,black,woman,,TRUE,0,,,,,
null,CORRECT,,html-keyboard-response,198,1153465,0.0-14.0-8.0-0.0,37780,List2A,black,woman,,,,null,,,,
1841,"<img src=""portrait/WM2.jpg""style=""height:400px;""></img>",7,html-button-response,199,1155308,0.0-14.0-10.0,37780,List2A,black,woman,,TRUE,7,,,,,
null,CORRECT,,html-keyboard-response,200,1156809,0.0-14.0-11.0-0.0,37780,List2A,black,woman,,,,null,,,,
1891,"<img src=""portrait/WW2.jpg""style=""height:400px;""></img>",3,html-button-response,201,1158702,0.0-14.0-13.0,37780,List2A,black,woman,,TRUE,3,,,,,
null,CORRECT,,html-keyboard-response,202,1160203,0.0-14.0-14.0-0.0,37780,List2A,black,woman,,,,null,,,,
8033,"<img src=""portrait/BW2.jpg""style=""height:400px;""></img>",2,html-button-response,203,1168237,0.0-14.0-16.0,37780,List2A,black,woman,,TRUE,2,,,,,
null,CORRECT,,html-keyboard-response,204,1169739,0.0-14.0-17.0-0.0,37780,List2A,black,woman,,,,null,,,,
2257,"<img src=""portrait/WW1.jpg""style=""height:400px;""></img>",1,html-button-response,205,1171996,0.0-14.0-19.0,37780,List2A,black,woman,,TRUE,1,,,,,
null,CORRECT,,html-keyboard-response,206,1173498,0.0-14.0-20.0-0.0,37780,List2A,black,woman,,,,null,,,,
3616,"<img src=""portrait/BM2.jpg""style=""height:400px;""></img>",5,html-button-response,207,1177115,0.0-14.0-22.0,37780,List2A,black,woman,,TRUE,5,,,,,
null,CORRECT,,html-keyboard-response,208,1178617,0.0-14.0-23.0-0.0,37780,List2A,black,woman,,,,null,,,,
1907,<p>You got 8 out of 8 right first time. Press Continue.</p>,0,html-button-response,209,1180524,0.0-14.0-25.0,37780,List2A,black,woman,,,,,,,,
null,"<div style=""font-size:60px;"">+</div>",,html-keyboard-response,210,1182026,0.0-15.0-0.0,37780,List2A,black,woman,,,,null,,,,
null,"<img src=""stim_listA/flirt6.gif""style=""height:400px;""></stim_listA>",,html-keyboard-response,211,1184028,0.0-15.0-1.0,37780,List2A,black,woman,,,,null,,,,
null,are flirting with each other,,html-keyboard-response,212,1186029,0.0-15.0-2.0,37780,List2A,black,woman,,,,null,,,,
25956,,,survey-text,213,1211986,0.0-15.0-3.0,37780,List2A,black,woman,,,,,"{""Q0"":""fred and dave are flirting with each other""}","<img src=""stim_listA/flirt6.gif""style=""height:400px;""></stim_listA>",are flirting with each other,
null,"<div style=""font-size:60px;"">+</div>",,html-keyboard-response,214,1212487,0.0-15.0-0.1,37780,List2A,black,woman,,,,null,,,,
null,"<img src=""stim_listA/argue5.gif""style=""height:400px;""></stim_listA>",,html-keyboard-response,215,1214489,0.0-15.0-1.1,37780,List2A,black,woman,,,,null,,,,
null,is arguing with,,html-keyboard-response,216,1216489,0.0-15.0-2.1,37780,List2A,black,woman,,,,null,,,,
19465,,,survey-text,217,1235955,0.0-15.0-3.1,37780,List2A,black,woman,,,,,"{""Q0"":""fred is arguing with dave""}","<img src=""stim_listA/argue5.gif""style=""height:400px;""></stim_listA>",is arguing with,
null,"<div style=""font-size:60px;"">+</div>",,html-keyboard-response,218,1236456,0.0-15.0-0.2,37780,List2A,black,woman,,,,null,,,,
null,"<img src=""stim_listA/fight5.gif""style=""height:400px;""></stim_listA>",,html-keyboard-response,219,1238457,0.0-15.0-1.2,37780,List2A,black,woman,,,,null,,,,
null,is fighting,,html-keyboard-response,220,1240458,0.0-15.0-2.2,37780,List2A,black,woman,,,,null,,,,
14199,,,survey-text,221,1254658,0.0-15.0-3.2,37780,List2A,black,woman,,,,,"{""Q0"":""mike is fighting dave""}","<img src=""stim_listA/fight5.gif""style=""height:400px;""></stim_listA>",is fighting,
null,"<div style=""font-size:60px;"">+</div>",,html-keyboard-response,222,1255159,0.0-15.0-0.3,37780,List2A,black,woman,,,,null,,,,
null,"<img src=""stim_listA/argue2.gif""style=""height:400px;""></stim_listA>",,html-keyboard-response,223,1257161,0.0-15.0-1.3,37780,List2A,black,woman,,,,null,,,,
null,are arguing with each other,,html-keyboard-response,224,1259161,0.0-15.0-2.3,37780,List2A,black,woman,,,,null,,,,
18775,,,survey-text,225,1277936,0.0-15.0-3.3,37780,List2A,black,woman,,,,,"{""Q0"":""lue and jane are arguing with each other""}","<img src=""stim_listA/argue2.gif""style=""height:400px;""></stim_listA>",are arguing with each other,
null,"<div style=""font-size:60px;"">+</div>",,html-keyboard-response,226,1278437,0.0-15.0-0.4,37780,List2A,black,woman,,,,null,,,,
null,"<img src=""stim_listA/marry6.gif""style=""height:400px;""></stim_listA>",,html-keyboard-response,227,1280438,0.0-15.0-1.4,37780,List2A,black,woman,,,,null,,,,
null,are marrying each other,,html-keyboard-response,228,1282439,0.0-15.0-2.4,37780,List2A,black,woman,,,,null,,,,
13616,,,survey-text,229,1296056,0.0-15.0-3.4,37780,List2A,black,woman,,,,,"{""Q0"":""mike and luke are marrying each other""}","<img src=""stim_listA/marry6.gif""style=""height:400px;""></stim_listA>",are marrying each other,
null,"<div style=""font-size:60px;"">+</div>",,html-keyboard-response,230,1296557,0.0-15.0-0.5,37780,List2A,black,woman,,,,null,,,,
null,"<img src=""stim_listA/marry1.gif""style=""height:400px;""></stim_listA>",,html-keyboard-response,231,1298559,0.0-15.0-1.5,37780,List2A,black,woman,,,,null,,,,
null,is marrying,,html-keyboard-response,232,1300560,0.0-15.0-2.5,37780,List2A,black,woman,,,,null,,,,
9908,,,survey-text,233,1310468,0.0-15.0-3.5,37780,List2A,black,woman,,,,,"{""Q0"":""ruth is marrying dave""}","<img src=""stim_listA/marry1.gif""style=""height:400px;""></stim_listA>",is marrying,
null,"<div style=""font-size:60px;"">+</div>",,html-keyboard-response,234,1310969,0.0-15.0-0.6,37780,List2A,black,woman,,,,null,,,,
null,"<img src=""stim_listA/play3.gif""style=""height:400px;""></stim_listA>",,html-keyboard-response,235,1312970,0.0-15.0-1.6,37780,List2A,black,woman,,,,null,,,,
null,is playing with,,html-keyboard-response,236,1314970,0.0-15.0-2.6,37780,List2A,black,woman,,,,null,,,,
11630,,,survey-text,237,1326602,0.0-15.0-3.6,37780,List2A,black,woman,,,,,"{""Q0"":""kate is playing with mike""}","<img src=""stim_listA/play3.gif""style=""height:400px;""></stim_listA>",is playing with,
null,"<div style=""font-size:60px;"">+</div>",,html-keyboard-response,238,1327102,0.0-15.0-0.7,37780,List2A,black,woman,,,,null,,,,
null,"<img src=""stim_listA/argue3.gif""style=""height:400px;""></stim_listA>",,html-keyboard-response,239,1329104,0.0-15.0-1.7,37780,List2A,black,woman,,,,null,,,,
null,is arguing with,,html-keyboard-response,240,1331104,0.0-15.0-2.7,37780,List2A,black,woman,,,,null,,,,
11911,,,survey-text,241,1343016,0.0-15.0-3.7,37780,List2A,black,woman,,,,,"{""Q0"":""mike is arguing with beth""}","<img src=""stim_listA/argue3.gif""style=""height:400px;""></stim_listA>",is arguing with,
null,"<div style=""font-size:60px;"">+</div>",,html-keyboard-response,242,1343517,0.0-15.0-0.8,37780,List2A,black,woman,,,,null,,,,
null,"<img src=""stim_listA/fight4.gif""style=""height:400px;""></stim_listA>",,html-keyboard-response,243,1345518,0.0-15.0-1.8,37780,List2A,black,woman,,,,null,,,,
null,are fighting each other,,html-keyboard-response,244,1347519,0.0-15.0-2.8,37780,List2A,black,woman,,,,null,,,,
12553,,,survey-text,245,1360074,0.0-15.0-3.8,37780,List2A,black,woman,,,,,"{""Q0"":""beth and fred are fighting each other""}","<img src=""stim_listA/fight4.gif""style=""height:400px;""></stim_listA>",are fighting each other,
null,"<div style=""font-size:60px;"">+</div>",,html-keyboard-response,246,1360575,0.0-15.0-0.9,37780,List2A,black,woman,,,,null,,,,
null,"<img src=""stim_listA/touch2.gif""style=""height:400px;""></stim_listA>",,html-keyboard-response,247,1362576,0.0-15.0-1.9,37780,List2A,black,woman,,,,null,,,,
null,are touching each other,,html-keyboard-response,248,1364577,0.0-15.0-2.9,37780,List2A,black,woman,,,,null,,,,
12731,,,survey-text,249,1377308,0.0-15.0-3.9,37780,List2A,black,woman,,,,,"{""Q0"":""ruth and luke are touching each other""}","<img src=""stim_listA/touch2.gif""style=""height:400px;""></stim_listA>",are touching each other,
null,"<div style=""font-size:60px;"">+</div>",,html-keyboard-response,250,1377809,0.0-15.0-0.10,37780,List2A,black,woman,,,,null,,,,
null,"<img src=""stim_listA/dance6.gif""style=""height:400px;""></stim_listA>",,html-keyboard-response,251,1379811,0.0-15.0-1.10,37780,List2A,black,woman,,,,null,,,,
null,are dancing with each other,,html-keyboard-response,252,1381811,0.0-15.0-2.10,37780,List2A,black,woman,,,,null,,,,
14317,,,survey-text,253,1396129,0.0-15.0-3.10,37780,List2A,black,woman,,,,,"{""Q0"":""fred and dave are dancing with each other""}","<img src=""stim_listA/dance6.gif""style=""height:400px;""></stim_listA>",are dancing with each other,
null,"<div style=""font-size:60px;"">+</div>",,html-keyboard-response,254,1396630,0.0-15.0-0.11,37780,List2A,black,woman,,,,null,,,,
null,"<img src=""stim_listA/flirt1.gif""style=""height:400px;""></stim_listA>",,html-keyboard-response,255,1398632,0.0-15.0-1.11,37780,List2A,black,woman,,,,null,,,,
null,is flirting with,,html-keyboard-response,256,1400632,0.0-15.0-2.11,37780,List2A,black,woman,,,,null,,,,
9633,,,survey-text,257,1410266,0.0-15.0-3.11,37780,List2A,black,woman,,,,,"{""Q0"":""luke is flirting with jane""}","<img src=""stim_listA/flirt1.gif""style=""height:400px;""></stim_listA>",is flirting with,
null,"<div style=""font-size:60px;"">+</div>",,html-keyboard-response,258,1410767,0.0-15.0-0.12,37780,List2A,black,woman,,,,null,,,,
null,"<img src=""stim_listA/kiss7.gif""style=""height:400px;""></stim_listA>",,html-keyboard-response,259,1412769,0.0-15.0-1.12,37780,List2A,black,woman,,,,null,,,,
null,is kissing,,html-keyboard-response,260,1414770,0.0-15.0-2.12,37780,List2A,black,woman,,,,null,,,,
9402,,,survey-text,261,1424172,0.0-15.0-3.12,37780,List2A,black,woman,,,,,"{""Q0"":""ruth is kissing beth""}","<img src=""stim_listA/kiss7.gif""style=""height:400px;""></stim_listA>",is kissing,
null,"<div style=""font-size:60px;"">+</div>",,html-keyboard-response,262,1424673,0.0-15.0-0.13,37780,List2A,black,woman,,,,null,,,,
null,"<img src=""stim_listA/play8.gif""style=""height:400px;""></stim_listA>",,html-keyboard-response,263,1426675,0.0-15.0-1.13,37780,List2A,black,woman,,,,null,,,,
null,are playing with each other,,html-keyboard-response,264,1428676,0.0-15.0-2.13,37780,List2A,black,woman,,,,null,,,,
15273,,,survey-text,265,1443949,0.0-15.0-3.13,37780,List2A,black,woman,,,,,"{""Q0"":""beth and ruth are playing with each other""}","<img src=""stim_listA/play8.gif""style=""height:400px;""></stim_listA>",are playing with each other,
null,"<div style=""font-size:60px;"">+</div>",,html-keyboard-response,266,1444450,0.0-15.0-0.14,37780,List2A,black,woman,,,,null,,,,
null,"<img src=""stim_listA/argue1.gif""style=""height:400px;""></stim_listA>",,html-keyboard-response,267,1446452,0.0-15.0-1.14,37780,List2A,black,woman,,,,null,,,,
null,is arguing with,,html-keyboard-response,268,1448453,0.0-15.0-2.14,37780,List2A,black,woman,,,,null,,,,
42700,,,survey-text,269,1491153,0.0-15.0-3.14,37780,List2A,black,woman,,,,,"{""Q0"":""missed""}","<img src=""stim_listA/argue1.gif""style=""height:400px;""></stim_listA>",is arguing with,
null,"<div style=""font-size:60px;"">+</div>",,html-keyboard-response,270,1491654,0.0-15.0-0.15,37780,List2A,black,woman,,,,null,,,,
null,"<img src=""stim_listA/marry8.gif""style=""height:400px;""></stim_listA>",,html-keyboard-response,271,1493658,0.0-15.0-1.15,37780,List2A,black,woman,,,,null,,,,
null,are marrying each other,,html-keyboard-response,272,1495659,0.0-15.0-2.15,37780,List2A,black,woman,,,,null,,,,
17780,,,survey-text,273,1513440,0.0-15.0-3.15,37780,List2A,black,woman,,,,,"{""Q0"":""ruth and beth are marrying each other""}","<img src=""stim_listA/marry8.gif""style=""height:400px;""></stim_listA>",are marrying each other,
null,"<div style=""font-size:60px;"">+</div>",,html-keyboard-response,274,1513941,0.0-15.0-0.16,37780,List2A,black,woman,,,,null,,,,
null,"<img src=""stim_listA/marry5.gif""style=""height:400px;""></stim_listA>",,html-keyboard-response,275,1515942,0.0-15.0-1.16,37780,List2A,black,woman,,,,null,,,,
null,is marrying,,html-keyboard-response,276,1517943,0.0-15.0-2.16,37780,List2A,black,woman,,,,null,,,,
9833,,,survey-text,277,1527776,0.0-15.0-3.16,37780,List2A,black,woman,,,,,"{""Q0"":""fred is marrying dave""}","<img src=""stim_listA/marry5.gif""style=""height:400px;""></stim_listA>",is marrying,
null,"<div style=""font-size:60px;"">+</div>",,html-keyboard-response,278,1528277,0.0-15.0-0.17,37780,List2A,black,woman,,,,null,,,,
null,"<img src=""stim_listA/touch4.gif""style=""height:400px;""></stim_listA>",,html-keyboard-response,279,1530279,0.0-15.0-1.17,37780,List2A,black,woman,,,,null,,,,
null,are touching each other,,html-keyboard-response,280,1532279,0.0-15.0-2.17,37780,List2A,black,woman,,,,null,,,,
16505,,,survey-text,281,1548784,0.0-15.0-3.17,37780,List2A,black,woman,,,,,"{""Q0"":""fred and kate are touching each other""}","<img src=""stim_listA/touch4.gif""style=""height:400px;""></stim_listA>",are touching each other,
null,"<div style=""font-size:60px;"">+</div>",,html-keyboard-response,282,1549285,0.0-15.0-0.18,37780,List2A,black,woman,,,,null,,,,
null,"<img src=""stim_listA/argue7.gif""style=""height:400px;""></stim_listA>",,html-keyboard-response,283,1551287,0.0-15.0-1.18,37780,List2A,black,woman,,,,null,,,,
null,is arguing with,,html-keyboard-response,284,1553288,0.0-15.0-2.18,37780,List2A,black,woman,,,,null,,,,
14246,,,survey-text,285,1567535,0.0-15.0-3.18,37780,List2A,black,woman,,,,,"{""Q0"":""kate is arguing with jane""}","<img src=""stim_listA/argue7.gif""style=""height:400px;""></stim_listA>",is arguing with,
null,"<div style=""font-size:60px;"">+</div>",,html-keyboard-response,286,1568035,0.0-15.0-0.19,37780,List2A,black,woman,,,,null,,,,
null,"<img src=""stim_listA/kiss3.gif""style=""height:400px;""></stim_listA>",,html-keyboard-response,287,1570041,0.0-15.0-1.19,37780,List2A,black,woman,,,,null,,,,
null,is kissing,,html-keyboard-response,288,1572041,0.0-15.0-2.19,37780,List2A,black,woman,,,,null,,,,
12386,,,survey-text,289,1584428,0.0-15.0-3.19,37780,List2A,black,woman,,,,,"{""Q0"":""fred is kissing kate""}","<img src=""stim_listA/kiss3.gif""style=""height:400px;""></stim_listA>",is kissing,
64475,"<img src='img/portrait_matrix_list2.jpg' style='width:900px;height:500px;''></img><p>If you have memorised all the portraits and names and are ready to start, press Continue.</p><p><strong>Please note: Your memory of these faces will be tested 4 times during this experiment.</strong></p>",0,html-button-response,290,1648904,0.0-16.0-0.0,37780,List2A,black,woman,,,,,,,,
3266,"<img src=""portrait/WW2.jpg""style=""height:400px;""></img>",3,html-button-response,291,1653173,0.0-16.0-1.0,37780,List2A,black,woman,,TRUE,3,,,,,
null,CORRECT,,html-keyboard-response,292,1654675,0.0-16.0-2.0-0.0,37780,List2A,black,woman,,,,null,,,,
2037,"<img src=""portrait/WM2.jpg""style=""height:400px;""></img>",7,html-button-response,293,1656713,0.0-16.0-4.0,37780,List2A,black,woman,,TRUE,7,,,,,
null,CORRECT,,html-keyboard-response,294,1658214,0.0-16.0-5.0-0.0,37780,List2A,black,woman,,,,null,,,,
3687,"<img src=""portrait/WM1.jpg""style=""height:400px;""></img>",6,html-button-response,295,1661902,0.0-16.0-7.0,37780,List2A,black,woman,,TRUE,6,,,,,
null,CORRECT,,html-keyboard-response,296,1663404,0.0-16.0-8.0-0.0,37780,List2A,black,woman,,,,null,,,,
1957,"<img src=""portrait/BM1.jpg""style=""height:400px;""></img>",4,html-button-response,297,1665362,0.0-16.0-10.0,37780,List2A,black,woman,,TRUE,4,,,,,
null,CORRECT,,html-keyboard-response,298,1666864,0.0-16.0-11.0-0.0,37780,List2A,black,woman,,,,null,,,,
6913,"<img src=""portrait/BW2.jpg""style=""height:400px;""></img>",2,html-button-response,299,1673779,0.0-16.0-13.0,37780,List2A,black,woman,,TRUE,2,,,,,
null,CORRECT,,html-keyboard-response,300,1675280,0.0-16.0-14.0-0.0,37780,List2A,black,woman,,,,null,,,,
7947,"<img src=""portrait/BW1.jpg""style=""height:400px;""></img>",0,html-button-response,301,1683229,0.0-16.0-16.0,37780,List2A,black,woman,,TRUE,0,,,,,
null,CORRECT,,html-keyboard-response,302,1684733,0.0-16.0-17.0-0.0,37780,List2A,black,woman,,,,null,,,,
1954,"<img src=""portrait/BM2.jpg""style=""height:400px;""></img>",5,html-button-response,303,1686688,0.0-16.0-19.0,37780,List2A,black,woman,,TRUE,5,,,,,
null,CORRECT,,html-keyboard-response,304,1688190,0.0-16.0-20.0-0.0,37780,List2A,black,woman,,,,null,,,,
3337,"<img src=""portrait/WW1.jpg""style=""height:400px;""></img>",1,html-button-response,305,1691529,0.0-16.0-22.0,37780,List2A,black,woman,,TRUE,1,,,,,
null,CORRECT,,html-keyboard-response,306,1693031,0.0-16.0-23.0-0.0,37780,List2A,black,woman,,,,null,,,,
1874,<p>You got 8 out of 8 right first time. Press Continue.</p>,0,html-button-response,307,1694905,0.0-16.0-25.0,37780,List2A,black,woman,,,,,,,,
null,"<div style=""font-size:60px;"">+</div>",,html-keyboard-response,308,1696407,0.0-17.0-0.0,37780,List2A,black,woman,,,,null,,,,
null,"<img src=""stim_listA/play2.gif""style=""height:400px;""></stim_listA>",,html-keyboard-response,309,1698408,0.0-17.0-1.0,37780,List2A,black,woman,,,,null,,,,
null,are playing with each other,,html-keyboard-response,310,1700409,0.0-17.0-2.0,37780,List2A,black,woman,,,,null,,,,
19644,,,survey-text,311,1720054,0.0-17.0-3.0,37780,List2A,black,woman,,,,,"{""Q0"":""ruth and luke are playing with each other""}","<img src=""stim_listA/play2.gif""style=""height:400px;""></stim_listA>",are playing with each other,
null,"<div style=""font-size:60px;"">+</div>",,html-keyboard-response,312,1720555,0.0-17.0-0.1,37780,List2A,black,woman,,,,null,,,,
null,"<img src=""stim_listA/shout7.gif""style=""height:400px;""></stim_listA>",,html-keyboard-response,313,1722556,0.0-17.0-1.1,37780,List2A,black,woman,,,,null,,,,
null,is shouting at,,html-keyboard-response,314,1724557,0.0-17.0-2.1,37780,List2A,black,woman,,,,null,,,,
28590,,,survey-text,315,1753148,0.0-17.0-3.1,37780,List2A,black,woman,,,,,"{""Q0"":""ruth is shouting at beth""}","<img src=""stim_listA/shout7.gif""style=""height:400px;""></stim_listA>",is shouting at,
null,"<div style=""font-size:60px;"">+</div>",,html-keyboard-response,316,1753650,0.0-17.0-0.2,37780,List2A,black,woman,,,,null,,,,
null,"<img src=""stim_listA/touch7.gif""style=""height:400px;""></stim_listA>",,html-keyboard-response,317,1755655,0.0-17.0-1.2,37780,List2A,black,woman,,,,null,,,,
null,is touching,,html-keyboard-response,318,1757656,0.0-17.0-2.2,37780,List2A,black,woman,,,,null,,,,
21509,,,survey-text,319,1779166,0.0-17.0-3.2,37780,List2A,black,woman,,,,,"{""Q0"":""kate is touching jane""}","<img src=""stim_listA/touch7.gif""style=""height:400px;""></stim_listA>",is touching,
null,"<div style=""font-size:60px;"">+</div>",,html-keyboard-response,320,1779667,0.0-17.0-0.3,37780,List2A,black,woman,,,,null,,,,
null,"<img src=""stim_listA/kiss8.gif""style=""height:400px;""></stim_listA>",,html-keyboard-response,321,1781668,0.0-17.0-1.3,37780,List2A,black,woman,,,,null,,,,
null,are kissing each other,,html-keyboard-response,322,1783669,0.0-17.0-2.3,37780,List2A,black,woman,,,,null,,,,
15572,,,survey-text,323,1799241,0.0-17.0-3.3,37780,List2A,black,woman,,,,,"{""Q0"":""jane is kissing kate""}","<img src=""stim_listA/kiss8.gif""style=""height:400px;""></stim_listA>",are kissing each other,
null,"<div style=""font-size:60px;"">+</div>",,html-keyboard-response,324,1799742,0.0-17.0-0.4,37780,List2A,black,woman,,,,null,,,,
null,"<img src=""stim_listA/dance7.gif""style=""height:400px;""></stim_listA>",,html-keyboard-response,325,1801744,0.0-17.0-1.4,37780,List2A,black,woman,,,,null,,,,
null,is dancing with,,html-keyboard-response,326,1803744,0.0-17.0-2.4,37780,List2A,black,woman,,,,null,,,,
18773,,,survey-text,327,1822518,0.0-17.0-3.4,37780,List2A,black,woman,,,,,"{""Q0"":""kate is dancing with luke""}","<img src=""stim_listA/dance7.gif""style=""height:400px;""></stim_listA>",is dancing with,
null,"<div style=""font-size:60px;"">+</div>",,html-keyboard-response,328,1823019,0.0-17.0-0.5,37780,List2A,black,woman,,,,null,,,,
null,"<img src=""stim_listA/talk2.gif""style=""height:400px;""></stim_listA>",,html-keyboard-response,329,1825021,0.0-17.0-1.5,37780,List2A,black,woman,,,,null,,,,
null,are talking to each other,,html-keyboard-response,330,1827021,0.0-17.0-2.5,37780,List2A,black,woman,,,,null,,,,
17238,,,survey-text,331,1844260,0.0-17.0-3.5,37780,List2A,black,woman,,,,,"{""Q0"":""ruth and dave are talking to each other""}","<img src=""stim_listA/talk2.gif""style=""height:400px;""></stim_listA>",are talking to each other,
null,"<div style=""font-size:60px;"">+</div>",,html-keyboard-response,332,1844761,0.0-17.0-0.6,37780,List2A,black,woman,,,,null,,,,
null,"<img src=""stim_listA/flirt4.gif""style=""height:400px;""></stim_listA>",,html-keyboard-response,333,1846763,0.0-17.0-1.6,37780,List2A,black,woman,,,,null,,,,
null,are flirting with each other,,html-keyboard-response,334,1848763,0.0-17.0-2.6,37780,List2A,black,woman,,,,null,,,,
30931,,,survey-text,335,1879695,0.0-17.0-3.6,37780,List2A,black,woman,,,,,"{""Q0"":""mike and beth are flirting with each other""}","<img src=""stim_listA/flirt4.gif""style=""height:400px;""></stim_listA>",are flirting with each other,
null,"<div style=""font-size:60px;"">+</div>",,html-keyboard-response,336,1880196,0.0-17.0-0.7,37780,List2A,black,woman,,,,null,,,,
null,"<img src=""stim_listA/flirt7.gif""style=""height:400px;""></stim_listA>",,html-keyboard-response,337,1882198,0.0-17.0-1.7,37780,List2A,black,woman,,,,null,,,,
null,is flirting with,,html-keyboard-response,338,1884199,0.0-17.0-2.7,37780,List2A,black,woman,,,,null,,,,
15500,,,survey-text,339,1899699,0.0-17.0-3.7,37780,List2A,black,woman,,,,,"{""Q0"":""ruth is flirting with kate""}","<img src=""stim_listA/flirt7.gif""style=""height:400px;""></stim_listA>",is flirting with,
null,"<div style=""font-size:60px;"">+</div>",,html-keyboard-response,340,1900200,0.0-17.0-0.8,37780,List2A,black,woman,,,,null,,,,
null,"<img src=""stim_listA/flirt3.gif""style=""height:400px;""></stim_listA>",,html-keyboard-response,341,1902203,0.0-17.0-1.8,37780,List2A,black,woman,,,,null,,,,
null,is flirting with,,html-keyboard-response,342,1904207,0.0-17.0-2.8,37780,List2A,black,woman,,,,null,,,,
16083,,,survey-text,343,1920291,0.0-17.0-3.8,37780,List2A,black,woman,,,,,"{""Q0"":""fred is flirting with kate""}","<img src=""stim_listA/flirt3.gif""style=""height:400px;""></stim_listA>",is flirting with,
null,"<div style=""font-size:60px;"">+</div>",,html-keyboard-response,344,1920792,0.0-17.0-0.9,37780,List2A,black,woman,,,,null,,,,
null,"<img src=""stim_listA/marry2.gif""style=""height:400px;""></stim_listA>",,html-keyboard-response,345,1922794,0.0-17.0-1.9,37780,List2A,black,woman,,,,null,,,,
null,are marrying each other,,html-keyboard-response,346,1924794,0.0-17.0-2.9,37780,List2A,black,woman,,,,null,,,,
18027,,,survey-text,347,1942823,0.0-17.0-3.9,37780,List2A,black,woman,,,,,"{""Q0"":""luke and jane are marrying each other""}","<img src=""stim_listA/marry2.gif""style=""height:400px;""></stim_listA>",are marrying each other,
null,"<div style=""font-size:60px;"">+</div>",,html-keyboard-response,348,1943323,0.0-17.0-0.10,37780,List2A,black,woman,,,,null,,,,
null,"<img src=""stim_listA/kiss4.gif""style=""height:400px;""></stim_listA>",,html-keyboard-response,349,1945325,0.0-17.0-1.10,37780,List2A,black,woman,,,,null,,,,
null,are kissing each other,,html-keyboard-response,350,1947326,0.0-17.0-2.10,37780,List2A,black,woman,,,,null,,,,
18399,,,survey-text,351,1965725,0.0-17.0-3.10,37780,List2A,black,woman,,,,,"{""Q0"":""mike and kate are kissing each other""}","<img src=""stim_listA/kiss4.gif""style=""height:400px;""></stim_listA>",are kissing each other,
null,"<div style=""font-size:60px;"">+</div>",,html-keyboard-response,352,1966226,0.0-17.0-0.11,37780,List2A,black,woman,,,,null,,,,
null,"<img src=""stim_listA/argue4.gif""style=""height:400px;""></stim_listA>",,html-keyboard-response,353,1968227,0.0-17.0-1.11,37780,List2A,black,woman,,,,null,,,,
null,are arguing with each other,,html-keyboard-response,354,1970227,0.0-17.0-2.11,37780,List2A,black,woman,,,,null,,,,
20016,,,survey-text,355,1990244,0.0-17.0-3.11,37780,List2A,black,woman,,,,,"{""Q0"":""kate and fred are arguing with each other""}","<img src=""stim_listA/argue4.gif""style=""height:400px;""></stim_listA>",are arguing with each other,
null,"<div style=""font-size:60px;"">+</div>",,html-keyboard-response,356,1990745,0.0-17.0-0.12,37780,List2A,black,woman,,,,null,,,,
null,"<img src=""stim_listA/fight3.gif""style=""height:400px;""></stim_listA>",,html-keyboard-response,357,1992747,0.0-17.0-1.12,37780,List2A,black,woman,,,,null,,,,
null,is fighting,,html-keyboard-response,358,1994747,0.0-17.0-2.12,37780,List2A,black,woman,,,,null,,,,
13660,,,survey-text,359,2008407,0.0-17.0-3.12,37780,List2A,black,woman,,,,,"{""Q0"":""mike is fighting kate""}","<img src=""stim_listA/fight3.gif""style=""height:400px;""></stim_listA>",is fighting,
null,"<div style=""font-size:60px;"">+</div>",,html-keyboard-response,360,2008908,0.0-17.0-0.13,37780,List2A,black,woman,,,,null,,,,
null,"<img src=""stim_listA/play5.gif""style=""height:400px;""></stim_listA>",,html-keyboard-response,361,2010910,0.0-17.0-1.13,37780,List2A,black,woman,,,,null,,,,
null,is playing with,,html-keyboard-response,362,2012910,0.0-17.0-2.13,37780,List2A,black,woman,,,,null,,,,
15404,,,survey-text,363,2028316,0.0-17.0-3.13,37780,List2A,black,woman,,,,,"{""Q0"":""mike is playing with luke""}","<img src=""stim_listA/play5.gif""style=""height:400px;""></stim_listA>",is playing with,
null,"<div style=""font-size:60px;"">+</div>",,html-keyboard-response,364,2028817,0.0-17.0-0.14,37780,List2A,black,woman,,,,null,,,,
null,"<img src=""stim_listA/argue6.gif""style=""height:400px;""></stim_listA>",,html-keyboard-response,365,2030818,0.0-17.0-1.14,37780,List2A,black,woman,,,,null,,,,
null,are arguing with each other,,html-keyboard-response,366,2032819,0.0-17.0-2.14,37780,List2A,black,woman,,,,null,,,,
27769,,,survey-text,367,2060588,0.0-17.0-3.14,37780,List2A,black,woman,,,,,"{""Q0"":""mike and luke are arguing with each other""}","<img src=""stim_listA/argue6.gif""style=""height:400px;""></stim_listA>",are arguing with each other,
null,"<div style=""font-size:60px;"">+</div>",,html-keyboard-response,368,2061089,0.0-17.0-0.15,37780,List2A,black,woman,,,,null,,,,
null,"<img src=""stim_listA/flirt5.gif""style=""height:400px;""></stim_listA>",,html-keyboard-response,369,2063090,0.0-17.0-1.15,37780,List2A,black,woman,,,,null,,,,
null,is flirting with,,html-keyboard-response,370,2065091,0.0-17.0-2.15,37780,List2A,black,woman,,,,null,,,,
16060,,,survey-text,371,2081153,0.0-17.0-3.15,37780,List2A,black,woman,,,,,"{""Q0"":""luke is flirting with mike""}","<img src=""stim_listA/flirt5.gif""style=""height:400px;""></stim_listA>",is flirting with,
null,"<div style=""font-size:60px;"">+</div>",,html-keyboard-response,372,2081653,0.0-17.0-0.16,37780,List2A,black,woman,,,,null,,,,
null,"<img src=""stim_listA/kiss6.gif""style=""height:400px;""></stim_listA>",,html-keyboard-response,373,2083655,0.0-17.0-1.16,37780,List2A,black,woman,,,,null,,,,
null,are kissing each other,,html-keyboard-response,374,2085656,0.0-17.0-2.16,37780,List2A,black,woman,,,,null,,,,
23060,,,survey-text,375,2108717,0.0-17.0-3.16,37780,List2A,black,woman,,,,,"{""Q0"":""dave and mike are kissing each other""}","<img src=""stim_listA/kiss6.gif""style=""height:400px;""></stim_listA>",are kissing each other,
null,"<div style=""font-size:60px;"">+</div>",,html-keyboard-response,376,2109218,0.0-17.0-0.17,37780,List2A,black,woman,,,,null,,,,
null,"<img src=""stim_listA/shout6.gif""style=""height:400px;""></stim_listA>",,html-keyboard-response,377,2111219,0.0-17.0-1.17,37780,List2A,black,woman,,,,null,,,,
null,are shouting at each other,,html-keyboard-response,378,2113220,0.0-17.0-2.17,37780,List2A,black,woman,,,,null,,,,
26375,,,survey-text,379,2139595,0.0-17.0-3.17,37780,List2A,black,woman,,,,,"{""Q0"":""mike and dave are shouting at each other""}","<img src=""stim_listA/shout6.gif""style=""height:400px;""></stim_listA>",are shouting at each other,
null,"<div style=""font-size:60px;"">+</div>",,html-keyboard-response,380,2140096,0.0-17.0-0.18,37780,List2A,black,woman,,,,null,,,,
null,"<img src=""stim_listA/talk8.gif""style=""height:400px;""></stim_listA>",,html-keyboard-response,381,2142098,0.0-17.0-1.18,37780,List2A,black,woman,,,,null,,,,
null,are talking to each other,,html-keyboard-response,382,2144101,0.0-17.0-2.18,37780,List2A,black,woman,,,,null,,,,
14275,,,survey-text,383,2158377,0.0-17.0-3.18,37780,List2A,black,woman,,,,,"{""Q0"":""jane and beth are arguing""}","<img src=""stim_listA/talk8.gif""style=""height:400px;""></stim_listA>",are talking to each other,
null,"<div style=""font-size:60px;"">+</div>",,html-keyboard-response,384,2158879,0.0-17.0-0.19,37780,List2A,black,woman,,,,null,,,,
null,"<img src=""stim_listA/touch8.gif""style=""height:400px;""></stim_listA>",,html-keyboard-response,385,2160884,0.0-17.0-1.19,37780,List2A,black,woman,,,,null,,,,
null,are touching each other,,html-keyboard-response,386,2162885,0.0-17.0-2.19,37780,List2A,black,woman,,,,null,,,,
18253,,,survey-text,387,2181138,0.0-17.0-3.19,37780,List2A,black,woman,,,,,"{""Q0"":""kate and beth are touching each other""}","<img src=""stim_listA/touch8.gif""style=""height:400px;""></stim_listA>",are touching each other,
18132,"<img src='img/portrait_matrix_list2.jpg' style='width:900px;height:500px;''></img><p>If you have memorised all the portraits and names and are ready to start, press Continue.</p><p><strong>Please note: Your memory of these faces will be tested 4 times during this experiment.</strong></p>",0,html-button-response,388,2199272,0.0-18.0-0.0,37780,List2A,black,woman,,,,,,,,
3330,"<img src=""portrait/WW1.jpg""style=""height:400px;""></img>",1,html-button-response,389,2203603,0.0-18.0-1.0,37780,List2A,black,woman,,TRUE,1,,,,,
null,CORRECT,,html-keyboard-response,390,2205105,0.0-18.0-2.0-0.0,37780,List2A,black,woman,,,,null,,,,
4173,"<img src=""portrait/WW2.jpg""style=""height:400px;""></img>",3,html-button-response,391,2209279,0.0-18.0-4.0,37780,List2A,black,woman,,TRUE,3,,,,,
null,CORRECT,,html-keyboard-response,392,2210781,0.0-18.0-5.0-0.0,37780,List2A,black,woman,,,,null,,,,
3236,"<img src=""portrait/BM2.jpg""style=""height:400px;""></img>",5,html-button-response,393,2214018,0.0-18.0-7.0,37780,List2A,black,woman,,TRUE,5,,,,,
null,CORRECT,,html-keyboard-response,394,2215519,0.0-18.0-8.0-0.0,37780,List2A,black,woman,,,,null,,,,
4643,"<img src=""portrait/WM2.jpg""style=""height:400px;""></img>",7,html-button-response,395,2220163,0.0-18.0-10.0,37780,List2A,black,woman,,TRUE,7,,,,,
null,CORRECT,,html-keyboard-response,396,2221665,0.0-18.0-11.0-0.0,37780,List2A,black,woman,,,,null,,,,
14843,"<img src=""portrait/WM1.jpg""style=""height:400px;""></img>",6,html-button-response,397,2236510,0.0-18.0-13.0,37780,List2A,black,woman,,TRUE,6,,,,,
null,CORRECT,,html-keyboard-response,398,2238011,0.0-18.0-14.0-0.0,37780,List2A,black,woman,,,,null,,,,
8082,"<img src=""portrait/BW1.jpg""style=""height:400px;""></img>",0,html-button-response,399,2246094,0.0-18.0-16.0,37780,List2A,black,woman,,TRUE,0,,,,,
null,CORRECT,,html-keyboard-response,400,2247596,0.0-18.0-17.0-0.0,37780,List2A,black,woman,,,,null,,,,
2139,"<img src=""portrait/BM1.jpg""style=""height:400px;""></img>",4,html-button-response,401,2249735,0.0-18.0-19.0,37780,List2A,black,woman,,TRUE,4,,,,,
null,CORRECT,,html-keyboard-response,402,2251237,0.0-18.0-20.0-0.0,37780,List2A,black,woman,,,,null,,,,
3316,"<img src=""portrait/BW2.jpg""style=""height:400px;""></img>",0,html-button-response,403,2254554,0.0-18.0-22.0,37780,List2A,black,woman,,TRUE,2,,,,,
4468,"<img src=""portrait/BW2.jpg""style=""height:400px;""></img>",2,html-button-response,404,2260024,0.0-18.0-24.0-0.0,37780,List2A,black,woman,,FALSE,2,,,,,
null,CORRECT,,html-keyboard-response,405,2261527,0.0-18.0-24.0-1.0-0.0,37780,List2A,black,woman,,,,null,,,,
1713,<p>You got 7 out of 8 right first time. Press Continue.</p>,0,html-button-response,406,2263241,0.0-18.0-25.0,37780,List2A,black,woman,,,,,,,,
3094,"As you did not score 100%, the memory game will repeat. Press Continue.",0,html-button-response,407,2267336,0.0-18.0-26.0-0.0,37780,List2A,black,woman,,,,,,,,
19813,"<img src='img/portrait_matrix_list2.jpg' style='width:900px;height:500px;''></img><p>If you have memorised all the portraits and names and are ready to start, press Continue.</p><p><strong>Please note: Your memory of these faces will be tested 4 times during this experiment.</strong></p>",0,html-button-response,408,2288153,0.0-18.1-0.1,37780,List2A,black,woman,,,,,,,,
3191,"<img src=""portrait/WW1.jpg""style=""height:400px;""></img>",1,html-button-response,409,2292345,0.0-18.1-1.1,37780,List2A,black,woman,,TRUE,1,,,,,
null,CORRECT,,html-keyboard-response,410,2293847,0.0-18.1-2.1-0.1,37780,List2A,black,woman,,,,null,,,,
3366,"<img src=""portrait/WW2.jpg""style=""height:400px;""></img>",3,html-button-response,411,2297214,0.0-18.1-4.1,37780,List2A,black,woman,,TRUE,3,,,,,
null,CORRECT,,html-keyboard-response,412,2298716,0.0-18.1-5.1-0.1,37780,List2A,black,woman,,,,null,,,,
2340,"<img src=""portrait/BM2.jpg""style=""height:400px;""></img>",5,html-button-response,413,2301057,0.0-18.1-7.1,37780,List2A,black,woman,,TRUE,5,,,,,
null,CORRECT,,html-keyboard-response,414,2302561,0.0-18.1-8.1-0.1,37780,List2A,black,woman,,,,null,,,,
4103,"<img src=""portrait/WM2.jpg""style=""height:400px;""></img>",7,html-button-response,415,2306665,0.0-18.1-10.1,37780,List2A,black,woman,,TRUE,7,,,,,
null,CORRECT,,html-keyboard-response,416,2308166,0.0-18.1-11.1-0.1,37780,List2A,black,woman,,,,null,,,,
4005,"<img src=""portrait/WM1.jpg""style=""height:400px;""></img>",6,html-button-response,417,2312173,0.0-18.1-13.1,37780,List2A,black,woman,,TRUE,6,,,,,
null,CORRECT,,html-keyboard-response,418,2313674,0.0-18.1-14.1-0.1,37780,List2A,black,woman,,,,null,,,,
5198,"<img src=""portrait/BW1.jpg""style=""height:400px;""></img>",0,html-button-response,419,2318874,0.0-18.1-16.1,37780,List2A,black,woman,,TRUE,0,,,,,
null,CORRECT,,html-keyboard-response,420,2320376,0.0-18.1-17.1-0.1,37780,List2A,black,woman,,,,null,,,,
2006,"<img src=""portrait/BM1.jpg""style=""height:400px;""></img>",4,html-button-response,421,2322382,0.0-18.1-19.1,37780,List2A,black,woman,,TRUE,4,,,,,
null,CORRECT,,html-keyboard-response,422,2323884,0.0-18.1-20.1-0.1,37780,List2A,black,woman,,,,null,,,,
7449,"<img src=""portrait/BW2.jpg""style=""height:400px;""></img>",2,html-button-response,423,2331334,0.0-18.1-22.1,37780,List2A,black,woman,,TRUE,2,,,,,
null,CORRECT,,html-keyboard-response,424,2332836,0.0-18.1-23.1-0.1,37780,List2A,black,woman,,,,null,,,,
1746,<p>You got 8 out of 8 right first time. Press Continue.</p>,0,html-button-response,425,2334584,0.0-18.1-25.1,37780,List2A,black,woman,,,,,,,,
null,"<div style=""font-size:60px;"">+</div>",,html-keyboard-response,426,2336086,0.0-19.0-0.0,37780,List2A,black,woman,,,,null,,,,
null,"<img src=""stim_listA/fight1.gif""style=""height:400px;""></stim_listA>",,html-keyboard-response,427,2338087,0.0-19.0-1.0,37780,List2A,black,woman,,,,null,,,,
null,is fighting,,html-keyboard-response,428,2340088,0.0-19.0-2.0,37780,List2A,black,woman,,,,null,,,,
14655,,,survey-text,429,2354743,0.0-19.0-3.0,37780,List2A,black,woman,,,,,"{""Q0"":""jane is fighting dave""}","<img src=""stim_listA/fight1.gif""style=""height:400px;""></stim_listA>",is fighting,
null,"<div style=""font-size:60px;"">+</div>",,html-keyboard-response,430,2355244,0.0-19.0-0.1,37780,List2A,black,woman,,,,null,,,,
null,"<img src=""stim_listA/dance8.gif""style=""height:400px;""></stim_listA>",,html-keyboard-response,431,2357248,0.0-19.0-1.1,37780,List2A,black,woman,,,,null,,,,
null,are dancing with each other,,html-keyboard-response,432,2359249,0.0-19.0-2.1,37780,List2A,black,woman,,,,null,,,,
23556,,,survey-text,433,2382806,0.0-19.0-3.1,37780,List2A,black,woman,,,,,"{""Q0"":""jane and beth are dancing with each other""}","<img src=""stim_listA/dance8.gif""style=""height:400px;""></stim_listA>",are dancing with each other,
null,"<div style=""font-size:60px;"">+</div>",,html-keyboard-response,434,2383307,0.0-19.0-0.2,37780,List2A,black,woman,,,,null,,,,
null,"<img src=""stim_listA/touch1.gif""style=""height:400px;""></stim_listA>",,html-keyboard-response,435,2385308,0.0-19.0-1.2,37780,List2A,black,woman,,,,null,,,,
null,is touching,,html-keyboard-response,436,2387309,0.0-19.0-2.2,37780,List2A,black,woman,,,,null,,,,
19177,,,survey-text,437,2406487,0.0-19.0-3.2,37780,List2A,black,woman,,,,,"{""Q0"":""dave and jane are touching each other""}","<img src=""stim_listA/touch1.gif""style=""height:400px;""></stim_listA>",is touching,
null,"<div style=""font-size:60px;"">+</div>",,html-keyboard-response,438,2406988,0.0-19.0-0.3,37780,List2A,black,woman,,,,null,,,,
null,"<img src=""stim_listA/shout2.gif""style=""height:400px;""></stim_listA>",,html-keyboard-response,439,2408990,0.0-19.0-1.3,37780,List2A,black,woman,,,,null,,,,
null,are shouting at each other,,html-keyboard-response,440,2410990,0.0-19.0-2.3,37780,List2A,black,woman,,,,null,,,,
16350,,,survey-text,441,2427341,0.0-19.0-3.3,37780,List2A,black,woman,,,,,"{""Q0"":""jane and dave are shouting at each other""}","<img src=""stim_listA/shout2.gif""style=""height:400px;""></stim_listA>",are shouting at each other,
null,"<div style=""font-size:60px;"">+</div>",,html-keyboard-response,442,2427842,0.0-19.0-0.4,37780,List2A,black,woman,,,,null,,,,
null,"<img src=""stim_listA/shout5.gif""style=""height:400px;""></stim_listA>",,html-keyboard-response,443,2429847,0.0-19.0-1.4,37780,List2A,black,woman,,,,null,,,,
null,is shouting at,,html-keyboard-response,444,2431848,0.0-19.0-2.4,37780,List2A,black,woman,,,,null,,,,
19977,,,survey-text,445,2451826,0.0-19.0-3.4,37780,List2A,black,woman,,,,,"{""Q0"":""fred is shouting at luke""}","<img src=""stim_listA/shout5.gif""style=""height:400px;""></stim_listA>",is shouting at,
null,"<div style=""font-size:60px;"">+</div>",,html-keyboard-response,446,2452327,0.0-19.0-0.5,37780,List2A,black,woman,,,,null,,,,
null,"<img src=""stim_listA/talk7.gif""style=""height:400px;""></stim_listA>",,html-keyboard-response,447,2454330,0.0-19.0-1.5,37780,List2A,black,woman,,,,null,,,,
null,is talking to,,html-keyboard-response,448,2456331,0.0-19.0-2.5,37780,List2A,black,woman,,,,null,,,,
19054,,,survey-text,449,2475386,0.0-19.0-3.5,37780,List2A,black,woman,,,,,"{""Q0"":""ruth is talking to kate""}","<img src=""stim_listA/talk7.gif""style=""height:400px;""></stim_listA>",is talking to,
null,"<div style=""font-size:60px;"">+</div>",,html-keyboard-response,450,2475887,0.0-19.0-0.6,37780,List2A,black,woman,,,,null,,,,
null,"<img src=""stim_listA/fight7.gif""style=""height:400px;""></stim_listA>",,html-keyboard-response,451,2477888,0.0-19.0-1.6,37780,List2A,black,woman,,,,null,,,,
null,is fighting,,html-keyboard-response,452,2479889,0.0-19.0-2.6,37780,List2A,black,woman,,,,null,,,,
13090,,,survey-text,453,2492981,0.0-19.0-3.6,37780,List2A,black,woman,,,,,"{""Q0"":""jane is fighting kate""}","<img src=""stim_listA/fight7.gif""style=""height:400px;""></stim_listA>",is fighting,
null,"<div style=""font-size:60px;"">+</div>",,html-keyboard-response,454,2493482,0.0-19.0-0.7,37780,List2A,black,woman,,,,null,,,,
null,"<img src=""stim_listA/play4.gif""style=""height:400px;""></stim_listA>",,html-keyboard-response,455,2495483,0.0-19.0-1.7,37780,List2A,black,woman,,,,null,,,,
null,are playing with each other,,html-keyboard-response,456,2497484,0.0-19.0-2.7,37780,List2A,black,woman,,,,null,,,,
18145,,,survey-text,457,2515630,0.0-19.0-3.7,37780,List2A,black,woman,,,,,"{""Q0"":""fred and beth are playing with each other""}","<img src=""stim_listA/play4.gif""style=""height:400px;""></stim_listA>",are playing with each other,
null,"<div style=""font-size:60px;"">+</div>",,html-keyboard-response,458,2516131,0.0-19.0-0.8,37780,List2A,black,woman,,,,null,,,,
null,"<img src=""stim_listA/dance1.gif""style=""height:400px;""></stim_listA>",,html-keyboard-response,459,2518133,0.0-19.0-1.8,37780,List2A,black,woman,,,,null,,,,
null,is dancing with,,html-keyboard-response,460,2520133,0.0-19.0-2.8,37780,List2A,black,woman,,,,null,,,,
20781,,,survey-text,461,2540916,0.0-19.0-3.8,37780,List2A,black,woman,,,,,"{""Q0"":""luke is dancing with jane""}","<img src=""stim_listA/dance1.gif""style=""height:400px;""></stim_listA>",is dancing with,
null,"<div style=""font-size:60px;"">+</div>",,html-keyboard-response,462,2541417,0.0-19.0-0.9,37780,List2A,black,woman,,,,null,,,,
null,"<img src=""stim_listA/marry7.gif""style=""height:400px;""></stim_listA>",,html-keyboard-response,463,2543418,0.0-19.0-1.9,37780,List2A,black,woman,,,,null,,,,
null,is marrying,,html-keyboard-response,464,2545419,0.0-19.0-2.9,37780,List2A,black,woman,,,,null,,,,
15776,,,survey-text,465,2561196,0.0-19.0-3.9,37780,List2A,black,woman,,,,,"{""Q0"":""jane is marrying beth""}","<img src=""stim_listA/marry7.gif""style=""height:400px;""></stim_listA>",is marrying,
null,"<div style=""font-size:60px;"">+</div>",,html-keyboard-response,466,2561697,0.0-19.0-0.10,37780,List2A,black,woman,,,,null,,,,
null,"<img src=""stim_listA/play1.gif""style=""height:400px;""></stim_listA>",,html-keyboard-response,467,2563699,0.0-19.0-1.10,37780,List2A,black,woman,,,,null,,,,
null,is playing with,,html-keyboard-response,468,2565699,0.0-19.0-2.10,37780,List2A,black,woman,,,,null,,,,
19129,,,survey-text,469,2584830,0.0-19.0-3.10,37780,List2A,black,woman,,,,,"{""Q0"":""jane is playing with dave""}","<img src=""stim_listA/play1.gif""style=""height:400px;""></stim_listA>",is playing with,
null,"<div style=""font-size:60px;"">+</div>",,html-keyboard-response,470,2585330,0.0-19.0-0.11,37780,List2A,black,woman,,,,null,,,,
null,"<img src=""stim_listA/argue8.gif""style=""height:400px;""></stim_listA>",,html-keyboard-response,471,2587334,0.0-19.0-1.11,37780,List2A,black,woman,,,,null,,,,
null,are arguing with each other,,html-keyboard-response,472,2589334,0.0-19.0-2.11,37780,List2A,black,woman,,,,null,,,,
26057,,,survey-text,473,2615392,0.0-19.0-3.11,37780,List2A,black,woman,,,,,"{""Q0"":""ruth and kate are arguing with each other""}","<img src=""stim_listA/argue8.gif""style=""height:400px;""></stim_listA>",are arguing with each other,
null,"<div style=""font-size:60px;"">+</div>",,html-keyboard-response,474,2615893,0.0-19.0-0.12,37780,List2A,black,woman,,,,null,,,,
null,"<img src=""stim_listA/kiss2.gif""style=""height:400px;""></stim_listA>",,html-keyboard-response,475,2617895,0.0-19.0-1.12,37780,List2A,black,woman,,,,null,,,,
null,are kissing each other,,html-keyboard-response,476,2619896,0.0-19.0-2.12,37780,List2A,black,woman,,,,null,,,,
18777,,,survey-text,477,2638674,0.0-19.0-3.12,37780,List2A,black,woman,,,,,"{""Q0"":""jane and dave are kissing each other""}","<img src=""stim_listA/kiss2.gif""style=""height:400px;""></stim_listA>",are kissing each other,
null,"<div style=""font-size:60px;"">+</div>",,html-keyboard-response,478,2639175,0.0-19.0-0.13,37780,List2A,black,woman,,,,null,,,,
null,"<img src=""stim_listA/fight6.gif""style=""height:400px;""></stim_listA>",,html-keyboard-response,479,2641178,0.0-19.0-1.13,37780,List2A,black,woman,,,,null,,,,
null,are fighting each other,,html-keyboard-response,480,2643179,0.0-19.0-2.13,37780,List2A,black,woman,,,,null,,,,
15445,,,survey-text,481,2658626,0.0-19.0-3.13,37780,List2A,black,woman,,,,,"{""Q0"":""luke and fred are fighting each other""}","<img src=""stim_listA/fight6.gif""style=""height:400px;""></stim_listA>",are fighting each other,
null,"<div style=""font-size:60px;"">+</div>",,html-keyboard-response,482,2659127,0.0-19.0-0.14,37780,List2A,black,woman,,,,null,,,,
null,"<img src=""stim_listA/touch3.gif""style=""height:400px;""></stim_listA>",,html-keyboard-response,483,2661128,0.0-19.0-1.14,37780,List2A,black,woman,,,,null,,,,
null,is touching,,html-keyboard-response,484,2663130,0.0-19.0-2.14,37780,List2A,black,woman,,,,null,,,,
10589,,,survey-text,485,2673720,0.0-19.0-3.14,37780,List2A,black,woman,,,,,"{""Q0"":""""}","<img src=""stim_listA/touch3.gif""style=""height:400px;""></stim_listA>",is touching,
null,"<div style=""font-size:60px;"">+</div>",,html-keyboard-response,486,2674221,0.0-19.0-0.15,37780,List2A,black,woman,,,,null,,,,
null,"<img src=""stim_listA/shout4.gif""style=""height:400px;""></stim_listA>",,html-keyboard-response,487,2676223,0.0-19.0-1.15,37780,List2A,black,woman,,,,null,,,,
null,are shouting at each other,,html-keyboard-response,488,2678223,0.0-19.0-2.15,37780,List2A,black,woman,,,,null,,,,
15487,,,survey-text,489,2693712,0.0-19.0-3.15,37780,List2A,black,woman,,,,,"{""Q0"":""kate and mike are shouting at each other""}","<img src=""stim_listA/shout4.gif""style=""height:400px;""></stim_listA>",are shouting at each other,
null,"<div style=""font-size:60px;"">+</div>",,html-keyboard-response,490,2694213,0.0-19.0-0.16,37780,List2A,black,woman,,,,null,,,,
null,"<img src=""stim_listA/flirt2.gif""style=""height:400px;""></stim_listA>",,html-keyboard-response,491,2696214,0.0-19.0-1.16,37780,List2A,black,woman,,,,null,,,,
null,are flirting with each other,,html-keyboard-response,492,2698215,0.0-19.0-2.16,37780,List2A,black,woman,,,,null,,,,
19867,,,survey-text,493,2718083,0.0-19.0-3.16,37780,List2A,black,woman,,,,,"{""Q0"":""ruth and dave are flirting with each other""}","<img src=""stim_listA/flirt2.gif""style=""height:400px;""></stim_listA>",are flirting with each other,
null,"<div style=""font-size:60px;"">+</div>",,html-keyboard-response,494,2718584,0.0-19.0-0.17,37780,List2A,black,woman,,,,null,,,,
null,"<img src=""stim_listA/shout1.gif""style=""height:400px;""></stim_listA>",,html-keyboard-response,495,2720585,0.0-19.0-1.17,37780,List2A,black,woman,,,,null,,,,
null,is shouting at,,html-keyboard-response,496,2722586,0.0-19.0-2.17,37780,List2A,black,woman,,,,null,,,,
10996,,,survey-text,497,2733584,0.0-19.0-3.17,37780,List2A,black,woman,,,,,"{""Q0"":""ruth is shouting at luke""}","<img src=""stim_listA/shout1.gif""style=""height:400px;""></stim_listA>",is shouting at,
null,"<div style=""font-size:60px;"">+</div>",,html-keyboard-response,498,2734085,0.0-19.0-0.18,37780,List2A,black,woman,,,,null,,,,
null,"<img src=""stim_listA/fight2.gif""style=""height:400px;""></stim_listA>",,html-keyboard-response,499,2736087,0.0-19.0-1.18,37780,List2A,black,woman,,,,null,,,,
null,are fighting each other,,html-keyboard-response,500,2738087,0.0-19.0-2.18,37780,List2A,black,woman,,,,null,,,,
12637,,,survey-text,501,2750726,0.0-19.0-3.18,37780,List2A,black,woman,,,,,"{""Q0"":""ruth and luke are fighting each other""}","<img src=""stim_listA/fight2.gif""style=""height:400px;""></stim_listA>",are fighting each other,
null,"<div style=""font-size:60px;"">+</div>",,html-keyboard-response,502,2751227,0.0-19.0-0.19,37780,List2A,black,woman,,,,null,,,,
null,"<img src=""stim_listA/dance2.gif""style=""height:400px;""></stim_listA>",,html-keyboard-response,503,2753228,0.0-19.0-1.19,37780,List2A,black,woman,,,,null,,,,
null,are dancing with each other,,html-keyboard-response,504,2755229,0.0-19.0-2.19,37780,List2A,black,woman,,,,null,,,,
13707,,,survey-text,505,2768938,0.0-19.0-3.19,37780,List2A,black,woman,,,,,"{""Q0"":""dave and luke are dancing with each other""}","<img src=""stim_listA/dance2.gif""style=""height:400px;""></stim_listA>",are dancing with each other,
3003,<p>Thank you for completing that task.</p><p>The final part of this session is a short questionnaire.</p><p>Press Continue.</p>,0,html-button-response,506,2771942,0.0-20.0,37780,List2A,black,woman,,,,,,,,
55818,,,survey-text,507,2828761,0.0-21.0,37780,List2A,black,woman,,,,,"{""Q0"":""53"",""Q1"":""English"",""Q2"":""English"",""Q3"":""England"",""Q4"":""Black Caribbean"",""Q5"":""female""}",,,demographics
6911,,,survey-likert,508,2835674,0.0-22.0,37780,List2A,black,woman,,,,,"{""Q0"":4}",,,likert_ESS
9020,,,survey-likert,509,2844705,0.0-23.0,37780,List2A,black,woman,,,,,"{""Q0"":4}",,,likert_NSSAL_Q1
3643,,,survey-likert,510,2848359,0.0-24.0,37780,List2A,black,woman,,,,,"{""Q0"":4}",,,likert_NSSAL_Q2
5890,,,survey-likert,511,2854259,0.0-25.0,37780,List2A,black,woman,,,,,"{""Q0"":4}",,,likert_CGRS_Q1
4183,,,survey-likert,512,2858452,0.0-26.0,37780,List2A,black,woman,,,,,"{""Q0"":4}",,,likert_CGRS_Q2
3584,,,survey-likert,513,2862045,0.0-27.0,37780,List2A,black,woman,,,,,"{""Q0"":4}",,,likert_CGRS_Q3
6663,,,survey-text,514,2868720,0.0-28.0,37780,List2A,black,woman,,,,,"{""Q0"":""ccc""}",,,worker_id
19471,,,external-html,515,2888285,0.0-29.0,37780,List2A,black,woman,debrief.html,,,,,,,
