rt,stimulus,button_pressed,trial_type,trial_index,time_elapsed,internal_node_id,subject,list,ppt_race,ppt_gender,url,first_guess,correct,key_press,responses,image_type,phrase_type,test_part
2728,Welcome to the experiment. Press Continue to begin.,0,html-button-response,0,2729,0.0-0.0,38417,List2A,white,man,,,,,,,,
47109,,,external-html,1,50885,0.0-1.0,38417,List2A,white,man,consent.html,,,,,,,
18125,"<p>On the next page, you will see portraits of 8 people and their names.</p><p>Your first task is to take a few minutes to memorise the names of these people.</p><p>You will have to recall their names during the rest of the experiment, so it is</p><p>essential that you try to memorise these people and their names as best as you can.</p><br><p><strong>You will then be tested on your memory of these names and portraits.</strong></p><br><p>The experiment will start after you have completed this memory test.</p><br><p>Ready?</p>",0,html-button-response,2,69012,0.0-2.0,38417,List2A,white,man,,,,,,,,
308790,"<img src='img/portrait_matrix_list2.jpg' style='width:900px;height:500px;''></img><p>If you have memorised all the portraits and names and are ready to start, press Continue.</p><p><strong>Please note: Your memory of these faces will be tested 4 times during this experiment.</strong></p>",0,html-button-response,3,378804,0.0-3.0-0.0,38417,List2A,white,man,,,,,,,,
2748,"<img src=""portrait/BM2.jpg""style=""height:400px;""></img>",5,html-button-response,4,382557,0.0-3.0-1.0,38417,List2A,white,man,,TRUE,5,,,,,
null,CORRECT,,html-keyboard-response,5,384060,0.0-3.0-2.0-0.0,38417,List2A,white,man,,,,null,,,,
8336,"<img src=""portrait/BW2.jpg""style=""height:400px;""></img>",2,html-button-response,6,392397,0.0-3.0-4.0,38417,List2A,white,man,,TRUE,2,,,,,
null,CORRECT,,html-keyboard-response,7,393898,0.0-3.0-5.0-0.0,38417,List2A,white,man,,,,null,,,,
2737,"<img src=""portrait/WM2.jpg""style=""height:400px;""></img>",7,html-button-response,8,396636,0.0-3.0-7.0,38417,List2A,white,man,,TRUE,7,,,,,
null,CORRECT,,html-keyboard-response,9,398139,0.0-3.0-8.0-0.0,38417,List2A,white,man,,,,null,,,,
2556,"<img src=""portrait/BW1.jpg""style=""height:400px;""></img>",0,html-button-response,10,400696,0.0-3.0-10.0,38417,List2A,white,man,,TRUE,0,,,,,
null,CORRECT,,html-keyboard-response,11,402197,0.0-3.0-11.0-0.0,38417,List2A,white,man,,,,null,,,,
2485,"<img src=""portrait/BM1.jpg""style=""height:400px;""></img>",4,html-button-response,12,404684,0.0-3.0-13.0,38417,List2A,white,man,,TRUE,4,,,,,
null,CORRECT,,html-keyboard-response,13,406186,0.0-3.0-14.0-0.0,38417,List2A,white,man,,,,null,,,,
2722,"<img src=""portrait/WW2.jpg""style=""height:400px;""></img>",3,html-button-response,14,408908,0.0-3.0-16.0,38417,List2A,white,man,,TRUE,3,,,,,
null,CORRECT,,html-keyboard-response,15,410410,0.0-3.0-17.0-0.0,38417,List2A,white,man,,,,null,,,,
3745,"<img src=""portrait/WM1.jpg""style=""height:400px;""></img>",6,html-button-response,16,414156,0.0-3.0-19.0,38417,List2A,white,man,,TRUE,6,,,,,
null,CORRECT,,html-keyboard-response,17,415658,0.0-3.0-20.0-0.0,38417,List2A,white,man,,,,null,,,,
2312,"<img src=""portrait/WW1.jpg""style=""height:400px;""></img>",1,html-button-response,18,417973,0.0-3.0-22.0,38417,List2A,white,man,,TRUE,1,,,,,
null,CORRECT,,html-keyboard-response,19,419475,0.0-3.0-23.0-0.0,38417,List2A,white,man,,,,null,,,,
2433,<p>You got 8 out of 8 right first time. Press Continue.</p>,0,html-button-response,20,421908,0.0-3.0-25.0,38417,List2A,white,man,,,,,,,,
113806,"<p>In this experiment, you will view photographs of the people from the memory game interacting.</p><p>By using the <strong>exact</strong> phrase given <i>after</i> the photograph appears and recalling the correct names of the people in the photographs, form a sentence describing the interaction. You do not need to capitalise names.</p><p>Type your answer in the space provided. Please complete every sentence before moving onto the next trial.</p><p>You will only have a few seconds to memorise each given photograph and phrase before you can respond, so try your best to focus.</p><p>An example is given below. Press 'Continue' when you are ready.</p><img src='img/speaking_example.jpg' style='width:800px;height:460px;''></img>",0,html-button-response,21,536717,0.0-4.0,38417,List2A,white,man,,,,,,,,
2914,"<p>Before the experiment starts, you will watch two example trials. Press 'Continue'.</p>",0,html-button-response,22,540632,0.0-5.0,38417,List2A,white,man,,,,,,,,
null,<img src='img/meet_eg.gif' style='height:400px;''></img>,,html-keyboard-response,23,543634,0.0-6.0,38417,List2A,white,man,,,,null,,,,
null,<p>is meeting</p>,,html-keyboard-response,24,545635,0.0-7.0,38417,List2A,white,man,,,,null,,,,
6736,<p><b>Answer:</b> jane is meeting ruth</p>,0,html-button-response,25,552372,0.0-8.0,38417,List2A,white,man,,,,,,,,
null,<img src='img/look_eg.gif' style='height:400px;''></img>,,html-keyboard-response,26,555375,0.0-9.0,38417,List2A,white,man,,,,null,,,,
null,<p>are looking at each other</p>,,html-keyboard-response,27,557376,0.0-10.0,38417,List2A,white,man,,,,null,,,,
12816,<p><b>Answer:</b> fred and mike are looking at each other</p>,0,html-button-response,28,570192,0.0-11.0,38417,List2A,white,man,,,,,,,,
34196,"<p>Ready to start the experiment?</p><br><p><strong>Remember to describe the picture using a full sentence,</strong></p><p><strong>that combines the names of the people with the <i>exact</i> phrase given.</strong></p><p><strong>To receive full payment you must do this correctly.</strong></p><p><strong> You do not need to capitalise names or use punctuation.</strong></p><br><p>Press 'Continue' to begin.</p>",0,html-button-response,29,605389,0.0-12.0,38417,List2A,white,man,,,,,,,,
null,"<div style=""font-size:60px;"">+</div>",,html-keyboard-response,30,606892,0.0-13.0-0.0,38417,List2A,white,man,,,,null,,,,
null,"<img src=""stim_listA/shout8.gif""style=""height:400px;""></stim_listA>",,html-keyboard-response,31,608894,0.0-13.0-1.0,38417,List2A,white,man,,,,null,,,,
null,are shouting at each other,,html-keyboard-response,32,610895,0.0-13.0-2.0,38417,List2A,white,man,,,,null,,,,
15928,,,survey-text,33,626824,0.0-13.0-3.0,38417,List2A,white,man,,,,,"{""Q0"":""jane and kate are shouting at each other""}","<img src=""stim_listA/shout8.gif""style=""height:400px;""></stim_listA>",are shouting at each other,
null,"<div style=""font-size:60px;"">+</div>",,html-keyboard-response,34,627326,0.0-13.0-0.1,38417,List2A,white,man,,,,null,,,,
null,"<img src=""stim_listA/argue3.gif""style=""height:400px;""></stim_listA>",,html-keyboard-response,35,629326,0.0-13.0-1.1,38417,List2A,white,man,,,,null,,,,
null,is arguing with,,html-keyboard-response,36,631329,0.0-13.0-2.1,38417,List2A,white,man,,,,null,,,,
13722,,,survey-text,37,645052,0.0-13.0-3.1,38417,List2A,white,man,,,,,"{""Q0"":""mike is arguing with beth""}","<img src=""stim_listA/argue3.gif""style=""height:400px;""></stim_listA>",is arguing with,
null,"<div style=""font-size:60px;"">+</div>",,html-keyboard-response,38,645555,0.0-13.0-0.2,38417,List2A,white,man,,,,null,,,,
null,"<img src=""stim_listA/play5.gif""style=""height:400px;""></stim_listA>",,html-keyboard-response,39,647557,0.0-13.0-1.2,38417,List2A,white,man,,,,null,,,,
null,is playing with,,html-keyboard-response,40,649558,0.0-13.0-2.2,38417,List2A,white,man,,,,null,,,,
9041,,,survey-text,41,658600,0.0-13.0-3.2,38417,List2A,white,man,,,,,"{""Q0"":""mike is playing with dave""}","<img src=""stim_listA/play5.gif""style=""height:400px;""></stim_listA>",is playing with,
null,"<div style=""font-size:60px;"">+</div>",,html-keyboard-response,42,659102,0.0-13.0-0.3,38417,List2A,white,man,,,,null,,,,
null,"<img src=""stim_listA/play3.gif""style=""height:400px;""></stim_listA>",,html-keyboard-response,43,661105,0.0-13.0-1.3,38417,List2A,white,man,,,,null,,,,
null,is playing with,,html-keyboard-response,44,663105,0.0-13.0-2.3,38417,List2A,white,man,,,,null,,,,
7958,,,survey-text,45,671064,0.0-13.0-3.3,38417,List2A,white,man,,,,,"{""Q0"":""mike is playing with kate""}","<img src=""stim_listA/play3.gif""style=""height:400px;""></stim_listA>",is playing with,
null,"<div style=""font-size:60px;"">+</div>",,html-keyboard-response,46,671566,0.0-13.0-0.4,38417,List2A,white,man,,,,null,,,,
null,"<img src=""stim_listA/touch1.gif""style=""height:400px;""></stim_listA>",,html-keyboard-response,47,673567,0.0-13.0-1.4,38417,List2A,white,man,,,,null,,,,
null,is touching,,html-keyboard-response,48,675568,0.0-13.0-2.4,38417,List2A,white,man,,,,null,,,,
8139,,,survey-text,49,683709,0.0-13.0-3.4,38417,List2A,white,man,,,,,"{""Q0"":""jane is touching dave""}","<img src=""stim_listA/touch1.gif""style=""height:400px;""></stim_listA>",is touching,
null,"<div style=""font-size:60px;"">+</div>",,html-keyboard-response,50,684209,0.0-13.0-0.5,38417,List2A,white,man,,,,null,,,,
null,"<img src=""stim_listA/fight7.gif""style=""height:400px;""></stim_listA>",,html-keyboard-response,51,686210,0.0-13.0-1.5,38417,List2A,white,man,,,,null,,,,
null,is fighting,,html-keyboard-response,52,688213,0.0-13.0-2.5,38417,List2A,white,man,,,,null,,,,
10678,,,survey-text,53,698892,0.0-13.0-3.5,38417,List2A,white,man,,,,,"{""Q0"":""jane is fighting with kate""}","<img src=""stim_listA/fight7.gif""style=""height:400px;""></stim_listA>",is fighting,
null,"<div style=""font-size:60px;"">+</div>",,html-keyboard-response,54,699394,0.0-13.0-0.6,38417,List2A,white,man,,,,null,,,,
null,"<img src=""stim_listA/flirt4.gif""style=""height:400px;""></stim_listA>",,html-keyboard-response,55,701394,0.0-13.0-1.6,38417,List2A,white,man,,,,null,,,,
null,are flirting with each other,,html-keyboard-response,56,703395,0.0-13.0-2.6,38417,List2A,white,man,,,,null,,,,
14185,,,survey-text,57,717580,0.0-13.0-3.6,38417,List2A,white,man,,,,,"{""Q0"":""beth and mike are flirting with each other""}","<img src=""stim_listA/flirt4.gif""style=""height:400px;""></stim_listA>",are flirting with each other,
null,"<div style=""font-size:60px;"">+</div>",,html-keyboard-response,58,718082,0.0-13.0-0.7,38417,List2A,white,man,,,,null,,,,
null,"<img src=""stim_listA/flirt7.gif""style=""height:400px;""></stim_listA>",,html-keyboard-response,59,720083,0.0-13.0-1.7,38417,List2A,white,man,,,,null,,,,
null,is flirting with,,html-keyboard-response,60,722085,0.0-13.0-2.7,38417,List2A,white,man,,,,null,,,,
11134,,,survey-text,61,733220,0.0-13.0-3.7,38417,List2A,white,man,,,,,"{""Q0"":""ruth is flirting with kate""}","<img src=""stim_listA/flirt7.gif""style=""height:400px;""></stim_listA>",is flirting with,
null,"<div style=""font-size:60px;"">+</div>",,html-keyboard-response,62,733721,0.0-13.0-0.8,38417,List2A,white,man,,,,null,,,,
null,"<img src=""stim_listA/argue8.gif""style=""height:400px;""></stim_listA>",,html-keyboard-response,63,735722,0.0-13.0-1.8,38417,List2A,white,man,,,,null,,,,
null,are arguing with each other,,html-keyboard-response,64,737723,0.0-13.0-2.8,38417,List2A,white,man,,,,null,,,,
7856,,,survey-text,65,745580,0.0-13.0-3.8,38417,List2A,white,man,,,,,"{""Q0"":""ruth is arguing with kate""}","<img src=""stim_listA/argue8.gif""style=""height:400px;""></stim_listA>",are arguing with each other,
null,"<div style=""font-size:60px;"">+</div>",,html-keyboard-response,66,746080,0.0-13.0-0.9,38417,List2A,white,man,,,,null,,,,
null,"<img src=""stim_listA/fight3.gif""style=""height:400px;""></stim_listA>",,html-keyboard-response,67,748082,0.0-13.0-1.9,38417,List2A,white,man,,,,null,,,,
null,is fighting,,html-keyboard-response,68,750082,0.0-13.0-2.9,38417,List2A,white,man,,,,null,,,,
11189,,,survey-text,69,761272,0.0-13.0-3.9,38417,List2A,white,man,,,,,"{""Q0"":""mike is fighting kate""}","<img src=""stim_listA/fight3.gif""style=""height:400px;""></stim_listA>",is fighting,
null,"<div style=""font-size:60px;"">+</div>",,html-keyboard-response,70,761773,0.0-13.0-0.10,38417,List2A,white,man,,,,null,,,,
null,"<img src=""stim_listA/dance8.gif""style=""height:400px;""></stim_listA>",,html-keyboard-response,71,763774,0.0-13.0-1.10,38417,List2A,white,man,,,,null,,,,
null,are dancing with each other,,html-keyboard-response,72,765775,0.0-13.0-2.10,38417,List2A,white,man,,,,null,,,,
8696,,,survey-text,73,774472,0.0-13.0-3.10,38417,List2A,white,man,,,,,"{""Q0"":""jane and beth are dancing with each other""}","<img src=""stim_listA/dance8.gif""style=""height:400px;""></stim_listA>",are dancing with each other,
null,"<div style=""font-size:60px;"">+</div>",,html-keyboard-response,74,774973,0.0-13.0-0.11,38417,List2A,white,man,,,,null,,,,
null,"<img src=""stim_listA/dance2.gif""style=""height:400px;""></stim_listA>",,html-keyboard-response,75,776975,0.0-13.0-1.11,38417,List2A,white,man,,,,null,,,,
null,are dancing with each other,,html-keyboard-response,76,778975,0.0-13.0-2.11,38417,List2A,white,man,,,,null,,,,
9792,,,survey-text,77,788768,0.0-13.0-3.11,38417,List2A,white,man,,,,,"{""Q0"":""ruth and dave are dancing with each other""}","<img src=""stim_listA/dance2.gif""style=""height:400px;""></stim_listA>",are dancing with each other,
null,"<div style=""font-size:60px;"">+</div>",,html-keyboard-response,78,789269,0.0-13.0-0.12,38417,List2A,white,man,,,,null,,,,
null,"<img src=""stim_listA/kiss7.gif""style=""height:400px;""></stim_listA>",,html-keyboard-response,79,791271,0.0-13.0-1.12,38417,List2A,white,man,,,,null,,,,
null,is kissing,,html-keyboard-response,80,793272,0.0-13.0-2.12,38417,List2A,white,man,,,,null,,,,
7556,,,survey-text,81,800828,0.0-13.0-3.12,38417,List2A,white,man,,,,,"{""Q0"":""ruth is kissing beth""}","<img src=""stim_listA/kiss7.gif""style=""height:400px;""></stim_listA>",is kissing,
null,"<div style=""font-size:60px;"">+</div>",,html-keyboard-response,82,801328,0.0-13.0-0.13,38417,List2A,white,man,,,,null,,,,
null,"<img src=""stim_listA/fight2.gif""style=""height:400px;""></stim_listA>",,html-keyboard-response,83,803329,0.0-13.0-1.13,38417,List2A,white,man,,,,null,,,,
null,are fighting each other,,html-keyboard-response,84,805331,0.0-13.0-2.13,38417,List2A,white,man,,,,null,,,,
9704,,,survey-text,85,815035,0.0-13.0-3.13,38417,List2A,white,man,,,,,"{""Q0"":""ruth and luke are fighting each other""}","<img src=""stim_listA/fight2.gif""style=""height:400px;""></stim_listA>",are fighting each other,
null,"<div style=""font-size:60px;"">+</div>",,html-keyboard-response,86,815538,0.0-13.0-0.14,38417,List2A,white,man,,,,null,,,,
null,"<img src=""stim_listA/touch4.gif""style=""height:400px;""></stim_listA>",,html-keyboard-response,87,817539,0.0-13.0-1.14,38417,List2A,white,man,,,,null,,,,
null,are touching each other,,html-keyboard-response,88,819539,0.0-13.0-2.14,38417,List2A,white,man,,,,null,,,,
10883,,,survey-text,89,830423,0.0-13.0-3.14,38417,List2A,white,man,,,,,"{""Q0"":""beth and fred are touching each other""}","<img src=""stim_listA/touch4.gif""style=""height:400px;""></stim_listA>",are touching each other,
null,"<div style=""font-size:60px;"">+</div>",,html-keyboard-response,90,830926,0.0-13.0-0.15,38417,List2A,white,man,,,,null,,,,
null,"<img src=""stim_listA/flirt1.gif""style=""height:400px;""></stim_listA>",,html-keyboard-response,91,832926,0.0-13.0-1.15,38417,List2A,white,man,,,,null,,,,
null,is flirting with,,html-keyboard-response,92,834928,0.0-13.0-2.15,38417,List2A,white,man,,,,null,,,,
10015,,,survey-text,93,844945,0.0-13.0-3.15,38417,List2A,white,man,,,,,"{""Q0"":""luke is flirting with jane""}","<img src=""stim_listA/flirt1.gif""style=""height:400px;""></stim_listA>",is flirting with,
null,"<div style=""font-size:60px;"">+</div>",,html-keyboard-response,94,845445,0.0-13.0-0.16,38417,List2A,white,man,,,,null,,,,
null,"<img src=""stim_listA/shout3.gif""style=""height:400px;""></stim_listA>",,html-keyboard-response,95,847447,0.0-13.0-1.16,38417,List2A,white,man,,,,null,,,,
null,is shouting at,,html-keyboard-response,96,849448,0.0-13.0-2.16,38417,List2A,white,man,,,,null,,,,
15411,,,survey-text,97,864859,0.0-13.0-3.16,38417,List2A,white,man,,,,,"{""Q0"":""fred is shouting at beth""}","<img src=""stim_listA/shout3.gif""style=""height:400px;""></stim_listA>",is shouting at,
null,"<div style=""font-size:60px;"">+</div>",,html-keyboard-response,98,865360,0.0-13.0-0.17,38417,List2A,white,man,,,,null,,,,
null,"<img src=""stim_listA/marry3.gif""style=""height:400px;""></stim_listA>",,html-keyboard-response,99,867362,0.0-13.0-1.17,38417,List2A,white,man,,,,null,,,,
null,is marrying,,html-keyboard-response,100,869363,0.0-13.0-2.17,38417,List2A,white,man,,,,null,,,,
6597,,,survey-text,101,875960,0.0-13.0-3.17,38417,List2A,white,man,,,,,"{""Q0"":""mike is marrying beth""}","<img src=""stim_listA/marry3.gif""style=""height:400px;""></stim_listA>",is marrying,
null,"<div style=""font-size:60px;"">+</div>",,html-keyboard-response,102,876461,0.0-13.0-0.18,38417,List2A,white,man,,,,null,,,,
null,"<img src=""stim_listA/marry6.gif""style=""height:400px;""></stim_listA>",,html-keyboard-response,103,878463,0.0-13.0-1.18,38417,List2A,white,man,,,,null,,,,
null,are marrying each other,,html-keyboard-response,104,880464,0.0-13.0-2.18,38417,List2A,white,man,,,,null,,,,
12059,,,survey-text,105,892523,0.0-13.0-3.18,38417,List2A,white,man,,,,,"{""Q0"":""mike and luke are marrying each other""}","<img src=""stim_listA/marry6.gif""style=""height:400px;""></stim_listA>",are marrying each other,
null,"<div style=""font-size:60px;"">+</div>",,html-keyboard-response,106,893025,0.0-13.0-0.19,38417,List2A,white,man,,,,null,,,,
null,"<img src=""stim_listA/kiss5.gif""style=""height:400px;""></stim_listA>",,html-keyboard-response,107,895026,0.0-13.0-1.19,38417,List2A,white,man,,,,null,,,,
null,is kissing,,html-keyboard-response,108,897027,0.0-13.0-2.19,38417,List2A,white,man,,,,null,,,,
8888,,,survey-text,109,905915,0.0-13.0-3.19,38417,List2A,white,man,,,,,"{""Q0"":""luke is kissing fred""}","<img src=""stim_listA/kiss5.gif""style=""height:400px;""></stim_listA>",is kissing,
22995,"<img src='img/portrait_matrix_list2.jpg' style='width:900px;height:500px;''></img><p>If you have memorised all the portraits and names and are ready to start, press Continue.</p><p><strong>Please note: Your memory of these faces will be tested 4 times during this experiment.</strong></p>",0,html-button-response,110,928912,0.0-14.0-0.0,38417,List2A,white,man,,,,,,,,
4422,"<img src=""portrait/BW2.jpg""style=""height:400px;""></img>",0,html-button-response,111,934336,0.0-14.0-1.0,38417,List2A,white,man,,TRUE,2,,,,,
4206,"<img src=""portrait/BW2.jpg""style=""height:400px;""></img>",2,html-button-response,112,939544,0.0-14.0-3.0-0.0,38417,List2A,white,man,,FALSE,2,,,,,
null,CORRECT,,html-keyboard-response,113,941046,0.0-14.0-3.0-1.0-0.0,38417,List2A,white,man,,,,null,,,,
2384,"<img src=""portrait/WW2.jpg""style=""height:400px;""></img>",3,html-button-response,114,943432,0.0-14.0-4.0,38417,List2A,white,man,,TRUE,3,,,,,
null,CORRECT,,html-keyboard-response,115,944934,0.0-14.0-5.0-0.0,38417,List2A,white,man,,,,null,,,,
3437,"<img src=""portrait/BM1.jpg""style=""height:400px;""></img>",4,html-button-response,116,948371,0.0-14.0-7.0,38417,List2A,white,man,,TRUE,4,,,,,
null,CORRECT,,html-keyboard-response,117,949873,0.0-14.0-8.0-0.0,38417,List2A,white,man,,,,null,,,,
2498,"<img src=""portrait/WM1.jpg""style=""height:400px;""></img>",6,html-button-response,118,952372,0.0-14.0-10.0,38417,List2A,white,man,,TRUE,6,,,,,
null,CORRECT,,html-keyboard-response,119,953875,0.0-14.0-11.0-0.0,38417,List2A,white,man,,,,null,,,,
1891,"<img src=""portrait/WW1.jpg""style=""height:400px;""></img>",1,html-button-response,120,955767,0.0-14.0-13.0,38417,List2A,white,man,,TRUE,1,,,,,
null,CORRECT,,html-keyboard-response,121,957270,0.0-14.0-14.0-0.0,38417,List2A,white,man,,,,null,,,,
2410,"<img src=""portrait/WM2.jpg""style=""height:400px;""></img>",7,html-button-response,122,959680,0.0-14.0-16.0,38417,List2A,white,man,,TRUE,7,,,,,
null,CORRECT,,html-keyboard-response,123,961182,0.0-14.0-17.0-0.0,38417,List2A,white,man,,,,null,,,,
2086,"<img src=""portrait/BM2.jpg""style=""height:400px;""></img>",5,html-button-response,124,963268,0.0-14.0-19.0,38417,List2A,white,man,,TRUE,5,,,,,
null,CORRECT,,html-keyboard-response,125,964770,0.0-14.0-20.0-0.0,38417,List2A,white,man,,,,null,,,,
2069,"<img src=""portrait/BW1.jpg""style=""height:400px;""></img>",0,html-button-response,126,966840,0.0-14.0-22.0,38417,List2A,white,man,,TRUE,0,,,,,
null,CORRECT,,html-keyboard-response,127,968342,0.0-14.0-23.0-0.0,38417,List2A,white,man,,,,null,,,,
2746,<p>You got 7 out of 8 right first time. Press Continue.</p>,0,html-button-response,128,971088,0.0-14.0-25.0,38417,List2A,white,man,,,,,,,,
3334,"As you did not score 100%, the memory game will repeat. Press Continue.",0,html-button-response,129,975423,0.0-14.0-26.0-0.0,38417,List2A,white,man,,,,,,,,
2330,"<img src='img/portrait_matrix_list2.jpg' style='width:900px;height:500px;''></img><p>If you have memorised all the portraits and names and are ready to start, press Continue.</p><p><strong>Please note: Your memory of these faces will be tested 4 times during this experiment.</strong></p>",0,html-button-response,130,978755,0.0-14.1-0.1,38417,List2A,white,man,,,,,,,,
2532,"<img src=""portrait/BW2.jpg""style=""height:400px;""></img>",2,html-button-response,131,982288,0.0-14.1-1.1,38417,List2A,white,man,,TRUE,2,,,,,
null,CORRECT,,html-keyboard-response,132,983789,0.0-14.1-2.1-0.1,38417,List2A,white,man,,,,null,,,,
2098,"<img src=""portrait/WW2.jpg""style=""height:400px;""></img>",3,html-button-response,133,985888,0.0-14.1-4.1,38417,List2A,white,man,,TRUE,3,,,,,
null,CORRECT,,html-keyboard-response,134,987390,0.0-14.1-5.1-0.1,38417,List2A,white,man,,,,null,,,,
3157,"<img src=""portrait/BM1.jpg""style=""height:400px;""></img>",4,html-button-response,135,990548,0.0-14.1-7.1,38417,List2A,white,man,,TRUE,4,,,,,
null,CORRECT,,html-keyboard-response,136,992050,0.0-14.1-8.1-0.1,38417,List2A,white,man,,,,null,,,,
2609,"<img src=""portrait/WM1.jpg""style=""height:400px;""></img>",6,html-button-response,137,994660,0.0-14.1-10.1,38417,List2A,white,man,,TRUE,6,,,,,
null,CORRECT,,html-keyboard-response,138,996161,0.0-14.1-11.1-0.1,38417,List2A,white,man,,,,null,,,,
2046,"<img src=""portrait/WW1.jpg""style=""height:400px;""></img>",1,html-button-response,139,998208,0.0-14.1-13.1,38417,List2A,white,man,,TRUE,1,,,,,
null,CORRECT,,html-keyboard-response,140,999710,0.0-14.1-14.1-0.1,38417,List2A,white,man,,,,null,,,,
1669,"<img src=""portrait/WM2.jpg""style=""height:400px;""></img>",7,html-button-response,141,1001380,0.0-14.1-16.1,38417,List2A,white,man,,TRUE,7,,,,,
null,CORRECT,,html-keyboard-response,142,1002882,0.0-14.1-17.1-0.1,38417,List2A,white,man,,,,null,,,,
2108,"<img src=""portrait/BM2.jpg""style=""height:400px;""></img>",5,html-button-response,143,1004991,0.0-14.1-19.1,38417,List2A,white,man,,TRUE,5,,,,,
null,CORRECT,,html-keyboard-response,144,1006495,0.0-14.1-20.1-0.1,38417,List2A,white,man,,,,null,,,,
2544,"<img src=""portrait/BW1.jpg""style=""height:400px;""></img>",0,html-button-response,145,1009039,0.0-14.1-22.1,38417,List2A,white,man,,TRUE,0,,,,,
null,CORRECT,,html-keyboard-response,146,1010542,0.0-14.1-23.1-0.1,38417,List2A,white,man,,,,null,,,,
1997,<p>You got 8 out of 8 right first time. Press Continue.</p>,0,html-button-response,147,1012539,0.0-14.1-25.1,38417,List2A,white,man,,,,,,,,
null,"<div style=""font-size:60px;"">+</div>",,html-keyboard-response,148,1014043,0.0-15.0-0.0,38417,List2A,white,man,,,,null,,,,
null,"<img src=""stim_listA/marry8.gif""style=""height:400px;""></stim_listA>",,html-keyboard-response,149,1016044,0.0-15.0-1.0,38417,List2A,white,man,,,,null,,,,
null,are marrying each other,,html-keyboard-response,150,1018045,0.0-15.0-2.0,38417,List2A,white,man,,,,null,,,,
15185,,,survey-text,151,1033231,0.0-15.0-3.0,38417,List2A,white,man,,,,,"{""Q0"":""kate and ruth are marrying each other""}","<img src=""stim_listA/marry8.gif""style=""height:400px;""></stim_listA>",are marrying each other,
null,"<div style=""font-size:60px;"">+</div>",,html-keyboard-response,152,1033733,0.0-15.0-0.1,38417,List2A,white,man,,,,null,,,,
null,"<img src=""stim_listA/shout6.gif""style=""height:400px;""></stim_listA>",,html-keyboard-response,153,1035734,0.0-15.0-1.1,38417,List2A,white,man,,,,null,,,,
null,are shouting at each other,,html-keyboard-response,154,1037735,0.0-15.0-2.1,38417,List2A,white,man,,,,null,,,,
10088,,,survey-text,155,1047824,0.0-15.0-3.1,38417,List2A,white,man,,,,,"{""Q0"":""mike and dave are shouting at each other""}","<img src=""stim_listA/shout6.gif""style=""height:400px;""></stim_listA>",are shouting at each other,
null,"<div style=""font-size:60px;"">+</div>",,html-keyboard-response,156,1048326,0.0-15.0-0.2,38417,List2A,white,man,,,,null,,,,
null,"<img src=""stim_listA/marry5.gif""style=""height:400px;""></stim_listA>",,html-keyboard-response,157,1050326,0.0-15.0-1.2,38417,List2A,white,man,,,,null,,,,
null,is marrying,,html-keyboard-response,158,1052327,0.0-15.0-2.2,38417,List2A,white,man,,,,null,,,,
6340,,,survey-text,159,1058668,0.0-15.0-3.2,38417,List2A,white,man,,,,,"{""Q0"":""dave is marrying fred""}","<img src=""stim_listA/marry5.gif""style=""height:400px;""></stim_listA>",is marrying,
null,"<div style=""font-size:60px;"">+</div>",,html-keyboard-response,160,1059169,0.0-15.0-0.3,38417,List2A,white,man,,,,null,,,,
null,"<img src=""stim_listA/dance3.gif""style=""height:400px;""></stim_listA>",,html-keyboard-response,161,1061170,0.0-15.0-1.3,38417,List2A,white,man,,,,null,,,,
null,is dancing with,,html-keyboard-response,162,1063171,0.0-15.0-2.3,38417,List2A,white,man,,,,null,,,,
8103,,,survey-text,163,1071275,0.0-15.0-3.3,38417,List2A,white,man,,,,,"{""Q0"":""fred is dancing with kate""}","<img src=""stim_listA/dance3.gif""style=""height:400px;""></stim_listA>",is dancing with,
null,"<div style=""font-size:60px;"">+</div>",,html-keyboard-response,164,1071777,0.0-15.0-0.4,38417,List2A,white,man,,,,null,,,,
null,"<img src=""stim_listA/marry1.gif""style=""height:400px;""></stim_listA>",,html-keyboard-response,165,1073779,0.0-15.0-1.4,38417,List2A,white,man,,,,null,,,,
null,is marrying,,html-keyboard-response,166,1075780,0.0-15.0-2.4,38417,List2A,white,man,,,,null,,,,
6691,,,survey-text,167,1082472,0.0-15.0-3.4,38417,List2A,white,man,,,,,"{""Q0"":""ruth is marrying dave""}","<img src=""stim_listA/marry1.gif""style=""height:400px;""></stim_listA>",is marrying,
null,"<div style=""font-size:60px;"">+</div>",,html-keyboard-response,168,1082972,0.0-15.0-0.5,38417,List2A,white,man,,,,null,,,,
null,"<img src=""stim_listA/kiss3.gif""style=""height:400px;""></stim_listA>",,html-keyboard-response,169,1084974,0.0-15.0-1.5,38417,List2A,white,man,,,,null,,,,
null,is kissing,,html-keyboard-response,170,1086975,0.0-15.0-2.5,38417,List2A,white,man,,,,null,,,,
6145,,,survey-text,171,1093120,0.0-15.0-3.5,38417,List2A,white,man,,,,,"{""Q0"":""fred is kissing beth""}","<img src=""stim_listA/kiss3.gif""style=""height:400px;""></stim_listA>",is kissing,
null,"<div style=""font-size:60px;"">+</div>",,html-keyboard-response,172,1093622,0.0-15.0-0.6,38417,List2A,white,man,,,,null,,,,
null,"<img src=""stim_listA/shout7.gif""style=""height:400px;""></stim_listA>",,html-keyboard-response,173,1095623,0.0-15.0-1.6,38417,List2A,white,man,,,,null,,,,
null,is shouting at,,html-keyboard-response,174,1097623,0.0-15.0-2.6,38417,List2A,white,man,,,,null,,,,
7264,,,survey-text,175,1104887,0.0-15.0-3.6,38417,List2A,white,man,,,,,"{""Q0"":""ruth is shouting at beth""}","<img src=""stim_listA/shout7.gif""style=""height:400px;""></stim_listA>",is shouting at,
null,"<div style=""font-size:60px;"">+</div>",,html-keyboard-response,176,1105388,0.0-15.0-0.7,38417,List2A,white,man,,,,null,,,,
null,"<img src=""stim_listA/dance6.gif""style=""height:400px;""></stim_listA>",,html-keyboard-response,177,1107390,0.0-15.0-1.7,38417,List2A,white,man,,,,null,,,,
null,are dancing with each other,,html-keyboard-response,178,1109391,0.0-15.0-2.7,38417,List2A,white,man,,,,null,,,,
9293,,,survey-text,179,1118684,0.0-15.0-3.7,38417,List2A,white,man,,,,,"{""Q0"":""dave and fred are dancing with each other""}","<img src=""stim_listA/dance6.gif""style=""height:400px;""></stim_listA>",are dancing with each other,
null,"<div style=""font-size:60px;"">+</div>",,html-keyboard-response,180,1119184,0.0-15.0-0.8,38417,List2A,white,man,,,,null,,,,
null,"<img src=""stim_listA/touch7.gif""style=""height:400px;""></stim_listA>",,html-keyboard-response,181,1121185,0.0-15.0-1.8,38417,List2A,white,man,,,,null,,,,
null,is touching,,html-keyboard-response,182,1123186,0.0-15.0-2.8,38417,List2A,white,man,,,,null,,,,
5948,,,survey-text,183,1129135,0.0-15.0-3.8,38417,List2A,white,man,,,,,"{""Q0"":""jane is touching kate""}","<img src=""stim_listA/touch7.gif""style=""height:400px;""></stim_listA>",is touching,
null,"<div style=""font-size:60px;"">+</div>",,html-keyboard-response,184,1129637,0.0-15.0-0.9,38417,List2A,white,man,,,,null,,,,
null,"<img src=""stim_listA/talk5.gif""style=""height:400px;""></stim_listA>",,html-keyboard-response,185,1131638,0.0-15.0-1.9,38417,List2A,white,man,,,,null,,,,
null,is talking to,,html-keyboard-response,186,1133639,0.0-15.0-2.9,38417,List2A,white,man,,,,null,,,,
7665,,,survey-text,187,1141304,0.0-15.0-3.9,38417,List2A,white,man,,,,,"{""Q0"":""luke is talking to mike""}","<img src=""stim_listA/talk5.gif""style=""height:400px;""></stim_listA>",is talking to,
null,"<div style=""font-size:60px;"">+</div>",,html-keyboard-response,188,1141806,0.0-15.0-0.10,38417,List2A,white,man,,,,null,,,,
null,"<img src=""stim_listA/shout2.gif""style=""height:400px;""></stim_listA>",,html-keyboard-response,189,1143807,0.0-15.0-1.10,38417,List2A,white,man,,,,null,,,,
null,are shouting at each other,,html-keyboard-response,190,1145808,0.0-15.0-2.10,38417,List2A,white,man,,,,null,,,,
8416,,,survey-text,191,1154224,0.0-15.0-3.10,38417,List2A,white,man,,,,,"{""Q0"":""jane and dave are shouting at each other""}","<img src=""stim_listA/shout2.gif""style=""height:400px;""></stim_listA>",are shouting at each other,
null,"<div style=""font-size:60px;"">+</div>",,html-keyboard-response,192,1154726,0.0-15.0-0.11,38417,List2A,white,man,,,,null,,,,
null,"<img src=""stim_listA/touch6.gif""style=""height:400px;""></stim_listA>",,html-keyboard-response,193,1156727,0.0-15.0-1.11,38417,List2A,white,man,,,,null,,,,
null,are touching each other,,html-keyboard-response,194,1158727,0.0-15.0-2.11,38417,List2A,white,man,,,,null,,,,
10057,,,survey-text,195,1168784,0.0-15.0-3.11,38417,List2A,white,man,,,,,"{""Q0"":""fred and luke are touching each other""}","<img src=""stim_listA/touch6.gif""style=""height:400px;""></stim_listA>",are touching each other,
null,"<div style=""font-size:60px;"">+</div>",,html-keyboard-response,196,1169284,0.0-15.0-0.12,38417,List2A,white,man,,,,null,,,,
null,"<img src=""stim_listA/flirt2.gif""style=""height:400px;""></stim_listA>",,html-keyboard-response,197,1171285,0.0-15.0-1.12,38417,List2A,white,man,,,,null,,,,
null,are flirting with each other,,html-keyboard-response,198,1173287,0.0-15.0-2.12,38417,List2A,white,man,,,,null,,,,
10999,,,survey-text,199,1184287,0.0-15.0-3.12,38417,List2A,white,man,,,,,"{""Q0"":""ruth and dave are flirting with each other""}","<img src=""stim_listA/flirt2.gif""style=""height:400px;""></stim_listA>",are flirting with each other,
null,"<div style=""font-size:60px;"">+</div>",,html-keyboard-response,200,1184788,0.0-15.0-0.13,38417,List2A,white,man,,,,null,,,,
null,"<img src=""stim_listA/play8.gif""style=""height:400px;""></stim_listA>",,html-keyboard-response,201,1186789,0.0-15.0-1.13,38417,List2A,white,man,,,,null,,,,
null,are playing with each other,,html-keyboard-response,202,1188791,0.0-15.0-2.13,38417,List2A,white,man,,,,null,,,,
10125,,,survey-text,203,1198916,0.0-15.0-3.13,38417,List2A,white,man,,,,,"{""Q0"":""beth and ruth are playing with each other""}","<img src=""stim_listA/play8.gif""style=""height:400px;""></stim_listA>",are playing with each other,
null,"<div style=""font-size:60px;"">+</div>",,html-keyboard-response,204,1199417,0.0-15.0-0.14,38417,List2A,white,man,,,,null,,,,
null,"<img src=""stim_listA/touch3.gif""style=""height:400px;""></stim_listA>",,html-keyboard-response,205,1201418,0.0-15.0-1.14,38417,List2A,white,man,,,,null,,,,
null,is touching,,html-keyboard-response,206,1203419,0.0-15.0-2.14,38417,List2A,white,man,,,,null,,,,
7152,,,survey-text,207,1210571,0.0-15.0-3.14,38417,List2A,white,man,,,,,"{""Q0"":""mike is touching kate""}","<img src=""stim_listA/touch3.gif""style=""height:400px;""></stim_listA>",is touching,
null,"<div style=""font-size:60px;"">+</div>",,html-keyboard-response,208,1211072,0.0-15.0-0.15,38417,List2A,white,man,,,,null,,,,
null,"<img src=""stim_listA/talk1.gif""style=""height:400px;""></stim_listA>",,html-keyboard-response,209,1213073,0.0-15.0-1.15,38417,List2A,white,man,,,,null,,,,
null,is talking to,,html-keyboard-response,210,1215074,0.0-15.0-2.15,38417,List2A,white,man,,,,null,,,,
8514,,,survey-text,211,1223588,0.0-15.0-3.15,38417,List2A,white,man,,,,,"{""Q0"":""jane is talking to luke""}","<img src=""stim_listA/talk1.gif""style=""height:400px;""></stim_listA>",is talking to,
null,"<div style=""font-size:60px;"">+</div>",,html-keyboard-response,212,1224089,0.0-15.0-0.16,38417,List2A,white,man,,,,null,,,,
null,"<img src=""stim_listA/argue1.gif""style=""height:400px;""></stim_listA>",,html-keyboard-response,213,1226091,0.0-15.0-1.16,38417,List2A,white,man,,,,null,,,,
null,is arguing with,,html-keyboard-response,214,1228091,0.0-15.0-2.16,38417,List2A,white,man,,,,null,,,,
6348,,,survey-text,215,1234440,0.0-15.0-3.16,38417,List2A,white,man,,,,,"{""Q0"":""ruth is arguing with dave""}","<img src=""stim_listA/argue1.gif""style=""height:400px;""></stim_listA>",is arguing with,
null,"<div style=""font-size:60px;"">+</div>",,html-keyboard-response,216,1234941,0.0-15.0-0.17,38417,List2A,white,man,,,,null,,,,
null,"<img src=""stim_listA/fight1.gif""style=""height:400px;""></stim_listA>",,html-keyboard-response,217,1236942,0.0-15.0-1.17,38417,List2A,white,man,,,,null,,,,
null,is fighting,,html-keyboard-response,218,1238944,0.0-15.0-2.17,38417,List2A,white,man,,,,null,,,,
8614,,,survey-text,219,1247560,0.0-15.0-3.17,38417,List2A,white,man,,,,,"{""Q0"":""dave is fighting with jane""}","<img src=""stim_listA/fight1.gif""style=""height:400px;""></stim_listA>",is fighting,
null,"<div style=""font-size:60px;"">+</div>",,html-keyboard-response,220,1248061,0.0-15.0-0.18,38417,List2A,white,man,,,,null,,,,
null,"<img src=""stim_listA/touch5.gif""style=""height:400px;""></stim_listA>",,html-keyboard-response,221,1250062,0.0-15.0-1.18,38417,List2A,white,man,,,,null,,,,
null,is touching,,html-keyboard-response,222,1252063,0.0-15.0-2.18,38417,List2A,white,man,,,,null,,,,
6805,,,survey-text,223,1258868,0.0-15.0-3.18,38417,List2A,white,man,,,,,"{""Q0"":""mike is touching dave""}","<img src=""stim_listA/touch5.gif""style=""height:400px;""></stim_listA>",is touching,
null,"<div style=""font-size:60px;"">+</div>",,html-keyboard-response,224,1259369,0.0-15.0-0.19,38417,List2A,white,man,,,,null,,,,
null,"<img src=""stim_listA/fight8.gif""style=""height:400px;""></stim_listA>",,html-keyboard-response,225,1261370,0.0-15.0-1.19,38417,List2A,white,man,,,,null,,,,
null,are fighting each other,,html-keyboard-response,226,1263370,0.0-15.0-2.19,38417,List2A,white,man,,,,null,,,,
8130,,,survey-text,227,1271500,0.0-15.0-3.19,38417,List2A,white,man,,,,,"{""Q0"":""beth and ruth are fighting each other""}","<img src=""stim_listA/fight8.gif""style=""height:400px;""></stim_listA>",are fighting each other,
21679,"<img src='img/portrait_matrix_list2.jpg' style='width:900px;height:500px;''></img><p>If you have memorised all the portraits and names and are ready to start, press Continue.</p><p><strong>Please note: Your memory of these faces will be tested 4 times during this experiment.</strong></p>",0,html-button-response,228,1293180,0.0-16.0-0.0,38417,List2A,white,man,,,,,,,,
1587,"<img src=""portrait/WM2.jpg""style=""height:400px;""></img>",7,html-button-response,229,1295768,0.0-16.0-1.0,38417,List2A,white,man,,TRUE,7,,,,,
null,CORRECT,,html-keyboard-response,230,1297272,0.0-16.0-2.0-0.0,38417,List2A,white,man,,,,null,,,,
2659,"<img src=""portrait/BM1.jpg""style=""height:400px;""></img>",4,html-button-response,231,1299932,0.0-16.0-4.0,38417,List2A,white,man,,TRUE,4,,,,,
null,CORRECT,,html-keyboard-response,232,1301433,0.0-16.0-5.0-0.0,38417,List2A,white,man,,,,null,,,,
2315,"<img src=""portrait/BW1.jpg""style=""height:400px;""></img>",0,html-button-response,233,1303748,0.0-16.0-7.0,38417,List2A,white,man,,TRUE,0,,,,,
null,CORRECT,,html-keyboard-response,234,1305248,0.0-16.0-8.0-0.0,38417,List2A,white,man,,,,null,,,,
2070,"<img src=""portrait/BM2.jpg""style=""height:400px;""></img>",5,html-button-response,235,1307319,0.0-16.0-10.0,38417,List2A,white,man,,TRUE,5,,,,,
null,CORRECT,,html-keyboard-response,236,1308822,0.0-16.0-11.0-0.0,38417,List2A,white,man,,,,null,,,,
2029,"<img src=""portrait/BW2.jpg""style=""height:400px;""></img>",2,html-button-response,237,1310852,0.0-16.0-13.0,38417,List2A,white,man,,TRUE,2,,,,,
null,CORRECT,,html-keyboard-response,238,1312353,0.0-16.0-14.0-0.0,38417,List2A,white,man,,,,null,,,,
3074,"<img src=""portrait/WM1.jpg""style=""height:400px;""></img>",6,html-button-response,239,1315428,0.0-16.0-16.0,38417,List2A,white,man,,TRUE,6,,,,,
null,CORRECT,,html-keyboard-response,240,1316930,0.0-16.0-17.0-0.0,38417,List2A,white,man,,,,null,,,,
2261,"<img src=""portrait/WW1.jpg""style=""height:400px;""></img>",1,html-button-response,241,1319192,0.0-16.0-19.0,38417,List2A,white,man,,TRUE,1,,,,,
null,CORRECT,,html-keyboard-response,242,1320692,0.0-16.0-20.0-0.0,38417,List2A,white,man,,,,null,,,,
1602,"<img src=""portrait/WW2.jpg""style=""height:400px;""></img>",3,html-button-response,243,1322296,0.0-16.0-22.0,38417,List2A,white,man,,TRUE,3,,,,,
null,CORRECT,,html-keyboard-response,244,1323799,0.0-16.0-23.0-0.0,38417,List2A,white,man,,,,null,,,,
1428,<p>You got 8 out of 8 right first time. Press Continue.</p>,0,html-button-response,245,1325227,0.0-16.0-25.0,38417,List2A,white,man,,,,,,,,
null,"<div style=""font-size:60px;"">+</div>",,html-keyboard-response,246,1326728,0.0-17.0-0.0,38417,List2A,white,man,,,,null,,,,
null,"<img src=""stim_listA/shout5.gif""style=""height:400px;""></stim_listA>",,html-keyboard-response,247,1328729,0.0-17.0-1.0,38417,List2A,white,man,,,,null,,,,
null,is shouting at,,html-keyboard-response,248,1330730,0.0-17.0-2.0,38417,List2A,white,man,,,,null,,,,
6489,,,survey-text,249,1337220,0.0-17.0-3.0,38417,List2A,white,man,,,,,"{""Q0"":""luke is shouting at fred""}","<img src=""stim_listA/shout5.gif""style=""height:400px;""></stim_listA>",is shouting at,
null,"<div style=""font-size:60px;"">+</div>",,html-keyboard-response,250,1337722,0.0-17.0-0.1,38417,List2A,white,man,,,,null,,,,
null,"<img src=""stim_listA/talk4.gif""style=""height:400px;""></stim_listA>",,html-keyboard-response,251,1339723,0.0-17.0-1.1,38417,List2A,white,man,,,,null,,,,
null,are talking to each other,,html-keyboard-response,252,1341723,0.0-17.0-2.1,38417,List2A,white,man,,,,null,,,,
13207,,,survey-text,253,1354932,0.0-17.0-3.1,38417,List2A,white,man,,,,,"{""Q0"":""beth and mike are talking to each other""}","<img src=""stim_listA/talk4.gif""style=""height:400px;""></stim_listA>",are talking to each other,
null,"<div style=""font-size:60px;"">+</div>",,html-keyboard-response,254,1355433,0.0-17.0-0.2,38417,List2A,white,man,,,,null,,,,
null,"<img src=""stim_listA/play1.gif""style=""height:400px;""></stim_listA>",,html-keyboard-response,255,1357434,0.0-17.0-1.2,38417,List2A,white,man,,,,null,,,,
null,is playing with,,html-keyboard-response,256,1359435,0.0-17.0-2.2,38417,List2A,white,man,,,,null,,,,
6136,,,survey-text,257,1365572,0.0-17.0-3.2,38417,List2A,white,man,,,,,"{""Q0"":""jane is playing with dave""}","<img src=""stim_listA/play1.gif""style=""height:400px;""></stim_listA>",is playing with,
null,"<div style=""font-size:60px;"">+</div>",,html-keyboard-response,258,1366074,0.0-17.0-0.3,38417,List2A,white,man,,,,null,,,,
null,"<img src=""stim_listA/marry2.gif""style=""height:400px;""></stim_listA>",,html-keyboard-response,259,1368075,0.0-17.0-1.3,38417,List2A,white,man,,,,null,,,,
null,are marrying each other,,html-keyboard-response,260,1370075,0.0-17.0-2.3,38417,List2A,white,man,,,,null,,,,
8311,,,survey-text,261,1378388,0.0-17.0-3.3,38417,List2A,white,man,,,,,"{""Q0"":""jane and luke are marrying each other""}","<img src=""stim_listA/marry2.gif""style=""height:400px;""></stim_listA>",are marrying each other,
null,"<div style=""font-size:60px;"">+</div>",,html-keyboard-response,262,1378888,0.0-17.0-0.4,38417,List2A,white,man,,,,null,,,,
null,"<img src=""stim_listA/fight6.gif""style=""height:400px;""></stim_listA>",,html-keyboard-response,263,1380890,0.0-17.0-1.4,38417,List2A,white,man,,,,null,,,,
null,are fighting each other,,html-keyboard-response,264,1382891,0.0-17.0-2.4,38417,List2A,white,man,,,,null,,,,
8881,,,survey-text,265,1391772,0.0-17.0-3.4,38417,List2A,white,man,,,,,"{""Q0"":""fred and luke are fighting each other""}","<img src=""stim_listA/fight6.gif""style=""height:400px;""></stim_listA>",are fighting each other,
null,"<div style=""font-size:60px;"">+</div>",,html-keyboard-response,266,1392273,0.0-17.0-0.5,38417,List2A,white,man,,,,null,,,,
null,"<img src=""stim_listA/argue7.gif""style=""height:400px;""></stim_listA>",,html-keyboard-response,267,1394273,0.0-17.0-1.5,38417,List2A,white,man,,,,null,,,,
null,is arguing with,,html-keyboard-response,268,1396274,0.0-17.0-2.5,38417,List2A,white,man,,,,null,,,,
7065,,,survey-text,269,1403340,0.0-17.0-3.5,38417,List2A,white,man,,,,,"{""Q0"":""jane is arguing with beth""}","<img src=""stim_listA/argue7.gif""style=""height:400px;""></stim_listA>",is arguing with,
null,"<div style=""font-size:60px;"">+</div>",,html-keyboard-response,270,1403840,0.0-17.0-0.6,38417,List2A,white,man,,,,null,,,,
null,"<img src=""stim_listA/talk3.gif""style=""height:400px;""></stim_listA>",,html-keyboard-response,271,1405840,0.0-17.0-1.6,38417,List2A,white,man,,,,null,,,,
null,is talking to,,html-keyboard-response,272,1407841,0.0-17.0-2.6,38417,List2A,white,man,,,,null,,,,
5921,,,survey-text,273,1413763,0.0-17.0-3.6,38417,List2A,white,man,,,,,"{""Q0"":""fred is talking to kate""}","<img src=""stim_listA/talk3.gif""style=""height:400px;""></stim_listA>",is talking to,
null,"<div style=""font-size:60px;"">+</div>",,html-keyboard-response,274,1414265,0.0-17.0-0.7,38417,List2A,white,man,,,,null,,,,
null,"<img src=""stim_listA/talk7.gif""style=""height:400px;""></stim_listA>",,html-keyboard-response,275,1416268,0.0-17.0-1.7,38417,List2A,white,man,,,,null,,,,
null,is talking to,,html-keyboard-response,276,1418267,0.0-17.0-2.7,38417,List2A,white,man,,,,null,,,,
6811,,,survey-text,277,1425079,0.0-17.0-3.7,38417,List2A,white,man,,,,,"{""Q0"":""ruth is talking to kate""}","<img src=""stim_listA/talk7.gif""style=""height:400px;""></stim_listA>",is talking to,
null,"<div style=""font-size:60px;"">+</div>",,html-keyboard-response,278,1425581,0.0-17.0-0.8,38417,List2A,white,man,,,,null,,,,
null,"<img src=""stim_listA/fight5.gif""style=""height:400px;""></stim_listA>",,html-keyboard-response,279,1427583,0.0-17.0-1.8,38417,List2A,white,man,,,,null,,,,
null,is fighting,,html-keyboard-response,280,1429583,0.0-17.0-2.8,38417,List2A,white,man,,,,null,,,,
6312,,,survey-text,281,1435895,0.0-17.0-3.8,38417,List2A,white,man,,,,,"{""Q0"":""mike is fighting dave""}","<img src=""stim_listA/fight5.gif""style=""height:400px;""></stim_listA>",is fighting,
null,"<div style=""font-size:60px;"">+</div>",,html-keyboard-response,282,1436397,0.0-17.0-0.9,38417,List2A,white,man,,,,null,,,,
null,"<img src=""stim_listA/dance4.gif""style=""height:400px;""></stim_listA>",,html-keyboard-response,283,1438398,0.0-17.0-1.9,38417,List2A,white,man,,,,null,,,,
null,are dancing with each other,,html-keyboard-response,284,1440399,0.0-17.0-2.9,38417,List2A,white,man,,,,null,,,,
9052,,,survey-text,285,1449451,0.0-17.0-3.9,38417,List2A,white,man,,,,,"{""Q0"":""mike and beth are dancing with each other""}","<img src=""stim_listA/dance4.gif""style=""height:400px;""></stim_listA>",are dancing with each other,
null,"<div style=""font-size:60px;"">+</div>",,html-keyboard-response,286,1449952,0.0-17.0-0.10,38417,List2A,white,man,,,,null,,,,
null,"<img src=""stim_listA/dance5.gif""style=""height:400px;""></stim_listA>",,html-keyboard-response,287,1451954,0.0-17.0-1.10,38417,List2A,white,man,,,,null,,,,
null,is dancing with,,html-keyboard-response,288,1453956,0.0-17.0-2.10,38417,List2A,white,man,,,,null,,,,
7059,,,survey-text,289,1461015,0.0-17.0-3.10,38417,List2A,white,man,,,,,"{""Q0"":""luke is dancing with mike""}","<img src=""stim_listA/dance5.gif""style=""height:400px;""></stim_listA>",is dancing with,
null,"<div style=""font-size:60px;"">+</div>",,html-keyboard-response,290,1461517,0.0-17.0-0.11,38417,List2A,white,man,,,,null,,,,
null,"<img src=""stim_listA/dance1.gif""style=""height:400px;""></stim_listA>",,html-keyboard-response,291,1463517,0.0-17.0-1.11,38417,List2A,white,man,,,,null,,,,
null,is dancing with,,html-keyboard-response,292,1465517,0.0-17.0-2.11,38417,List2A,white,man,,,,null,,,,
7961,,,survey-text,293,1473480,0.0-17.0-3.11,38417,List2A,white,man,,,,,"{""Q0"":""luke is dancing with jane""}","<img src=""stim_listA/dance1.gif""style=""height:400px;""></stim_listA>",is dancing with,
null,"<div style=""font-size:60px;"">+</div>",,html-keyboard-response,294,1473981,0.0-17.0-0.12,38417,List2A,white,man,,,,null,,,,
null,"<img src=""stim_listA/touch8.gif""style=""height:400px;""></stim_listA>",,html-keyboard-response,295,1475981,0.0-17.0-1.12,38417,List2A,white,man,,,,null,,,,
null,are touching each other,,html-keyboard-response,296,1477982,0.0-17.0-2.12,38417,List2A,white,man,,,,null,,,,
8017,,,survey-text,297,1486000,0.0-17.0-3.12,38417,List2A,white,man,,,,,"{""Q0"":""ruth and beth are touching each other""}","<img src=""stim_listA/touch8.gif""style=""height:400px;""></stim_listA>",are touching each other,
null,"<div style=""font-size:60px;"">+</div>",,html-keyboard-response,298,1486501,0.0-17.0-0.13,38417,List2A,white,man,,,,null,,,,
null,"<img src=""stim_listA/argue2.gif""style=""height:400px;""></stim_listA>",,html-keyboard-response,299,1488501,0.0-17.0-1.13,38417,List2A,white,man,,,,null,,,,
null,are arguing with each other,,html-keyboard-response,300,1490501,0.0-17.0-2.13,38417,List2A,white,man,,,,null,,,,
11025,,,survey-text,301,1501527,0.0-17.0-3.13,38417,List2A,white,man,,,,,"{""Q0"":""jane and luke are arguing with each other""}","<img src=""stim_listA/argue2.gif""style=""height:400px;""></stim_listA>",are arguing with each other,
null,"<div style=""font-size:60px;"">+</div>",,html-keyboard-response,302,1502030,0.0-17.0-0.14,38417,List2A,white,man,,,,null,,,,
null,"<img src=""stim_listA/kiss6.gif""style=""height:400px;""></stim_listA>",,html-keyboard-response,303,1504032,0.0-17.0-1.14,38417,List2A,white,man,,,,null,,,,
null,are kissing each other,,html-keyboard-response,304,1506032,0.0-17.0-2.14,38417,List2A,white,man,,,,null,,,,
8583,,,survey-text,305,1514615,0.0-17.0-3.14,38417,List2A,white,man,,,,,"{""Q0"":""mike and dave are kissing each other""}","<img src=""stim_listA/kiss6.gif""style=""height:400px;""></stim_listA>",are kissing each other,
null,"<div style=""font-size:60px;"">+</div>",,html-keyboard-response,306,1515116,0.0-17.0-0.15,38417,List2A,white,man,,,,null,,,,
null,"<img src=""stim_listA/play7.gif""style=""height:400px;""></stim_listA>",,html-keyboard-response,307,1517117,0.0-17.0-1.15,38417,List2A,white,man,,,,null,,,,
null,is playing with,,html-keyboard-response,308,1519118,0.0-17.0-2.15,38417,List2A,white,man,,,,null,,,,
6353,,,survey-text,309,1525472,0.0-17.0-3.15,38417,List2A,white,man,,,,,"{""Q0"":""jane is playing with kate""}","<img src=""stim_listA/play7.gif""style=""height:400px;""></stim_listA>",is playing with,
null,"<div style=""font-size:60px;"">+</div>",,html-keyboard-response,310,1525972,0.0-17.0-0.16,38417,List2A,white,man,,,,null,,,,
null,"<img src=""stim_listA/touch2.gif""style=""height:400px;""></stim_listA>",,html-keyboard-response,311,1527973,0.0-17.0-1.16,38417,List2A,white,man,,,,null,,,,
null,are touching each other,,html-keyboard-response,312,1529973,0.0-17.0-2.16,38417,List2A,white,man,,,,null,,,,
8338,,,survey-text,313,1538311,0.0-17.0-3.16,38417,List2A,white,man,,,,,"{""Q0"":""ruth and luke are touching each other""}","<img src=""stim_listA/touch2.gif""style=""height:400px;""></stim_listA>",are touching each other,
null,"<div style=""font-size:60px;"">+</div>",,html-keyboard-response,314,1538813,0.0-17.0-0.17,38417,List2A,white,man,,,,null,,,,
null,"<img src=""stim_listA/talk8.gif""style=""height:400px;""></stim_listA>",,html-keyboard-response,315,1540813,0.0-17.0-1.17,38417,List2A,white,man,,,,null,,,,
null,are talking to each other,,html-keyboard-response,316,1542814,0.0-17.0-2.17,38417,List2A,white,man,,,,null,,,,
18269,,,survey-text,317,1561083,0.0-17.0-3.17,38417,List2A,white,man,,,,,"{""Q0"":""beth and jane are talking to each other""}","<img src=""stim_listA/talk8.gif""style=""height:400px;""></stim_listA>",are talking to each other,
null,"<div style=""font-size:60px;"">+</div>",,html-keyboard-response,318,1561585,0.0-17.0-0.18,38417,List2A,white,man,,,,null,,,,
null,"<img src=""stim_listA/play6.gif""style=""height:400px;""></stim_listA>",,html-keyboard-response,319,1563585,0.0-17.0-1.18,38417,List2A,white,man,,,,null,,,,
null,are playing with each other,,html-keyboard-response,320,1565586,0.0-17.0-2.18,38417,List2A,white,man,,,,null,,,,
9316,,,survey-text,321,1574904,0.0-17.0-3.18,38417,List2A,white,man,,,,,"{""Q0"":""luke and fred are playing with each other""}","<img src=""stim_listA/play6.gif""style=""height:400px;""></stim_listA>",are playing with each other,
null,"<div style=""font-size:60px;"">+</div>",,html-keyboard-response,322,1575404,0.0-17.0-0.19,38417,List2A,white,man,,,,null,,,,
null,"<img src=""stim_listA/dance7.gif""style=""height:400px;""></stim_listA>",,html-keyboard-response,323,1577405,0.0-17.0-1.19,38417,List2A,white,man,,,,null,,,,
null,is dancing with,,html-keyboard-response,324,1579406,0.0-17.0-2.19,38417,List2A,white,man,,,,null,,,,
6133,,,survey-text,325,1585539,0.0-17.0-3.19,38417,List2A,white,man,,,,,"{""Q0"":""kate is dancing with ruth""}","<img src=""stim_listA/dance7.gif""style=""height:400px;""></stim_listA>",is dancing with,
2890,"<img src='img/portrait_matrix_list2.jpg' style='width:900px;height:500px;''></img><p>If you have memorised all the portraits and names and are ready to start, press Continue.</p><p><strong>Please note: Your memory of these faces will be tested 4 times during this experiment.</strong></p>",0,html-button-response,326,1588431,0.0-18.0-0.0,38417,List2A,white,man,,,,,,,,
1379,"<img src=""portrait/WW2.jpg""style=""height:400px;""></img>",3,html-button-response,327,1590812,0.0-18.0-1.0,38417,List2A,white,man,,TRUE,3,,,,,
null,CORRECT,,html-keyboard-response,328,1592313,0.0-18.0-2.0-0.0,38417,List2A,white,man,,,,null,,,,
1397,"<img src=""portrait/WM2.jpg""style=""height:400px;""></img>",7,html-button-response,329,1593712,0.0-18.0-4.0,38417,List2A,white,man,,TRUE,7,,,,,
null,CORRECT,,html-keyboard-response,330,1595213,0.0-18.0-5.0-0.0,38417,List2A,white,man,,,,null,,,,
2844,"<img src=""portrait/BW2.jpg""style=""height:400px;""></img>",2,html-button-response,331,1598059,0.0-18.0-7.0,38417,List2A,white,man,,TRUE,2,,,,,
null,CORRECT,,html-keyboard-response,332,1599561,0.0-18.0-8.0-0.0,38417,List2A,white,man,,,,null,,,,
2449,"<img src=""portrait/BM1.jpg""style=""height:400px;""></img>",4,html-button-response,333,1602011,0.0-18.0-10.0,38417,List2A,white,man,,TRUE,4,,,,,
null,CORRECT,,html-keyboard-response,334,1603514,0.0-18.0-11.0-0.0,38417,List2A,white,man,,,,null,,,,
2077,"<img src=""portrait/BM2.jpg""style=""height:400px;""></img>",5,html-button-response,335,1605591,0.0-18.0-13.0,38417,List2A,white,man,,TRUE,5,,,,,
null,CORRECT,,html-keyboard-response,336,1607093,0.0-18.0-14.0-0.0,38417,List2A,white,man,,,,null,,,,
1639,"<img src=""portrait/WW1.jpg""style=""height:400px;""></img>",1,html-button-response,337,1608732,0.0-18.0-16.0,38417,List2A,white,man,,TRUE,1,,,,,
null,CORRECT,,html-keyboard-response,338,1610234,0.0-18.0-17.0-0.0,38417,List2A,white,man,,,,null,,,,
2817,"<img src=""portrait/WM1.jpg""style=""height:400px;""></img>",6,html-button-response,339,1613051,0.0-18.0-19.0,38417,List2A,white,man,,TRUE,6,,,,,
null,CORRECT,,html-keyboard-response,340,1614552,0.0-18.0-20.0-0.0,38417,List2A,white,man,,,,null,,,,
2559,"<img src=""portrait/BW1.jpg""style=""height:400px;""></img>",0,html-button-response,341,1617112,0.0-18.0-22.0,38417,List2A,white,man,,TRUE,0,,,,,
null,CORRECT,,html-keyboard-response,342,1618614,0.0-18.0-23.0-0.0,38417,List2A,white,man,,,,null,,,,
2281,<p>You got 8 out of 8 right first time. Press Continue.</p>,0,html-button-response,343,1620895,0.0-18.0-25.0,38417,List2A,white,man,,,,,,,,
null,"<div style=""font-size:60px;"">+</div>",,html-keyboard-response,344,1622397,0.0-19.0-0.0,38417,List2A,white,man,,,,null,,,,
null,"<img src=""stim_listA/flirt5.gif""style=""height:400px;""></stim_listA>",,html-keyboard-response,345,1624398,0.0-19.0-1.0,38417,List2A,white,man,,,,null,,,,
null,is flirting with,,html-keyboard-response,346,1626398,0.0-19.0-2.0,38417,List2A,white,man,,,,null,,,,
7697,,,survey-text,347,1634096,0.0-19.0-3.0,38417,List2A,white,man,,,,,"{""Q0"":""luke is flirting with mike""}","<img src=""stim_listA/flirt5.gif""style=""height:400px;""></stim_listA>",is flirting with,
null,"<div style=""font-size:60px;"">+</div>",,html-keyboard-response,348,1634596,0.0-19.0-0.1,38417,List2A,white,man,,,,null,,,,
null,"<img src=""stim_listA/argue4.gif""style=""height:400px;""></stim_listA>",,html-keyboard-response,349,1636598,0.0-19.0-1.1,38417,List2A,white,man,,,,null,,,,
null,are arguing with each other,,html-keyboard-response,350,1638599,0.0-19.0-2.1,38417,List2A,white,man,,,,null,,,,
8660,,,survey-text,351,1647260,0.0-19.0-3.1,38417,List2A,white,man,,,,,"{""Q0"":""fred and kate are arguing with each other""}","<img src=""stim_listA/argue4.gif""style=""height:400px;""></stim_listA>",are arguing with each other,
null,"<div style=""font-size:60px;"">+</div>",,html-keyboard-response,352,1647760,0.0-19.0-0.2,38417,List2A,white,man,,,,null,,,,
null,"<img src=""stim_listA/flirt8.gif""style=""height:400px;""></stim_listA>",,html-keyboard-response,353,1649760,0.0-19.0-1.2,38417,List2A,white,man,,,,null,,,,
null,are flirting with each other,,html-keyboard-response,354,1651761,0.0-19.0-2.2,38417,List2A,white,man,,,,null,,,,
8687,,,survey-text,355,1660448,0.0-19.0-3.2,38417,List2A,white,man,,,,,"{""Q0"":""beth and jane are flirting with each other""}","<img src=""stim_listA/flirt8.gif""style=""height:400px;""></stim_listA>",are flirting with each other,
null,"<div style=""font-size:60px;"">+</div>",,html-keyboard-response,356,1660949,0.0-19.0-0.3,38417,List2A,white,man,,,,null,,,,
null,"<img src=""stim_listA/kiss8.gif""style=""height:400px;""></stim_listA>",,html-keyboard-response,357,1662950,0.0-19.0-1.3,38417,List2A,white,man,,,,null,,,,
null,are kissing each other,,html-keyboard-response,358,1664952,0.0-19.0-2.3,38417,List2A,white,man,,,,null,,,,
7871,,,survey-text,359,1672824,0.0-19.0-3.3,38417,List2A,white,man,,,,,"{""Q0"":""kate and jane are kissing each other""}","<img src=""stim_listA/kiss8.gif""style=""height:400px;""></stim_listA>",are kissing each other,
null,"<div style=""font-size:60px;"">+</div>",,html-keyboard-response,360,1673325,0.0-19.0-0.4,38417,List2A,white,man,,,,null,,,,
null,"<img src=""stim_listA/shout1.gif""style=""height:400px;""></stim_listA>",,html-keyboard-response,361,1675326,0.0-19.0-1.4,38417,List2A,white,man,,,,null,,,,
null,is shouting at,,html-keyboard-response,362,1677327,0.0-19.0-2.4,38417,List2A,white,man,,,,null,,,,
7632,,,survey-text,363,1684959,0.0-19.0-3.4,38417,List2A,white,man,,,,,"{""Q0"":""luke is shouting at ruth""}","<img src=""stim_listA/shout1.gif""style=""height:400px;""></stim_listA>",is shouting at,
null,"<div style=""font-size:60px;"">+</div>",,html-keyboard-response,364,1685462,0.0-19.0-0.5,38417,List2A,white,man,,,,null,,,,
null,"<img src=""stim_listA/talk2.gif""style=""height:400px;""></stim_listA>",,html-keyboard-response,365,1687463,0.0-19.0-1.5,38417,List2A,white,man,,,,null,,,,
null,are talking to each other,,html-keyboard-response,366,1689465,0.0-19.0-2.5,38417,List2A,white,man,,,,null,,,,
8811,,,survey-text,367,1698276,0.0-19.0-3.5,38417,List2A,white,man,,,,,"{""Q0"":""ruth and dave are talking to each other""}","<img src=""stim_listA/talk2.gif""style=""height:400px;""></stim_listA>",are talking to each other,
null,"<div style=""font-size:60px;"">+</div>",,html-keyboard-response,368,1698776,0.0-19.0-0.6,38417,List2A,white,man,,,,null,,,,
null,"<img src=""stim_listA/flirt3.gif""style=""height:400px;""></stim_listA>",,html-keyboard-response,369,1700778,0.0-19.0-1.6,38417,List2A,white,man,,,,null,,,,
null,is flirting with,,html-keyboard-response,370,1702779,0.0-19.0-2.6,38417,List2A,white,man,,,,null,,,,
8688,,,survey-text,371,1711467,0.0-19.0-3.6,38417,List2A,white,man,,,,,"{""Q0"":""fred is flirting with kate""}","<img src=""stim_listA/flirt3.gif""style=""height:400px;""></stim_listA>",is flirting with,
null,"<div style=""font-size:60px;"">+</div>",,html-keyboard-response,372,1711968,0.0-19.0-0.7,38417,List2A,white,man,,,,null,,,,
null,"<img src=""stim_listA/kiss2.gif""style=""height:400px;""></stim_listA>",,html-keyboard-response,373,1713969,0.0-19.0-1.7,38417,List2A,white,man,,,,null,,,,
null,are kissing each other,,html-keyboard-response,374,1715970,0.0-19.0-2.7,38417,List2A,white,man,,,,null,,,,
13196,,,survey-text,375,1729167,0.0-19.0-3.7,38417,List2A,white,man,,,,,"{""Q0"":""jane and dave are kissing each other""}","<img src=""stim_listA/kiss2.gif""style=""height:400px;""></stim_listA>",are kissing each other,
null,"<div style=""font-size:60px;"">+</div>",,html-keyboard-response,376,1729669,0.0-19.0-0.8,38417,List2A,white,man,,,,null,,,,
null,"<img src=""stim_listA/marry7.gif""style=""height:400px;""></stim_listA>",,html-keyboard-response,377,1731670,0.0-19.0-1.8,38417,List2A,white,man,,,,null,,,,
null,is marrying,,html-keyboard-response,378,1733671,0.0-19.0-2.8,38417,List2A,white,man,,,,null,,,,
5172,,,survey-text,379,1738843,0.0-19.0-3.8,38417,List2A,white,man,,,,,"{""Q0"":""jane is marrying beth""}","<img src=""stim_listA/marry7.gif""style=""height:400px;""></stim_listA>",is marrying,
null,"<div style=""font-size:60px;"">+</div>",,html-keyboard-response,380,1739345,0.0-19.0-0.9,38417,List2A,white,man,,,,null,,,,
null,"<img src=""stim_listA/talk6.gif""style=""height:400px;""></stim_listA>",,html-keyboard-response,381,1741347,0.0-19.0-1.9,38417,List2A,white,man,,,,null,,,,
null,are talking to each other,,html-keyboard-response,382,1743347,0.0-19.0-2.9,38417,List2A,white,man,,,,null,,,,
9492,,,survey-text,383,1752840,0.0-19.0-3.9,38417,List2A,white,man,,,,,"{""Q0"":""fred and dave are talking to each other""}","<img src=""stim_listA/talk6.gif""style=""height:400px;""></stim_listA>",are talking to each other,
null,"<div style=""font-size:60px;"">+</div>",,html-keyboard-response,384,1753341,0.0-19.0-0.10,38417,List2A,white,man,,,,null,,,,
null,"<img src=""stim_listA/shout4.gif""style=""height:400px;""></stim_listA>",,html-keyboard-response,385,1755343,0.0-19.0-1.10,38417,List2A,white,man,,,,null,,,,
null,are shouting at each other,,html-keyboard-response,386,1757343,0.0-19.0-2.10,38417,List2A,white,man,,,,null,,,,
8500,,,survey-text,387,1765843,0.0-19.0-3.10,38417,List2A,white,man,,,,,"{""Q0"":""kate and mike are shouting at each other""}","<img src=""stim_listA/shout4.gif""style=""height:400px;""></stim_listA>",are shouting at each other,
null,"<div style=""font-size:60px;"">+</div>",,html-keyboard-response,388,1766344,0.0-19.0-0.11,38417,List2A,white,man,,,,null,,,,
null,"<img src=""stim_listA/argue5.gif""style=""height:400px;""></stim_listA>",,html-keyboard-response,389,1768344,0.0-19.0-1.11,38417,List2A,white,man,,,,null,,,,
null,is arguing with,,html-keyboard-response,390,1770346,0.0-19.0-2.11,38417,List2A,white,man,,,,null,,,,
6813,,,survey-text,391,1777159,0.0-19.0-3.11,38417,List2A,white,man,,,,,"{""Q0"":""dave is arguing with fred""}","<img src=""stim_listA/argue5.gif""style=""height:400px;""></stim_listA>",is arguing with,
null,"<div style=""font-size:60px;"">+</div>",,html-keyboard-response,392,1777661,0.0-19.0-0.12,38417,List2A,white,man,,,,null,,,,
null,"<img src=""stim_listA/play2.gif""style=""height:400px;""></stim_listA>",,html-keyboard-response,393,1779661,0.0-19.0-1.12,38417,List2A,white,man,,,,null,,,,
null,are playing with each other,,html-keyboard-response,394,1781663,0.0-19.0-2.12,38417,List2A,white,man,,,,null,,,,
8363,,,survey-text,395,1790027,0.0-19.0-3.12,38417,List2A,white,man,,,,,"{""Q0"":""ruth and luke are playing with each other""}","<img src=""stim_listA/play2.gif""style=""height:400px;""></stim_listA>",are playing with each other,
null,"<div style=""font-size:60px;"">+</div>",,html-keyboard-response,396,1790528,0.0-19.0-0.13,38417,List2A,white,man,,,,null,,,,
null,"<img src=""stim_listA/kiss4.gif""style=""height:400px;""></stim_listA>",,html-keyboard-response,397,1792529,0.0-19.0-1.13,38417,List2A,white,man,,,,null,,,,
null,are kissing each other,,html-keyboard-response,398,1794530,0.0-19.0-2.13,38417,List2A,white,man,,,,null,,,,
9004,,,survey-text,399,1803536,0.0-19.0-3.13,38417,List2A,white,man,,,,,"{""Q0"":""kate and mike are kissing each other""}","<img src=""stim_listA/kiss4.gif""style=""height:400px;""></stim_listA>",are kissing each other,
null,"<div style=""font-size:60px;"">+</div>",,html-keyboard-response,400,1804037,0.0-19.0-0.14,38417,List2A,white,man,,,,null,,,,
null,"<img src=""stim_listA/play4.gif""style=""height:400px;""></stim_listA>",,html-keyboard-response,401,1806038,0.0-19.0-1.14,38417,List2A,white,man,,,,null,,,,
null,are playing with each other,,html-keyboard-response,402,1808040,0.0-19.0-2.14,38417,List2A,white,man,,,,null,,,,
12355,,,survey-text,403,1820395,0.0-19.0-3.14,38417,List2A,white,man,,,,,"{""Q0"":""fred and beth are playing with each other""}","<img src=""stim_listA/play4.gif""style=""height:400px;""></stim_listA>",are playing with each other,
null,"<div style=""font-size:60px;"">+</div>",,html-keyboard-response,404,1820896,0.0-19.0-0.15,38417,List2A,white,man,,,,null,,,,
null,"<img src=""stim_listA/flirt6.gif""style=""height:400px;""></stim_listA>",,html-keyboard-response,405,1822897,0.0-19.0-1.15,38417,List2A,white,man,,,,null,,,,
null,are flirting with each other,,html-keyboard-response,406,1824899,0.0-19.0-2.15,38417,List2A,white,man,,,,null,,,,
10944,,,survey-text,407,1835843,0.0-19.0-3.15,38417,List2A,white,man,,,,,"{""Q0"":""fred and dave are flirting with each other""}","<img src=""stim_listA/flirt6.gif""style=""height:400px;""></stim_listA>",are flirting with each other,
null,"<div style=""font-size:60px;"">+</div>",,html-keyboard-response,408,1836345,0.0-19.0-0.16,38417,List2A,white,man,,,,null,,,,
null,"<img src=""stim_listA/kiss1.gif""style=""height:400px;""></stim_listA>",,html-keyboard-response,409,1838347,0.0-19.0-1.16,38417,List2A,white,man,,,,null,,,,
null,is kissing,,html-keyboard-response,410,1840348,0.0-19.0-2.16,38417,List2A,white,man,,,,null,,,,
7075,,,survey-text,411,1847424,0.0-19.0-3.16,38417,List2A,white,man,,,,,"{""Q0"":""luke is kissing ruth""}","<img src=""stim_listA/kiss1.gif""style=""height:400px;""></stim_listA>",is kissing,
null,"<div style=""font-size:60px;"">+</div>",,html-keyboard-response,412,1847925,0.0-19.0-0.17,38417,List2A,white,man,,,,null,,,,
null,"<img src=""stim_listA/argue6.gif""style=""height:400px;""></stim_listA>",,html-keyboard-response,413,1849925,0.0-19.0-1.17,38417,List2A,white,man,,,,null,,,,
null,are arguing with each other,,html-keyboard-response,414,1851927,0.0-19.0-2.17,38417,List2A,white,man,,,,null,,,,
9045,,,survey-text,415,1860972,0.0-19.0-3.17,38417,List2A,white,man,,,,,"{""Q0"":""luke and mike are arguing with each other""}","<img src=""stim_listA/argue6.gif""style=""height:400px;""></stim_listA>",are arguing with each other,
null,"<div style=""font-size:60px;"">+</div>",,html-keyboard-response,416,1861473,0.0-19.0-0.18,38417,List2A,white,man,,,,null,,,,
null,"<img src=""stim_listA/fight4.gif""style=""height:400px;""></stim_listA>",,html-keyboard-response,417,1863475,0.0-19.0-1.18,38417,List2A,white,man,,,,null,,,,
null,are fighting each other,,html-keyboard-response,418,1865476,0.0-19.0-2.18,38417,List2A,white,man,,,,null,,,,
9339,,,survey-text,419,1874815,0.0-19.0-3.18,38417,List2A,white,man,,,,,"{""Q0"":""beth and fred are fighting each other""}","<img src=""stim_listA/fight4.gif""style=""height:400px;""></stim_listA>",are fighting each other,
null,"<div style=""font-size:60px;"">+</div>",,html-keyboard-response,420,1875316,0.0-19.0-0.19,38417,List2A,white,man,,,,null,,,,
null,"<img src=""stim_listA/marry4.gif""style=""height:400px;""></stim_listA>",,html-keyboard-response,421,1877317,0.0-19.0-1.19,38417,List2A,white,man,,,,null,,,,
null,are marrying each other,,html-keyboard-response,422,1879318,0.0-19.0-2.19,38417,List2A,white,man,,,,null,,,,
9088,,,survey-text,423,1888408,0.0-19.0-3.19,38417,List2A,white,man,,,,,"{""Q0"":""kate and fred are marrying each other""}","<img src=""stim_listA/marry4.gif""style=""height:400px;""></stim_listA>",are marrying each other,
3163,<p>Thank you for completing that task.</p><p>The final part of this session is a short questionnaire.</p><p>Press Continue.</p>,0,html-button-response,424,1891571,0.0-20.0,38417,List2A,white,man,,,,,,,,
38208,,,survey-text,425,1930780,0.0-21.0,38417,List2A,white,man,,,,,"{""Q0"":""51"",""Q1"":""English"",""Q2"":""English"",""Q3"":""United Kingdom"",""Q4"":""White"",""Q5"":""Male""}",,,demographics
11812,,,survey-likert,426,1942593,0.0-22.0,38417,List2A,white,man,,,,,"{""Q0"":4}",,,likert_ESS
8050,,,survey-likert,427,1950645,0.0-23.0,38417,List2A,white,man,,,,,"{""Q0"":4}",,,likert_NSSAL_Q1
2762,,,survey-likert,428,1953408,0.0-24.0,38417,List2A,white,man,,,,,"{""Q0"":4}",,,likert_NSSAL_Q2
6059,,,survey-likert,429,1959469,0.0-25.0,38417,List2A,white,man,,,,,"{""Q0"":4}",,,likert_CGRS_Q1
6294,,,survey-likert,430,1965764,0.0-26.0,38417,List2A,white,man,,,,,"{""Q0"":3}",,,likert_CGRS_Q2
3011,,,survey-likert,431,1968775,0.0-27.0,38417,List2A,white,man,,,,,"{""Q0"":3}",,,likert_CGRS_Q3
6358,,,survey-text,432,1975136,0.0-28.0,38417,List2A,white,man,,,,,"{""Q0"":""ccc""}",,,worker_id
21536,,,external-html,433,1996767,0.0-29.0,38417,List2A,white,man,debrief.html,,,,,,,
