rt,stimulus,button_pressed,trial_type,trial_index,time_elapsed,internal_node_id,subject,list,ppt_race,ppt_gender,url,first_guess,correct,key_press,responses,image_type,phrase_type,test_part
8545,Welcome to the experiment. Press Continue to begin.,0,html-button-response,0,8547,0.0-0.0,38529,List1B,white,man,,,,,,,,
82797,,,external-html,1,92434,0.0-1.0,38529,List1B,white,man,consent.html,,,,,,,
11194,"<p>On the next page, you will see portraits of 8 people and their names.</p><p>Your first task is to take a few minutes to memorise the names of these people.</p><p>You will have to recall their names during the rest of the experiment, so it is</p><p>essential that you try to memorise these people and their names as best as you can.</p><br><p><strong>You will then be tested on your memory of these names and portraits.</strong></p><br><p>The experiment will start after you have completed this memory test.</p><br><p>Ready?</p>",0,html-button-response,2,103629,0.0-2.0,38529,List1B,white,man,,,,,,,,
136071,"<img src='img/portrait_matrix_list1.jpg' style='width:900px;height:500px;''></img><p>If you have memorised all the portraits and names and are ready to start, press Continue.</p><p><strong>Please note: Your memory of these faces will be tested 4 times during this experiment.</strong></p>",0,html-button-response,3,240702,0.0-3.0-0.0,38529,List1B,white,man,,,,,,,,
2400,"<img src=""portrait/BM2.jpg""style=""height:400px;""></img>",5,html-button-response,4,244105,0.0-3.0-1.0,38529,List1B,white,man,,TRUE,5,,,,,
null,CORRECT,,html-keyboard-response,5,245608,0.0-3.0-2.0-0.0,38529,List1B,white,man,,,,null,,,,
2607,"<img src=""portrait/WM1.jpg""style=""height:400px;""></img>",6,html-button-response,6,248215,0.0-3.0-4.0,38529,List1B,white,man,,TRUE,6,,,,,
null,CORRECT,,html-keyboard-response,7,249717,0.0-3.0-5.0-0.0,38529,List1B,white,man,,,,null,,,,
1596,"<img src=""portrait/BM1.jpg""style=""height:400px;""></img>",4,html-button-response,8,251313,0.0-3.0-7.0,38529,List1B,white,man,,TRUE,4,,,,,
null,CORRECT,,html-keyboard-response,9,252815,0.0-3.0-8.0-0.0,38529,List1B,white,man,,,,null,,,,
7886,"<img src=""portrait/BW1.jpg""style=""height:400px;""></img>",0,html-button-response,10,260702,0.0-3.0-10.0,38529,List1B,white,man,,TRUE,0,,,,,
null,CORRECT,,html-keyboard-response,11,262204,0.0-3.0-11.0-0.0,38529,List1B,white,man,,,,null,,,,
2940,"<img src=""portrait/WM2.jpg""style=""height:400px;""></img>",7,html-button-response,12,265145,0.0-3.0-13.0,38529,List1B,white,man,,TRUE,7,,,,,
null,CORRECT,,html-keyboard-response,13,266647,0.0-3.0-14.0-0.0,38529,List1B,white,man,,,,null,,,,
1982,"<img src=""portrait/WW1.jpg""style=""height:400px;""></img>",1,html-button-response,14,268631,0.0-3.0-16.0,38529,List1B,white,man,,TRUE,1,,,,,
null,CORRECT,,html-keyboard-response,15,270133,0.0-3.0-17.0-0.0,38529,List1B,white,man,,,,null,,,,
1771,"<img src=""portrait/WW2.jpg""style=""height:400px;""></img>",3,html-button-response,16,271905,0.0-3.0-19.0,38529,List1B,white,man,,TRUE,3,,,,,
null,CORRECT,,html-keyboard-response,17,273408,0.0-3.0-20.0-0.0,38529,List1B,white,man,,,,null,,,,
5442,"<img src=""portrait/BW2.jpg""style=""height:400px;""></img>",2,html-button-response,18,278851,0.0-3.0-22.0,38529,List1B,white,man,,TRUE,2,,,,,
null,CORRECT,,html-keyboard-response,19,280355,0.0-3.0-23.0-0.0,38529,List1B,white,man,,,,null,,,,
3467,<p>You got 8 out of 8 right first time. Press Continue.</p>,0,html-button-response,20,283823,0.0-3.0-25.0,38529,List1B,white,man,,,,,,,,
35931,"<p>In this experiment, you will view photographs of the people from the memory game interacting.</p><p>By using the <strong>exact</strong> phrase given <i>after</i> the photograph appears and recalling the correct names of the people in the photographs, form a sentence describing the interaction. You do not need to capitalise names.</p><p>Type your answer in the space provided. Please complete every sentence before moving onto the next trial.</p><p>You will only have a few seconds to memorise each given photograph and phrase before you can respond, so try your best to focus.</p><p>An example is given below. Press 'Continue' when you are ready.</p><img src='img/speaking_example.jpg' style='width:800px;height:460px;''></img>",0,html-button-response,21,320757,0.0-4.0,38529,List1B,white,man,,,,,,,,
2785,"<p>Before the experiment starts, you will watch two example trials. Press 'Continue'.</p>",0,html-button-response,22,324544,0.0-5.0,38529,List1B,white,man,,,,,,,,
null,<img src='img/meet_eg.gif' style='height:400px;''></img>,,html-keyboard-response,23,327547,0.0-6.0,38529,List1B,white,man,,,,null,,,,
null,<p>is meeting</p>,,html-keyboard-response,24,329549,0.0-7.0,38529,List1B,white,man,,,,null,,,,
7911,<p><b>Answer:</b> kate is meeting beth</p>,0,html-button-response,25,337460,0.0-8.0,38529,List1B,white,man,,,,,,,,
null,<img src='img/look_eg.gif' style='height:400px;''></img>,,html-keyboard-response,26,340464,0.0-9.0,38529,List1B,white,man,,,,null,,,,
null,<p>are looking at each other</p>,,html-keyboard-response,27,342466,0.0-10.0,38529,List1B,white,man,,,,null,,,,
2618,<p><b>Answer:</b> luke and dave are looking at each other</p>,0,html-button-response,28,345084,0.0-11.0,38529,List1B,white,man,,,,,,,,
10176,"<p>Ready to start the experiment?</p><br><p><strong>Remember to describe the picture using a full sentence,</strong></p><p><strong>that combines the names of the people with the <i>exact</i> phrase given.</strong></p><p><strong>To receive full payment you must do this correctly.</strong></p><p><strong> You do not need to capitalise names or use punctuation.</strong></p><br><p>Press 'Continue' to begin.</p>",0,html-button-response,29,356263,0.0-12.0,38529,List1B,white,man,,,,,,,,
null,"<div style=""font-size:60px;"">+</div>",,html-keyboard-response,30,357765,0.0-13.0-0.0,38529,List1B,white,man,,,,null,,,,
null,"<img src=""stim_listB/flirt5.gif""style=""height:400px;""></stim_listB>",,html-keyboard-response,31,359766,0.0-13.0-1.0,38529,List1B,white,man,,,,null,,,,
null,is flirting with,,html-keyboard-response,32,361768,0.0-13.0-2.0,38529,List1B,white,man,,,,null,,,,
7320,,,survey-text,33,369089,0.0-13.0-3.0,38529,List1B,white,man,,,,,"{""Q0"":""fred is flirting with dave""}","<img src=""stim_listB/flirt5.gif""style=""height:400px;""></stim_listB>",is flirting with,
null,"<div style=""font-size:60px;"">+</div>",,html-keyboard-response,34,369591,0.0-13.0-0.1,38529,List1B,white,man,,,,null,,,,
null,"<img src=""stim_listB/touch8.gif""style=""height:400px;""></stim_listB>",,html-keyboard-response,35,371593,0.0-13.0-1.1,38529,List1B,white,man,,,,null,,,,
null,are touching each other,,html-keyboard-response,36,373594,0.0-13.0-2.1,38529,List1B,white,man,,,,null,,,,
10655,,,survey-text,37,384250,0.0-13.0-3.1,38529,List1B,white,man,,,,,"{""Q0"":""beth and jane are touching each other""}","<img src=""stim_listB/touch8.gif""style=""height:400px;""></stim_listB>",are touching each other,
null,"<div style=""font-size:60px;"">+</div>",,html-keyboard-response,38,384752,0.0-13.0-0.2,38529,List1B,white,man,,,,null,,,,
null,"<img src=""stim_listB/flirt2.gif""style=""height:400px;""></stim_listB>",,html-keyboard-response,39,386754,0.0-13.0-1.2,38529,List1B,white,man,,,,null,,,,
null,are flirting with each other,,html-keyboard-response,40,388756,0.0-13.0-2.2,38529,List1B,white,man,,,,null,,,,
9940,,,survey-text,41,398696,0.0-13.0-3.2,38529,List1B,white,man,,,,,"{""Q0"":""mike and beth are flirting with each other""}","<img src=""stim_listB/flirt2.gif""style=""height:400px;""></stim_listB>",are flirting with each other,
null,"<div style=""font-size:60px;"">+</div>",,html-keyboard-response,42,399198,0.0-13.0-0.3,38529,List1B,white,man,,,,null,,,,
null,"<img src=""stim_listB/flirt6.gif""style=""height:400px;""></stim_listB>",,html-keyboard-response,43,401200,0.0-13.0-1.3,38529,List1B,white,man,,,,null,,,,
null,are flirting with each other,,html-keyboard-response,44,403202,0.0-13.0-2.3,38529,List1B,white,man,,,,null,,,,
12430,,,survey-text,45,415633,0.0-13.0-3.3,38529,List1B,white,man,,,,,"{""Q0"":""mike and luke are flirting with each other""}","<img src=""stim_listB/flirt6.gif""style=""height:400px;""></stim_listB>",are flirting with each other,
null,"<div style=""font-size:60px;"">+</div>",,html-keyboard-response,46,416133,0.0-13.0-0.4,38529,List1B,white,man,,,,null,,,,
null,"<img src=""stim_listB/marry5.gif""style=""height:400px;""></stim_listB>",,html-keyboard-response,47,418135,0.0-13.0-1.4,38529,List1B,white,man,,,,null,,,,
null,is marrying,,html-keyboard-response,48,420136,0.0-13.0-2.4,38529,List1B,white,man,,,,null,,,,
7498,,,survey-text,49,427634,0.0-13.0-3.4,38529,List1B,white,man,,,,,"{""Q0"":""luke is marrying mike""}","<img src=""stim_listB/marry5.gif""style=""height:400px;""></stim_listB>",is marrying,
null,"<div style=""font-size:60px;"">+</div>",,html-keyboard-response,50,428136,0.0-13.0-0.5,38529,List1B,white,man,,,,null,,,,
null,"<img src=""stim_listB/marry6.gif""style=""height:400px;""></stim_listB>",,html-keyboard-response,51,430137,0.0-13.0-1.5,38529,List1B,white,man,,,,null,,,,
null,are marrying each other,,html-keyboard-response,52,432140,0.0-13.0-2.5,38529,List1B,white,man,,,,null,,,,
7698,,,survey-text,53,439838,0.0-13.0-3.5,38529,List1B,white,man,,,,,"{""Q0"":""fred and dave are marrying each other""}","<img src=""stim_listB/marry6.gif""style=""height:400px;""></stim_listB>",are marrying each other,
null,"<div style=""font-size:60px;"">+</div>",,html-keyboard-response,54,440339,0.0-13.0-0.6,38529,List1B,white,man,,,,null,,,,
null,"<img src=""stim_listB/argue6.gif""style=""height:400px;""></stim_listB>",,html-keyboard-response,55,442341,0.0-13.0-1.6,38529,List1B,white,man,,,,null,,,,
null,are arguing with each other,,html-keyboard-response,56,444342,0.0-13.0-2.6,38529,List1B,white,man,,,,null,,,,
7260,,,survey-text,57,451604,0.0-13.0-3.6,38529,List1B,white,man,,,,,"{""Q0"":""fred and dave are arguing with each other""}","<img src=""stim_listB/argue6.gif""style=""height:400px;""></stim_listB>",are arguing with each other,
null,"<div style=""font-size:60px;"">+</div>",,html-keyboard-response,58,452105,0.0-13.0-0.7,38529,List1B,white,man,,,,null,,,,
null,"<img src=""stim_listB/fight4.gif""style=""height:400px;""></stim_listB>",,html-keyboard-response,59,454108,0.0-13.0-1.7,38529,List1B,white,man,,,,null,,,,
null,are fighting each other,,html-keyboard-response,60,456109,0.0-13.0-2.7,38529,List1B,white,man,,,,null,,,,
8642,,,survey-text,61,464752,0.0-13.0-3.7,38529,List1B,white,man,,,,,"{""Q0"":""jane and luke are fighting each other""}","<img src=""stim_listB/fight4.gif""style=""height:400px;""></stim_listB>",are fighting each other,
null,"<div style=""font-size:60px;"">+</div>",,html-keyboard-response,62,465254,0.0-13.0-0.8,38529,List1B,white,man,,,,null,,,,
null,"<img src=""stim_listB/fight3.gif""style=""height:400px;""></stim_listB>",,html-keyboard-response,63,467255,0.0-13.0-1.8,38529,List1B,white,man,,,,null,,,,
null,is fighting,,html-keyboard-response,64,469256,0.0-13.0-2.8,38529,List1B,white,man,,,,null,,,,
6403,,,survey-text,65,475659,0.0-13.0-3.8,38529,List1B,white,man,,,,,"{""Q0"":""dave is fighting jane""}","<img src=""stim_listB/fight3.gif""style=""height:400px;""></stim_listB>",is fighting,
null,"<div style=""font-size:60px;"">+</div>",,html-keyboard-response,66,476163,0.0-13.0-0.9,38529,List1B,white,man,,,,null,,,,
null,"<img src=""stim_listB/talk5.gif""style=""height:400px;""></stim_listB>",,html-keyboard-response,67,478165,0.0-13.0-1.9,38529,List1B,white,man,,,,null,,,,
null,is talking to,,html-keyboard-response,68,480165,0.0-13.0-2.9,38529,List1B,white,man,,,,null,,,,
24519,,,survey-text,69,504686,0.0-13.0-3.9,38529,List1B,white,man,,,,,"{""Q0"":""dave is talking to mike""}","<img src=""stim_listB/talk5.gif""style=""height:400px;""></stim_listB>",is talking to,
null,"<div style=""font-size:60px;"">+</div>",,html-keyboard-response,70,505188,0.0-13.0-0.10,38529,List1B,white,man,,,,null,,,,
null,"<img src=""stim_listB/marry7.gif""style=""height:400px;""></stim_listB>",,html-keyboard-response,71,507190,0.0-13.0-1.10,38529,List1B,white,man,,,,null,,,,
null,is marrying,,html-keyboard-response,72,509192,0.0-13.0-2.10,38529,List1B,white,man,,,,null,,,,
10980,,,survey-text,73,520172,0.0-13.0-3.10,38529,List1B,white,man,,,,,"{""Q0"":""kate is marrying jane""}","<img src=""stim_listB/marry7.gif""style=""height:400px;""></stim_listB>",is marrying,
null,"<div style=""font-size:60px;"">+</div>",,html-keyboard-response,74,520673,0.0-13.0-0.11,38529,List1B,white,man,,,,null,,,,
null,"<img src=""stim_listB/play6.gif""style=""height:400px;""></stim_listB>",,html-keyboard-response,75,522675,0.0-13.0-1.11,38529,List1B,white,man,,,,null,,,,
null,are playing with each other,,html-keyboard-response,76,524677,0.0-13.0-2.11,38529,List1B,white,man,,,,null,,,,
9218,,,survey-text,77,533896,0.0-13.0-3.11,38529,List1B,white,man,,,,,"{""Q0"":""fred and luke are playing with each other""}","<img src=""stim_listB/play6.gif""style=""height:400px;""></stim_listB>",are playing with each other,
null,"<div style=""font-size:60px;"">+</div>",,html-keyboard-response,78,534398,0.0-13.0-0.12,38529,List1B,white,man,,,,null,,,,
null,"<img src=""stim_listB/play4.gif""style=""height:400px;""></stim_listB>",,html-keyboard-response,79,536399,0.0-13.0-1.12,38529,List1B,white,man,,,,null,,,,
null,are playing with each other,,html-keyboard-response,80,538400,0.0-13.0-2.12,38529,List1B,white,man,,,,null,,,,
12997,,,survey-text,81,551398,0.0-13.0-3.12,38529,List1B,white,man,,,,,"{""Q0"":""luke and jane are playing with each other""}","<img src=""stim_listB/play4.gif""style=""height:400px;""></stim_listB>",are playing with each other,
null,"<div style=""font-size:60px;"">+</div>",,html-keyboard-response,82,551901,0.0-13.0-0.13,38529,List1B,white,man,,,,null,,,,
null,"<img src=""stim_listB/talk8.gif""style=""height:400px;""></stim_listB>",,html-keyboard-response,83,553903,0.0-13.0-1.13,38529,List1B,white,man,,,,null,,,,
null,are talking to each other,,html-keyboard-response,84,555905,0.0-13.0-2.13,38529,List1B,white,man,,,,null,,,,
6896,,,survey-text,85,562802,0.0-13.0-3.13,38529,List1B,white,man,,,,,"{""Q0"":""kate and jane are talking to each other""}","<img src=""stim_listB/talk8.gif""style=""height:400px;""></stim_listB>",are talking to each other,
null,"<div style=""font-size:60px;"">+</div>",,html-keyboard-response,86,563304,0.0-13.0-0.14,38529,List1B,white,man,,,,null,,,,
null,"<img src=""stim_listB/touch6.gif""style=""height:400px;""></stim_listB>",,html-keyboard-response,87,565305,0.0-13.0-1.14,38529,List1B,white,man,,,,null,,,,
null,are touching each other,,html-keyboard-response,88,567306,0.0-13.0-2.14,38529,List1B,white,man,,,,null,,,,
10363,,,survey-text,89,577670,0.0-13.0-3.14,38529,List1B,white,man,,,,,"{""Q0"":""fred and luke are touching each other""}","<img src=""stim_listB/touch6.gif""style=""height:400px;""></stim_listB>",are touching each other,
null,"<div style=""font-size:60px;"">+</div>",,html-keyboard-response,90,578171,0.0-13.0-0.15,38529,List1B,white,man,,,,null,,,,
null,"<img src=""stim_listB/touch7.gif""style=""height:400px;""></stim_listB>",,html-keyboard-response,91,580173,0.0-13.0-1.15,38529,List1B,white,man,,,,null,,,,
null,is touching,,html-keyboard-response,92,582174,0.0-13.0-2.15,38529,List1B,white,man,,,,null,,,,
7574,,,survey-text,93,589750,0.0-13.0-3.15,38529,List1B,white,man,,,,,"{""Q0"":""kate is touching jane""}","<img src=""stim_listB/touch7.gif""style=""height:400px;""></stim_listB>",is touching,
null,"<div style=""font-size:60px;"">+</div>",,html-keyboard-response,94,590251,0.0-13.0-0.16,38529,List1B,white,man,,,,null,,,,
null,"<img src=""stim_listB/shout4.gif""style=""height:400px;""></stim_listB>",,html-keyboard-response,95,592253,0.0-13.0-1.16,38529,List1B,white,man,,,,null,,,,
null,are shouting at each other,,html-keyboard-response,96,594255,0.0-13.0-2.16,38529,List1B,white,man,,,,null,,,,
21356,,,survey-text,97,615612,0.0-13.0-3.16,38529,List1B,white,man,,,,,"{""Q0"":""jane is touching dave""}","<img src=""stim_listB/shout4.gif""style=""height:400px;""></stim_listB>",are shouting at each other,
null,"<div style=""font-size:60px;"">+</div>",,html-keyboard-response,98,616113,0.0-13.0-0.17,38529,List1B,white,man,,,,null,,,,
null,"<img src=""stim_listB/kiss6.gif""style=""height:400px;""></stim_listB>",,html-keyboard-response,99,618114,0.0-13.0-1.17,38529,List1B,white,man,,,,null,,,,
null,are kissing each other,,html-keyboard-response,100,620115,0.0-13.0-2.17,38529,List1B,white,man,,,,null,,,,
8405,,,survey-text,101,628521,0.0-13.0-3.17,38529,List1B,white,man,,,,,"{""Q0"":""dave and mike are kissing each other""}","<img src=""stim_listB/kiss6.gif""style=""height:400px;""></stim_listB>",are kissing each other,
null,"<div style=""font-size:60px;"">+</div>",,html-keyboard-response,102,629022,0.0-13.0-0.18,38529,List1B,white,man,,,,null,,,,
null,"<img src=""stim_listB/argue7.gif""style=""height:400px;""></stim_listB>",,html-keyboard-response,103,631024,0.0-13.0-1.18,38529,List1B,white,man,,,,null,,,,
null,is arguing with,,html-keyboard-response,104,633025,0.0-13.0-2.18,38529,List1B,white,man,,,,null,,,,
6147,,,survey-text,105,639173,0.0-13.0-3.18,38529,List1B,white,man,,,,,"{""Q0"":""kate is arguing with jane""}","<img src=""stim_listB/argue7.gif""style=""height:400px;""></stim_listB>",is arguing with,
null,"<div style=""font-size:60px;"">+</div>",,html-keyboard-response,106,639674,0.0-13.0-0.19,38529,List1B,white,man,,,,null,,,,
null,"<img src=""stim_listB/touch5.gif""style=""height:400px;""></stim_listB>",,html-keyboard-response,107,641676,0.0-13.0-1.19,38529,List1B,white,man,,,,null,,,,
null,is touching,,html-keyboard-response,108,643677,0.0-13.0-2.19,38529,List1B,white,man,,,,null,,,,
4196,,,survey-text,109,647873,0.0-13.0-3.19,38529,List1B,white,man,,,,,"{""Q0"":""dave is touching mike""}","<img src=""stim_listB/touch5.gif""style=""height:400px;""></stim_listB>",is touching,
125468,"<img src='img/portrait_matrix_list1.jpg' style='width:900px;height:500px;''></img><p>If you have memorised all the portraits and names and are ready to start, press Continue.</p><p><strong>Please note: Your memory of these faces will be tested 4 times during this experiment.</strong></p>",0,html-button-response,110,773342,0.0-14.0-0.0,38529,List1B,white,man,,,,,,,,
1634,"<img src=""portrait/WW2.jpg""style=""height:400px;""></img>",3,html-button-response,111,775978,0.0-14.0-1.0,38529,List1B,white,man,,TRUE,3,,,,,
null,CORRECT,,html-keyboard-response,112,777482,0.0-14.0-2.0-0.0,38529,List1B,white,man,,,,null,,,,
4082,"<img src=""portrait/WM1.jpg""style=""height:400px;""></img>",6,html-button-response,113,781564,0.0-14.0-4.0,38529,List1B,white,man,,TRUE,6,,,,,
null,CORRECT,,html-keyboard-response,114,783066,0.0-14.0-5.0-0.0,38529,List1B,white,man,,,,null,,,,
15066,"<img src=""portrait/BW2.jpg""style=""height:400px;""></img>",2,html-button-response,115,798132,0.0-14.0-7.0,38529,List1B,white,man,,TRUE,2,,,,,
null,CORRECT,,html-keyboard-response,116,799635,0.0-14.0-8.0-0.0,38529,List1B,white,man,,,,null,,,,
1803,"<img src=""portrait/WW1.jpg""style=""height:400px;""></img>",1,html-button-response,117,801438,0.0-14.0-10.0,38529,List1B,white,man,,TRUE,1,,,,,
null,CORRECT,,html-keyboard-response,118,802942,0.0-14.0-11.0-0.0,38529,List1B,white,man,,,,null,,,,
3266,"<img src=""portrait/BM1.jpg""style=""height:400px;""></img>",4,html-button-response,119,806208,0.0-14.0-13.0,38529,List1B,white,man,,TRUE,4,,,,,
null,CORRECT,,html-keyboard-response,120,807710,0.0-14.0-14.0-0.0,38529,List1B,white,man,,,,null,,,,
2402,"<img src=""portrait/BM2.jpg""style=""height:400px;""></img>",5,html-button-response,121,810113,0.0-14.0-16.0,38529,List1B,white,man,,TRUE,5,,,,,
null,CORRECT,,html-keyboard-response,122,811616,0.0-14.0-17.0-0.0,38529,List1B,white,man,,,,null,,,,
1858,"<img src=""portrait/BW1.jpg""style=""height:400px;""></img>",0,html-button-response,123,813476,0.0-14.0-19.0,38529,List1B,white,man,,TRUE,0,,,,,
null,CORRECT,,html-keyboard-response,124,814979,0.0-14.0-20.0-0.0,38529,List1B,white,man,,,,null,,,,
1794,"<img src=""portrait/WM2.jpg""style=""height:400px;""></img>",7,html-button-response,125,816774,0.0-14.0-22.0,38529,List1B,white,man,,TRUE,7,,,,,
null,CORRECT,,html-keyboard-response,126,818276,0.0-14.0-23.0-0.0,38529,List1B,white,man,,,,null,,,,
9322,<p>You got 8 out of 8 right first time. Press Continue.</p>,0,html-button-response,127,827600,0.0-14.0-25.0,38529,List1B,white,man,,,,,,,,
null,"<div style=""font-size:60px;"">+</div>",,html-keyboard-response,128,829103,0.0-15.0-0.0,38529,List1B,white,man,,,,null,,,,
null,"<img src=""stim_listB/touch4.gif""style=""height:400px;""></stim_listB>",,html-keyboard-response,129,831104,0.0-15.0-1.0,38529,List1B,white,man,,,,null,,,,
null,are touching each other,,html-keyboard-response,130,833105,0.0-15.0-2.0,38529,List1B,white,man,,,,null,,,,
12271,,,survey-text,131,845376,0.0-15.0-3.0,38529,List1B,white,man,,,,,"{""Q0"":""Ruth and Luke are touching each other""}","<img src=""stim_listB/touch4.gif""style=""height:400px;""></stim_listB>",are touching each other,
null,"<div style=""font-size:60px;"">+</div>",,html-keyboard-response,132,845878,0.0-15.0-0.1,38529,List1B,white,man,,,,null,,,,
null,"<img src=""stim_listB/dance1.gif""style=""height:400px;""></stim_listB>",,html-keyboard-response,133,847879,0.0-15.0-1.1,38529,List1B,white,man,,,,null,,,,
null,is dancing with,,html-keyboard-response,134,849880,0.0-15.0-2.1,38529,List1B,white,man,,,,null,,,,
6299,,,survey-text,135,856180,0.0-15.0-3.1,38529,List1B,white,man,,,,,"{""Q0"":""fred is dancing with kate""}","<img src=""stim_listB/dance1.gif""style=""height:400px;""></stim_listB>",is dancing with,
null,"<div style=""font-size:60px;"">+</div>",,html-keyboard-response,136,856682,0.0-15.0-0.2,38529,List1B,white,man,,,,null,,,,
null,"<img src=""stim_listB/talk7.gif""style=""height:400px;""></stim_listB>",,html-keyboard-response,137,858684,0.0-15.0-1.2,38529,List1B,white,man,,,,null,,,,
null,is talking to,,html-keyboard-response,138,860685,0.0-15.0-2.2,38529,List1B,white,man,,,,null,,,,
8853,,,survey-text,139,869538,0.0-15.0-3.2,38529,List1B,white,man,,,,,"{""Q0"":""beth is talking to jane""}","<img src=""stim_listB/talk7.gif""style=""height:400px;""></stim_listB>",is talking to,
null,"<div style=""font-size:60px;"">+</div>",,html-keyboard-response,140,870039,0.0-15.0-0.3,38529,List1B,white,man,,,,null,,,,
null,"<img src=""stim_listB/marry2.gif""style=""height:400px;""></stim_listB>",,html-keyboard-response,141,872041,0.0-15.0-1.3,38529,List1B,white,man,,,,null,,,,
null,are marrying each other,,html-keyboard-response,142,874042,0.0-15.0-2.3,38529,List1B,white,man,,,,null,,,,
10692,,,survey-text,143,884734,0.0-15.0-3.3,38529,List1B,white,man,,,,,"{""Q0"":""fred and kate are marrying each other""}","<img src=""stim_listB/marry2.gif""style=""height:400px;""></stim_listB>",are marrying each other,
null,"<div style=""font-size:60px;"">+</div>",,html-keyboard-response,144,885236,0.0-15.0-0.4,38529,List1B,white,man,,,,null,,,,
null,"<img src=""stim_listB/shout7.gif""style=""height:400px;""></stim_listB>",,html-keyboard-response,145,887238,0.0-15.0-1.4,38529,List1B,white,man,,,,null,,,,
null,is shouting at,,html-keyboard-response,146,889238,0.0-15.0-2.4,38529,List1B,white,man,,,,null,,,,
8992,,,survey-text,147,898231,0.0-15.0-3.4,38529,List1B,white,man,,,,,"{""Q0"":""ruth is shouting at beth""}","<img src=""stim_listB/shout7.gif""style=""height:400px;""></stim_listB>",is shouting at,
null,"<div style=""font-size:60px;"">+</div>",,html-keyboard-response,148,898734,0.0-15.0-0.5,38529,List1B,white,man,,,,null,,,,
null,"<img src=""stim_listB/shout6.gif""style=""height:400px;""></stim_listB>",,html-keyboard-response,149,900735,0.0-15.0-1.5,38529,List1B,white,man,,,,null,,,,
null,are shouting at each other,,html-keyboard-response,150,902736,0.0-15.0-2.5,38529,List1B,white,man,,,,null,,,,
273722,,,survey-text,151,1176459,0.0-15.0-3.5,38529,List1B,white,man,,,,,"{""Q0"":""mike and dave are shouting at each other""}","<img src=""stim_listB/shout6.gif""style=""height:400px;""></stim_listB>",are shouting at each other,
null,"<div style=""font-size:60px;"">+</div>",,html-keyboard-response,152,1176961,0.0-15.0-0.6,38529,List1B,white,man,,,,null,,,,
null,"<img src=""stim_listB/play5.gif""style=""height:400px;""></stim_listB>",,html-keyboard-response,153,1178964,0.0-15.0-1.6,38529,List1B,white,man,,,,null,,,,
null,is playing with,,html-keyboard-response,154,1180965,0.0-15.0-2.6,38529,List1B,white,man,,,,null,,,,
13499,,,survey-text,155,1194465,0.0-15.0-3.6,38529,List1B,white,man,,,,,"{""Q0"":""dave is playing with mike""}","<img src=""stim_listB/play5.gif""style=""height:400px;""></stim_listB>",is playing with,
null,"<div style=""font-size:60px;"">+</div>",,html-keyboard-response,156,1194966,0.0-15.0-0.7,38529,List1B,white,man,,,,null,,,,
null,"<img src=""stim_listB/dance2.gif""style=""height:400px;""></stim_listB>",,html-keyboard-response,157,1196967,0.0-15.0-1.7,38529,List1B,white,man,,,,null,,,,
null,are dancing with each other,,html-keyboard-response,158,1198968,0.0-15.0-2.7,38529,List1B,white,man,,,,null,,,,
8140,,,survey-text,159,1207108,0.0-15.0-3.7,38529,List1B,white,man,,,,,"{""Q0"":""mike and beth are dancing with each other""}","<img src=""stim_listB/dance2.gif""style=""height:400px;""></stim_listB>",are dancing with each other,
null,"<div style=""font-size:60px;"">+</div>",,html-keyboard-response,160,1207609,0.0-15.0-0.8,38529,List1B,white,man,,,,null,,,,
null,"<img src=""stim_listB/kiss2.gif""style=""height:400px;""></stim_listB>",,html-keyboard-response,161,1209611,0.0-15.0-1.8,38529,List1B,white,man,,,,null,,,,
null,are kissing each other,,html-keyboard-response,162,1211612,0.0-15.0-2.8,38529,List1B,white,man,,,,null,,,,
11542,,,survey-text,163,1223154,0.0-15.0-3.8,38529,List1B,white,man,,,,,"{""Q0"":""mike and kate are kissing each other""}","<img src=""stim_listB/kiss2.gif""style=""height:400px;""></stim_listB>",are kissing each other,
null,"<div style=""font-size:60px;"">+</div>",,html-keyboard-response,164,1223657,0.0-15.0-0.9,38529,List1B,white,man,,,,null,,,,
null,"<img src=""stim_listB/fight2.gif""style=""height:400px;""></stim_listB>",,html-keyboard-response,165,1225658,0.0-15.0-1.9,38529,List1B,white,man,,,,null,,,,
null,are fighting each other,,html-keyboard-response,166,1227660,0.0-15.0-2.9,38529,List1B,white,man,,,,null,,,,
10852,,,survey-text,167,1238512,0.0-15.0-3.9,38529,List1B,white,man,,,,,"{""Q0"":""fred and beth are fighting each other""}","<img src=""stim_listB/fight2.gif""style=""height:400px;""></stim_listB>",are fighting each other,
null,"<div style=""font-size:60px;"">+</div>",,html-keyboard-response,168,1239014,0.0-15.0-0.10,38529,List1B,white,man,,,,null,,,,
null,"<img src=""stim_listB/dance4.gif""style=""height:400px;""></stim_listB>",,html-keyboard-response,169,1241016,0.0-15.0-1.10,38529,List1B,white,man,,,,null,,,,
null,are dancing with each other,,html-keyboard-response,170,1243018,0.0-15.0-2.10,38529,List1B,white,man,,,,null,,,,
6808,,,survey-text,171,1249826,0.0-15.0-3.10,38529,List1B,white,man,,,,,"{""Q0"":""ruth and dave are dancing with each other""}","<img src=""stim_listB/dance4.gif""style=""height:400px;""></stim_listB>",are dancing with each other,
null,"<div style=""font-size:60px;"">+</div>",,html-keyboard-response,172,1250327,0.0-15.0-0.11,38529,List1B,white,man,,,,null,,,,
null,"<img src=""stim_listB/marry8.gif""style=""height:400px;""></stim_listB>",,html-keyboard-response,173,1252330,0.0-15.0-1.11,38529,List1B,white,man,,,,null,,,,
null,are marrying each other,,html-keyboard-response,174,1254333,0.0-15.0-2.11,38529,List1B,white,man,,,,null,,,,
7375,,,survey-text,175,1261708,0.0-15.0-3.11,38529,List1B,white,man,,,,,"{""Q0"":""beth and jane are marrying each other""}","<img src=""stim_listB/marry8.gif""style=""height:400px;""></stim_listB>",are marrying each other,
null,"<div style=""font-size:60px;"">+</div>",,html-keyboard-response,176,1262210,0.0-15.0-0.12,38529,List1B,white,man,,,,null,,,,
null,"<img src=""stim_listB/marry1.gif""style=""height:400px;""></stim_listB>",,html-keyboard-response,177,1264212,0.0-15.0-1.12,38529,List1B,white,man,,,,null,,,,
null,is marrying,,html-keyboard-response,178,1266213,0.0-15.0-2.12,38529,List1B,white,man,,,,null,,,,
5363,,,survey-text,179,1271576,0.0-15.0-3.12,38529,List1B,white,man,,,,,"{""Q0"":""beth is marrying mike""}","<img src=""stim_listB/marry1.gif""style=""height:400px;""></stim_listB>",is marrying,
null,"<div style=""font-size:60px;"">+</div>",,html-keyboard-response,180,1272079,0.0-15.0-0.13,38529,List1B,white,man,,,,null,,,,
null,"<img src=""stim_listB/talk2.gif""style=""height:400px;""></stim_listB>",,html-keyboard-response,181,1274082,0.0-15.0-1.13,38529,List1B,white,man,,,,null,,,,
null,are talking to each other,,html-keyboard-response,182,1276084,0.0-15.0-2.13,38529,List1B,white,man,,,,null,,,,
6438,,,survey-text,183,1282522,0.0-15.0-3.13,38529,List1B,white,man,,,,,"{""Q0"":""mike and beth are talking to each other""}","<img src=""stim_listB/talk2.gif""style=""height:400px;""></stim_listB>",are talking to each other,
null,"<div style=""font-size:60px;"">+</div>",,html-keyboard-response,184,1283024,0.0-15.0-0.14,38529,List1B,white,man,,,,null,,,,
null,"<img src=""stim_listB/flirt3.gif""style=""height:400px;""></stim_listB>",,html-keyboard-response,185,1285026,0.0-15.0-1.14,38529,List1B,white,man,,,,null,,,,
null,is flirting with,,html-keyboard-response,186,1287027,0.0-15.0-2.14,38529,List1B,white,man,,,,null,,,,
8721,,,survey-text,187,1295749,0.0-15.0-3.14,38529,List1B,white,man,,,,,"{""Q0"":""jane is flirting with luke""}","<img src=""stim_listB/flirt3.gif""style=""height:400px;""></stim_listB>",is flirting with,
null,"<div style=""font-size:60px;"">+</div>",,html-keyboard-response,188,1296251,0.0-15.0-0.15,38529,List1B,white,man,,,,null,,,,
null,"<img src=""stim_listB/dance8.gif""style=""height:400px;""></stim_listB>",,html-keyboard-response,189,1298252,0.0-15.0-1.15,38529,List1B,white,man,,,,null,,,,
null,are dancing with each other,,html-keyboard-response,190,1300253,0.0-15.0-2.15,38529,List1B,white,man,,,,null,,,,
11090,,,survey-text,191,1311344,0.0-15.0-3.15,38529,List1B,white,man,,,,,"{""Q0"":""kate and jane are dancing with each other""}","<img src=""stim_listB/dance8.gif""style=""height:400px;""></stim_listB>",are dancing with each other,
null,"<div style=""font-size:60px;"">+</div>",,html-keyboard-response,192,1311845,0.0-15.0-0.16,38529,List1B,white,man,,,,null,,,,
null,"<img src=""stim_listB/touch1.gif""style=""height:400px;""></stim_listB>",,html-keyboard-response,193,1313846,0.0-15.0-1.16,38529,List1B,white,man,,,,null,,,,
null,is touching,,html-keyboard-response,194,1315847,0.0-15.0-2.16,38529,List1B,white,man,,,,null,,,,
6465,,,survey-text,195,1322312,0.0-15.0-3.16,38529,List1B,white,man,,,,,"{""Q0"":""kate is touching mike""}","<img src=""stim_listB/touch1.gif""style=""height:400px;""></stim_listB>",is touching,
null,"<div style=""font-size:60px;"">+</div>",,html-keyboard-response,196,1322813,0.0-15.0-0.17,38529,List1B,white,man,,,,null,,,,
null,"<img src=""stim_listB/shout5.gif""style=""height:400px;""></stim_listB>",,html-keyboard-response,197,1324815,0.0-15.0-1.17,38529,List1B,white,man,,,,null,,,,
null,is shouting at,,html-keyboard-response,198,1326816,0.0-15.0-2.17,38529,List1B,white,man,,,,null,,,,
8368,,,survey-text,199,1335184,0.0-15.0-3.17,38529,List1B,white,man,,,,,"{""Q0"":""luke is shouting at fred""}","<img src=""stim_listB/shout5.gif""style=""height:400px;""></stim_listB>",is shouting at,
null,"<div style=""font-size:60px;"">+</div>",,html-keyboard-response,200,1335686,0.0-15.0-0.18,38529,List1B,white,man,,,,null,,,,
null,"<img src=""stim_listB/flirt7.gif""style=""height:400px;""></stim_listB>",,html-keyboard-response,201,1337688,0.0-15.0-1.18,38529,List1B,white,man,,,,null,,,,
null,is flirting with,,html-keyboard-response,202,1339689,0.0-15.0-2.18,38529,List1B,white,man,,,,null,,,,
8130,,,survey-text,203,1347820,0.0-15.0-3.18,38529,List1B,white,man,,,,,"{""Q0"":""jane is flirting with beth""}","<img src=""stim_listB/flirt7.gif""style=""height:400px;""></stim_listB>",is flirting with,
null,"<div style=""font-size:60px;"">+</div>",,html-keyboard-response,204,1348321,0.0-15.0-0.19,38529,List1B,white,man,,,,null,,,,
null,"<img src=""stim_listB/play7.gif""style=""height:400px;""></stim_listB>",,html-keyboard-response,205,1350323,0.0-15.0-1.19,38529,List1B,white,man,,,,null,,,,
null,is playing with,,html-keyboard-response,206,1352324,0.0-15.0-2.19,38529,List1B,white,man,,,,null,,,,
6641,,,survey-text,207,1358965,0.0-15.0-3.19,38529,List1B,white,man,,,,,"{""Q0"":""jane is playing with kate""}","<img src=""stim_listB/play7.gif""style=""height:400px;""></stim_listB>",is playing with,
8997,"<img src='img/portrait_matrix_list1.jpg' style='width:900px;height:500px;''></img><p>If you have memorised all the portraits and names and are ready to start, press Continue.</p><p><strong>Please note: Your memory of these faces will be tested 4 times during this experiment.</strong></p>",0,html-button-response,208,1367963,0.0-16.0-0.0,38529,List1B,white,man,,,,,,,,
2151,"<img src=""portrait/BM2.jpg""style=""height:400px;""></img>",5,html-button-response,209,1371115,0.0-16.0-1.0,38529,List1B,white,man,,TRUE,5,,,,,
null,CORRECT,,html-keyboard-response,210,1372617,0.0-16.0-2.0-0.0,38529,List1B,white,man,,,,null,,,,
1611,"<img src=""portrait/WW1.jpg""style=""height:400px;""></img>",1,html-button-response,211,1374228,0.0-16.0-4.0,38529,List1B,white,man,,TRUE,1,,,,,
null,CORRECT,,html-keyboard-response,212,1375730,0.0-16.0-5.0-0.0,38529,List1B,white,man,,,,null,,,,
2814,"<img src=""portrait/WM1.jpg""style=""height:400px;""></img>",6,html-button-response,213,1378545,0.0-16.0-7.0,38529,List1B,white,man,,TRUE,6,,,,,
null,CORRECT,,html-keyboard-response,214,1380047,0.0-16.0-8.0-0.0,38529,List1B,white,man,,,,null,,,,
2839,"<img src=""portrait/BW2.jpg""style=""height:400px;""></img>",2,html-button-response,215,1382887,0.0-16.0-10.0,38529,List1B,white,man,,TRUE,2,,,,,
null,CORRECT,,html-keyboard-response,216,1384389,0.0-16.0-11.0-0.0,38529,List1B,white,man,,,,null,,,,
1871,"<img src=""portrait/BW1.jpg""style=""height:400px;""></img>",0,html-button-response,217,1386262,0.0-16.0-13.0,38529,List1B,white,man,,TRUE,0,,,,,
null,CORRECT,,html-keyboard-response,218,1387764,0.0-16.0-14.0-0.0,38529,List1B,white,man,,,,null,,,,
2055,"<img src=""portrait/BM1.jpg""style=""height:400px;""></img>",4,html-button-response,219,1389819,0.0-16.0-16.0,38529,List1B,white,man,,TRUE,4,,,,,
null,CORRECT,,html-keyboard-response,220,1391321,0.0-16.0-17.0-0.0,38529,List1B,white,man,,,,null,,,,
1596,"<img src=""portrait/WW2.jpg""style=""height:400px;""></img>",3,html-button-response,221,1392917,0.0-16.0-19.0,38529,List1B,white,man,,TRUE,3,,,,,
null,CORRECT,,html-keyboard-response,222,1394420,0.0-16.0-20.0-0.0,38529,List1B,white,man,,,,null,,,,
1654,"<img src=""portrait/WM2.jpg""style=""height:400px;""></img>",7,html-button-response,223,1396076,0.0-16.0-22.0,38529,List1B,white,man,,TRUE,7,,,,,
null,CORRECT,,html-keyboard-response,224,1397579,0.0-16.0-23.0-0.0,38529,List1B,white,man,,,,null,,,,
1845,<p>You got 8 out of 8 right first time. Press Continue.</p>,0,html-button-response,225,1399425,0.0-16.0-25.0,38529,List1B,white,man,,,,,,,,
null,"<div style=""font-size:60px;"">+</div>",,html-keyboard-response,226,1400928,0.0-17.0-0.0,38529,List1B,white,man,,,,null,,,,
null,"<img src=""stim_listB/flirt1.gif""style=""height:400px;""></stim_listB>",,html-keyboard-response,227,1402930,0.0-17.0-1.0,38529,List1B,white,man,,,,null,,,,
null,is flirting with,,html-keyboard-response,228,1404932,0.0-17.0-2.0,38529,List1B,white,man,,,,null,,,,
5000,,,survey-text,229,1409932,0.0-17.0-3.0,38529,List1B,white,man,,,,,"{""Q0"":""kate is flirting with fred""}","<img src=""stim_listB/flirt1.gif""style=""height:400px;""></stim_listB>",is flirting with,
null,"<div style=""font-size:60px;"">+</div>",,html-keyboard-response,230,1410434,0.0-17.0-0.1,38529,List1B,white,man,,,,null,,,,
null,"<img src=""stim_listB/kiss3.gif""style=""height:400px;""></stim_listB>",,html-keyboard-response,231,1412437,0.0-17.0-1.1,38529,List1B,white,man,,,,null,,,,
null,is kissing,,html-keyboard-response,232,1414439,0.0-17.0-2.1,38529,List1B,white,man,,,,null,,,,
7543,,,survey-text,233,1421983,0.0-17.0-3.1,38529,List1B,white,man,,,,,"{""Q0"":""ruth is kissing luke""}","<img src=""stim_listB/kiss3.gif""style=""height:400px;""></stim_listB>",is kissing,
null,"<div style=""font-size:60px;"">+</div>",,html-keyboard-response,234,1422484,0.0-17.0-0.2,38529,List1B,white,man,,,,null,,,,
null,"<img src=""stim_listB/talk1.gif""style=""height:400px;""></stim_listB>",,html-keyboard-response,235,1424485,0.0-17.0-1.2,38529,List1B,white,man,,,,null,,,,
null,is talking to,,html-keyboard-response,236,1426487,0.0-17.0-2.2,38529,List1B,white,man,,,,null,,,,
7614,,,survey-text,237,1434103,0.0-17.0-3.2,38529,List1B,white,man,,,,,"{""Q0"":""kate is talking to fred""}","<img src=""stim_listB/talk1.gif""style=""height:400px;""></stim_listB>",is talking to,
null,"<div style=""font-size:60px;"">+</div>",,html-keyboard-response,238,1434605,0.0-17.0-0.3,38529,List1B,white,man,,,,null,,,,
null,"<img src=""stim_listB/shout2.gif""style=""height:400px;""></stim_listB>",,html-keyboard-response,239,1436606,0.0-17.0-1.3,38529,List1B,white,man,,,,null,,,,
null,are shouting at each other,,html-keyboard-response,240,1438608,0.0-17.0-2.3,38529,List1B,white,man,,,,null,,,,
7438,,,survey-text,241,1446047,0.0-17.0-3.3,38529,List1B,white,man,,,,,"{""Q0"":""mike and kate are shouting at each other""}","<img src=""stim_listB/shout2.gif""style=""height:400px;""></stim_listB>",are shouting at each other,
null,"<div style=""font-size:60px;"">+</div>",,html-keyboard-response,242,1446548,0.0-17.0-0.4,38529,List1B,white,man,,,,null,,,,
null,"<img src=""stim_listB/talk3.gif""style=""height:400px;""></stim_listB>",,html-keyboard-response,243,1448549,0.0-17.0-1.4,38529,List1B,white,man,,,,null,,,,
null,is talking to,,html-keyboard-response,244,1450550,0.0-17.0-2.4,38529,List1B,white,man,,,,null,,,,
5864,,,survey-text,245,1456415,0.0-17.0-3.4,38529,List1B,white,man,,,,,"{""Q0"":""jane is talking to luke""}","<img src=""stim_listB/talk3.gif""style=""height:400px;""></stim_listB>",is talking to,
null,"<div style=""font-size:60px;"">+</div>",,html-keyboard-response,246,1456917,0.0-17.0-0.5,38529,List1B,white,man,,,,null,,,,
null,"<img src=""stim_listB/play2.gif""style=""height:400px;""></stim_listB>",,html-keyboard-response,247,1458919,0.0-17.0-1.5,38529,List1B,white,man,,,,null,,,,
null,are playing with each other,,html-keyboard-response,248,1460920,0.0-17.0-2.5,38529,List1B,white,man,,,,null,,,,
9377,,,survey-text,249,1470297,0.0-17.0-3.5,38529,List1B,white,man,,,,,"{""Q0"":""fred and beth are playing with each other""}","<img src=""stim_listB/play2.gif""style=""height:400px;""></stim_listB>",are playing with each other,
null,"<div style=""font-size:60px;"">+</div>",,html-keyboard-response,250,1470799,0.0-17.0-0.6,38529,List1B,white,man,,,,null,,,,
null,"<img src=""stim_listB/argue2.gif""style=""height:400px;""></stim_listB>",,html-keyboard-response,251,1472802,0.0-17.0-1.6,38529,List1B,white,man,,,,null,,,,
null,are arguing with each other,,html-keyboard-response,252,1474804,0.0-17.0-2.6,38529,List1B,white,man,,,,null,,,,
7482,,,survey-text,253,1482288,0.0-17.0-3.6,38529,List1B,white,man,,,,,"{""Q0"":""fred and kate are arguing with each other""}","<img src=""stim_listB/argue2.gif""style=""height:400px;""></stim_listB>",are arguing with each other,
null,"<div style=""font-size:60px;"">+</div>",,html-keyboard-response,254,1482790,0.0-17.0-0.7,38529,List1B,white,man,,,,null,,,,
null,"<img src=""stim_listB/kiss8.gif""style=""height:400px;""></stim_listB>",,html-keyboard-response,255,1484792,0.0-17.0-1.7,38529,List1B,white,man,,,,null,,,,
null,are kissing each other,,html-keyboard-response,256,1486792,0.0-17.0-2.7,38529,List1B,white,man,,,,null,,,,
6200,,,survey-text,257,1492993,0.0-17.0-3.7,38529,List1B,white,man,,,,,"{""Q0"":""kate and jane are kissing each other""}","<img src=""stim_listB/kiss8.gif""style=""height:400px;""></stim_listB>",are kissing each other,
null,"<div style=""font-size:60px;"">+</div>",,html-keyboard-response,258,1493495,0.0-17.0-0.8,38529,List1B,white,man,,,,null,,,,
null,"<img src=""stim_listB/play1.gif""style=""height:400px;""></stim_listB>",,html-keyboard-response,259,1495496,0.0-17.0-1.8,38529,List1B,white,man,,,,null,,,,
null,is playing with,,html-keyboard-response,260,1497498,0.0-17.0-2.8,38529,List1B,white,man,,,,null,,,,
4484,,,survey-text,261,1501983,0.0-17.0-3.8,38529,List1B,white,man,,,,,"{""Q0"":""kate is playing with mike""}","<img src=""stim_listB/play1.gif""style=""height:400px;""></stim_listB>",is playing with,
null,"<div style=""font-size:60px;"">+</div>",,html-keyboard-response,262,1502484,0.0-17.0-0.9,38529,List1B,white,man,,,,null,,,,
null,"<img src=""stim_listB/dance5.gif""style=""height:400px;""></stim_listB>",,html-keyboard-response,263,1504486,0.0-17.0-1.9,38529,List1B,white,man,,,,null,,,,
null,is dancing with,,html-keyboard-response,264,1506487,0.0-17.0-2.9,38529,List1B,white,man,,,,null,,,,
6001,,,survey-text,265,1512489,0.0-17.0-3.9,38529,List1B,white,man,,,,,"{""Q0"":""dave is dancing with fred""}","<img src=""stim_listB/dance5.gif""style=""height:400px;""></stim_listB>",is dancing with,
null,"<div style=""font-size:60px;"">+</div>",,html-keyboard-response,266,1512990,0.0-17.0-0.10,38529,List1B,white,man,,,,null,,,,
null,"<img src=""stim_listB/argue5.gif""style=""height:400px;""></stim_listB>",,html-keyboard-response,267,1514991,0.0-17.0-1.10,38529,List1B,white,man,,,,null,,,,
null,is arguing with,,html-keyboard-response,268,1516992,0.0-17.0-2.10,38529,List1B,white,man,,,,null,,,,
5719,,,survey-text,269,1522711,0.0-17.0-3.10,38529,List1B,white,man,,,,,"{""Q0"":""luke is arguing with mike""}","<img src=""stim_listB/argue5.gif""style=""height:400px;""></stim_listB>",is arguing with,
null,"<div style=""font-size:60px;"">+</div>",,html-keyboard-response,270,1523214,0.0-17.0-0.11,38529,List1B,white,man,,,,null,,,,
null,"<img src=""stim_listB/argue3.gif""style=""height:400px;""></stim_listB>",,html-keyboard-response,271,1525216,0.0-17.0-1.11,38529,List1B,white,man,,,,null,,,,
null,is arguing with,,html-keyboard-response,272,1527217,0.0-17.0-2.11,38529,List1B,white,man,,,,null,,,,
7299,,,survey-text,273,1534517,0.0-17.0-3.11,38529,List1B,white,man,,,,,"{""Q0"":""dave is arguing with ruth""}","<img src=""stim_listB/argue3.gif""style=""height:400px;""></stim_listB>",is arguing with,
null,"<div style=""font-size:60px;"">+</div>",,html-keyboard-response,274,1535018,0.0-17.0-0.12,38529,List1B,white,man,,,,null,,,,
null,"<img src=""stim_listB/kiss1.gif""style=""height:400px;""></stim_listB>",,html-keyboard-response,275,1537020,0.0-17.0-1.12,38529,List1B,white,man,,,,null,,,,
null,is kissing,,html-keyboard-response,276,1539022,0.0-17.0-2.12,38529,List1B,white,man,,,,null,,,,
6114,,,survey-text,277,1545137,0.0-17.0-3.12,38529,List1B,white,man,,,,,"{""Q0"":""fred is kissing beth""}","<img src=""stim_listB/kiss1.gif""style=""height:400px;""></stim_listB>",is kissing,
null,"<div style=""font-size:60px;"">+</div>",,html-keyboard-response,278,1545639,0.0-17.0-0.13,38529,List1B,white,man,,,,null,,,,
null,"<img src=""stim_listB/marry4.gif""style=""height:400px;""></stim_listB>",,html-keyboard-response,279,1547641,0.0-17.0-1.13,38529,List1B,white,man,,,,null,,,,
null,are marrying each other,,html-keyboard-response,280,1549643,0.0-17.0-2.13,38529,List1B,white,man,,,,null,,,,
11408,,,survey-text,281,1561053,0.0-17.0-3.13,38529,List1B,white,man,,,,,"{""Q0"":""luke and jane are marrying each other""}","<img src=""stim_listB/marry4.gif""style=""height:400px;""></stim_listB>",are marrying each other,
null,"<div style=""font-size:60px;"">+</div>",,html-keyboard-response,282,1561554,0.0-17.0-0.14,38529,List1B,white,man,,,,null,,,,
null,"<img src=""stim_listB/talk6.gif""style=""height:400px;""></stim_listB>",,html-keyboard-response,283,1563556,0.0-17.0-1.14,38529,List1B,white,man,,,,null,,,,
null,are talking to each other,,html-keyboard-response,284,1565557,0.0-17.0-2.14,38529,List1B,white,man,,,,null,,,,
9491,,,survey-text,285,1575049,0.0-17.0-3.14,38529,List1B,white,man,,,,,"{""Q0"":""mike and luke are talking to each other""}","<img src=""stim_listB/talk6.gif""style=""height:400px;""></stim_listB>",are talking to each other,
null,"<div style=""font-size:60px;"">+</div>",,html-keyboard-response,286,1575550,0.0-17.0-0.15,38529,List1B,white,man,,,,null,,,,
null,"<img src=""stim_listB/fight5.gif""style=""height:400px;""></stim_listB>",,html-keyboard-response,287,1577551,0.0-17.0-1.15,38529,List1B,white,man,,,,null,,,,
null,is fighting,,html-keyboard-response,288,1579553,0.0-17.0-2.15,38529,List1B,white,man,,,,null,,,,
6731,,,survey-text,289,1586285,0.0-17.0-3.15,38529,List1B,white,man,,,,,"{""Q0"":""dave is fighting mike""}","<img src=""stim_listB/fight5.gif""style=""height:400px;""></stim_listB>",is fighting,
null,"<div style=""font-size:60px;"">+</div>",,html-keyboard-response,290,1586787,0.0-17.0-0.16,38529,List1B,white,man,,,,null,,,,
null,"<img src=""stim_listB/flirt8.gif""style=""height:400px;""></stim_listB>",,html-keyboard-response,291,1588789,0.0-17.0-1.16,38529,List1B,white,man,,,,null,,,,
null,are flirting with each other,,html-keyboard-response,292,1590790,0.0-17.0-2.16,38529,List1B,white,man,,,,null,,,,
12462,,,survey-text,293,1603253,0.0-17.0-3.16,38529,List1B,white,man,,,,,"{""Q0"":""kate and ruth are flirting with each other""}","<img src=""stim_listB/flirt8.gif""style=""height:400px;""></stim_listB>",are flirting with each other,
null,"<div style=""font-size:60px;"">+</div>",,html-keyboard-response,294,1603754,0.0-17.0-0.17,38529,List1B,white,man,,,,null,,,,
null,"<img src=""stim_listB/dance6.gif""style=""height:400px;""></stim_listB>",,html-keyboard-response,295,1605755,0.0-17.0-1.17,38529,List1B,white,man,,,,null,,,,
null,are dancing with each other,,html-keyboard-response,296,1607756,0.0-17.0-2.17,38529,List1B,white,man,,,,null,,,,
9705,,,survey-text,297,1617463,0.0-17.0-3.17,38529,List1B,white,man,,,,,"{""Q0"":""mike and luke are dancing with each other""}","<img src=""stim_listB/dance6.gif""style=""height:400px;""></stim_listB>",are dancing with each other,
null,"<div style=""font-size:60px;"">+</div>",,html-keyboard-response,298,1617965,0.0-17.0-0.18,38529,List1B,white,man,,,,null,,,,
null,"<img src=""stim_listB/marry3.gif""style=""height:400px;""></stim_listB>",,html-keyboard-response,299,1619966,0.0-17.0-1.18,38529,List1B,white,man,,,,null,,,,
null,is marrying,,html-keyboard-response,300,1621967,0.0-17.0-2.18,38529,List1B,white,man,,,,null,,,,
7245,,,survey-text,301,1629212,0.0-17.0-3.18,38529,List1B,white,man,,,,,"{""Q0"":""ruth is marrying dave""}","<img src=""stim_listB/marry3.gif""style=""height:400px;""></stim_listB>",is marrying,
null,"<div style=""font-size:60px;"">+</div>",,html-keyboard-response,302,1629714,0.0-17.0-0.19,38529,List1B,white,man,,,,null,,,,
null,"<img src=""stim_listB/kiss4.gif""style=""height:400px;""></stim_listB>",,html-keyboard-response,303,1631716,0.0-17.0-1.19,38529,List1B,white,man,,,,null,,,,
null,are kissing each other,,html-keyboard-response,304,1633718,0.0-17.0-2.19,38529,List1B,white,man,,,,null,,,,
8176,,,survey-text,305,1641894,0.0-17.0-3.19,38529,List1B,white,man,,,,,"{""Q0"":""dave and jane are kissing each other""}","<img src=""stim_listB/kiss4.gif""style=""height:400px;""></stim_listB>",are kissing each other,
4166,"<img src='img/portrait_matrix_list1.jpg' style='width:900px;height:500px;''></img><p>If you have memorised all the portraits and names and are ready to start, press Continue.</p><p><strong>Please note: Your memory of these faces will be tested 4 times during this experiment.</strong></p>",0,html-button-response,306,1646061,0.0-18.0-0.0,38529,List1B,white,man,,,,,,,,
2495,"<img src=""portrait/BW1.jpg""style=""height:400px;""></img>",0,html-button-response,307,1649557,0.0-18.0-1.0,38529,List1B,white,man,,TRUE,0,,,,,
null,CORRECT,,html-keyboard-response,308,1651059,0.0-18.0-2.0-0.0,38529,List1B,white,man,,,,null,,,,
1984,"<img src=""portrait/WM2.jpg""style=""height:400px;""></img>",7,html-button-response,309,1653045,0.0-18.0-4.0,38529,List1B,white,man,,TRUE,7,,,,,
null,CORRECT,,html-keyboard-response,310,1654548,0.0-18.0-5.0-0.0,38529,List1B,white,man,,,,null,,,,
1432,"<img src=""portrait/WW2.jpg""style=""height:400px;""></img>",3,html-button-response,311,1655980,0.0-18.0-7.0,38529,List1B,white,man,,TRUE,3,,,,,
null,CORRECT,,html-keyboard-response,312,1657482,0.0-18.0-8.0-0.0,38529,List1B,white,man,,,,null,,,,
1941,"<img src=""portrait/BM2.jpg""style=""height:400px;""></img>",5,html-button-response,313,1659424,0.0-18.0-10.0,38529,List1B,white,man,,TRUE,5,,,,,
null,CORRECT,,html-keyboard-response,314,1660927,0.0-18.0-11.0-0.0,38529,List1B,white,man,,,,null,,,,
2008,"<img src=""portrait/WM1.jpg""style=""height:400px;""></img>",6,html-button-response,315,1662936,0.0-18.0-13.0,38529,List1B,white,man,,TRUE,6,,,,,
null,CORRECT,,html-keyboard-response,316,1664439,0.0-18.0-14.0-0.0,38529,List1B,white,man,,,,null,,,,
3898,"<img src=""portrait/BW2.jpg""style=""height:400px;""></img>",2,html-button-response,317,1668338,0.0-18.0-16.0,38529,List1B,white,man,,TRUE,2,,,,,
null,CORRECT,,html-keyboard-response,318,1669841,0.0-18.0-17.0-0.0,38529,List1B,white,man,,,,null,,,,
1615,"<img src=""portrait/BM1.jpg""style=""height:400px;""></img>",4,html-button-response,319,1671456,0.0-18.0-19.0,38529,List1B,white,man,,TRUE,4,,,,,
null,CORRECT,,html-keyboard-response,320,1672959,0.0-18.0-20.0-0.0,38529,List1B,white,man,,,,null,,,,
1648,"<img src=""portrait/WW1.jpg""style=""height:400px;""></img>",1,html-button-response,321,1674608,0.0-18.0-22.0,38529,List1B,white,man,,TRUE,1,,,,,
null,CORRECT,,html-keyboard-response,322,1676109,0.0-18.0-23.0-0.0,38529,List1B,white,man,,,,null,,,,
5659,<p>You got 8 out of 8 right first time. Press Continue.</p>,0,html-button-response,323,1681770,0.0-18.0-25.0,38529,List1B,white,man,,,,,,,,
null,"<div style=""font-size:60px;"">+</div>",,html-keyboard-response,324,1683272,0.0-19.0-0.0,38529,List1B,white,man,,,,null,,,,
null,"<img src=""stim_listB/fight1.gif""style=""height:400px;""></stim_listB>",,html-keyboard-response,325,1685274,0.0-19.0-1.0,38529,List1B,white,man,,,,null,,,,
null,is fighting,,html-keyboard-response,326,1687275,0.0-19.0-2.0,38529,List1B,white,man,,,,null,,,,
5255,,,survey-text,327,1692530,0.0-19.0-3.0,38529,List1B,white,man,,,,,"{""Q0"":""kate is fighting mike""}","<img src=""stim_listB/fight1.gif""style=""height:400px;""></stim_listB>",is fighting,
null,"<div style=""font-size:60px;"">+</div>",,html-keyboard-response,328,1693031,0.0-19.0-0.1,38529,List1B,white,man,,,,null,,,,
null,"<img src=""stim_listB/argue8.gif""style=""height:400px;""></stim_listB>",,html-keyboard-response,329,1695034,0.0-19.0-1.1,38529,List1B,white,man,,,,null,,,,
null,are arguing with each other,,html-keyboard-response,330,1697034,0.0-19.0-2.1,38529,List1B,white,man,,,,null,,,,
7791,,,survey-text,331,1704826,0.0-19.0-3.1,38529,List1B,white,man,,,,,"{""Q0"":""beth and jane are arguing with each other""}","<img src=""stim_listB/argue8.gif""style=""height:400px;""></stim_listB>",are arguing with each other,
null,"<div style=""font-size:60px;"">+</div>",,html-keyboard-response,332,1705328,0.0-19.0-0.2,38529,List1B,white,man,,,,null,,,,
null,"<img src=""stim_listB/kiss7.gif""style=""height:400px;""></stim_listB>",,html-keyboard-response,333,1707330,0.0-19.0-1.2,38529,List1B,white,man,,,,null,,,,
null,is kissing,,html-keyboard-response,334,1709331,0.0-19.0-2.2,38529,List1B,white,man,,,,null,,,,
5976,,,survey-text,335,1715308,0.0-19.0-3.2,38529,List1B,white,man,,,,,"{""Q0"":""ruth is kissing beth""}","<img src=""stim_listB/kiss7.gif""style=""height:400px;""></stim_listB>",is kissing,
null,"<div style=""font-size:60px;"">+</div>",,html-keyboard-response,336,1715810,0.0-19.0-0.3,38529,List1B,white,man,,,,null,,,,
null,"<img src=""stim_listB/touch3.gif""style=""height:400px;""></stim_listB>",,html-keyboard-response,337,1717811,0.0-19.0-1.3,38529,List1B,white,man,,,,null,,,,
null,is touching,,html-keyboard-response,338,1719813,0.0-19.0-2.3,38529,List1B,white,man,,,,null,,,,
5756,,,survey-text,339,1725569,0.0-19.0-3.3,38529,List1B,white,man,,,,,"{""Q0"":""jane is touching dave""}","<img src=""stim_listB/touch3.gif""style=""height:400px;""></stim_listB>",is touching,
null,"<div style=""font-size:60px;"">+</div>",,html-keyboard-response,340,1726071,0.0-19.0-0.4,38529,List1B,white,man,,,,null,,,,
null,"<img src=""stim_listB/fight8.gif""style=""height:400px;""></stim_listB>",,html-keyboard-response,341,1728072,0.0-19.0-1.4,38529,List1B,white,man,,,,null,,,,
null,are fighting each other,,html-keyboard-response,342,1730073,0.0-19.0-2.4,38529,List1B,white,man,,,,null,,,,
10150,,,survey-text,343,1740223,0.0-19.0-3.4,38529,List1B,white,man,,,,,"{""Q0"":""beth and ruth are fighting each other""}","<img src=""stim_listB/fight8.gif""style=""height:400px;""></stim_listB>",are fighting each other,
null,"<div style=""font-size:60px;"">+</div>",,html-keyboard-response,344,1740724,0.0-19.0-0.5,38529,List1B,white,man,,,,null,,,,
null,"<img src=""stim_listB/touch2.gif""style=""height:400px;""></stim_listB>",,html-keyboard-response,345,1742725,0.0-19.0-1.5,38529,List1B,white,man,,,,null,,,,
null,are touching each other,,html-keyboard-response,346,1744726,0.0-19.0-2.5,38529,List1B,white,man,,,,null,,,,
7254,,,survey-text,347,1751982,0.0-19.0-3.5,38529,List1B,white,man,,,,,"{""Q0"":""dave and beth are touching each other""}","<img src=""stim_listB/touch2.gif""style=""height:400px;""></stim_listB>",are touching each other,
null,"<div style=""font-size:60px;"">+</div>",,html-keyboard-response,348,1752483,0.0-19.0-0.6,38529,List1B,white,man,,,,null,,,,
null,"<img src=""stim_listB/play3.gif""style=""height:400px;""></stim_listB>",,html-keyboard-response,349,1754485,0.0-19.0-1.6,38529,List1B,white,man,,,,null,,,,
null,is playing with,,html-keyboard-response,350,1756486,0.0-19.0-2.6,38529,List1B,white,man,,,,null,,,,
7860,,,survey-text,351,1764347,0.0-19.0-3.6,38529,List1B,white,man,,,,,"{""Q0"":""jane is playing with dave""}","<img src=""stim_listB/play3.gif""style=""height:400px;""></stim_listB>",is playing with,
null,"<div style=""font-size:60px;"">+</div>",,html-keyboard-response,352,1764849,0.0-19.0-0.7,38529,List1B,white,man,,,,null,,,,
null,"<img src=""stim_listB/shout8.gif""style=""height:400px;""></stim_listB>",,html-keyboard-response,353,1766850,0.0-19.0-1.7,38529,List1B,white,man,,,,null,,,,
null,are shouting at each other,,html-keyboard-response,354,1768852,0.0-19.0-2.7,38529,List1B,white,man,,,,null,,,,
8651,,,survey-text,355,1777503,0.0-19.0-3.7,38529,List1B,white,man,,,,,"{""Q0"":""kate and jane are shouting at each other""}","<img src=""stim_listB/shout8.gif""style=""height:400px;""></stim_listB>",are shouting at each other,
null,"<div style=""font-size:60px;"">+</div>",,html-keyboard-response,356,1778005,0.0-19.0-0.8,38529,List1B,white,man,,,,null,,,,
null,"<img src=""stim_listB/talk4.gif""style=""height:400px;""></stim_listB>",,html-keyboard-response,357,1780007,0.0-19.0-1.8,38529,List1B,white,man,,,,null,,,,
null,are talking to each other,,html-keyboard-response,358,1782008,0.0-19.0-2.8,38529,List1B,white,man,,,,null,,,,
7629,,,survey-text,359,1789637,0.0-19.0-3.8,38529,List1B,white,man,,,,,"{""Q0"":""dave and ruth are talking to each other""}","<img src=""stim_listB/talk4.gif""style=""height:400px;""></stim_listB>",are talking to each other,
null,"<div style=""font-size:60px;"">+</div>",,html-keyboard-response,360,1790138,0.0-19.0-0.9,38529,List1B,white,man,,,,null,,,,
null,"<img src=""stim_listB/shout3.gif""style=""height:400px;""></stim_listB>",,html-keyboard-response,361,1792139,0.0-19.0-1.9,38529,List1B,white,man,,,,null,,,,
null,is shouting at,,html-keyboard-response,362,1794141,0.0-19.0-2.9,38529,List1B,white,man,,,,null,,,,
9723,,,survey-text,363,1803865,0.0-19.0-3.9,38529,List1B,white,man,,,,,"{""Q0"":""ruth is shouting at luke""}","<img src=""stim_listB/shout3.gif""style=""height:400px;""></stim_listB>",is shouting at,
null,"<div style=""font-size:60px;"">+</div>",,html-keyboard-response,364,1804366,0.0-19.0-0.10,38529,List1B,white,man,,,,null,,,,
null,"<img src=""stim_listB/play8.gif""style=""height:400px;""></stim_listB>",,html-keyboard-response,365,1806369,0.0-19.0-1.10,38529,List1B,white,man,,,,null,,,,
null,are playing with each other,,html-keyboard-response,366,1808371,0.0-19.0-2.10,38529,List1B,white,man,,,,null,,,,
7512,,,survey-text,367,1815884,0.0-19.0-3.10,38529,List1B,white,man,,,,,"{""Q0"":""beth and ruth are playing with each other""}","<img src=""stim_listB/play8.gif""style=""height:400px;""></stim_listB>",are playing with each other,
null,"<div style=""font-size:60px;"">+</div>",,html-keyboard-response,368,1816385,0.0-19.0-0.11,38529,List1B,white,man,,,,null,,,,
null,"<img src=""stim_listB/fight7.gif""style=""height:400px;""></stim_listB>",,html-keyboard-response,369,1818387,0.0-19.0-1.11,38529,List1B,white,man,,,,null,,,,
null,is fighting,,html-keyboard-response,370,1820388,0.0-19.0-2.11,38529,List1B,white,man,,,,null,,,,
5576,,,survey-text,371,1825966,0.0-19.0-3.11,38529,List1B,white,man,,,,,"{""Q0"":""jane is fighting kate""}","<img src=""stim_listB/fight7.gif""style=""height:400px;""></stim_listB>",is fighting,
null,"<div style=""font-size:60px;"">+</div>",,html-keyboard-response,372,1826467,0.0-19.0-0.12,38529,List1B,white,man,,,,null,,,,
null,"<img src=""stim_listB/argue4.gif""style=""height:400px;""></stim_listB>",,html-keyboard-response,373,1828469,0.0-19.0-1.12,38529,List1B,white,man,,,,null,,,,
null,are arguing with each other,,html-keyboard-response,374,1830470,0.0-19.0-2.12,38529,List1B,white,man,,,,null,,,,
7254,,,survey-text,375,1837725,0.0-19.0-3.12,38529,List1B,white,man,,,,,"{""Q0"":""luke and jane are arguing with each other""}","<img src=""stim_listB/argue4.gif""style=""height:400px;""></stim_listB>",are arguing with each other,
null,"<div style=""font-size:60px;"">+</div>",,html-keyboard-response,376,1838226,0.0-19.0-0.13,38529,List1B,white,man,,,,null,,,,
null,"<img src=""stim_listB/argue1.gif""style=""height:400px;""></stim_listB>",,html-keyboard-response,377,1840228,0.0-19.0-1.13,38529,List1B,white,man,,,,null,,,,
null,is arguing with,,html-keyboard-response,378,1842228,0.0-19.0-2.13,38529,List1B,white,man,,,,null,,,,
8966,,,survey-text,379,1851195,0.0-19.0-3.13,38529,List1B,white,man,,,,,"{""Q0"":""beth is arguing with mike""}","<img src=""stim_listB/argue1.gif""style=""height:400px;""></stim_listB>",is arguing with,
null,"<div style=""font-size:60px;"">+</div>",,html-keyboard-response,380,1851697,0.0-19.0-0.14,38529,List1B,white,man,,,,null,,,,
null,"<img src=""stim_listB/dance7.gif""style=""height:400px;""></stim_listB>",,html-keyboard-response,381,1853700,0.0-19.0-1.14,38529,List1B,white,man,,,,null,,,,
null,is dancing with,,html-keyboard-response,382,1855702,0.0-19.0-2.14,38529,List1B,white,man,,,,null,,,,
7735,,,survey-text,383,1863437,0.0-19.0-3.14,38529,List1B,white,man,,,,,"{""Q0"":""beth is dancing with jane""}","<img src=""stim_listB/dance7.gif""style=""height:400px;""></stim_listB>",is dancing with,
null,"<div style=""font-size:60px;"">+</div>",,html-keyboard-response,384,1863938,0.0-19.0-0.15,38529,List1B,white,man,,,,null,,,,
null,"<img src=""stim_listB/dance3.gif""style=""height:400px;""></stim_listB>",,html-keyboard-response,385,1865939,0.0-19.0-1.15,38529,List1B,white,man,,,,null,,,,
null,is dancing with,,html-keyboard-response,386,1867941,0.0-19.0-2.15,38529,List1B,white,man,,,,null,,,,
6578,,,survey-text,387,1874520,0.0-19.0-3.15,38529,List1B,white,man,,,,,"{""Q0"":""jane is dancing with luke""}","<img src=""stim_listB/dance3.gif""style=""height:400px;""></stim_listB>",is dancing with,
null,"<div style=""font-size:60px;"">+</div>",,html-keyboard-response,388,1875021,0.0-19.0-0.16,38529,List1B,white,man,,,,null,,,,
null,"<img src=""stim_listB/kiss5.gif""style=""height:400px;""></stim_listB>",,html-keyboard-response,389,1877022,0.0-19.0-1.16,38529,List1B,white,man,,,,null,,,,
null,is kissing,,html-keyboard-response,390,1879024,0.0-19.0-2.16,38529,List1B,white,man,,,,null,,,,
5703,,,survey-text,391,1884727,0.0-19.0-3.16,38529,List1B,white,man,,,,,"{""Q0"":""luke is kissing fred""}","<img src=""stim_listB/kiss5.gif""style=""height:400px;""></stim_listB>",is kissing,
null,"<div style=""font-size:60px;"">+</div>",,html-keyboard-response,392,1885229,0.0-19.0-0.17,38529,List1B,white,man,,,,null,,,,
null,"<img src=""stim_listB/fight6.gif""style=""height:400px;""></stim_listB>",,html-keyboard-response,393,1887230,0.0-19.0-1.17,38529,List1B,white,man,,,,null,,,,
null,are fighting each other,,html-keyboard-response,394,1889231,0.0-19.0-2.17,38529,List1B,white,man,,,,null,,,,
8297,,,survey-text,395,1897529,0.0-19.0-3.17,38529,List1B,white,man,,,,,"{""Q0"":""fred and luke are fighting each other""}","<img src=""stim_listB/fight6.gif""style=""height:400px;""></stim_listB>",are fighting each other,
null,"<div style=""font-size:60px;"">+</div>",,html-keyboard-response,396,1898030,0.0-19.0-0.18,38529,List1B,white,man,,,,null,,,,
null,"<img src=""stim_listB/flirt4.gif""style=""height:400px;""></stim_listB>",,html-keyboard-response,397,1900032,0.0-19.0-1.18,38529,List1B,white,man,,,,null,,,,
null,are flirting with each other,,html-keyboard-response,398,1902032,0.0-19.0-2.18,38529,List1B,white,man,,,,null,,,,
19502,,,survey-text,399,1921535,0.0-19.0-3.18,38529,List1B,white,man,,,,,"{""Q0"":""dave and ruth are flirting with each other""}","<img src=""stim_listB/flirt4.gif""style=""height:400px;""></stim_listB>",are flirting with each other,
null,"<div style=""font-size:60px;"">+</div>",,html-keyboard-response,400,1922036,0.0-19.0-0.19,38529,List1B,white,man,,,,null,,,,
null,"<img src=""stim_listB/shout1.gif""style=""height:400px;""></stim_listB>",,html-keyboard-response,401,1924040,0.0-19.0-1.19,38529,List1B,white,man,,,,null,,,,
null,is shouting at,,html-keyboard-response,402,1926042,0.0-19.0-2.19,38529,List1B,white,man,,,,null,,,,
7411,,,survey-text,403,1933455,0.0-19.0-3.19,38529,List1B,white,man,,,,,"{""Q0"":""fred is shouting at beth""}","<img src=""stim_listB/shout1.gif""style=""height:400px;""></stim_listB>",is shouting at,
2566,<p>Thank you for completing that task.</p><p>The final part of this session is a short questionnaire.</p><p>Press Continue.</p>,0,html-button-response,404,1936021,0.0-20.0,38529,List1B,white,man,,,,,,,,
19163,,,survey-text,405,1956187,0.0-21.0,38529,List1B,white,man,,,,,"{""Q0"":""34"",""Q1"":""English"",""Q2"":""English"",""Q3"":""Ireland"",""Q4"":""Irish"",""Q5"":""Male""}",,,demographics
10571,,,survey-likert,406,1966760,0.0-22.0,38529,List1B,white,man,,,,,"{""Q0"":4}",,,likert_ESS
11237,,,survey-likert,407,1977999,0.0-23.0,38529,List1B,white,man,,,,,"{""Q0"":4}",,,likert_NSSAL_Q1
4514,,,survey-likert,408,1982514,0.0-24.0,38529,List1B,white,man,,,,,"{""Q0"":4}",,,likert_NSSAL_Q2
4333,,,survey-likert,409,1986848,0.0-25.0,38529,List1B,white,man,,,,,"{""Q0"":4}",,,likert_CGRS_Q1
3741,,,survey-likert,410,1990591,0.0-26.0,38529,List1B,white,man,,,,,"{""Q0"":4}",,,likert_CGRS_Q2
2688,,,survey-likert,411,1993280,0.0-27.0,38529,List1B,white,man,,,,,"{""Q0"":4}",,,likert_CGRS_Q3
7715,,,survey-text,412,2000996,0.0-28.0,38529,List1B,white,man,,,,,"{""Q0"":""ccc""}",,,worker_id
63988,,,external-html,413,2065078,0.0-29.0,38529,List1B,white,man,debrief.html,,,,,,,
