rt,stimulus,button_pressed,trial_type,trial_index,time_elapsed,internal_node_id,subject,list,ppt_race,ppt_gender,url,first_guess,correct,key_press,responses,image_type,phrase_type,test_part
2125,Welcome to the experiment. Press Continue to begin.,0,html-button-response,0,2127,0.0-0.0,38654,List2A,white,woman,,,,,,,,
6261,,,external-html,1,9441,0.0-1.0,38654,List2A,white,woman,consent.html,,,,,,,
14631,"<p>On the next page, you will see portraits of 8 people and their names.</p><p>Your first task is to take a few minutes to memorise the names of these people.</p><p>You will have to recall their names during the rest of the experiment, so it is</p><p>essential that you try to memorise these people and their names as best as you can.</p><br><p><strong>You will then be tested on your memory of these names and portraits.</strong></p><br><p>The experiment will start after you have completed this memory test.</p><br><p>Ready?</p>",0,html-button-response,2,24073,0.0-2.0,38654,List2A,white,woman,,,,,,,,
39271,"<img src='img/portrait_matrix_list2.jpg' style='width:900px;height:500px;''></img><p>If you have memorised all the portraits and names and are ready to start, press Continue.</p><p><strong>Please note: Your memory of these faces will be tested 4 times during this experiment.</strong></p>",0,html-button-response,3,64350,0.0-3.0-0.0,38654,List2A,white,woman,,,,,,,,
1860,"<img src=""portrait/BM2.jpg""style=""height:400px;""></img>",5,html-button-response,4,67214,0.0-3.0-1.0,38654,List2A,white,woman,,TRUE,5,,,,,
null,CORRECT,,html-keyboard-response,5,68720,0.0-3.0-2.0-0.0,38654,List2A,white,woman,,,,null,,,,
2068,"<img src=""portrait/WM2.jpg""style=""height:400px;""></img>",4,html-button-response,6,70792,0.0-3.0-4.0,38654,List2A,white,woman,,TRUE,7,,,,,
8653,"<img src=""portrait/WM2.jpg""style=""height:400px;""></img>",7,html-button-response,7,80450,0.0-3.0-6.0-0.0,38654,List2A,white,woman,,FALSE,7,,,,,
null,CORRECT,,html-keyboard-response,8,81954,0.0-3.0-6.0-1.0-0.0,38654,List2A,white,woman,,,,null,,,,
1844,"<img src=""portrait/WW2.jpg""style=""height:400px;""></img>",3,html-button-response,9,83800,0.0-3.0-7.0,38654,List2A,white,woman,,TRUE,3,,,,,
null,CORRECT,,html-keyboard-response,10,85304,0.0-3.0-8.0-0.0,38654,List2A,white,woman,,,,null,,,,
2776,"<img src=""portrait/BM1.jpg""style=""height:400px;""></img>",4,html-button-response,11,88082,0.0-3.0-10.0,38654,List2A,white,woman,,TRUE,4,,,,,
null,CORRECT,,html-keyboard-response,12,89588,0.0-3.0-11.0-0.0,38654,List2A,white,woman,,,,null,,,,
2892,"<img src=""portrait/BW1.jpg""style=""height:400px;""></img>",0,html-button-response,13,92482,0.0-3.0-13.0,38654,List2A,white,woman,,TRUE,0,,,,,
null,CORRECT,,html-keyboard-response,14,93987,0.0-3.0-14.0-0.0,38654,List2A,white,woman,,,,null,,,,
2694,"<img src=""portrait/WM1.jpg""style=""height:400px;""></img>",6,html-button-response,15,96682,0.0-3.0-16.0,38654,List2A,white,woman,,TRUE,6,,,,,
null,CORRECT,,html-keyboard-response,16,98186,0.0-3.0-17.0-0.0,38654,List2A,white,woman,,,,null,,,,
2220,"<img src=""portrait/WW1.jpg""style=""height:400px;""></img>",1,html-button-response,17,100411,0.0-3.0-19.0,38654,List2A,white,woman,,TRUE,1,,,,,
null,CORRECT,,html-keyboard-response,18,101914,0.0-3.0-20.0-0.0,38654,List2A,white,woman,,,,null,,,,
4305,"<img src=""portrait/BW2.jpg""style=""height:400px;""></img>",2,html-button-response,19,106220,0.0-3.0-22.0,38654,List2A,white,woman,,TRUE,2,,,,,
null,CORRECT,,html-keyboard-response,20,107726,0.0-3.0-23.0-0.0,38654,List2A,white,woman,,,,null,,,,
1882,<p>You got 7 out of 8 right first time. Press Continue.</p>,0,html-button-response,21,109612,0.0-3.0-25.0,38654,List2A,white,woman,,,,,,,,
1966,"As you did not score 100%, the memory game will repeat. Press Continue.",0,html-button-response,22,112580,0.0-3.0-26.0-0.0,38654,List2A,white,woman,,,,,,,,
11091,"<img src='img/portrait_matrix_list2.jpg' style='width:900px;height:500px;''></img><p>If you have memorised all the portraits and names and are ready to start, press Continue.</p><p><strong>Please note: Your memory of these faces will be tested 4 times during this experiment.</strong></p>",0,html-button-response,23,124678,0.0-3.1-0.1,38654,List2A,white,woman,,,,,,,,
2133,"<img src=""portrait/BM2.jpg""style=""height:400px;""></img>",5,html-button-response,24,127814,0.0-3.1-1.1,38654,List2A,white,woman,,TRUE,5,,,,,
null,CORRECT,,html-keyboard-response,25,129320,0.0-3.1-2.1-0.1,38654,List2A,white,woman,,,,null,,,,
946,"<img src=""portrait/WM2.jpg""style=""height:400px;""></img>",7,html-button-response,26,130270,0.0-3.1-4.1,38654,List2A,white,woman,,TRUE,7,,,,,
null,CORRECT,,html-keyboard-response,27,131774,0.0-3.1-5.1-0.1,38654,List2A,white,woman,,,,null,,,,
1711,"<img src=""portrait/WW2.jpg""style=""height:400px;""></img>",3,html-button-response,28,133487,0.0-3.1-7.1,38654,List2A,white,woman,,TRUE,3,,,,,
null,CORRECT,,html-keyboard-response,29,134992,0.0-3.1-8.1-0.1,38654,List2A,white,woman,,,,null,,,,
2736,"<img src=""portrait/BM1.jpg""style=""height:400px;""></img>",4,html-button-response,30,137728,0.0-3.1-10.1,38654,List2A,white,woman,,TRUE,4,,,,,
null,CORRECT,,html-keyboard-response,31,139232,0.0-3.1-11.1-0.1,38654,List2A,white,woman,,,,null,,,,
6046,"<img src=""portrait/BW1.jpg""style=""height:400px;""></img>",0,html-button-response,32,145280,0.0-3.1-13.1,38654,List2A,white,woman,,TRUE,0,,,,,
null,CORRECT,,html-keyboard-response,33,146785,0.0-3.1-14.1-0.1,38654,List2A,white,woman,,,,null,,,,
3196,"<img src=""portrait/WM1.jpg""style=""height:400px;""></img>",6,html-button-response,34,149985,0.0-3.1-16.1,38654,List2A,white,woman,,TRUE,6,,,,,
null,CORRECT,,html-keyboard-response,35,151489,0.0-3.1-17.1-0.1,38654,List2A,white,woman,,,,null,,,,
1854,"<img src=""portrait/WW1.jpg""style=""height:400px;""></img>",1,html-button-response,36,153346,0.0-3.1-19.1,38654,List2A,white,woman,,TRUE,1,,,,,
null,CORRECT,,html-keyboard-response,37,154850,0.0-3.1-20.1-0.1,38654,List2A,white,woman,,,,null,,,,
3092,"<img src=""portrait/BW2.jpg""style=""height:400px;""></img>",2,html-button-response,38,157946,0.0-3.1-22.1,38654,List2A,white,woman,,TRUE,2,,,,,
null,CORRECT,,html-keyboard-response,39,159451,0.0-3.1-23.1-0.1,38654,List2A,white,woman,,,,null,,,,
7477,<p>You got 8 out of 8 right first time. Press Continue.</p>,0,html-button-response,40,166931,0.0-3.1-25.1,38654,List2A,white,woman,,,,,,,,
46112,"<p>In this experiment, you will view photographs of the people from the memory game interacting.</p><p>By using the <strong>exact</strong> phrase given <i>after</i> the photograph appears and recalling the correct names of the people in the photographs, form a sentence describing the interaction. You do not need to capitalise names.</p><p>Type your answer in the space provided. Please complete every sentence before moving onto the next trial.</p><p>You will only have a few seconds to memorise each given photograph and phrase before you can respond, so try your best to focus.</p><p>An example is given below. Press 'Continue' when you are ready.</p><img src='img/speaking_example.jpg' style='width:800px;height:460px;''></img>",0,html-button-response,41,214049,0.0-4.0,38654,List2A,white,woman,,,,,,,,
2982,"<p>Before the experiment starts, you will watch two example trials. Press 'Continue'.</p>",0,html-button-response,42,218033,0.0-5.0,38654,List2A,white,woman,,,,,,,,
null,<img src='img/meet_eg.gif' style='height:400px;''></img>,,html-keyboard-response,43,221039,0.0-6.0,38654,List2A,white,woman,,,,null,,,,
null,<p>is meeting</p>,,html-keyboard-response,44,223040,0.0-7.0,38654,List2A,white,woman,,,,null,,,,
4997,<p><b>Answer:</b> jane is meeting ruth</p>,0,html-button-response,45,228038,0.0-8.0,38654,List2A,white,woman,,,,,,,,
null,<img src='img/look_eg.gif' style='height:400px;''></img>,,html-keyboard-response,46,231042,0.0-9.0,38654,List2A,white,woman,,,,null,,,,
null,<p>are looking at each other</p>,,html-keyboard-response,47,233044,0.0-10.0,38654,List2A,white,woman,,,,null,,,,
4051,<p><b>Answer:</b> fred and mike are looking at each other</p>,0,html-button-response,48,237096,0.0-11.0,38654,List2A,white,woman,,,,,,,,
9274,"<p>Ready to start the experiment?</p><br><p><strong>Remember to describe the picture using a full sentence,</strong></p><p><strong>that combines the names of the people with the <i>exact</i> phrase given.</strong></p><p><strong>To receive full payment you must do this correctly.</strong></p><p><strong> You do not need to capitalise names or use punctuation.</strong></p><br><p>Press 'Continue' to begin.</p>",0,html-button-response,49,247370,0.0-12.0,38654,List2A,white,woman,,,,,,,,
null,"<div style=""font-size:60px;"">+</div>",,html-keyboard-response,50,248875,0.0-13.0-0.0,38654,List2A,white,woman,,,,null,,,,
null,"<img src=""stim_listA/kiss8.gif""style=""height:400px;""></stim_listA>",,html-keyboard-response,51,250881,0.0-13.0-1.0,38654,List2A,white,woman,,,,null,,,,
null,are kissing each other,,html-keyboard-response,52,252885,0.0-13.0-2.0,38654,List2A,white,woman,,,,null,,,,
11452,,,survey-text,53,264342,0.0-13.0-3.0,38654,List2A,white,woman,,,,,"{""Q0"":""jane and kate are kissing eachother""}","<img src=""stim_listA/kiss8.gif""style=""height:400px;""></stim_listA>",are kissing each other,
null,"<div style=""font-size:60px;"">+</div>",,html-keyboard-response,54,264846,0.0-13.0-0.1,38654,List2A,white,woman,,,,null,,,,
null,"<img src=""stim_listA/talk6.gif""style=""height:400px;""></stim_listA>",,html-keyboard-response,55,266848,0.0-13.0-1.1,38654,List2A,white,woman,,,,null,,,,
null,are talking to each other,,html-keyboard-response,56,268850,0.0-13.0-2.1,38654,List2A,white,woman,,,,null,,,,
10843,,,survey-text,57,279695,0.0-13.0-3.1,38654,List2A,white,woman,,,,,"{""Q0"":""dave and fred are talking to eachother""}","<img src=""stim_listA/talk6.gif""style=""height:400px;""></stim_listA>",are talking to each other,
null,"<div style=""font-size:60px;"">+</div>",,html-keyboard-response,58,280197,0.0-13.0-0.2,38654,List2A,white,woman,,,,null,,,,
null,"<img src=""stim_listA/talk4.gif""style=""height:400px;""></stim_listA>",,html-keyboard-response,59,282201,0.0-13.0-1.2,38654,List2A,white,woman,,,,null,,,,
null,are talking to each other,,html-keyboard-response,60,284202,0.0-13.0-2.2,38654,List2A,white,woman,,,,null,,,,
7620,,,survey-text,61,291824,0.0-13.0-3.2,38654,List2A,white,woman,,,,,"{""Q0"":""mike and beth are talking to eachother""}","<img src=""stim_listA/talk4.gif""style=""height:400px;""></stim_listA>",are talking to each other,
null,"<div style=""font-size:60px;"">+</div>",,html-keyboard-response,62,292325,0.0-13.0-0.3,38654,List2A,white,woman,,,,null,,,,
null,"<img src=""stim_listA/dance7.gif""style=""height:400px;""></stim_listA>",,html-keyboard-response,63,294329,0.0-13.0-1.3,38654,List2A,white,woman,,,,null,,,,
null,is dancing with,,html-keyboard-response,64,296332,0.0-13.0-2.3,38654,List2A,white,woman,,,,null,,,,
5098,,,survey-text,65,301433,0.0-13.0-3.3,38654,List2A,white,woman,,,,,"{""Q0"":""kate is dancing with ruth""}","<img src=""stim_listA/dance7.gif""style=""height:400px;""></stim_listA>",is dancing with,
null,"<div style=""font-size:60px;"">+</div>",,html-keyboard-response,66,301935,0.0-13.0-0.4,38654,List2A,white,woman,,,,null,,,,
null,"<img src=""stim_listA/flirt7.gif""style=""height:400px;""></stim_listA>",,html-keyboard-response,67,303941,0.0-13.0-1.4,38654,List2A,white,woman,,,,null,,,,
null,is flirting with,,html-keyboard-response,68,305943,0.0-13.0-2.4,38654,List2A,white,woman,,,,null,,,,
7722,,,survey-text,69,313667,0.0-13.0-3.4,38654,List2A,white,woman,,,,,"{""Q0"":""kate is flirting with ruth""}","<img src=""stim_listA/flirt7.gif""style=""height:400px;""></stim_listA>",is flirting with,
null,"<div style=""font-size:60px;"">+</div>",,html-keyboard-response,70,314169,0.0-13.0-0.5,38654,List2A,white,woman,,,,null,,,,
null,"<img src=""stim_listA/play6.gif""style=""height:400px;""></stim_listA>",,html-keyboard-response,71,316174,0.0-13.0-1.5,38654,List2A,white,woman,,,,null,,,,
null,are playing with each other,,html-keyboard-response,72,318177,0.0-13.0-2.5,38654,List2A,white,woman,,,,null,,,,
11204,,,survey-text,73,329382,0.0-13.0-3.5,38654,List2A,white,woman,,,,,"{""Q0"":""luke and fred are playing together""}","<img src=""stim_listA/play6.gif""style=""height:400px;""></stim_listA>",are playing with each other,
null,"<div style=""font-size:60px;"">+</div>",,html-keyboard-response,74,329884,0.0-13.0-0.6,38654,List2A,white,woman,,,,null,,,,
null,"<img src=""stim_listA/shout6.gif""style=""height:400px;""></stim_listA>",,html-keyboard-response,75,331890,0.0-13.0-1.6,38654,List2A,white,woman,,,,null,,,,
null,are shouting at each other,,html-keyboard-response,76,333892,0.0-13.0-2.6,38654,List2A,white,woman,,,,null,,,,
8505,,,survey-text,77,342400,0.0-13.0-3.6,38654,List2A,white,woman,,,,,"{""Q0"":""mike and dave are shouting at eachother""}","<img src=""stim_listA/shout6.gif""style=""height:400px;""></stim_listA>",are shouting at each other,
null,"<div style=""font-size:60px;"">+</div>",,html-keyboard-response,78,342902,0.0-13.0-0.7,38654,List2A,white,woman,,,,null,,,,
null,"<img src=""stim_listA/talk5.gif""style=""height:400px;""></stim_listA>",,html-keyboard-response,79,344908,0.0-13.0-1.7,38654,List2A,white,woman,,,,null,,,,
null,is talking to,,html-keyboard-response,80,346911,0.0-13.0-2.7,38654,List2A,white,woman,,,,null,,,,
4511,,,survey-text,81,351425,0.0-13.0-3.7,38654,List2A,white,woman,,,,,"{""Q0"":""luke is talking to""}","<img src=""stim_listA/talk5.gif""style=""height:400px;""></stim_listA>",is talking to,
null,"<div style=""font-size:60px;"">+</div>",,html-keyboard-response,82,351926,0.0-13.0-0.8,38654,List2A,white,woman,,,,null,,,,
null,"<img src=""stim_listA/fight3.gif""style=""height:400px;""></stim_listA>",,html-keyboard-response,83,353928,0.0-13.0-1.8,38654,List2A,white,woman,,,,null,,,,
null,is fighting,,html-keyboard-response,84,355931,0.0-13.0-2.8,38654,List2A,white,woman,,,,null,,,,
7198,,,survey-text,85,363129,0.0-13.0-3.8,38654,List2A,white,woman,,,,,"{""Q0"":""kate is fighting mike""}","<img src=""stim_listA/fight3.gif""style=""height:400px;""></stim_listA>",is fighting,
null,"<div style=""font-size:60px;"">+</div>",,html-keyboard-response,86,363631,0.0-13.0-0.9,38654,List2A,white,woman,,,,null,,,,
null,"<img src=""stim_listA/play1.gif""style=""height:400px;""></stim_listA>",,html-keyboard-response,87,365636,0.0-13.0-1.9,38654,List2A,white,woman,,,,null,,,,
null,is playing with,,html-keyboard-response,88,367638,0.0-13.0-2.9,38654,List2A,white,woman,,,,null,,,,
4820,,,survey-text,89,372458,0.0-13.0-3.9,38654,List2A,white,woman,,,,,"{""Q0"":""dave is playing with jane""}","<img src=""stim_listA/play1.gif""style=""height:400px;""></stim_listA>",is playing with,
null,"<div style=""font-size:60px;"">+</div>",,html-keyboard-response,90,372960,0.0-13.0-0.10,38654,List2A,white,woman,,,,null,,,,
null,"<img src=""stim_listA/argue3.gif""style=""height:400px;""></stim_listA>",,html-keyboard-response,91,374962,0.0-13.0-1.10,38654,List2A,white,woman,,,,null,,,,
null,is arguing with,,html-keyboard-response,92,376963,0.0-13.0-2.10,38654,List2A,white,woman,,,,null,,,,
6533,,,survey-text,93,383497,0.0-13.0-3.10,38654,List2A,white,woman,,,,,"{""Q0"":""mike is arguing with beth""}","<img src=""stim_listA/argue3.gif""style=""height:400px;""></stim_listA>",is arguing with,
null,"<div style=""font-size:60px;"">+</div>",,html-keyboard-response,94,383999,0.0-13.0-0.11,38654,List2A,white,woman,,,,null,,,,
null,"<img src=""stim_listA/play7.gif""style=""height:400px;""></stim_listA>",,html-keyboard-response,95,386002,0.0-13.0-1.11,38654,List2A,white,woman,,,,null,,,,
null,is playing with,,html-keyboard-response,96,388003,0.0-13.0-2.11,38654,List2A,white,woman,,,,null,,,,
4197,,,survey-text,97,392201,0.0-13.0-3.11,38654,List2A,white,woman,,,,,"{""Q0"":""jane is playing with kate""}","<img src=""stim_listA/play7.gif""style=""height:400px;""></stim_listA>",is playing with,
null,"<div style=""font-size:60px;"">+</div>",,html-keyboard-response,98,392704,0.0-13.0-0.12,38654,List2A,white,woman,,,,null,,,,
null,"<img src=""stim_listA/marry5.gif""style=""height:400px;""></stim_listA>",,html-keyboard-response,99,394709,0.0-13.0-1.12,38654,List2A,white,woman,,,,null,,,,
null,is marrying,,html-keyboard-response,100,396710,0.0-13.0-2.12,38654,List2A,white,woman,,,,null,,,,
4739,,,survey-text,101,401451,0.0-13.0-3.12,38654,List2A,white,woman,,,,,"{""Q0"":""dave is marrying fred""}","<img src=""stim_listA/marry5.gif""style=""height:400px;""></stim_listA>",is marrying,
null,"<div style=""font-size:60px;"">+</div>",,html-keyboard-response,102,401953,0.0-13.0-0.13,38654,List2A,white,woman,,,,null,,,,
null,"<img src=""stim_listA/shout4.gif""style=""height:400px;""></stim_listA>",,html-keyboard-response,103,403962,0.0-13.0-1.13,38654,List2A,white,woman,,,,null,,,,
null,are shouting at each other,,html-keyboard-response,104,405965,0.0-13.0-2.13,38654,List2A,white,woman,,,,null,,,,
11967,,,survey-text,105,417933,0.0-13.0-3.13,38654,List2A,white,woman,,,,,"{""Q0"":""kate and mike are shouting at eachother""}","<img src=""stim_listA/shout4.gif""style=""height:400px;""></stim_listA>",are shouting at each other,
null,"<div style=""font-size:60px;"">+</div>",,html-keyboard-response,106,418434,0.0-13.0-0.14,38654,List2A,white,woman,,,,null,,,,
null,"<img src=""stim_listA/talk1.gif""style=""height:400px;""></stim_listA>",,html-keyboard-response,107,420440,0.0-13.0-1.14,38654,List2A,white,woman,,,,null,,,,
null,is talking to,,html-keyboard-response,108,422443,0.0-13.0-2.14,38654,List2A,white,woman,,,,null,,,,
5273,,,survey-text,109,427719,0.0-13.0-3.14,38654,List2A,white,woman,,,,,"{""Q0"":""luke is talking to jane""}","<img src=""stim_listA/talk1.gif""style=""height:400px;""></stim_listA>",is talking to,
null,"<div style=""font-size:60px;"">+</div>",,html-keyboard-response,110,428220,0.0-13.0-0.15,38654,List2A,white,woman,,,,null,,,,
null,"<img src=""stim_listA/argue4.gif""style=""height:400px;""></stim_listA>",,html-keyboard-response,111,430223,0.0-13.0-1.15,38654,List2A,white,woman,,,,null,,,,
null,are arguing with each other,,html-keyboard-response,112,432228,0.0-13.0-2.15,38654,List2A,white,woman,,,,null,,,,
9689,,,survey-text,113,441919,0.0-13.0-3.15,38654,List2A,white,woman,,,,,"{""Q0"":""kate and fred are arguing with each other""}","<img src=""stim_listA/argue4.gif""style=""height:400px;""></stim_listA>",are arguing with each other,
null,"<div style=""font-size:60px;"">+</div>",,html-keyboard-response,114,442421,0.0-13.0-0.16,38654,List2A,white,woman,,,,null,,,,
null,"<img src=""stim_listA/touch8.gif""style=""height:400px;""></stim_listA>",,html-keyboard-response,115,444426,0.0-13.0-1.16,38654,List2A,white,woman,,,,null,,,,
null,are touching each other,,html-keyboard-response,116,446427,0.0-13.0-2.16,38654,List2A,white,woman,,,,null,,,,
6852,,,survey-text,117,453281,0.0-13.0-3.16,38654,List2A,white,woman,,,,,"{""Q0"":""ruth and beth are touching eachother""}","<img src=""stim_listA/touch8.gif""style=""height:400px;""></stim_listA>",are touching each other,
null,"<div style=""font-size:60px;"">+</div>",,html-keyboard-response,118,453782,0.0-13.0-0.17,38654,List2A,white,woman,,,,null,,,,
null,"<img src=""stim_listA/argue2.gif""style=""height:400px;""></stim_listA>",,html-keyboard-response,119,455788,0.0-13.0-1.17,38654,List2A,white,woman,,,,null,,,,
null,are arguing with each other,,html-keyboard-response,120,457791,0.0-13.0-2.17,38654,List2A,white,woman,,,,null,,,,
14196,,,survey-text,121,471990,0.0-13.0-3.17,38654,List2A,white,woman,,,,,"{""Q0"":""jane and luke are arguing with each other ""}","<img src=""stim_listA/argue2.gif""style=""height:400px;""></stim_listA>",are arguing with each other,
null,"<div style=""font-size:60px;"">+</div>",,html-keyboard-response,122,472491,0.0-13.0-0.18,38654,List2A,white,woman,,,,null,,,,
null,"<img src=""stim_listA/shout3.gif""style=""height:400px;""></stim_listA>",,html-keyboard-response,123,474496,0.0-13.0-1.18,38654,List2A,white,woman,,,,null,,,,
null,is shouting at,,html-keyboard-response,124,476499,0.0-13.0-2.18,38654,List2A,white,woman,,,,null,,,,
3817,,,survey-text,125,480319,0.0-13.0-3.18,38654,List2A,white,woman,,,,,"{""Q0"":""beth is shouting at fred""}","<img src=""stim_listA/shout3.gif""style=""height:400px;""></stim_listA>",is shouting at,
null,"<div style=""font-size:60px;"">+</div>",,html-keyboard-response,126,480821,0.0-13.0-0.19,38654,List2A,white,woman,,,,null,,,,
null,"<img src=""stim_listA/kiss7.gif""style=""height:400px;""></stim_listA>",,html-keyboard-response,127,482825,0.0-13.0-1.19,38654,List2A,white,woman,,,,null,,,,
null,is kissing,,html-keyboard-response,128,484827,0.0-13.0-2.19,38654,List2A,white,woman,,,,null,,,,
4258,,,survey-text,129,489088,0.0-13.0-3.19,38654,List2A,white,woman,,,,,"{""Q0"":""beth is kissing ruth""}","<img src=""stim_listA/kiss7.gif""style=""height:400px;""></stim_listA>",is kissing,
10008,"<img src='img/portrait_matrix_list2.jpg' style='width:900px;height:500px;''></img><p>If you have memorised all the portraits and names and are ready to start, press Continue.</p><p><strong>Please note: Your memory of these faces will be tested 4 times during this experiment.</strong></p>",0,html-button-response,130,499098,0.0-14.0-0.0,38654,List2A,white,woman,,,,,,,,
1981,"<img src=""portrait/WM2.jpg""style=""height:400px;""></img>",7,html-button-response,131,502082,0.0-14.0-1.0,38654,List2A,white,woman,,TRUE,7,,,,,
null,CORRECT,,html-keyboard-response,132,503587,0.0-14.0-2.0-0.0,38654,List2A,white,woman,,,,null,,,,
4310,"<img src=""portrait/BW2.jpg""style=""height:400px;""></img>",2,html-button-response,133,507899,0.0-14.0-4.0,38654,List2A,white,woman,,TRUE,2,,,,,
null,CORRECT,,html-keyboard-response,134,509405,0.0-14.0-5.0-0.0,38654,List2A,white,woman,,,,null,,,,
2291,"<img src=""portrait/BM1.jpg""style=""height:400px;""></img>",4,html-button-response,135,511700,0.0-14.0-7.0,38654,List2A,white,woman,,TRUE,4,,,,,
null,CORRECT,,html-keyboard-response,136,513205,0.0-14.0-8.0-0.0,38654,List2A,white,woman,,,,null,,,,
2987,"<img src=""portrait/BW1.jpg""style=""height:400px;""></img>",0,html-button-response,137,516196,0.0-14.0-10.0,38654,List2A,white,woman,,TRUE,0,,,,,
null,CORRECT,,html-keyboard-response,138,517700,0.0-14.0-11.0-0.0,38654,List2A,white,woman,,,,null,,,,
1719,"<img src=""portrait/BM2.jpg""style=""height:400px;""></img>",5,html-button-response,139,519421,0.0-14.0-13.0,38654,List2A,white,woman,,TRUE,5,,,,,
null,CORRECT,,html-keyboard-response,140,520926,0.0-14.0-14.0-0.0,38654,List2A,white,woman,,,,null,,,,
982,"<img src=""portrait/WW1.jpg""style=""height:400px;""></img>",1,html-button-response,141,521909,0.0-14.0-16.0,38654,List2A,white,woman,,TRUE,1,,,,,
null,CORRECT,,html-keyboard-response,142,523415,0.0-14.0-17.0-0.0,38654,List2A,white,woman,,,,null,,,,
1195,"<img src=""portrait/WW2.jpg""style=""height:400px;""></img>",3,html-button-response,143,524613,0.0-14.0-19.0,38654,List2A,white,woman,,TRUE,3,,,,,
null,CORRECT,,html-keyboard-response,144,526116,0.0-14.0-20.0-0.0,38654,List2A,white,woman,,,,null,,,,
1869,"<img src=""portrait/WM1.jpg""style=""height:400px;""></img>",6,html-button-response,145,527989,0.0-14.0-22.0,38654,List2A,white,woman,,TRUE,6,,,,,
null,CORRECT,,html-keyboard-response,146,529491,0.0-14.0-23.0-0.0,38654,List2A,white,woman,,,,null,,,,
1183,<p>You got 8 out of 8 right first time. Press Continue.</p>,0,html-button-response,147,530677,0.0-14.0-25.0,38654,List2A,white,woman,,,,,,,,
null,"<div style=""font-size:60px;"">+</div>",,html-keyboard-response,148,532183,0.0-15.0-0.0,38654,List2A,white,woman,,,,null,,,,
null,"<img src=""stim_listA/marry8.gif""style=""height:400px;""></stim_listA>",,html-keyboard-response,149,534188,0.0-15.0-1.0,38654,List2A,white,woman,,,,null,,,,
null,are marrying each other,,html-keyboard-response,150,536191,0.0-15.0-2.0,38654,List2A,white,woman,,,,null,,,,
6149,,,survey-text,151,542343,0.0-15.0-3.0,38654,List2A,white,woman,,,,,"{""Q0"":""ruth and kate are marrying each other""}","<img src=""stim_listA/marry8.gif""style=""height:400px;""></stim_listA>",are marrying each other,
null,"<div style=""font-size:60px;"">+</div>",,html-keyboard-response,152,542845,0.0-15.0-0.1,38654,List2A,white,woman,,,,null,,,,
null,"<img src=""stim_listA/talk8.gif""style=""height:400px;""></stim_listA>",,html-keyboard-response,153,544851,0.0-15.0-1.1,38654,List2A,white,woman,,,,null,,,,
null,are talking to each other,,html-keyboard-response,154,546853,0.0-15.0-2.1,38654,List2A,white,woman,,,,null,,,,
7569,,,survey-text,155,554425,0.0-15.0-3.1,38654,List2A,white,woman,,,,,"{""Q0"":""beth and jane are talking to each other""}","<img src=""stim_listA/talk8.gif""style=""height:400px;""></stim_listA>",are talking to each other,
null,"<div style=""font-size:60px;"">+</div>",,html-keyboard-response,156,554927,0.0-15.0-0.2,38654,List2A,white,woman,,,,null,,,,
null,"<img src=""stim_listA/play5.gif""style=""height:400px;""></stim_listA>",,html-keyboard-response,157,556932,0.0-15.0-1.2,38654,List2A,white,woman,,,,null,,,,
null,is playing with,,html-keyboard-response,158,558935,0.0-15.0-2.2,38654,List2A,white,woman,,,,null,,,,
5497,,,survey-text,159,564434,0.0-15.0-3.2,38654,List2A,white,woman,,,,,"{""Q0"":""dave is playing with mike""}","<img src=""stim_listA/play5.gif""style=""height:400px;""></stim_listA>",is playing with,
null,"<div style=""font-size:60px;"">+</div>",,html-keyboard-response,160,564935,0.0-15.0-0.3,38654,List2A,white,woman,,,,null,,,,
null,"<img src=""stim_listA/shout1.gif""style=""height:400px;""></stim_listA>",,html-keyboard-response,161,566937,0.0-15.0-1.3,38654,List2A,white,woman,,,,null,,,,
null,is shouting at,,html-keyboard-response,162,568940,0.0-15.0-2.3,38654,List2A,white,woman,,,,null,,,,
8125,,,survey-text,163,577068,0.0-15.0-3.3,38654,List2A,white,woman,,,,,"{""Q0"":""luke is shouting at ruth""}","<img src=""stim_listA/shout1.gif""style=""height:400px;""></stim_listA>",is shouting at,
null,"<div style=""font-size:60px;"">+</div>",,html-keyboard-response,164,577570,0.0-15.0-0.4,38654,List2A,white,woman,,,,null,,,,
null,"<img src=""stim_listA/talk7.gif""style=""height:400px;""></stim_listA>",,html-keyboard-response,165,579575,0.0-15.0-1.4,38654,List2A,white,woman,,,,null,,,,
null,is talking to,,html-keyboard-response,166,581579,0.0-15.0-2.4,38654,List2A,white,woman,,,,null,,,,
5801,,,survey-text,167,587381,0.0-15.0-3.4,38654,List2A,white,woman,,,,,"{""Q0"":""ruth is talking to kate""}","<img src=""stim_listA/talk7.gif""style=""height:400px;""></stim_listA>",is talking to,
null,"<div style=""font-size:60px;"">+</div>",,html-keyboard-response,168,587883,0.0-15.0-0.5,38654,List2A,white,woman,,,,null,,,,
null,"<img src=""stim_listA/marry7.gif""style=""height:400px;""></stim_listA>",,html-keyboard-response,169,589890,0.0-15.0-1.5,38654,List2A,white,woman,,,,null,,,,
null,is marrying,,html-keyboard-response,170,591892,0.0-15.0-2.5,38654,List2A,white,woman,,,,null,,,,
3608,,,survey-text,171,595502,0.0-15.0-3.5,38654,List2A,white,woman,,,,,"{""Q0"":""jane is marrying beth""}","<img src=""stim_listA/marry7.gif""style=""height:400px;""></stim_listA>",is marrying,
null,"<div style=""font-size:60px;"">+</div>",,html-keyboard-response,172,596004,0.0-15.0-0.6,38654,List2A,white,woman,,,,null,,,,
null,"<img src=""stim_listA/dance4.gif""style=""height:400px;""></stim_listA>",,html-keyboard-response,173,598008,0.0-15.0-1.6,38654,List2A,white,woman,,,,null,,,,
null,are dancing with each other,,html-keyboard-response,174,600010,0.0-15.0-2.6,38654,List2A,white,woman,,,,null,,,,
8722,,,survey-text,175,608735,0.0-15.0-3.6,38654,List2A,white,woman,,,,,"{""Q0"":""beth and mike are dancing with one another""}","<img src=""stim_listA/dance4.gif""style=""height:400px;""></stim_listA>",are dancing with each other,
null,"<div style=""font-size:60px;"">+</div>",,html-keyboard-response,176,609237,0.0-15.0-0.7,38654,List2A,white,woman,,,,null,,,,
null,"<img src=""stim_listA/argue6.gif""style=""height:400px;""></stim_listA>",,html-keyboard-response,177,611240,0.0-15.0-1.7,38654,List2A,white,woman,,,,null,,,,
null,are arguing with each other,,html-keyboard-response,178,613243,0.0-15.0-2.7,38654,List2A,white,woman,,,,null,,,,
8211,,,survey-text,179,621457,0.0-15.0-3.7,38654,List2A,white,woman,,,,,"{""Q0"":""mike and luke are arguing with each other""}","<img src=""stim_listA/argue6.gif""style=""height:400px;""></stim_listA>",are arguing with each other,
null,"<div style=""font-size:60px;"">+</div>",,html-keyboard-response,180,621959,0.0-15.0-0.8,38654,List2A,white,woman,,,,null,,,,
null,"<img src=""stim_listA/flirt6.gif""style=""height:400px;""></stim_listA>",,html-keyboard-response,181,623961,0.0-15.0-1.8,38654,List2A,white,woman,,,,null,,,,
null,are flirting with each other,,html-keyboard-response,182,625964,0.0-15.0-2.8,38654,List2A,white,woman,,,,null,,,,
8590,,,survey-text,183,634555,0.0-15.0-3.8,38654,List2A,white,woman,,,,,"{""Q0"":""dave and fred are flirting with each other""}","<img src=""stim_listA/flirt6.gif""style=""height:400px;""></stim_listA>",are flirting with each other,
null,"<div style=""font-size:60px;"">+</div>",,html-keyboard-response,184,635057,0.0-15.0-0.9,38654,List2A,white,woman,,,,null,,,,
null,"<img src=""stim_listA/talk3.gif""style=""height:400px;""></stim_listA>",,html-keyboard-response,185,637060,0.0-15.0-1.9,38654,List2A,white,woman,,,,null,,,,
null,is talking to,,html-keyboard-response,186,639063,0.0-15.0-2.9,38654,List2A,white,woman,,,,null,,,,
4212,,,survey-text,187,643276,0.0-15.0-3.9,38654,List2A,white,woman,,,,,"{""Q0"":""fred is talking to kate""}","<img src=""stim_listA/talk3.gif""style=""height:400px;""></stim_listA>",is talking to,
null,"<div style=""font-size:60px;"">+</div>",,html-keyboard-response,188,643778,0.0-15.0-0.10,38654,List2A,white,woman,,,,null,,,,
null,"<img src=""stim_listA/marry1.gif""style=""height:400px;""></stim_listA>",,html-keyboard-response,189,645784,0.0-15.0-1.10,38654,List2A,white,woman,,,,null,,,,
null,is marrying,,html-keyboard-response,190,647788,0.0-15.0-2.10,38654,List2A,white,woman,,,,null,,,,
3902,,,survey-text,191,651693,0.0-15.0-3.10,38654,List2A,white,woman,,,,,"{""Q0"":""dave is marrying ruth""}","<img src=""stim_listA/marry1.gif""style=""height:400px;""></stim_listA>",is marrying,
null,"<div style=""font-size:60px;"">+</div>",,html-keyboard-response,192,652194,0.0-15.0-0.11,38654,List2A,white,woman,,,,null,,,,
null,"<img src=""stim_listA/flirt1.gif""style=""height:400px;""></stim_listA>",,html-keyboard-response,193,654196,0.0-15.0-1.11,38654,List2A,white,woman,,,,null,,,,
null,is flirting with,,html-keyboard-response,194,656198,0.0-15.0-2.11,38654,List2A,white,woman,,,,null,,,,
4440,,,survey-text,195,660638,0.0-15.0-3.11,38654,List2A,white,woman,,,,,"{""Q0"":""luke is flirting with jane""}","<img src=""stim_listA/flirt1.gif""style=""height:400px;""></stim_listA>",is flirting with,
null,"<div style=""font-size:60px;"">+</div>",,html-keyboard-response,196,661141,0.0-15.0-0.12,38654,List2A,white,woman,,,,null,,,,
null,"<img src=""stim_listA/dance5.gif""style=""height:400px;""></stim_listA>",,html-keyboard-response,197,663146,0.0-15.0-1.12,38654,List2A,white,woman,,,,null,,,,
null,is dancing with,,html-keyboard-response,198,665149,0.0-15.0-2.12,38654,List2A,white,woman,,,,null,,,,
6608,,,survey-text,199,671760,0.0-15.0-3.12,38654,List2A,white,woman,,,,,"{""Q0"":""mike is dancing with luke""}","<img src=""stim_listA/dance5.gif""style=""height:400px;""></stim_listA>",is dancing with,
null,"<div style=""font-size:60px;"">+</div>",,html-keyboard-response,200,672261,0.0-15.0-0.13,38654,List2A,white,woman,,,,null,,,,
null,"<img src=""stim_listA/touch5.gif""style=""height:400px;""></stim_listA>",,html-keyboard-response,201,674264,0.0-15.0-1.13,38654,List2A,white,woman,,,,null,,,,
null,is touching,,html-keyboard-response,202,676267,0.0-15.0-2.13,38654,List2A,white,woman,,,,null,,,,
6170,,,survey-text,203,682439,0.0-15.0-3.13,38654,List2A,white,woman,,,,,"{""Q0"":""dave is touching mike""}","<img src=""stim_listA/touch5.gif""style=""height:400px;""></stim_listA>",is touching,
null,"<div style=""font-size:60px;"">+</div>",,html-keyboard-response,204,682941,0.0-15.0-0.14,38654,List2A,white,woman,,,,null,,,,
null,"<img src=""stim_listA/fight4.gif""style=""height:400px;""></stim_listA>",,html-keyboard-response,205,684943,0.0-15.0-1.14,38654,List2A,white,woman,,,,null,,,,
null,are fighting each other,,html-keyboard-response,206,686944,0.0-15.0-2.14,38654,List2A,white,woman,,,,null,,,,
6054,,,survey-text,207,693001,0.0-15.0-3.14,38654,List2A,white,woman,,,,,"{""Q0"":""beth is fighting with fred""}","<img src=""stim_listA/fight4.gif""style=""height:400px;""></stim_listA>",are fighting each other,
null,"<div style=""font-size:60px;"">+</div>",,html-keyboard-response,208,693503,0.0-15.0-0.15,38654,List2A,white,woman,,,,null,,,,
null,"<img src=""stim_listA/shout5.gif""style=""height:400px;""></stim_listA>",,html-keyboard-response,209,695508,0.0-15.0-1.15,38654,List2A,white,woman,,,,null,,,,
null,is shouting at,,html-keyboard-response,210,697511,0.0-15.0-2.15,38654,List2A,white,woman,,,,null,,,,
4119,,,survey-text,211,701633,0.0-15.0-3.15,38654,List2A,white,woman,,,,,"{""Q0"":""luke is shouting at fred""}","<img src=""stim_listA/shout5.gif""style=""height:400px;""></stim_listA>",is shouting at,
null,"<div style=""font-size:60px;"">+</div>",,html-keyboard-response,212,702135,0.0-15.0-0.16,38654,List2A,white,woman,,,,null,,,,
null,"<img src=""stim_listA/kiss5.gif""style=""height:400px;""></stim_listA>",,html-keyboard-response,213,704140,0.0-15.0-1.16,38654,List2A,white,woman,,,,null,,,,
null,is kissing,,html-keyboard-response,214,706144,0.0-15.0-2.16,38654,List2A,white,woman,,,,null,,,,
4490,,,survey-text,215,710635,0.0-15.0-3.16,38654,List2A,white,woman,,,,,"{""Q0"":""luke is kissing fred""}","<img src=""stim_listA/kiss5.gif""style=""height:400px;""></stim_listA>",is kissing,
null,"<div style=""font-size:60px;"">+</div>",,html-keyboard-response,216,711136,0.0-15.0-0.17,38654,List2A,white,woman,,,,null,,,,
null,"<img src=""stim_listA/fight1.gif""style=""height:400px;""></stim_listA>",,html-keyboard-response,217,713138,0.0-15.0-1.17,38654,List2A,white,woman,,,,null,,,,
null,is fighting,,html-keyboard-response,218,715141,0.0-15.0-2.17,38654,List2A,white,woman,,,,null,,,,
4590,,,survey-text,219,719732,0.0-15.0-3.17,38654,List2A,white,woman,,,,,"{""Q0"":""dave is fighting with jane""}","<img src=""stim_listA/fight1.gif""style=""height:400px;""></stim_listA>",is fighting,
null,"<div style=""font-size:60px;"">+</div>",,html-keyboard-response,220,720233,0.0-15.0-0.18,38654,List2A,white,woman,,,,null,,,,
null,"<img src=""stim_listA/play2.gif""style=""height:400px;""></stim_listA>",,html-keyboard-response,221,722238,0.0-15.0-1.18,38654,List2A,white,woman,,,,null,,,,
null,are playing with each other,,html-keyboard-response,222,724241,0.0-15.0-2.18,38654,List2A,white,woman,,,,null,,,,
445378,,,survey-text,223,1169621,0.0-15.0-3.18,38654,List2A,white,woman,,,,,"{""Q0"":""ruth and luke are playing with each other""}","<img src=""stim_listA/play2.gif""style=""height:400px;""></stim_listA>",are playing with each other,
null,"<div style=""font-size:60px;"">+</div>",,html-keyboard-response,224,1170124,0.0-15.0-0.19,38654,List2A,white,woman,,,,null,,,,
null,"<img src=""stim_listA/kiss2.gif""style=""height:400px;""></stim_listA>",,html-keyboard-response,225,1172130,0.0-15.0-1.19,38654,List2A,white,woman,,,,null,,,,
null,are kissing each other,,html-keyboard-response,226,1174133,0.0-15.0-2.19,38654,List2A,white,woman,,,,null,,,,
6580,,,survey-text,227,1180716,0.0-15.0-3.19,38654,List2A,white,woman,,,,,"{""Q0"":""jane and dave are kissing each other""}","<img src=""stim_listA/kiss2.gif""style=""height:400px;""></stim_listA>",are kissing each other,
5191,"<img src='img/portrait_matrix_list2.jpg' style='width:900px;height:500px;''></img><p>If you have memorised all the portraits and names and are ready to start, press Continue.</p><p><strong>Please note: Your memory of these faces will be tested 4 times during this experiment.</strong></p>",0,html-button-response,228,1185908,0.0-16.0-0.0,38654,List2A,white,woman,,,,,,,,
3652,"<img src=""portrait/WM2.jpg""style=""height:400px;""></img>",7,html-button-response,229,1190566,0.0-16.0-1.0,38654,List2A,white,woman,,TRUE,7,,,,,
null,CORRECT,,html-keyboard-response,230,1192070,0.0-16.0-2.0-0.0,38654,List2A,white,woman,,,,null,,,,
1212,"<img src=""portrait/WW1.jpg""style=""height:400px;""></img>",1,html-button-response,231,1193286,0.0-16.0-4.0,38654,List2A,white,woman,,TRUE,1,,,,,
null,CORRECT,,html-keyboard-response,232,1194791,0.0-16.0-5.0-0.0,38654,List2A,white,woman,,,,null,,,,
1460,"<img src=""portrait/BW1.jpg""style=""height:400px;""></img>",0,html-button-response,233,1196255,0.0-16.0-7.0,38654,List2A,white,woman,,TRUE,0,,,,,
null,CORRECT,,html-keyboard-response,234,1197758,0.0-16.0-8.0-0.0,38654,List2A,white,woman,,,,null,,,,
1829,"<img src=""portrait/WM1.jpg""style=""height:400px;""></img>",6,html-button-response,235,1199591,0.0-16.0-10.0,38654,List2A,white,woman,,TRUE,6,,,,,
null,CORRECT,,html-keyboard-response,236,1201093,0.0-16.0-11.0-0.0,38654,List2A,white,woman,,,,null,,,,
2431,"<img src=""portrait/BM1.jpg""style=""height:400px;""></img>",4,html-button-response,237,1203526,0.0-16.0-13.0,38654,List2A,white,woman,,TRUE,4,,,,,
null,CORRECT,,html-keyboard-response,238,1205031,0.0-16.0-14.0-0.0,38654,List2A,white,woman,,,,null,,,,
957,"<img src=""portrait/WW2.jpg""style=""height:400px;""></img>",3,html-button-response,239,1205990,0.0-16.0-16.0,38654,List2A,white,woman,,TRUE,3,,,,,
null,CORRECT,,html-keyboard-response,240,1207493,0.0-16.0-17.0-0.0,38654,List2A,white,woman,,,,null,,,,
2205,"<img src=""portrait/BW2.jpg""style=""height:400px;""></img>",2,html-button-response,241,1209703,0.0-16.0-19.0,38654,List2A,white,woman,,TRUE,2,,,,,
null,CORRECT,,html-keyboard-response,242,1211209,0.0-16.0-20.0-0.0,38654,List2A,white,woman,,,,null,,,,
1387,"<img src=""portrait/BM2.jpg""style=""height:400px;""></img>",5,html-button-response,243,1212599,0.0-16.0-22.0,38654,List2A,white,woman,,TRUE,5,,,,,
null,CORRECT,,html-keyboard-response,244,1214104,0.0-16.0-23.0-0.0,38654,List2A,white,woman,,,,null,,,,
707,<p>You got 8 out of 8 right first time. Press Continue.</p>,0,html-button-response,245,1214814,0.0-16.0-25.0,38654,List2A,white,woman,,,,,,,,
null,"<div style=""font-size:60px;"">+</div>",,html-keyboard-response,246,1216319,0.0-17.0-0.0,38654,List2A,white,woman,,,,null,,,,
null,"<img src=""stim_listA/kiss4.gif""style=""height:400px;""></stim_listA>",,html-keyboard-response,247,1218323,0.0-17.0-1.0,38654,List2A,white,woman,,,,null,,,,
null,are kissing each other,,html-keyboard-response,248,1220325,0.0-17.0-2.0,38654,List2A,white,woman,,,,null,,,,
9050,,,survey-text,249,1229376,0.0-17.0-3.0,38654,List2A,white,woman,,,,,"{""Q0"":""kate and mike are kissing each other""}","<img src=""stim_listA/kiss4.gif""style=""height:400px;""></stim_listA>",are kissing each other,
null,"<div style=""font-size:60px;"">+</div>",,html-keyboard-response,250,1229878,0.0-17.0-0.1,38654,List2A,white,woman,,,,null,,,,
null,"<img src=""stim_listA/touch7.gif""style=""height:400px;""></stim_listA>",,html-keyboard-response,251,1231883,0.0-17.0-1.1,38654,List2A,white,woman,,,,null,,,,
null,is touching,,html-keyboard-response,252,1233885,0.0-17.0-2.1,38654,List2A,white,woman,,,,null,,,,
11476,,,survey-text,253,1245362,0.0-17.0-3.1,38654,List2A,white,woman,,,,,"{""Q0"":""jane is touching kate""}","<img src=""stim_listA/touch7.gif""style=""height:400px;""></stim_listA>",is touching,
null,"<div style=""font-size:60px;"">+</div>",,html-keyboard-response,254,1245864,0.0-17.0-0.2,38654,List2A,white,woman,,,,null,,,,
null,"<img src=""stim_listA/argue7.gif""style=""height:400px;""></stim_listA>",,html-keyboard-response,255,1247866,0.0-17.0-1.2,38654,List2A,white,woman,,,,null,,,,
null,is arguing with,,html-keyboard-response,256,1249868,0.0-17.0-2.2,38654,List2A,white,woman,,,,null,,,,
5342,,,survey-text,257,1255211,0.0-17.0-3.2,38654,List2A,white,woman,,,,,"{""Q0"":""beth is arguing with jane""}","<img src=""stim_listA/argue7.gif""style=""height:400px;""></stim_listA>",is arguing with,
null,"<div style=""font-size:60px;"">+</div>",,html-keyboard-response,258,1255713,0.0-17.0-0.3,38654,List2A,white,woman,,,,null,,,,
null,"<img src=""stim_listA/play8.gif""style=""height:400px;""></stim_listA>",,html-keyboard-response,259,1257718,0.0-17.0-1.3,38654,List2A,white,woman,,,,null,,,,
null,are playing with each other,,html-keyboard-response,260,1259720,0.0-17.0-2.3,38654,List2A,white,woman,,,,null,,,,
5970,,,survey-text,261,1265692,0.0-17.0-3.3,38654,List2A,white,woman,,,,,"{""Q0"":""beth and ruth are playing with each other""}","<img src=""stim_listA/play8.gif""style=""height:400px;""></stim_listA>",are playing with each other,
null,"<div style=""font-size:60px;"">+</div>",,html-keyboard-response,262,1266194,0.0-17.0-0.4,38654,List2A,white,woman,,,,null,,,,
null,"<img src=""stim_listA/dance8.gif""style=""height:400px;""></stim_listA>",,html-keyboard-response,263,1268198,0.0-17.0-1.4,38654,List2A,white,woman,,,,null,,,,
null,are dancing with each other,,html-keyboard-response,264,1270200,0.0-17.0-2.4,38654,List2A,white,woman,,,,null,,,,
6819,,,survey-text,265,1277022,0.0-17.0-3.4,38654,List2A,white,woman,,,,,"{""Q0"":""jane and beth are dancing with each other""}","<img src=""stim_listA/dance8.gif""style=""height:400px;""></stim_listA>",are dancing with each other,
null,"<div style=""font-size:60px;"">+</div>",,html-keyboard-response,266,1277524,0.0-17.0-0.5,38654,List2A,white,woman,,,,null,,,,
null,"<img src=""stim_listA/flirt5.gif""style=""height:400px;""></stim_listA>",,html-keyboard-response,267,1279531,0.0-17.0-1.5,38654,List2A,white,woman,,,,null,,,,
null,is flirting with,,html-keyboard-response,268,1281535,0.0-17.0-2.5,38654,List2A,white,woman,,,,null,,,,
6951,,,survey-text,269,1288488,0.0-17.0-3.5,38654,List2A,white,woman,,,,,"{""Q0"":""luke is flirting with mike""}","<img src=""stim_listA/flirt5.gif""style=""height:400px;""></stim_listA>",is flirting with,
null,"<div style=""font-size:60px;"">+</div>",,html-keyboard-response,270,1288990,0.0-17.0-0.6,38654,List2A,white,woman,,,,null,,,,
null,"<img src=""stim_listA/touch1.gif""style=""height:400px;""></stim_listA>",,html-keyboard-response,271,1290992,0.0-17.0-1.6,38654,List2A,white,woman,,,,null,,,,
null,is touching,,html-keyboard-response,272,1292993,0.0-17.0-2.6,38654,List2A,white,woman,,,,null,,,,
5367,,,survey-text,273,1298362,0.0-17.0-3.6,38654,List2A,white,woman,,,,,"{""Q0"":""dave is touching jane""}","<img src=""stim_listA/touch1.gif""style=""height:400px;""></stim_listA>",is touching,
null,"<div style=""font-size:60px;"">+</div>",,html-keyboard-response,274,1298863,0.0-17.0-0.7,38654,List2A,white,woman,,,,null,,,,
null,"<img src=""stim_listA/shout8.gif""style=""height:400px;""></stim_listA>",,html-keyboard-response,275,1300868,0.0-17.0-1.7,38654,List2A,white,woman,,,,null,,,,
null,are shouting at each other,,html-keyboard-response,276,1302869,0.0-17.0-2.7,38654,List2A,white,woman,,,,null,,,,
6211,,,survey-text,277,1309083,0.0-17.0-3.7,38654,List2A,white,woman,,,,,"{""Q0"":""kate and jane are shouting at each other""}","<img src=""stim_listA/shout8.gif""style=""height:400px;""></stim_listA>",are shouting at each other,
null,"<div style=""font-size:60px;"">+</div>",,html-keyboard-response,278,1309584,0.0-17.0-0.8,38654,List2A,white,woman,,,,null,,,,
null,"<img src=""stim_listA/kiss6.gif""style=""height:400px;""></stim_listA>",,html-keyboard-response,279,1311587,0.0-17.0-1.8,38654,List2A,white,woman,,,,null,,,,
null,are kissing each other,,html-keyboard-response,280,1313589,0.0-17.0-2.8,38654,List2A,white,woman,,,,null,,,,
6293,,,survey-text,281,1319885,0.0-17.0-3.8,38654,List2A,white,woman,,,,,"{""Q0"":""mike and dave are kissing each other""}","<img src=""stim_listA/kiss6.gif""style=""height:400px;""></stim_listA>",are kissing each other,
null,"<div style=""font-size:60px;"">+</div>",,html-keyboard-response,282,1320386,0.0-17.0-0.9,38654,List2A,white,woman,,,,null,,,,
null,"<img src=""stim_listA/dance1.gif""style=""height:400px;""></stim_listA>",,html-keyboard-response,283,1322392,0.0-17.0-1.9,38654,List2A,white,woman,,,,null,,,,
null,is dancing with,,html-keyboard-response,284,1324396,0.0-17.0-2.9,38654,List2A,white,woman,,,,null,,,,
4167,,,survey-text,285,1328565,0.0-17.0-3.9,38654,List2A,white,woman,,,,,"{""Q0"":""luke is dancing with jane""}","<img src=""stim_listA/dance1.gif""style=""height:400px;""></stim_listA>",is dancing with,
null,"<div style=""font-size:60px;"">+</div>",,html-keyboard-response,286,1329067,0.0-17.0-0.10,38654,List2A,white,woman,,,,null,,,,
null,"<img src=""stim_listA/argue8.gif""style=""height:400px;""></stim_listA>",,html-keyboard-response,287,1331069,0.0-17.0-1.10,38654,List2A,white,woman,,,,null,,,,
null,are arguing with each other,,html-keyboard-response,288,1333071,0.0-17.0-2.10,38654,List2A,white,woman,,,,null,,,,
7733,,,survey-text,289,1340807,0.0-17.0-3.10,38654,List2A,white,woman,,,,,"{""Q0"":""kate and ruth are arguing with each other""}","<img src=""stim_listA/argue8.gif""style=""height:400px;""></stim_listA>",are arguing with each other,
null,"<div style=""font-size:60px;"">+</div>",,html-keyboard-response,290,1341309,0.0-17.0-0.11,38654,List2A,white,woman,,,,null,,,,
null,"<img src=""stim_listA/touch3.gif""style=""height:400px;""></stim_listA>",,html-keyboard-response,291,1343313,0.0-17.0-1.11,38654,List2A,white,woman,,,,null,,,,
null,is touching,,html-keyboard-response,292,1345317,0.0-17.0-2.11,38654,List2A,white,woman,,,,null,,,,
4563,,,survey-text,293,1349883,0.0-17.0-3.11,38654,List2A,white,woman,,,,,"{""Q0"":""mike is touching kate""}","<img src=""stim_listA/touch3.gif""style=""height:400px;""></stim_listA>",is touching,
null,"<div style=""font-size:60px;"">+</div>",,html-keyboard-response,294,1350386,0.0-17.0-0.12,38654,List2A,white,woman,,,,null,,,,
null,"<img src=""stim_listA/fight5.gif""style=""height:400px;""></stim_listA>",,html-keyboard-response,295,1352390,0.0-17.0-1.12,38654,List2A,white,woman,,,,null,,,,
null,is fighting,,html-keyboard-response,296,1354393,0.0-17.0-2.12,38654,List2A,white,woman,,,,null,,,,
7680,,,survey-text,297,1362073,0.0-17.0-3.12,38654,List2A,white,woman,,,,,"{""Q0"":""dave is fighting mike""}","<img src=""stim_listA/fight5.gif""style=""height:400px;""></stim_listA>",is fighting,
null,"<div style=""font-size:60px;"">+</div>",,html-keyboard-response,298,1362575,0.0-17.0-0.13,38654,List2A,white,woman,,,,null,,,,
null,"<img src=""stim_listA/play3.gif""style=""height:400px;""></stim_listA>",,html-keyboard-response,299,1364580,0.0-17.0-1.13,38654,List2A,white,woman,,,,null,,,,
null,is playing with,,html-keyboard-response,300,1366581,0.0-17.0-2.13,38654,List2A,white,woman,,,,null,,,,
3899,,,survey-text,301,1370482,0.0-17.0-3.13,38654,List2A,white,woman,,,,,"{""Q0"":""mike is playing with kate""}","<img src=""stim_listA/play3.gif""style=""height:400px;""></stim_listA>",is playing with,
null,"<div style=""font-size:60px;"">+</div>",,html-keyboard-response,302,1370984,0.0-17.0-0.14,38654,List2A,white,woman,,,,null,,,,
null,"<img src=""stim_listA/talk2.gif""style=""height:400px;""></stim_listA>",,html-keyboard-response,303,1372989,0.0-17.0-1.14,38654,List2A,white,woman,,,,null,,,,
null,are talking to each other,,html-keyboard-response,304,1374991,0.0-17.0-2.14,38654,List2A,white,woman,,,,null,,,,
14640,,,survey-text,305,1389632,0.0-17.0-3.14,38654,List2A,white,woman,,,,,"{""Q0"":""ruth and dave are playing with each other""}","<img src=""stim_listA/talk2.gif""style=""height:400px;""></stim_listA>",are talking to each other,
null,"<div style=""font-size:60px;"">+</div>",,html-keyboard-response,306,1390134,0.0-17.0-0.15,38654,List2A,white,woman,,,,null,,,,
null,"<img src=""stim_listA/dance6.gif""style=""height:400px;""></stim_listA>",,html-keyboard-response,307,1392140,0.0-17.0-1.15,38654,List2A,white,woman,,,,null,,,,
null,are dancing with each other,,html-keyboard-response,308,1394142,0.0-17.0-2.15,38654,List2A,white,woman,,,,null,,,,
6466,,,survey-text,309,1400609,0.0-17.0-3.15,38654,List2A,white,woman,,,,,"{""Q0"":""dave and fred are dancing with each other""}","<img src=""stim_listA/dance6.gif""style=""height:400px;""></stim_listA>",are dancing with each other,
null,"<div style=""font-size:60px;"">+</div>",,html-keyboard-response,310,1401110,0.0-17.0-0.16,38654,List2A,white,woman,,,,null,,,,
null,"<img src=""stim_listA/shout2.gif""style=""height:400px;""></stim_listA>",,html-keyboard-response,311,1403116,0.0-17.0-1.16,38654,List2A,white,woman,,,,null,,,,
null,are shouting at each other,,html-keyboard-response,312,1405118,0.0-17.0-2.16,38654,List2A,white,woman,,,,null,,,,
6866,,,survey-text,313,1411986,0.0-17.0-3.16,38654,List2A,white,woman,,,,,"{""Q0"":""jane and dave are shouting at each other""}","<img src=""stim_listA/shout2.gif""style=""height:400px;""></stim_listA>",are shouting at each other,
null,"<div style=""font-size:60px;"">+</div>",,html-keyboard-response,314,1412488,0.0-17.0-0.17,38654,List2A,white,woman,,,,null,,,,
null,"<img src=""stim_listA/marry4.gif""style=""height:400px;""></stim_listA>",,html-keyboard-response,315,1414493,0.0-17.0-1.17,38654,List2A,white,woman,,,,null,,,,
null,are marrying each other,,html-keyboard-response,316,1416496,0.0-17.0-2.17,38654,List2A,white,woman,,,,null,,,,
8130,,,survey-text,317,1424629,0.0-17.0-3.17,38654,List2A,white,woman,,,,,"{""Q0"":""kate and fred are marrying each other""}","<img src=""stim_listA/marry4.gif""style=""height:400px;""></stim_listA>",are marrying each other,
null,"<div style=""font-size:60px;"">+</div>",,html-keyboard-response,318,1425130,0.0-17.0-0.18,38654,List2A,white,woman,,,,null,,,,
null,"<img src=""stim_listA/argue5.gif""style=""height:400px;""></stim_listA>",,html-keyboard-response,319,1427136,0.0-17.0-1.18,38654,List2A,white,woman,,,,null,,,,
null,is arguing with,,html-keyboard-response,320,1429139,0.0-17.0-2.18,38654,List2A,white,woman,,,,null,,,,
6336,,,survey-text,321,1435478,0.0-17.0-3.18,38654,List2A,white,woman,,,,,"{""Q0"":""fred is arguing with dave""}","<img src=""stim_listA/argue5.gif""style=""height:400px;""></stim_listA>",is arguing with,
null,"<div style=""font-size:60px;"">+</div>",,html-keyboard-response,322,1435979,0.0-17.0-0.19,38654,List2A,white,woman,,,,null,,,,
null,"<img src=""stim_listA/marry6.gif""style=""height:400px;""></stim_listA>",,html-keyboard-response,323,1437981,0.0-17.0-1.19,38654,List2A,white,woman,,,,null,,,,
null,are marrying each other,,html-keyboard-response,324,1439983,0.0-17.0-2.19,38654,List2A,white,woman,,,,null,,,,
6806,,,survey-text,325,1446791,0.0-17.0-3.19,38654,List2A,white,woman,,,,,"{""Q0"":""mike and luke are marrying each other""}","<img src=""stim_listA/marry6.gif""style=""height:400px;""></stim_listA>",are marrying each other,
1432,"<img src='img/portrait_matrix_list2.jpg' style='width:900px;height:500px;''></img><p>If you have memorised all the portraits and names and are ready to start, press Continue.</p><p><strong>Please note: Your memory of these faces will be tested 4 times during this experiment.</strong></p>",0,html-button-response,326,1448224,0.0-18.0-0.0,38654,List2A,white,woman,,,,,,,,
1667,"<img src=""portrait/BW1.jpg""style=""height:400px;""></img>",0,html-button-response,327,1450896,0.0-18.0-1.0,38654,List2A,white,woman,,TRUE,0,,,,,
null,CORRECT,,html-keyboard-response,328,1452402,0.0-18.0-2.0-0.0,38654,List2A,white,woman,,,,null,,,,
1475,"<img src=""portrait/WW2.jpg""style=""height:400px;""></img>",3,html-button-response,329,1453880,0.0-18.0-4.0,38654,List2A,white,woman,,TRUE,3,,,,,
null,CORRECT,,html-keyboard-response,330,1455384,0.0-18.0-5.0-0.0,38654,List2A,white,woman,,,,null,,,,
1263,"<img src=""portrait/WM1.jpg""style=""height:400px;""></img>",6,html-button-response,331,1456650,0.0-18.0-7.0,38654,List2A,white,woman,,TRUE,6,,,,,
null,CORRECT,,html-keyboard-response,332,1458154,0.0-18.0-8.0-0.0,38654,List2A,white,woman,,,,null,,,,
1003,"<img src=""portrait/WM2.jpg""style=""height:400px;""></img>",7,html-button-response,333,1459160,0.0-18.0-10.0,38654,List2A,white,woman,,TRUE,7,,,,,
null,CORRECT,,html-keyboard-response,334,1460665,0.0-18.0-11.0-0.0,38654,List2A,white,woman,,,,null,,,,
1375,"<img src=""portrait/BM1.jpg""style=""height:400px;""></img>",4,html-button-response,335,1462042,0.0-18.0-13.0,38654,List2A,white,woman,,TRUE,4,,,,,
null,CORRECT,,html-keyboard-response,336,1463546,0.0-18.0-14.0-0.0,38654,List2A,white,woman,,,,null,,,,
1270,"<img src=""portrait/BM2.jpg""style=""height:400px;""></img>",5,html-button-response,337,1464818,0.0-18.0-16.0,38654,List2A,white,woman,,TRUE,5,,,,,
null,CORRECT,,html-keyboard-response,338,1466323,0.0-18.0-17.0-0.0,38654,List2A,white,woman,,,,null,,,,
1228,"<img src=""portrait/BW2.jpg""style=""height:400px;""></img>",2,html-button-response,339,1467554,0.0-18.0-19.0,38654,List2A,white,woman,,TRUE,2,,,,,
null,CORRECT,,html-keyboard-response,340,1469056,0.0-18.0-20.0-0.0,38654,List2A,white,woman,,,,null,,,,
1160,"<img src=""portrait/WW1.jpg""style=""height:400px;""></img>",1,html-button-response,341,1470218,0.0-18.0-22.0,38654,List2A,white,woman,,TRUE,1,,,,,
null,CORRECT,,html-keyboard-response,342,1471721,0.0-18.0-23.0-0.0,38654,List2A,white,woman,,,,null,,,,
1014,<p>You got 8 out of 8 right first time. Press Continue.</p>,0,html-button-response,343,1472738,0.0-18.0-25.0,38654,List2A,white,woman,,,,,,,,
null,"<div style=""font-size:60px;"">+</div>",,html-keyboard-response,344,1474244,0.0-19.0-0.0,38654,List2A,white,woman,,,,null,,,,
null,"<img src=""stim_listA/kiss1.gif""style=""height:400px;""></stim_listA>",,html-keyboard-response,345,1476249,0.0-19.0-1.0,38654,List2A,white,woman,,,,null,,,,
null,is kissing,,html-keyboard-response,346,1478252,0.0-19.0-2.0,38654,List2A,white,woman,,,,null,,,,
6637,,,survey-text,347,1484891,0.0-19.0-3.0,38654,List2A,white,woman,,,,,"{""Q0"":""luke is kissing ruth""}","<img src=""stim_listA/kiss1.gif""style=""height:400px;""></stim_listA>",is kissing,
null,"<div style=""font-size:60px;"">+</div>",,html-keyboard-response,348,1485393,0.0-19.0-0.1,38654,List2A,white,woman,,,,null,,,,
null,"<img src=""stim_listA/flirt8.gif""style=""height:400px;""></stim_listA>",,html-keyboard-response,349,1487394,0.0-19.0-1.1,38654,List2A,white,woman,,,,null,,,,
null,are flirting with each other,,html-keyboard-response,350,1489396,0.0-19.0-2.1,38654,List2A,white,woman,,,,null,,,,
7121,,,survey-text,351,1496517,0.0-19.0-3.1,38654,List2A,white,woman,,,,,"{""Q0"":""beth and jane are flirting with each other""}","<img src=""stim_listA/flirt8.gif""style=""height:400px;""></stim_listA>",are flirting with each other,
null,"<div style=""font-size:60px;"">+</div>",,html-keyboard-response,352,1497019,0.0-19.0-0.2,38654,List2A,white,woman,,,,null,,,,
null,"<img src=""stim_listA/fight2.gif""style=""height:400px;""></stim_listA>",,html-keyboard-response,353,1499022,0.0-19.0-1.2,38654,List2A,white,woman,,,,null,,,,
null,are fighting each other,,html-keyboard-response,354,1501025,0.0-19.0-2.2,38654,List2A,white,woman,,,,null,,,,
8510,,,survey-text,355,1509537,0.0-19.0-3.2,38654,List2A,white,woman,,,,,"{""Q0"":""luke and ruth are fighting with each other""}","<img src=""stim_listA/fight2.gif""style=""height:400px;""></stim_listA>",are fighting each other,
null,"<div style=""font-size:60px;"">+</div>",,html-keyboard-response,356,1510039,0.0-19.0-0.3,38654,List2A,white,woman,,,,null,,,,
null,"<img src=""stim_listA/dance2.gif""style=""height:400px;""></stim_listA>",,html-keyboard-response,357,1512044,0.0-19.0-1.3,38654,List2A,white,woman,,,,null,,,,
null,are dancing with each other,,html-keyboard-response,358,1514047,0.0-19.0-2.3,38654,List2A,white,woman,,,,null,,,,
5970,,,survey-text,359,1520018,0.0-19.0-3.3,38654,List2A,white,woman,,,,,"{""Q0"":""ruth and dave are dancing with each other""}","<img src=""stim_listA/dance2.gif""style=""height:400px;""></stim_listA>",are dancing with each other,
null,"<div style=""font-size:60px;"">+</div>",,html-keyboard-response,360,1520519,0.0-19.0-0.4,38654,List2A,white,woman,,,,null,,,,
null,"<img src=""stim_listA/marry2.gif""style=""height:400px;""></stim_listA>",,html-keyboard-response,361,1522521,0.0-19.0-1.4,38654,List2A,white,woman,,,,null,,,,
null,are marrying each other,,html-keyboard-response,362,1524523,0.0-19.0-2.4,38654,List2A,white,woman,,,,null,,,,
5518,,,survey-text,363,1530044,0.0-19.0-3.4,38654,List2A,white,woman,,,,,"{""Q0"":""jane and luke are marrying each other""}","<img src=""stim_listA/marry2.gif""style=""height:400px;""></stim_listA>",are marrying each other,
null,"<div style=""font-size:60px;"">+</div>",,html-keyboard-response,364,1530545,0.0-19.0-0.5,38654,List2A,white,woman,,,,null,,,,
null,"<img src=""stim_listA/shout7.gif""style=""height:400px;""></stim_listA>",,html-keyboard-response,365,1532551,0.0-19.0-1.5,38654,List2A,white,woman,,,,null,,,,
null,is shouting at,,html-keyboard-response,366,1534554,0.0-19.0-2.5,38654,List2A,white,woman,,,,null,,,,
5186,,,survey-text,367,1539740,0.0-19.0-3.5,38654,List2A,white,woman,,,,,"{""Q0"":""ruth is shouting at beth""}","<img src=""stim_listA/shout7.gif""style=""height:400px;""></stim_listA>",is shouting at,
null,"<div style=""font-size:60px;"">+</div>",,html-keyboard-response,368,1540242,0.0-19.0-0.6,38654,List2A,white,woman,,,,null,,,,
null,"<img src=""stim_listA/touch6.gif""style=""height:400px;""></stim_listA>",,html-keyboard-response,369,1542247,0.0-19.0-1.6,38654,List2A,white,woman,,,,null,,,,
null,are touching each other,,html-keyboard-response,370,1544250,0.0-19.0-2.6,38654,List2A,white,woman,,,,null,,,,
7721,,,survey-text,371,1551974,0.0-19.0-3.6,38654,List2A,white,woman,,,,,"{""Q0"":""fred and luke are touching each other""}","<img src=""stim_listA/touch6.gif""style=""height:400px;""></stim_listA>",are touching each other,
null,"<div style=""font-size:60px;"">+</div>",,html-keyboard-response,372,1552477,0.0-19.0-0.7,38654,List2A,white,woman,,,,null,,,,
null,"<img src=""stim_listA/play4.gif""style=""height:400px;""></stim_listA>",,html-keyboard-response,373,1554482,0.0-19.0-1.7,38654,List2A,white,woman,,,,null,,,,
null,are playing with each other,,html-keyboard-response,374,1556484,0.0-19.0-2.7,38654,List2A,white,woman,,,,null,,,,
5842,,,survey-text,375,1562328,0.0-19.0-3.7,38654,List2A,white,woman,,,,,"{""Q0"":""beth and fred are playing with each other""}","<img src=""stim_listA/play4.gif""style=""height:400px;""></stim_listA>",are playing with each other,
null,"<div style=""font-size:60px;"">+</div>",,html-keyboard-response,376,1562829,0.0-19.0-0.8,38654,List2A,white,woman,,,,null,,,,
null,"<img src=""stim_listA/marry3.gif""style=""height:400px;""></stim_listA>",,html-keyboard-response,377,1564831,0.0-19.0-1.8,38654,List2A,white,woman,,,,null,,,,
null,is marrying,,html-keyboard-response,378,1566834,0.0-19.0-2.8,38654,List2A,white,woman,,,,null,,,,
9437,,,survey-text,379,1576273,0.0-19.0-3.8,38654,List2A,white,woman,,,,,"{""Q0"":""mike is marrying beth""}","<img src=""stim_listA/marry3.gif""style=""height:400px;""></stim_listA>",is marrying,
null,"<div style=""font-size:60px;"">+</div>",,html-keyboard-response,380,1576776,0.0-19.0-0.9,38654,List2A,white,woman,,,,null,,,,
null,"<img src=""stim_listA/flirt3.gif""style=""height:400px;""></stim_listA>",,html-keyboard-response,381,1578781,0.0-19.0-1.9,38654,List2A,white,woman,,,,null,,,,
null,is flirting with,,html-keyboard-response,382,1580784,0.0-19.0-2.9,38654,List2A,white,woman,,,,null,,,,
6002,,,survey-text,383,1586787,0.0-19.0-3.9,38654,List2A,white,woman,,,,,"{""Q0"":""kate is flirting with fred""}","<img src=""stim_listA/flirt3.gif""style=""height:400px;""></stim_listA>",is flirting with,
null,"<div style=""font-size:60px;"">+</div>",,html-keyboard-response,384,1587289,0.0-19.0-0.10,38654,List2A,white,woman,,,,null,,,,
null,"<img src=""stim_listA/touch4.gif""style=""height:400px;""></stim_listA>",,html-keyboard-response,385,1589295,0.0-19.0-1.10,38654,List2A,white,woman,,,,null,,,,
null,are touching each other,,html-keyboard-response,386,1591299,0.0-19.0-2.10,38654,List2A,white,woman,,,,null,,,,
5584,,,survey-text,387,1596884,0.0-19.0-3.10,38654,List2A,white,woman,,,,,"{""Q0"":""beth and fred are touching each other""}","<img src=""stim_listA/touch4.gif""style=""height:400px;""></stim_listA>",are touching each other,
null,"<div style=""font-size:60px;"">+</div>",,html-keyboard-response,388,1597387,0.0-19.0-0.11,38654,List2A,white,woman,,,,null,,,,
null,"<img src=""stim_listA/argue1.gif""style=""height:400px;""></stim_listA>",,html-keyboard-response,389,1599393,0.0-19.0-1.11,38654,List2A,white,woman,,,,null,,,,
null,is arguing with,,html-keyboard-response,390,1601396,0.0-19.0-2.11,38654,List2A,white,woman,,,,null,,,,
8767,,,survey-text,391,1610165,0.0-19.0-3.11,38654,List2A,white,woman,,,,,"{""Q0"":""dave is arguing with ruth""}","<img src=""stim_listA/argue1.gif""style=""height:400px;""></stim_listA>",is arguing with,
null,"<div style=""font-size:60px;"">+</div>",,html-keyboard-response,392,1610667,0.0-19.0-0.12,38654,List2A,white,woman,,,,null,,,,
null,"<img src=""stim_listA/flirt2.gif""style=""height:400px;""></stim_listA>",,html-keyboard-response,393,1612670,0.0-19.0-1.12,38654,List2A,white,woman,,,,null,,,,
null,are flirting with each other,,html-keyboard-response,394,1614674,0.0-19.0-2.12,38654,List2A,white,woman,,,,null,,,,
7963,,,survey-text,395,1622639,0.0-19.0-3.12,38654,List2A,white,woman,,,,,"{""Q0"":""ruth and dave are flirting with each other""}","<img src=""stim_listA/flirt2.gif""style=""height:400px;""></stim_listA>",are flirting with each other,
null,"<div style=""font-size:60px;"">+</div>",,html-keyboard-response,396,1623142,0.0-19.0-0.13,38654,List2A,white,woman,,,,null,,,,
null,"<img src=""stim_listA/fight7.gif""style=""height:400px;""></stim_listA>",,html-keyboard-response,397,1625148,0.0-19.0-1.13,38654,List2A,white,woman,,,,null,,,,
null,is fighting,,html-keyboard-response,398,1627151,0.0-19.0-2.13,38654,List2A,white,woman,,,,null,,,,
3546,,,survey-text,399,1630698,0.0-19.0-3.13,38654,List2A,white,woman,,,,,"{""Q0"":""jane is fighting kate""}","<img src=""stim_listA/fight7.gif""style=""height:400px;""></stim_listA>",is fighting,
null,"<div style=""font-size:60px;"">+</div>",,html-keyboard-response,400,1631201,0.0-19.0-0.14,38654,List2A,white,woman,,,,null,,,,
null,"<img src=""stim_listA/dance3.gif""style=""height:400px;""></stim_listA>",,html-keyboard-response,401,1633207,0.0-19.0-1.14,38654,List2A,white,woman,,,,null,,,,
null,is dancing with,,html-keyboard-response,402,1635210,0.0-19.0-2.14,38654,List2A,white,woman,,,,null,,,,
4862,,,survey-text,403,1640073,0.0-19.0-3.14,38654,List2A,white,woman,,,,,"{""Q0"":""fred is dancing with kate""}","<img src=""stim_listA/dance3.gif""style=""height:400px;""></stim_listA>",is dancing with,
null,"<div style=""font-size:60px;"">+</div>",,html-keyboard-response,404,1640576,0.0-19.0-0.15,38654,List2A,white,woman,,,,null,,,,
null,"<img src=""stim_listA/touch2.gif""style=""height:400px;""></stim_listA>",,html-keyboard-response,405,1642584,0.0-19.0-1.15,38654,List2A,white,woman,,,,null,,,,
null,are touching each other,,html-keyboard-response,406,1644586,0.0-19.0-2.15,38654,List2A,white,woman,,,,null,,,,
5712,,,survey-text,407,1650299,0.0-19.0-3.15,38654,List2A,white,woman,,,,,"{""Q0"":""ruth and luke are touching each other""}","<img src=""stim_listA/touch2.gif""style=""height:400px;""></stim_listA>",are touching each other,
null,"<div style=""font-size:60px;"">+</div>",,html-keyboard-response,408,1650801,0.0-19.0-0.16,38654,List2A,white,woman,,,,null,,,,
null,"<img src=""stim_listA/fight8.gif""style=""height:400px;""></stim_listA>",,html-keyboard-response,409,1652806,0.0-19.0-1.16,38654,List2A,white,woman,,,,null,,,,
null,are fighting each other,,html-keyboard-response,410,1654811,0.0-19.0-2.16,38654,List2A,white,woman,,,,null,,,,
6415,,,survey-text,411,1661228,0.0-19.0-3.16,38654,List2A,white,woman,,,,,"{""Q0"":""beth and ruth are fighting each other""}","<img src=""stim_listA/fight8.gif""style=""height:400px;""></stim_listA>",are fighting each other,
null,"<div style=""font-size:60px;"">+</div>",,html-keyboard-response,412,1661731,0.0-19.0-0.17,38654,List2A,white,woman,,,,null,,,,
null,"<img src=""stim_listA/flirt4.gif""style=""height:400px;""></stim_listA>",,html-keyboard-response,413,1663736,0.0-19.0-1.17,38654,List2A,white,woman,,,,null,,,,
null,are flirting with each other,,html-keyboard-response,414,1665738,0.0-19.0-2.17,38654,List2A,white,woman,,,,null,,,,
5241,,,survey-text,415,1670981,0.0-19.0-3.17,38654,List2A,white,woman,,,,,"{""Q0"":""beth and mike are flirting with each other""}","<img src=""stim_listA/flirt4.gif""style=""height:400px;""></stim_listA>",are flirting with each other,
null,"<div style=""font-size:60px;"">+</div>",,html-keyboard-response,416,1671483,0.0-19.0-0.18,38654,List2A,white,woman,,,,null,,,,
null,"<img src=""stim_listA/kiss3.gif""style=""height:400px;""></stim_listA>",,html-keyboard-response,417,1673485,0.0-19.0-1.18,38654,List2A,white,woman,,,,null,,,,
null,is kissing,,html-keyboard-response,418,1675488,0.0-19.0-2.18,38654,List2A,white,woman,,,,null,,,,
3972,,,survey-text,419,1679462,0.0-19.0-3.18,38654,List2A,white,woman,,,,,"{""Q0"":""beth is kissing fred""}","<img src=""stim_listA/kiss3.gif""style=""height:400px;""></stim_listA>",is kissing,
null,"<div style=""font-size:60px;"">+</div>",,html-keyboard-response,420,1679964,0.0-19.0-0.19,38654,List2A,white,woman,,,,null,,,,
null,"<img src=""stim_listA/fight6.gif""style=""height:400px;""></stim_listA>",,html-keyboard-response,421,1681968,0.0-19.0-1.19,38654,List2A,white,woman,,,,null,,,,
null,are fighting each other,,html-keyboard-response,422,1683969,0.0-19.0-2.19,38654,List2A,white,woman,,,,null,,,,
5358,,,survey-text,423,1689327,0.0-19.0-3.19,38654,List2A,white,woman,,,,,"{""Q0"":""fred and luke are fighting with each other""}","<img src=""stim_listA/fight6.gif""style=""height:400px;""></stim_listA>",are fighting each other,
2272,<p>Thank you for completing that task.</p><p>The final part of this session is a short questionnaire.</p><p>Press Continue.</p>,0,html-button-response,424,1691600,0.0-20.0,38654,List2A,white,woman,,,,,,,,
22224,,,survey-text,425,1714826,0.0-21.0,38654,List2A,white,woman,,,,,"{""Q0"":""26"",""Q1"":""English"",""Q2"":""English"",""Q3"":""England"",""Q4"":""White British"",""Q5"":""Female""}",,,demographics
8736,,,survey-likert,426,1723564,0.0-22.0,38654,List2A,white,woman,,,,,"{""Q0"":4}",,,likert_ESS
33803,,,survey-likert,427,1757370,0.0-23.0,38654,List2A,white,woman,,,,,"{""Q0"":4}",,,likert_NSSAL_Q1
2655,,,survey-likert,428,1760027,0.0-24.0,38654,List2A,white,woman,,,,,"{""Q0"":4}",,,likert_NSSAL_Q2
3205,,,survey-likert,429,1763234,0.0-25.0,38654,List2A,white,woman,,,,,"{""Q0"":4}",,,likert_CGRS_Q1
3717,,,survey-likert,430,1766953,0.0-26.0,38654,List2A,white,woman,,,,,"{""Q0"":4}",,,likert_CGRS_Q2
2638,,,survey-likert,431,1769594,0.0-27.0,38654,List2A,white,woman,,,,,"{""Q0"":4}",,,likert_CGRS_Q3
7113,,,survey-text,432,1776708,0.0-28.0,38654,List2A,white,woman,,,,,"{""Q0"":""ccc""}",,,worker_id
19749,,,external-html,433,1796523,0.0-29.0,38654,List2A,white,woman,debrief.html,,,,,,,
