rt,stimulus,button_pressed,trial_type,trial_index,time_elapsed,internal_node_id,subject,list,ppt_race,ppt_gender,url,first_guess,correct,key_press,responses,image_type,phrase_type,test_part
14917,Welcome to the experiment. Press Continue to begin.,0,html-button-response,0,14925,0.0-0.0,38971,List2A,black,man,,,,,,,,
21935,,,external-html,1,38174,0.0-1.0,38971,List2A,black,man,consent.html,,,,,,,
8048,"<p>On the next page, you will see portraits of 8 people and their names.</p><p>Your first task is to take a few minutes to memorise the names of these people.</p><p>You will have to recall their names during the rest of the experiment, so it is</p><p>essential that you try to memorise these people and their names as best as you can.</p><br><p><strong>You will then be tested on your memory of these names and portraits.</strong></p><br><p>The experiment will start after you have completed this memory test.</p><br><p>Ready?</p>",0,html-button-response,2,46226,0.0-2.0,38971,List2A,black,man,,,,,,,,
30384,"<img src='img/portrait_matrix_list2.jpg' style='width:900px;height:500px;''></img><p>If you have memorised all the portraits and names and are ready to start, press Continue.</p><p><strong>Please note: Your memory of these faces will be tested 4 times during this experiment.</strong></p>",0,html-button-response,3,77616,0.0-3.0-0.0,38971,List2A,black,man,,,,,,,,
7330,"<img src=""portrait/BM1.jpg""style=""height:400px;""></img>",4,html-button-response,4,85962,0.0-3.0-1.0,38971,List2A,black,man,,TRUE,4,,,,,
null,CORRECT,,html-keyboard-response,5,87469,0.0-3.0-2.0-0.0,38971,List2A,black,man,,,,null,,,,
4688,"<img src=""portrait/BW1.jpg""style=""height:400px;""></img>",0,html-button-response,6,92163,0.0-3.0-4.0,38971,List2A,black,man,,TRUE,0,,,,,
null,CORRECT,,html-keyboard-response,7,93667,0.0-3.0-5.0-0.0,38971,List2A,black,man,,,,null,,,,
5009,"<img src=""portrait/BM2.jpg""style=""height:400px;""></img>",5,html-button-response,8,98680,0.0-3.0-7.0,38971,List2A,black,man,,TRUE,5,,,,,
null,CORRECT,,html-keyboard-response,9,100184,0.0-3.0-8.0-0.0,38971,List2A,black,man,,,,null,,,,
4463,"<img src=""portrait/WW1.jpg""style=""height:400px;""></img>",1,html-button-response,10,104651,0.0-3.0-10.0,38971,List2A,black,man,,TRUE,1,,,,,
null,CORRECT,,html-keyboard-response,11,106155,0.0-3.0-11.0-0.0,38971,List2A,black,man,,,,null,,,,
3986,"<img src=""portrait/WM2.jpg""style=""height:400px;""></img>",7,html-button-response,12,110146,0.0-3.0-13.0,38971,List2A,black,man,,TRUE,7,,,,,
null,CORRECT,,html-keyboard-response,13,111651,0.0-3.0-14.0-0.0,38971,List2A,black,man,,,,null,,,,
4590,"<img src=""portrait/WW2.jpg""style=""height:400px;""></img>",3,html-button-response,14,116244,0.0-3.0-16.0,38971,List2A,black,man,,TRUE,3,,,,,
null,CORRECT,,html-keyboard-response,15,117749,0.0-3.0-17.0-0.0,38971,List2A,black,man,,,,null,,,,
4746,"<img src=""portrait/WM1.jpg""style=""height:400px;""></img>",6,html-button-response,16,122500,0.0-3.0-19.0,38971,List2A,black,man,,TRUE,6,,,,,
null,CORRECT,,html-keyboard-response,17,124004,0.0-3.0-20.0-0.0,38971,List2A,black,man,,,,null,,,,
5028,"<img src=""portrait/BW2.jpg""style=""height:400px;""></img>",2,html-button-response,18,129035,0.0-3.0-22.0,38971,List2A,black,man,,TRUE,2,,,,,
null,CORRECT,,html-keyboard-response,19,130539,0.0-3.0-23.0-0.0,38971,List2A,black,man,,,,null,,,,
2461,<p>You got 8 out of 8 right first time. Press Continue.</p>,0,html-button-response,20,133003,0.0-3.0-25.0,38971,List2A,black,man,,,,,,,,
56925,"<p>In this experiment, you will view photographs of the people from the memory game interacting.</p><p>By using the <strong>exact</strong> phrase given <i>after</i> the photograph appears and recalling the correct names of the people in the photographs, form a sentence describing the interaction. You do not need to capitalise names.</p><p>Type your answer in the space provided. Please complete every sentence before moving onto the next trial.</p><p>You will only have a few seconds to memorise each given photograph and phrase before you can respond, so try your best to focus.</p><p>An example is given below. Press 'Continue' when you are ready.</p><img src='img/speaking_example.jpg' style='width:800px;height:460px;''></img>",0,html-button-response,21,190934,0.0-4.0,38971,List2A,black,man,,,,,,,,
3502,"<p>Before the experiment starts, you will watch two example trials. Press 'Continue'.</p>",0,html-button-response,22,195440,0.0-5.0,38971,List2A,black,man,,,,,,,,
null,<img src='img/meet_eg.gif' style='height:400px;''></img>,,html-keyboard-response,23,198444,0.0-6.0,38971,List2A,black,man,,,,null,,,,
null,<p>is meeting</p>,,html-keyboard-response,24,200447,0.0-7.0,38971,List2A,black,man,,,,null,,,,
3571,<p><b>Answer:</b> jane is meeting ruth</p>,0,html-button-response,25,204026,0.0-8.0,38971,List2A,black,man,,,,,,,,
null,<img src='img/look_eg.gif' style='height:400px;''></img>,,html-keyboard-response,26,207031,0.0-9.0,38971,List2A,black,man,,,,null,,,,
null,<p>are looking at each other</p>,,html-keyboard-response,27,209034,0.0-10.0,38971,List2A,black,man,,,,null,,,,
2874,<p><b>Answer:</b> fred and mike are looking at each other</p>,0,html-button-response,28,211911,0.0-11.0,38971,List2A,black,man,,,,,,,,
1665,"<p>Ready to start the experiment?</p><br><p><strong>Remember to describe the picture using a full sentence,</strong></p><p><strong>that combines the names of the people with the <i>exact</i> phrase given.</strong></p><p><strong>To receive full payment you must do this correctly.</strong></p><p><strong> You do not need to capitalise names or use punctuation.</strong></p><br><p>Press 'Continue' to begin.</p>",0,html-button-response,29,214580,0.0-12.0,38971,List2A,black,man,,,,,,,,
null,"<div style=""font-size:60px;"">+</div>",,html-keyboard-response,30,216084,0.0-13.0-0.0,38971,List2A,black,man,,,,null,,,,
null,"<img src=""stim_listA/kiss5.gif""style=""height:400px;""></stim_listA>",,html-keyboard-response,31,218093,0.0-13.0-1.0,38971,List2A,black,man,,,,null,,,,
null,is kissing,,html-keyboard-response,32,220097,0.0-13.0-2.0,38971,List2A,black,man,,,,null,,,,
21628,,,survey-text,33,241732,0.0-13.0-3.0,38971,List2A,black,man,,,,,"{""Q0"":""Fred and Luke are kissing each other.""}","<img src=""stim_listA/kiss5.gif""style=""height:400px;""></stim_listA>",is kissing,
null,"<div style=""font-size:60px;"">+</div>",,html-keyboard-response,34,242239,0.0-13.0-0.1,38971,List2A,black,man,,,,null,,,,
null,"<img src=""stim_listA/marry7.gif""style=""height:400px;""></stim_listA>",,html-keyboard-response,35,244242,0.0-13.0-1.1,38971,List2A,black,man,,,,null,,,,
null,is marrying,,html-keyboard-response,36,246245,0.0-13.0-2.1,38971,List2A,black,man,,,,null,,,,
18111,,,survey-text,37,264364,0.0-13.0-3.1,38971,List2A,black,man,,,,,"{""Q0"":""Jane is marrying Beth ""}","<img src=""stim_listA/marry7.gif""style=""height:400px;""></stim_listA>",is marrying,
null,"<div style=""font-size:60px;"">+</div>",,html-keyboard-response,38,264871,0.0-13.0-0.2,38971,List2A,black,man,,,,null,,,,
null,"<img src=""stim_listA/argue7.gif""style=""height:400px;""></stim_listA>",,html-keyboard-response,39,266882,0.0-13.0-1.2,38971,List2A,black,man,,,,null,,,,
null,is arguing with,,html-keyboard-response,40,268886,0.0-13.0-2.2,38971,List2A,black,man,,,,null,,,,
23349,,,survey-text,41,292238,0.0-13.0-3.2,38971,List2A,black,man,,,,,"{""Q0"":""Jane is arguing with Beth. ""}","<img src=""stim_listA/argue7.gif""style=""height:400px;""></stim_listA>",is arguing with,
null,"<div style=""font-size:60px;"">+</div>",,html-keyboard-response,42,292741,0.0-13.0-0.3,38971,List2A,black,man,,,,null,,,,
null,"<img src=""stim_listA/touch5.gif""style=""height:400px;""></stim_listA>",,html-keyboard-response,43,294747,0.0-13.0-1.3,38971,List2A,black,man,,,,null,,,,
null,is touching,,html-keyboard-response,44,296749,0.0-13.0-2.3,38971,List2A,black,man,,,,null,,,,
44325,,,survey-text,45,341078,0.0-13.0-3.3,38971,List2A,black,man,,,,,"{""Q0"":""Dave gave mike a high five. ""}","<img src=""stim_listA/touch5.gif""style=""height:400px;""></stim_listA>",is touching,
null,"<div style=""font-size:60px;"">+</div>",,html-keyboard-response,46,341583,0.0-13.0-0.4,38971,List2A,black,man,,,,null,,,,
null,"<img src=""stim_listA/touch7.gif""style=""height:400px;""></stim_listA>",,html-keyboard-response,47,343588,0.0-13.0-1.4,38971,List2A,black,man,,,,null,,,,
null,is touching,,html-keyboard-response,48,345591,0.0-13.0-2.4,38971,List2A,black,man,,,,null,,,,
26714,,,survey-text,49,372308,0.0-13.0-3.4,38971,List2A,black,man,,,,,"{""Q0"":""Jane Is touching Kate’s hand.""}","<img src=""stim_listA/touch7.gif""style=""height:400px;""></stim_listA>",is touching,
null,"<div style=""font-size:60px;"">+</div>",,html-keyboard-response,50,372811,0.0-13.0-0.5,38971,List2A,black,man,,,,null,,,,
null,"<img src=""stim_listA/play6.gif""style=""height:400px;""></stim_listA>",,html-keyboard-response,51,374815,0.0-13.0-1.5,38971,List2A,black,man,,,,null,,,,
null,are playing with each other,,html-keyboard-response,52,376818,0.0-13.0-2.5,38971,List2A,black,man,,,,null,,,,
32881,,,survey-text,53,409701,0.0-13.0-3.5,38971,List2A,black,man,,,,,"{""Q0"":""Luke is touching Fred ""}","<img src=""stim_listA/play6.gif""style=""height:400px;""></stim_listA>",are playing with each other,
null,"<div style=""font-size:60px;"">+</div>",,html-keyboard-response,54,410207,0.0-13.0-0.6,38971,List2A,black,man,,,,null,,,,
null,"<img src=""stim_listA/touch6.gif""style=""height:400px;""></stim_listA>",,html-keyboard-response,55,412211,0.0-13.0-1.6,38971,List2A,black,man,,,,null,,,,
null,are touching each other,,html-keyboard-response,56,414214,0.0-13.0-2.6,38971,List2A,black,man,,,,null,,,,
30354,,,survey-text,57,444571,0.0-13.0-3.6,38971,List2A,black,man,,,,,"{""Q0"":""Luke and Fred Are touching each other.""}","<img src=""stim_listA/touch6.gif""style=""height:400px;""></stim_listA>",are touching each other,
null,"<div style=""font-size:60px;"">+</div>",,html-keyboard-response,58,445077,0.0-13.0-0.7,38971,List2A,black,man,,,,null,,,,
null,"<img src=""stim_listA/fight3.gif""style=""height:400px;""></stim_listA>",,html-keyboard-response,59,447083,0.0-13.0-1.7,38971,List2A,black,man,,,,null,,,,
null,is fighting,,html-keyboard-response,60,449092,0.0-13.0-2.7,38971,List2A,black,man,,,,null,,,,
27232,,,survey-text,61,476327,0.0-13.0-3.7,38971,List2A,black,man,,,,,"{""Q0"":""Mike Is fighting Kate""}","<img src=""stim_listA/fight3.gif""style=""height:400px;""></stim_listA>",is fighting,
null,"<div style=""font-size:60px;"">+</div>",,html-keyboard-response,62,476831,0.0-13.0-0.8,38971,List2A,black,man,,,,null,,,,
null,"<img src=""stim_listA/fight4.gif""style=""height:400px;""></stim_listA>",,html-keyboard-response,63,478836,0.0-13.0-1.8,38971,List2A,black,man,,,,null,,,,
null,are fighting each other,,html-keyboard-response,64,480841,0.0-13.0-2.8,38971,List2A,black,man,,,,null,,,,
35138,,,survey-text,65,515982,0.0-13.0-3.8,38971,List2A,black,man,,,,,"{""Q0"":""Jane is touching Ruth ""}","<img src=""stim_listA/fight4.gif""style=""height:400px;""></stim_listA>",are fighting each other,
null,"<div style=""font-size:60px;"">+</div>",,html-keyboard-response,66,516485,0.0-13.0-0.9,38971,List2A,black,man,,,,null,,,,
null,"<img src=""stim_listA/flirt6.gif""style=""height:400px;""></stim_listA>",,html-keyboard-response,67,518489,0.0-13.0-1.9,38971,List2A,black,man,,,,null,,,,
null,are flirting with each other,,html-keyboard-response,68,520492,0.0-13.0-2.9,38971,List2A,black,man,,,,null,,,,
40772,,,survey-text,69,561266,0.0-13.0-3.9,38971,List2A,black,man,,,,,"{""Q0"":""Fred and Luke are flirting with each other.""}","<img src=""stim_listA/flirt6.gif""style=""height:400px;""></stim_listA>",are flirting with each other,
null,"<div style=""font-size:60px;"">+</div>",,html-keyboard-response,70,561769,0.0-13.0-0.10,38971,List2A,black,man,,,,null,,,,
null,"<img src=""stim_listA/dance7.gif""style=""height:400px;""></stim_listA>",,html-keyboard-response,71,563772,0.0-13.0-1.10,38971,List2A,black,man,,,,null,,,,
null,is dancing with,,html-keyboard-response,72,565775,0.0-13.0-2.10,38971,List2A,black,man,,,,null,,,,
22745,,,survey-text,73,588523,0.0-13.0-3.10,38971,List2A,black,man,,,,,"{""Q0"":""Ruth Is dancing with Kate ""}","<img src=""stim_listA/dance7.gif""style=""height:400px;""></stim_listA>",is dancing with,
null,"<div style=""font-size:60px;"">+</div>",,html-keyboard-response,74,589027,0.0-13.0-0.11,38971,List2A,black,man,,,,null,,,,
null,"<img src=""stim_listA/dance4.gif""style=""height:400px;""></stim_listA>",,html-keyboard-response,75,591031,0.0-13.0-1.11,38971,List2A,black,man,,,,null,,,,
null,are dancing with each other,,html-keyboard-response,76,593034,0.0-13.0-2.11,38971,List2A,black,man,,,,null,,,,
34075,,,survey-text,77,627112,0.0-13.0-3.11,38971,List2A,black,man,,,,,"{""Q0"":""Mike and Beth Are dancing with each other.""}","<img src=""stim_listA/dance4.gif""style=""height:400px;""></stim_listA>",are dancing with each other,
null,"<div style=""font-size:60px;"">+</div>",,html-keyboard-response,78,627615,0.0-13.0-0.12,38971,List2A,black,man,,,,null,,,,
null,"<img src=""stim_listA/marry8.gif""style=""height:400px;""></stim_listA>",,html-keyboard-response,79,629619,0.0-13.0-1.12,38971,List2A,black,man,,,,null,,,,
null,are marrying each other,,html-keyboard-response,80,631622,0.0-13.0-2.12,38971,List2A,black,man,,,,null,,,,
63407,,,survey-text,81,695033,0.0-13.0-3.12,38971,List2A,black,man,,,,,"{""Q0"":""Luke and Ruth Are marrying each other ""}","<img src=""stim_listA/marry8.gif""style=""height:400px;""></stim_listA>",are marrying each other,
null,"<div style=""font-size:60px;"">+</div>",,html-keyboard-response,82,695541,0.0-13.0-0.13,38971,List2A,black,man,,,,null,,,,
null,"<img src=""stim_listA/shout8.gif""style=""height:400px;""></stim_listA>",,html-keyboard-response,83,697545,0.0-13.0-1.13,38971,List2A,black,man,,,,null,,,,
null,are shouting at each other,,html-keyboard-response,84,699549,0.0-13.0-2.13,38971,List2A,black,man,,,,null,,,,
26037,,,survey-text,85,725589,0.0-13.0-3.13,38971,List2A,black,man,,,,,"{""Q0"":""Jane and Dave are shouting at each other ""}","<img src=""stim_listA/shout8.gif""style=""height:400px;""></stim_listA>",are shouting at each other,
null,"<div style=""font-size:60px;"">+</div>",,html-keyboard-response,86,726092,0.0-13.0-0.14,38971,List2A,black,man,,,,null,,,,
null,"<img src=""stim_listA/argue5.gif""style=""height:400px;""></stim_listA>",,html-keyboard-response,87,728098,0.0-13.0-1.14,38971,List2A,black,man,,,,null,,,,
null,is arguing with,,html-keyboard-response,88,730102,0.0-13.0-2.14,38971,List2A,black,man,,,,null,,,,
30302,,,survey-text,89,760406,0.0-13.0-3.14,38971,List2A,black,man,,,,,"{""Q0"":""Dave and Fred Are looking at each other ""}","<img src=""stim_listA/argue5.gif""style=""height:400px;""></stim_listA>",is arguing with,
null,"<div style=""font-size:60px;"">+</div>",,html-keyboard-response,90,760908,0.0-13.0-0.15,38971,List2A,black,man,,,,null,,,,
null,"<img src=""stim_listA/talk7.gif""style=""height:400px;""></stim_listA>",,html-keyboard-response,91,762912,0.0-13.0-1.15,38971,List2A,black,man,,,,null,,,,
null,is talking to,,html-keyboard-response,92,764915,0.0-13.0-2.15,38971,List2A,black,man,,,,null,,,,
22793,,,survey-text,93,787712,0.0-13.0-3.15,38971,List2A,black,man,,,,,"{""Q0"":""Ruth is talking to kate""}","<img src=""stim_listA/talk7.gif""style=""height:400px;""></stim_listA>",is talking to,
null,"<div style=""font-size:60px;"">+</div>",,html-keyboard-response,94,788215,0.0-13.0-0.16,38971,List2A,black,man,,,,null,,,,
null,"<img src=""stim_listA/kiss1.gif""style=""height:400px;""></stim_listA>",,html-keyboard-response,95,790219,0.0-13.0-1.16,38971,List2A,black,man,,,,null,,,,
null,is kissing,,html-keyboard-response,96,792223,0.0-13.0-2.16,38971,List2A,black,man,,,,null,,,,
24739,,,survey-text,97,816965,0.0-13.0-3.16,38971,List2A,black,man,,,,,"{""Q0"":""Luke is kissing Ruth ""}","<img src=""stim_listA/kiss1.gif""style=""height:400px;""></stim_listA>",is kissing,
null,"<div style=""font-size:60px;"">+</div>",,html-keyboard-response,98,817468,0.0-13.0-0.17,38971,List2A,black,man,,,,null,,,,
null,"<img src=""stim_listA/touch3.gif""style=""height:400px;""></stim_listA>",,html-keyboard-response,99,819472,0.0-13.0-1.17,38971,List2A,black,man,,,,null,,,,
null,is touching,,html-keyboard-response,100,821476,0.0-13.0-2.17,38971,List2A,black,man,,,,null,,,,
47518,,,survey-text,101,868997,0.0-13.0-3.17,38971,List2A,black,man,,,,,"{""Q0"":""Luke and Ruth are arguing. ""}","<img src=""stim_listA/touch3.gif""style=""height:400px;""></stim_listA>",is touching,
null,"<div style=""font-size:60px;"">+</div>",,html-keyboard-response,102,869502,0.0-13.0-0.18,38971,List2A,black,man,,,,null,,,,
null,"<img src=""stim_listA/talk3.gif""style=""height:400px;""></stim_listA>",,html-keyboard-response,103,871506,0.0-13.0-1.18,38971,List2A,black,man,,,,null,,,,
null,is talking to,,html-keyboard-response,104,873509,0.0-13.0-2.18,38971,List2A,black,man,,,,null,,,,
64202,,,survey-text,105,937713,0.0-13.0-3.18,38971,List2A,black,man,,,,,"{""Q0"":""Jane is touching Fred. ""}","<img src=""stim_listA/talk3.gif""style=""height:400px;""></stim_listA>",is talking to,
null,"<div style=""font-size:60px;"">+</div>",,html-keyboard-response,106,938220,0.0-13.0-0.19,38971,List2A,black,man,,,,null,,,,
null,"<img src=""stim_listA/argue4.gif""style=""height:400px;""></stim_listA>",,html-keyboard-response,107,940225,0.0-13.0-1.19,38971,List2A,black,man,,,,null,,,,
null,are arguing with each other,,html-keyboard-response,108,942228,0.0-13.0-2.19,38971,List2A,black,man,,,,null,,,,
25403,,,survey-text,109,967635,0.0-13.0-3.19,38971,List2A,black,man,,,,,"{""Q0"":""Kate and Fred are arguing with each other ""}","<img src=""stim_listA/argue4.gif""style=""height:400px;""></stim_listA>",are arguing with each other,
9754,"<img src='img/portrait_matrix_list2.jpg' style='width:900px;height:500px;''></img><p>If you have memorised all the portraits and names and are ready to start, press Continue.</p><p><strong>Please note: Your memory of these faces will be tested 4 times during this experiment.</strong></p>",0,html-button-response,110,977395,0.0-14.0-0.0,38971,List2A,black,man,,,,,,,,
5065,"<img src=""portrait/BM1.jpg""style=""height:400px;""></img>",4,html-button-response,111,983464,0.0-14.0-1.0,38971,List2A,black,man,,TRUE,4,,,,,
null,CORRECT,,html-keyboard-response,112,984970,0.0-14.0-2.0-0.0,38971,List2A,black,man,,,,null,,,,
4574,"<img src=""portrait/WW1.jpg""style=""height:400px;""></img>",1,html-button-response,113,989549,0.0-14.0-4.0,38971,List2A,black,man,,TRUE,1,,,,,
null,CORRECT,,html-keyboard-response,114,991053,0.0-14.0-5.0-0.0,38971,List2A,black,man,,,,null,,,,
4242,"<img src=""portrait/BM2.jpg""style=""height:400px;""></img>",5,html-button-response,115,995300,0.0-14.0-7.0,38971,List2A,black,man,,TRUE,5,,,,,
null,CORRECT,,html-keyboard-response,116,996805,0.0-14.0-8.0-0.0,38971,List2A,black,man,,,,null,,,,
2538,"<img src=""portrait/BW2.jpg""style=""height:400px;""></img>",2,html-button-response,117,999355,0.0-14.0-10.0,38971,List2A,black,man,,TRUE,2,,,,,
null,CORRECT,,html-keyboard-response,118,1000858,0.0-14.0-11.0-0.0,38971,List2A,black,man,,,,null,,,,
2340,"<img src=""portrait/WM2.jpg""style=""height:400px;""></img>",7,html-button-response,119,1003201,0.0-14.0-13.0,38971,List2A,black,man,,TRUE,7,,,,,
null,CORRECT,,html-keyboard-response,120,1004705,0.0-14.0-14.0-0.0,38971,List2A,black,man,,,,null,,,,
1801,"<img src=""portrait/WM1.jpg""style=""height:400px;""></img>",6,html-button-response,121,1006517,0.0-14.0-16.0,38971,List2A,black,man,,TRUE,6,,,,,
null,CORRECT,,html-keyboard-response,122,1008022,0.0-14.0-17.0-0.0,38971,List2A,black,man,,,,null,,,,
7060,"<img src=""portrait/BW1.jpg""style=""height:400px;""></img>",0,html-button-response,123,1015085,0.0-14.0-19.0,38971,List2A,black,man,,TRUE,0,,,,,
null,CORRECT,,html-keyboard-response,124,1016590,0.0-14.0-20.0-0.0,38971,List2A,black,man,,,,null,,,,
4267,"<img src=""portrait/WW2.jpg""style=""height:400px;""></img>",3,html-button-response,125,1020868,0.0-14.0-22.0,38971,List2A,black,man,,TRUE,3,,,,,
null,CORRECT,,html-keyboard-response,126,1022372,0.0-14.0-23.0-0.0,38971,List2A,black,man,,,,null,,,,
1451,<p>You got 8 out of 8 right first time. Press Continue.</p>,0,html-button-response,127,1023834,0.0-14.0-25.0,38971,List2A,black,man,,,,,,,,
null,"<div style=""font-size:60px;"">+</div>",,html-keyboard-response,128,1025340,0.0-15.0-0.0,38971,List2A,black,man,,,,null,,,,
null,"<img src=""stim_listA/dance8.gif""style=""height:400px;""></stim_listA>",,html-keyboard-response,129,1027344,0.0-15.0-1.0,38971,List2A,black,man,,,,null,,,,
null,are dancing with each other,,html-keyboard-response,130,1029348,0.0-15.0-2.0,38971,List2A,black,man,,,,null,,,,
17391,,,survey-text,131,1046742,0.0-15.0-3.0,38971,List2A,black,man,,,,,"{""Q0"":""Kate is touching Luke ""}","<img src=""stim_listA/dance8.gif""style=""height:400px;""></stim_listA>",are dancing with each other,
null,"<div style=""font-size:60px;"">+</div>",,html-keyboard-response,132,1047248,0.0-15.0-0.1,38971,List2A,black,man,,,,null,,,,
null,"<img src=""stim_listA/shout3.gif""style=""height:400px;""></stim_listA>",,html-keyboard-response,133,1049253,0.0-15.0-1.1,38971,List2A,black,man,,,,null,,,,
null,is shouting at,,html-keyboard-response,134,1051256,0.0-15.0-2.1,38971,List2A,black,man,,,,null,,,,
22469,,,survey-text,135,1073729,0.0-15.0-3.1,38971,List2A,black,man,,,,,"{""Q0"":""Beth Is shouting at Fred ""}","<img src=""stim_listA/shout3.gif""style=""height:400px;""></stim_listA>",is shouting at,
null,"<div style=""font-size:60px;"">+</div>",,html-keyboard-response,136,1074235,0.0-15.0-0.2,38971,List2A,black,man,,,,null,,,,
null,"<img src=""stim_listA/kiss4.gif""style=""height:400px;""></stim_listA>",,html-keyboard-response,137,1076238,0.0-15.0-1.2,38971,List2A,black,man,,,,null,,,,
null,are kissing each other,,html-keyboard-response,138,1078241,0.0-15.0-2.2,38971,List2A,black,man,,,,null,,,,
29755,,,survey-text,139,1108000,0.0-15.0-3.2,38971,List2A,black,man,,,,,"{""Q0"":""Kate and Fred are kissing each other ""}","<img src=""stim_listA/kiss4.gif""style=""height:400px;""></stim_listA>",are kissing each other,
null,"<div style=""font-size:60px;"">+</div>",,html-keyboard-response,140,1108507,0.0-15.0-0.3,38971,List2A,black,man,,,,null,,,,
null,"<img src=""stim_listA/fight6.gif""style=""height:400px;""></stim_listA>",,html-keyboard-response,141,1110511,0.0-15.0-1.3,38971,List2A,black,man,,,,null,,,,
null,are fighting each other,,html-keyboard-response,142,1112514,0.0-15.0-2.3,38971,List2A,black,man,,,,null,,,,
23819,,,survey-text,143,1136338,0.0-15.0-3.3,38971,List2A,black,man,,,,,"{""Q0"":""Mike and Luke are fighting each other. ""}","<img src=""stim_listA/fight6.gif""style=""height:400px;""></stim_listA>",are fighting each other,
null,"<div style=""font-size:60px;"">+</div>",,html-keyboard-response,144,1136843,0.0-15.0-0.4,38971,List2A,black,man,,,,null,,,,
null,"<img src=""stim_listA/flirt4.gif""style=""height:400px;""></stim_listA>",,html-keyboard-response,145,1138848,0.0-15.0-1.4,38971,List2A,black,man,,,,null,,,,
null,are flirting with each other,,html-keyboard-response,146,1140851,0.0-15.0-2.4,38971,List2A,black,man,,,,null,,,,
35671,,,survey-text,147,1176526,0.0-15.0-3.4,38971,List2A,black,man,,,,,"{""Q0"":""Beth Is flirting with mike""}","<img src=""stim_listA/flirt4.gif""style=""height:400px;""></stim_listA>",are flirting with each other,
null,"<div style=""font-size:60px;"">+</div>",,html-keyboard-response,148,1177030,0.0-15.0-0.5,38971,List2A,black,man,,,,null,,,,
null,"<img src=""stim_listA/dance5.gif""style=""height:400px;""></stim_listA>",,html-keyboard-response,149,1179034,0.0-15.0-1.5,38971,List2A,black,man,,,,null,,,,
null,is dancing with,,html-keyboard-response,150,1181036,0.0-15.0-2.5,38971,List2A,black,man,,,,null,,,,
14835,,,survey-text,151,1195872,0.0-15.0-3.5,38971,List2A,black,man,,,,,"{""Q0"":""Luke is dancing with mike ""}","<img src=""stim_listA/dance5.gif""style=""height:400px;""></stim_listA>",is dancing with,
null,"<div style=""font-size:60px;"">+</div>",,html-keyboard-response,152,1196375,0.0-15.0-0.6,38971,List2A,black,man,,,,null,,,,
null,"<img src=""stim_listA/play4.gif""style=""height:400px;""></stim_listA>",,html-keyboard-response,153,1198378,0.0-15.0-1.6,38971,List2A,black,man,,,,null,,,,
null,are playing with each other,,html-keyboard-response,154,1200382,0.0-15.0-2.6,38971,List2A,black,man,,,,null,,,,
28143,,,survey-text,155,1228533,0.0-15.0-3.6,38971,List2A,black,man,,,,,"{""Q0"":""Fred and Beth are playing with each other ""}","<img src=""stim_listA/play4.gif""style=""height:400px;""></stim_listA>",are playing with each other,
null,"<div style=""font-size:60px;"">+</div>",,html-keyboard-response,156,1229037,0.0-15.0-0.7,38971,List2A,black,man,,,,null,,,,
null,"<img src=""stim_listA/dance6.gif""style=""height:400px;""></stim_listA>",,html-keyboard-response,157,1231041,0.0-15.0-1.7,38971,List2A,black,man,,,,null,,,,
null,are dancing with each other,,html-keyboard-response,158,1233044,0.0-15.0-2.7,38971,List2A,black,man,,,,null,,,,
50513,,,survey-text,159,1283560,0.0-15.0-3.7,38971,List2A,black,man,,,,,"{""Q0"":""Fred and dave are dancing with each other ""}","<img src=""stim_listA/dance6.gif""style=""height:400px;""></stim_listA>",are dancing with each other,
null,"<div style=""font-size:60px;"">+</div>",,html-keyboard-response,160,1284063,0.0-15.0-0.8,38971,List2A,black,man,,,,null,,,,
null,"<img src=""stim_listA/fight5.gif""style=""height:400px;""></stim_listA>",,html-keyboard-response,161,1286067,0.0-15.0-1.8,38971,List2A,black,man,,,,null,,,,
null,is fighting,,html-keyboard-response,162,1288072,0.0-15.0-2.8,38971,List2A,black,man,,,,null,,,,
14882,,,survey-text,163,1302957,0.0-15.0-3.8,38971,List2A,black,man,,,,,"{""Q0"":""Mike is fighting Dave ""}","<img src=""stim_listA/fight5.gif""style=""height:400px;""></stim_listA>",is fighting,
null,"<div style=""font-size:60px;"">+</div>",,html-keyboard-response,164,1303460,0.0-15.0-0.9,38971,List2A,black,man,,,,null,,,,
null,"<img src=""stim_listA/talk6.gif""style=""height:400px;""></stim_listA>",,html-keyboard-response,165,1305464,0.0-15.0-1.9,38971,List2A,black,man,,,,null,,,,
null,are talking to each other,,html-keyboard-response,166,1307467,0.0-15.0-2.9,38971,List2A,black,man,,,,null,,,,
79208,,,survey-text,167,1386679,0.0-15.0-3.9,38971,List2A,black,man,,,,,"{""Q0"":""Jane and mike are talking with each other ""}","<img src=""stim_listA/talk6.gif""style=""height:400px;""></stim_listA>",are talking to each other,
null,"<div style=""font-size:60px;"">+</div>",,html-keyboard-response,168,1387181,0.0-15.0-0.10,38971,List2A,black,man,,,,null,,,,
null,"<img src=""stim_listA/marry5.gif""style=""height:400px;""></stim_listA>",,html-keyboard-response,169,1389184,0.0-15.0-1.10,38971,List2A,black,man,,,,null,,,,
null,is marrying,,html-keyboard-response,170,1391187,0.0-15.0-2.10,38971,List2A,black,man,,,,null,,,,
11844,,,survey-text,171,1403035,0.0-15.0-3.10,38971,List2A,black,man,,,,,"{""Q0"":""Dave is marrying Fred ""}","<img src=""stim_listA/marry5.gif""style=""height:400px;""></stim_listA>",is marrying,
null,"<div style=""font-size:60px;"">+</div>",,html-keyboard-response,172,1403538,0.0-15.0-0.11,38971,List2A,black,man,,,,null,,,,
null,"<img src=""stim_listA/flirt1.gif""style=""height:400px;""></stim_listA>",,html-keyboard-response,173,1405542,0.0-15.0-1.11,38971,List2A,black,man,,,,null,,,,
null,is flirting with,,html-keyboard-response,174,1407545,0.0-15.0-2.11,38971,List2A,black,man,,,,null,,,,
34306,,,survey-text,175,1441856,0.0-15.0-3.11,38971,List2A,black,man,,,,,"{""Q0"":""Jane is marrying Dave ""}","<img src=""stim_listA/flirt1.gif""style=""height:400px;""></stim_listA>",is flirting with,
null,"<div style=""font-size:60px;"">+</div>",,html-keyboard-response,176,1442361,0.0-15.0-0.12,38971,List2A,black,man,,,,null,,,,
null,"<img src=""stim_listA/fight7.gif""style=""height:400px;""></stim_listA>",,html-keyboard-response,177,1444366,0.0-15.0-1.12,38971,List2A,black,man,,,,null,,,,
null,is fighting,,html-keyboard-response,178,1446369,0.0-15.0-2.12,38971,List2A,black,man,,,,null,,,,
16417,,,survey-text,179,1462789,0.0-15.0-3.12,38971,List2A,black,man,,,,,"{""Q0"":""Jane is fighting Kate ""}","<img src=""stim_listA/fight7.gif""style=""height:400px;""></stim_listA>",is fighting,
null,"<div style=""font-size:60px;"">+</div>",,html-keyboard-response,180,1463292,0.0-15.0-0.13,38971,List2A,black,man,,,,null,,,,
null,"<img src=""stim_listA/flirt3.gif""style=""height:400px;""></stim_listA>",,html-keyboard-response,181,1465296,0.0-15.0-1.13,38971,List2A,black,man,,,,null,,,,
null,is flirting with,,html-keyboard-response,182,1467305,0.0-15.0-2.13,38971,List2A,black,man,,,,null,,,,
30238,,,survey-text,183,1497549,0.0-15.0-3.13,38971,List2A,black,man,,,,,"{""Q0"":""Kate is flirting with Fred""}","<img src=""stim_listA/flirt3.gif""style=""height:400px;""></stim_listA>",is flirting with,
null,"<div style=""font-size:60px;"">+</div>",,html-keyboard-response,184,1498054,0.0-15.0-0.14,38971,List2A,black,man,,,,null,,,,
null,"<img src=""stim_listA/talk8.gif""style=""height:400px;""></stim_listA>",,html-keyboard-response,185,1500059,0.0-15.0-1.14,38971,List2A,black,man,,,,null,,,,
null,are talking to each other,,html-keyboard-response,186,1502063,0.0-15.0-2.14,38971,List2A,black,man,,,,null,,,,
16487,,,survey-text,187,1518553,0.0-15.0-3.14,38971,List2A,black,man,,,,,"{""Q0"":""Kate and Beth are talking to each other""}","<img src=""stim_listA/talk8.gif""style=""height:400px;""></stim_listA>",are talking to each other,
null,"<div style=""font-size:60px;"">+</div>",,html-keyboard-response,188,1519056,0.0-15.0-0.15,38971,List2A,black,man,,,,null,,,,
null,"<img src=""stim_listA/shout1.gif""style=""height:400px;""></stim_listA>",,html-keyboard-response,189,1521059,0.0-15.0-1.15,38971,List2A,black,man,,,,null,,,,
null,is shouting at,,html-keyboard-response,190,1523067,0.0-15.0-2.15,38971,List2A,black,man,,,,null,,,,
15730,,,survey-text,191,1538801,0.0-15.0-3.15,38971,List2A,black,man,,,,,"{""Q0"":""Luke is shouting at ruth""}","<img src=""stim_listA/shout1.gif""style=""height:400px;""></stim_listA>",is shouting at,
null,"<div style=""font-size:60px;"">+</div>",,html-keyboard-response,192,1539306,0.0-15.0-0.16,38971,List2A,black,man,,,,null,,,,
null,"<img src=""stim_listA/shout5.gif""style=""height:400px;""></stim_listA>",,html-keyboard-response,193,1541310,0.0-15.0-1.16,38971,List2A,black,man,,,,null,,,,
null,is shouting at,,html-keyboard-response,194,1543312,0.0-15.0-2.16,38971,List2A,black,man,,,,null,,,,
20038,,,survey-text,195,1563353,0.0-15.0-3.16,38971,List2A,black,man,,,,,"{""Q0"":""Luke is Shouting at Fred""}","<img src=""stim_listA/shout5.gif""style=""height:400px;""></stim_listA>",is shouting at,
null,"<div style=""font-size:60px;"">+</div>",,html-keyboard-response,196,1563855,0.0-15.0-0.17,38971,List2A,black,man,,,,null,,,,
null,"<img src=""stim_listA/play5.gif""style=""height:400px;""></stim_listA>",,html-keyboard-response,197,1565862,0.0-15.0-1.17,38971,List2A,black,man,,,,null,,,,
null,is playing with,,html-keyboard-response,198,1567866,0.0-15.0-2.17,38971,List2A,black,man,,,,null,,,,
9384,,,survey-text,199,1577253,0.0-15.0-3.17,38971,List2A,black,man,,,,,"{""Q0"":""Dave is playing with Mike""}","<img src=""stim_listA/play5.gif""style=""height:400px;""></stim_listA>",is playing with,
null,"<div style=""font-size:60px;"">+</div>",,html-keyboard-response,200,1577755,0.0-15.0-0.18,38971,List2A,black,man,,,,null,,,,
null,"<img src=""stim_listA/kiss3.gif""style=""height:400px;""></stim_listA>",,html-keyboard-response,201,1579760,0.0-15.0-1.18,38971,List2A,black,man,,,,null,,,,
null,is kissing,,html-keyboard-response,202,1581764,0.0-15.0-2.18,38971,List2A,black,man,,,,null,,,,
43473,,,survey-text,203,1625240,0.0-15.0-3.18,38971,List2A,black,man,,,,,"{""Q0"":""Beth is kissing Fred ""}","<img src=""stim_listA/kiss3.gif""style=""height:400px;""></stim_listA>",is kissing,
null,"<div style=""font-size:60px;"">+</div>",,html-keyboard-response,204,1625744,0.0-15.0-0.19,38971,List2A,black,man,,,,null,,,,
null,"<img src=""stim_listA/dance1.gif""style=""height:400px;""></stim_listA>",,html-keyboard-response,205,1627749,0.0-15.0-1.19,38971,List2A,black,man,,,,null,,,,
null,is dancing with,,html-keyboard-response,206,1629752,0.0-15.0-2.19,38971,List2A,black,man,,,,null,,,,
18946,,,survey-text,207,1648703,0.0-15.0-3.19,38971,List2A,black,man,,,,,"{""Q0"":""Jane is dancing with Luke""}","<img src=""stim_listA/dance1.gif""style=""height:400px;""></stim_listA>",is dancing with,
19106,"<img src='img/portrait_matrix_list2.jpg' style='width:900px;height:500px;''></img><p>If you have memorised all the portraits and names and are ready to start, press Continue.</p><p><strong>Please note: Your memory of these faces will be tested 4 times during this experiment.</strong></p>",0,html-button-response,208,1667812,0.0-16.0-0.0,38971,List2A,black,man,,,,,,,,
3285,"<img src=""portrait/BM1.jpg""style=""height:400px;""></img>",4,html-button-response,209,1672105,0.0-16.0-1.0,38971,List2A,black,man,,TRUE,4,,,,,
null,CORRECT,,html-keyboard-response,210,1673611,0.0-16.0-2.0-0.0,38971,List2A,black,man,,,,null,,,,
2665,"<img src=""portrait/WM2.jpg""style=""height:400px;""></img>",7,html-button-response,211,1676283,0.0-16.0-4.0,38971,List2A,black,man,,TRUE,7,,,,,
null,CORRECT,,html-keyboard-response,212,1677787,0.0-16.0-5.0-0.0,38971,List2A,black,man,,,,null,,,,
2092,"<img src=""portrait/BM2.jpg""style=""height:400px;""></img>",5,html-button-response,213,1679889,0.0-16.0-7.0,38971,List2A,black,man,,TRUE,5,,,,,
null,CORRECT,,html-keyboard-response,214,1681394,0.0-16.0-8.0-0.0,38971,List2A,black,man,,,,null,,,,
6368,"<img src=""portrait/WW1.jpg""style=""height:400px;""></img>",1,html-button-response,215,1687766,0.0-16.0-10.0,38971,List2A,black,man,,TRUE,1,,,,,
null,CORRECT,,html-keyboard-response,216,1689270,0.0-16.0-11.0-0.0,38971,List2A,black,man,,,,null,,,,
2275,"<img src=""portrait/WM1.jpg""style=""height:400px;""></img>",6,html-button-response,217,1691551,0.0-16.0-13.0,38971,List2A,black,man,,TRUE,6,,,,,
null,CORRECT,,html-keyboard-response,218,1693055,0.0-16.0-14.0-0.0,38971,List2A,black,man,,,,null,,,,
6641,"<img src=""portrait/BW1.jpg""style=""height:400px;""></img>",0,html-button-response,219,1699703,0.0-16.0-16.0,38971,List2A,black,man,,TRUE,0,,,,,
null,CORRECT,,html-keyboard-response,220,1701209,0.0-16.0-17.0-0.0,38971,List2A,black,man,,,,null,,,,
1717,"<img src=""portrait/BW2.jpg""style=""height:400px;""></img>",2,html-button-response,221,1702933,0.0-16.0-19.0,38971,List2A,black,man,,TRUE,2,,,,,
null,CORRECT,,html-keyboard-response,222,1704437,0.0-16.0-20.0-0.0,38971,List2A,black,man,,,,null,,,,
4679,"<img src=""portrait/WW2.jpg""style=""height:400px;""></img>",3,html-button-response,223,1709120,0.0-16.0-22.0,38971,List2A,black,man,,TRUE,3,,,,,
null,CORRECT,,html-keyboard-response,224,1710624,0.0-16.0-23.0-0.0,38971,List2A,black,man,,,,null,,,,
1639,<p>You got 8 out of 8 right first time. Press Continue.</p>,0,html-button-response,225,1712269,0.0-16.0-25.0,38971,List2A,black,man,,,,,,,,
null,"<div style=""font-size:60px;"">+</div>",,html-keyboard-response,226,1713775,0.0-17.0-0.0,38971,List2A,black,man,,,,null,,,,
null,"<img src=""stim_listA/argue1.gif""style=""height:400px;""></stim_listA>",,html-keyboard-response,227,1715779,0.0-17.0-1.0,38971,List2A,black,man,,,,null,,,,
null,is arguing with,,html-keyboard-response,228,1717783,0.0-17.0-2.0,38971,List2A,black,man,,,,null,,,,
18545,,,survey-text,229,1736336,0.0-17.0-3.0,38971,List2A,black,man,,,,,"{""Q0"":""Ruth is arguing with Dave""}","<img src=""stim_listA/argue1.gif""style=""height:400px;""></stim_listA>",is arguing with,
null,"<div style=""font-size:60px;"">+</div>",,html-keyboard-response,230,1736838,0.0-17.0-0.1,38971,List2A,black,man,,,,null,,,,
null,"<img src=""stim_listA/flirt5.gif""style=""height:400px;""></stim_listA>",,html-keyboard-response,231,1738841,0.0-17.0-1.1,38971,List2A,black,man,,,,null,,,,
null,is flirting with,,html-keyboard-response,232,1740847,0.0-17.0-2.1,38971,List2A,black,man,,,,null,,,,
10424,,,survey-text,233,1751274,0.0-17.0-3.1,38971,List2A,black,man,,,,,"{""Q0"":""Luke is flirting with mike""}","<img src=""stim_listA/flirt5.gif""style=""height:400px;""></stim_listA>",is flirting with,
null,"<div style=""font-size:60px;"">+</div>",,html-keyboard-response,234,1751778,0.0-17.0-0.2,38971,List2A,black,man,,,,null,,,,
null,"<img src=""stim_listA/touch8.gif""style=""height:400px;""></stim_listA>",,html-keyboard-response,235,1753782,0.0-17.0-1.2,38971,List2A,black,man,,,,null,,,,
null,are touching each other,,html-keyboard-response,236,1755785,0.0-17.0-2.2,38971,List2A,black,man,,,,null,,,,
36794,,,survey-text,237,1792582,0.0-17.0-3.2,38971,List2A,black,man,,,,,"{""Q0"":""Ruth is touching BETH""}","<img src=""stim_listA/touch8.gif""style=""height:400px;""></stim_listA>",are touching each other,
null,"<div style=""font-size:60px;"">+</div>",,html-keyboard-response,238,1793087,0.0-17.0-0.3,38971,List2A,black,man,,,,null,,,,
null,"<img src=""stim_listA/play3.gif""style=""height:400px;""></stim_listA>",,html-keyboard-response,239,1795089,0.0-17.0-1.3,38971,List2A,black,man,,,,null,,,,
null,is playing with,,html-keyboard-response,240,1797092,0.0-17.0-2.3,38971,List2A,black,man,,,,null,,,,
18583,,,survey-text,241,1815678,0.0-17.0-3.3,38971,List2A,black,man,,,,,"{""Q0"":""Kate and Mike are playing cards""}","<img src=""stim_listA/play3.gif""style=""height:400px;""></stim_listA>",is playing with,
null,"<div style=""font-size:60px;"">+</div>",,html-keyboard-response,242,1816180,0.0-17.0-0.4,38971,List2A,black,man,,,,null,,,,
null,"<img src=""stim_listA/flirt2.gif""style=""height:400px;""></stim_listA>",,html-keyboard-response,243,1818184,0.0-17.0-1.4,38971,List2A,black,man,,,,null,,,,
null,are flirting with each other,,html-keyboard-response,244,1820187,0.0-17.0-2.4,38971,List2A,black,man,,,,null,,,,
36380,,,survey-text,245,1856571,0.0-17.0-3.4,38971,List2A,black,man,,,,,"{""Q0"":""Luke and Ruth are flirting with each other""}","<img src=""stim_listA/flirt2.gif""style=""height:400px;""></stim_listA>",are flirting with each other,
null,"<div style=""font-size:60px;"">+</div>",,html-keyboard-response,246,1857077,0.0-17.0-0.5,38971,List2A,black,man,,,,null,,,,
null,"<img src=""stim_listA/kiss8.gif""style=""height:400px;""></stim_listA>",,html-keyboard-response,247,1859081,0.0-17.0-1.5,38971,List2A,black,man,,,,null,,,,
null,are kissing each other,,html-keyboard-response,248,1861084,0.0-17.0-2.5,38971,List2A,black,man,,,,null,,,,
32671,,,survey-text,249,1893759,0.0-17.0-3.5,38971,List2A,black,man,,,,,"{""Q0"":""Fred is touching Kate ""}","<img src=""stim_listA/kiss8.gif""style=""height:400px;""></stim_listA>",are kissing each other,
null,"<div style=""font-size:60px;"">+</div>",,html-keyboard-response,250,1894267,0.0-17.0-0.6,38971,List2A,black,man,,,,null,,,,
null,"<img src=""stim_listA/touch4.gif""style=""height:400px;""></stim_listA>",,html-keyboard-response,251,1896271,0.0-17.0-1.6,38971,List2A,black,man,,,,null,,,,
null,are touching each other,,html-keyboard-response,252,1898278,0.0-17.0-2.6,38971,List2A,black,man,,,,null,,,,
17183,,,survey-text,253,1915464,0.0-17.0-3.6,38971,List2A,black,man,,,,,"{""Q0"":""Fred is touching Beth ""}","<img src=""stim_listA/touch4.gif""style=""height:400px;""></stim_listA>",are touching each other,
null,"<div style=""font-size:60px;"">+</div>",,html-keyboard-response,254,1915968,0.0-17.0-0.7,38971,List2A,black,man,,,,null,,,,
null,"<img src=""stim_listA/touch1.gif""style=""height:400px;""></stim_listA>",,html-keyboard-response,255,1917974,0.0-17.0-1.7,38971,List2A,black,man,,,,null,,,,
null,is touching,,html-keyboard-response,256,1919978,0.0-17.0-2.7,38971,List2A,black,man,,,,null,,,,
41135,,,survey-text,257,1961116,0.0-17.0-3.7,38971,List2A,black,man,,,,,"{""Q0"":""Dave is touching Jane""}","<img src=""stim_listA/touch1.gif""style=""height:400px;""></stim_listA>",is touching,
null,"<div style=""font-size:60px;"">+</div>",,html-keyboard-response,258,1961620,0.0-17.0-0.8,38971,List2A,black,man,,,,null,,,,
null,"<img src=""stim_listA/fight1.gif""style=""height:400px;""></stim_listA>",,html-keyboard-response,259,1963626,0.0-17.0-1.8,38971,List2A,black,man,,,,null,,,,
null,is fighting,,html-keyboard-response,260,1965633,0.0-17.0-2.8,38971,List2A,black,man,,,,null,,,,
13616,,,survey-text,261,1979252,0.0-17.0-3.8,38971,List2A,black,man,,,,,"{""Q0"":""Dave is fighting Jane ""}","<img src=""stim_listA/fight1.gif""style=""height:400px;""></stim_listA>",is fighting,
null,"<div style=""font-size:60px;"">+</div>",,html-keyboard-response,262,1979756,0.0-17.0-0.9,38971,List2A,black,man,,,,null,,,,
null,"<img src=""stim_listA/talk1.gif""style=""height:400px;""></stim_listA>",,html-keyboard-response,263,1981761,0.0-17.0-1.9,38971,List2A,black,man,,,,null,,,,
null,is talking to,,html-keyboard-response,264,1983765,0.0-17.0-2.9,38971,List2A,black,man,,,,null,,,,
9384,,,survey-text,265,1993152,0.0-17.0-3.9,38971,List2A,black,man,,,,,"{""Q0"":""Luke is talking to Jane ""}","<img src=""stim_listA/talk1.gif""style=""height:400px;""></stim_listA>",is talking to,
null,"<div style=""font-size:60px;"">+</div>",,html-keyboard-response,266,1993655,0.0-17.0-0.10,38971,List2A,black,man,,,,null,,,,
null,"<img src=""stim_listA/dance3.gif""style=""height:400px;""></stim_listA>",,html-keyboard-response,267,1995660,0.0-17.0-1.10,38971,List2A,black,man,,,,null,,,,
null,is dancing with,,html-keyboard-response,268,1997663,0.0-17.0-2.10,38971,List2A,black,man,,,,null,,,,
13888,,,survey-text,269,2011558,0.0-17.0-3.10,38971,List2A,black,man,,,,,"{""Q0"":""Fred is dancing with Kate ""}","<img src=""stim_listA/dance3.gif""style=""height:400px;""></stim_listA>",is dancing with,
null,"<div style=""font-size:60px;"">+</div>",,html-keyboard-response,270,2012062,0.0-17.0-0.11,38971,List2A,black,man,,,,null,,,,
null,"<img src=""stim_listA/marry6.gif""style=""height:400px;""></stim_listA>",,html-keyboard-response,271,2014064,0.0-17.0-1.11,38971,List2A,black,man,,,,null,,,,
null,are marrying each other,,html-keyboard-response,272,2016067,0.0-17.0-2.11,38971,List2A,black,man,,,,null,,,,
20125,,,survey-text,273,2036196,0.0-17.0-3.11,38971,List2A,black,man,,,,,"{""Q0"":""Luke and mike are marrying each other  ""}","<img src=""stim_listA/marry6.gif""style=""height:400px;""></stim_listA>",are marrying each other,
null,"<div style=""font-size:60px;"">+</div>",,html-keyboard-response,274,2036701,0.0-17.0-0.12,38971,List2A,black,man,,,,null,,,,
null,"<img src=""stim_listA/marry1.gif""style=""height:400px;""></stim_listA>",,html-keyboard-response,275,2038705,0.0-17.0-1.12,38971,List2A,black,man,,,,null,,,,
null,is marrying,,html-keyboard-response,276,2040708,0.0-17.0-2.12,38971,List2A,black,man,,,,null,,,,
12817,,,survey-text,277,2053529,0.0-17.0-3.12,38971,List2A,black,man,,,,,"{""Q0"":""Luke is marrying Ruth ""}","<img src=""stim_listA/marry1.gif""style=""height:400px;""></stim_listA>",is marrying,
null,"<div style=""font-size:60px;"">+</div>",,html-keyboard-response,278,2054034,0.0-17.0-0.13,38971,List2A,black,man,,,,null,,,,
null,"<img src=""stim_listA/play8.gif""style=""height:400px;""></stim_listA>",,html-keyboard-response,279,2056038,0.0-17.0-1.13,38971,List2A,black,man,,,,null,,,,
null,are playing with each other,,html-keyboard-response,280,2058042,0.0-17.0-2.13,38971,List2A,black,man,,,,null,,,,
14949,,,survey-text,281,2072997,0.0-17.0-3.13,38971,List2A,black,man,,,,,"{""Q0"":""Ruth and Kate are playing cards ""}","<img src=""stim_listA/play8.gif""style=""height:400px;""></stim_listA>",are playing with each other,
null,"<div style=""font-size:60px;"">+</div>",,html-keyboard-response,282,2073503,0.0-17.0-0.14,38971,List2A,black,man,,,,null,,,,
null,"<img src=""stim_listA/marry2.gif""style=""height:400px;""></stim_listA>",,html-keyboard-response,283,2075507,0.0-17.0-1.14,38971,List2A,black,man,,,,null,,,,
null,are marrying each other,,html-keyboard-response,284,2077511,0.0-17.0-2.14,38971,List2A,black,man,,,,null,,,,
58582,,,survey-text,285,2136100,0.0-17.0-3.14,38971,List2A,black,man,,,,,"{""Q0"":""Ruth and Luke are playing cards ""}","<img src=""stim_listA/marry2.gif""style=""height:400px;""></stim_listA>",are marrying each other,
null,"<div style=""font-size:60px;"">+</div>",,html-keyboard-response,286,2136607,0.0-17.0-0.15,38971,List2A,black,man,,,,null,,,,
null,"<img src=""stim_listA/flirt8.gif""style=""height:400px;""></stim_listA>",,html-keyboard-response,287,2138612,0.0-17.0-1.15,38971,List2A,black,man,,,,null,,,,
null,are flirting with each other,,html-keyboard-response,288,2140616,0.0-17.0-2.15,38971,List2A,black,man,,,,null,,,,
19171,,,survey-text,289,2159790,0.0-17.0-3.15,38971,List2A,black,man,,,,,"{""Q0"":""Beth and Jane are flirting with each other ""}","<img src=""stim_listA/flirt8.gif""style=""height:400px;""></stim_listA>",are flirting with each other,
null,"<div style=""font-size:60px;"">+</div>",,html-keyboard-response,290,2160295,0.0-17.0-0.16,38971,List2A,black,man,,,,null,,,,
null,"<img src=""stim_listA/argue2.gif""style=""height:400px;""></stim_listA>",,html-keyboard-response,291,2162299,0.0-17.0-1.16,38971,List2A,black,man,,,,null,,,,
null,are arguing with each other,,html-keyboard-response,292,2164303,0.0-17.0-2.16,38971,List2A,black,man,,,,null,,,,
16565,,,survey-text,293,2180877,0.0-17.0-3.16,38971,List2A,black,man,,,,,"{""Q0"":""Luke and Jane are arguing with each other ""}","<img src=""stim_listA/argue2.gif""style=""height:400px;""></stim_listA>",are arguing with each other,
null,"<div style=""font-size:60px;"">+</div>",,html-keyboard-response,294,2181381,0.0-17.0-0.17,38971,List2A,black,man,,,,null,,,,
null,"<img src=""stim_listA/shout4.gif""style=""height:400px;""></stim_listA>",,html-keyboard-response,295,2183385,0.0-17.0-1.17,38971,List2A,black,man,,,,null,,,,
null,are shouting at each other,,html-keyboard-response,296,2187458,0.0-17.0-2.17,38971,List2A,black,man,,,,null,,,,
24961,,,survey-text,297,2212433,0.0-17.0-3.17,38971,List2A,black,man,,,,,"{""Q0"":""Luke and Jane are touching each other ""}","<img src=""stim_listA/shout4.gif""style=""height:400px;""></stim_listA>",are shouting at each other,
null,"<div style=""font-size:60px;"">+</div>",,html-keyboard-response,298,2212943,0.0-17.0-0.18,38971,List2A,black,man,,,,null,,,,
null,"<img src=""stim_listA/talk2.gif""style=""height:400px;""></stim_listA>",,html-keyboard-response,299,2214950,0.0-17.0-1.18,38971,List2A,black,man,,,,null,,,,
null,are talking to each other,,html-keyboard-response,300,2216954,0.0-17.0-2.18,38971,List2A,black,man,,,,null,,,,
14306,,,survey-text,301,2231275,0.0-17.0-3.18,38971,List2A,black,man,,,,,"{""Q0"":""Dave and Ruth are talking to each other ""}","<img src=""stim_listA/talk2.gif""style=""height:400px;""></stim_listA>",are talking to each other,
null,"<div style=""font-size:60px;"">+</div>",,html-keyboard-response,302,2231778,0.0-17.0-0.19,38971,List2A,black,man,,,,null,,,,
null,"<img src=""stim_listA/shout6.gif""style=""height:400px;""></stim_listA>",,html-keyboard-response,303,2233783,0.0-17.0-1.19,38971,List2A,black,man,,,,null,,,,
null,are shouting at each other,,html-keyboard-response,304,2235786,0.0-17.0-2.19,38971,List2A,black,man,,,,null,,,,
13696,,,survey-text,305,2249486,0.0-17.0-3.19,38971,List2A,black,man,,,,,"{""Q0"":""Mike and Dave are shouting at each other ""}","<img src=""stim_listA/shout6.gif""style=""height:400px;""></stim_listA>",are shouting at each other,
14278,"<img src='img/portrait_matrix_list2.jpg' style='width:900px;height:500px;''></img><p>If you have memorised all the portraits and names and are ready to start, press Continue.</p><p><strong>Please note: Your memory of these faces will be tested 4 times during this experiment.</strong></p>",0,html-button-response,306,2263772,0.0-18.0-0.0,38971,List2A,black,man,,,,,,,,
1773,"<img src=""portrait/BW2.jpg""style=""height:400px;""></img>",2,html-button-response,307,2266551,0.0-18.0-1.0,38971,List2A,black,man,,TRUE,2,,,,,
null,CORRECT,,html-keyboard-response,308,2268063,0.0-18.0-2.0-0.0,38971,List2A,black,man,,,,null,,,,
2081,"<img src=""portrait/WW1.jpg""style=""height:400px;""></img>",1,html-button-response,309,2270151,0.0-18.0-4.0,38971,List2A,black,man,,TRUE,1,,,,,
null,CORRECT,,html-keyboard-response,310,2271655,0.0-18.0-5.0-0.0,38971,List2A,black,man,,,,null,,,,
1640,"<img src=""portrait/BM2.jpg""style=""height:400px;""></img>",5,html-button-response,311,2273300,0.0-18.0-7.0,38971,List2A,black,man,,TRUE,5,,,,,
null,CORRECT,,html-keyboard-response,312,2274804,0.0-18.0-8.0-0.0,38971,List2A,black,man,,,,null,,,,
5276,"<img src=""portrait/BW1.jpg""style=""height:400px;""></img>",0,html-button-response,313,2280084,0.0-18.0-10.0,38971,List2A,black,man,,TRUE,0,,,,,
null,CORRECT,,html-keyboard-response,314,2281588,0.0-18.0-11.0-0.0,38971,List2A,black,man,,,,null,,,,
2209,"<img src=""portrait/WM1.jpg""style=""height:400px;""></img>",6,html-button-response,315,2283803,0.0-18.0-13.0,38971,List2A,black,man,,TRUE,6,,,,,
null,CORRECT,,html-keyboard-response,316,2285307,0.0-18.0-14.0-0.0,38971,List2A,black,man,,,,null,,,,
1873,"<img src=""portrait/WM2.jpg""style=""height:400px;""></img>",7,html-button-response,317,2287184,0.0-18.0-16.0,38971,List2A,black,man,,TRUE,7,,,,,
null,CORRECT,,html-keyboard-response,318,2288688,0.0-18.0-17.0-0.0,38971,List2A,black,man,,,,null,,,,
1643,"<img src=""portrait/WW2.jpg""style=""height:400px;""></img>",3,html-button-response,319,2290337,0.0-18.0-19.0,38971,List2A,black,man,,TRUE,3,,,,,
null,CORRECT,,html-keyboard-response,320,2291840,0.0-18.0-20.0-0.0,38971,List2A,black,man,,,,null,,,,
1709,"<img src=""portrait/BM1.jpg""style=""height:400px;""></img>",4,html-button-response,321,2293555,0.0-18.0-22.0,38971,List2A,black,man,,TRUE,4,,,,,
null,CORRECT,,html-keyboard-response,322,2295060,0.0-18.0-23.0-0.0,38971,List2A,black,man,,,,null,,,,
1320,<p>You got 8 out of 8 right first time. Press Continue.</p>,0,html-button-response,323,2296385,0.0-18.0-25.0,38971,List2A,black,man,,,,,,,,
null,"<div style=""font-size:60px;"">+</div>",,html-keyboard-response,324,2297894,0.0-19.0-0.0,38971,List2A,black,man,,,,null,,,,
null,"<img src=""stim_listA/shout7.gif""style=""height:400px;""></stim_listA>",,html-keyboard-response,325,2299902,0.0-19.0-1.0,38971,List2A,black,man,,,,null,,,,
null,is shouting at,,html-keyboard-response,326,2301905,0.0-19.0-2.0,38971,List2A,black,man,,,,null,,,,
20267,,,survey-text,327,2322177,0.0-19.0-3.0,38971,List2A,black,man,,,,,"{""Q0"":""Beth is kissing Ruth ""}","<img src=""stim_listA/shout7.gif""style=""height:400px;""></stim_listA>",is shouting at,
null,"<div style=""font-size:60px;"">+</div>",,html-keyboard-response,328,2322681,0.0-19.0-0.1,38971,List2A,black,man,,,,null,,,,
null,"<img src=""stim_listA/kiss7.gif""style=""height:400px;""></stim_listA>",,html-keyboard-response,329,2324685,0.0-19.0-1.1,38971,List2A,black,man,,,,null,,,,
null,is kissing,,html-keyboard-response,330,2326689,0.0-19.0-2.1,38971,List2A,black,man,,,,null,,,,
20852,,,survey-text,331,2347544,0.0-19.0-3.1,38971,List2A,black,man,,,,,"{""Q0"":""Ruth is kissing Dave ""}","<img src=""stim_listA/kiss7.gif""style=""height:400px;""></stim_listA>",is kissing,
null,"<div style=""font-size:60px;"">+</div>",,html-keyboard-response,332,2348050,0.0-19.0-0.2,38971,List2A,black,man,,,,null,,,,
null,"<img src=""stim_listA/play7.gif""style=""height:400px;""></stim_listA>",,html-keyboard-response,333,2350055,0.0-19.0-1.2,38971,List2A,black,man,,,,null,,,,
null,is playing with,,html-keyboard-response,334,2352060,0.0-19.0-2.2,38971,List2A,black,man,,,,null,,,,
30954,,,survey-text,335,2383018,0.0-19.0-3.2,38971,List2A,black,man,,,,,"{""Q0"":""Fred is playing cards with mike ""}","<img src=""stim_listA/play7.gif""style=""height:400px;""></stim_listA>",is playing with,
null,"<div style=""font-size:60px;"">+</div>",,html-keyboard-response,336,2383522,0.0-19.0-0.3,38971,List2A,black,man,,,,null,,,,
null,"<img src=""stim_listA/fight8.gif""style=""height:400px;""></stim_listA>",,html-keyboard-response,337,2385526,0.0-19.0-1.3,38971,List2A,black,man,,,,null,,,,
null,are fighting each other,,html-keyboard-response,338,2387529,0.0-19.0-2.3,38971,List2A,black,man,,,,null,,,,
16772,,,survey-text,339,2404303,0.0-19.0-3.3,38971,List2A,black,man,,,,,"{""Q0"":""Ruth and Beth are fighting each other ""}","<img src=""stim_listA/fight8.gif""style=""height:400px;""></stim_listA>",are fighting each other,
null,"<div style=""font-size:60px;"">+</div>",,html-keyboard-response,340,2404808,0.0-19.0-0.4,38971,List2A,black,man,,,,null,,,,
null,"<img src=""stim_listA/flirt7.gif""style=""height:400px;""></stim_listA>",,html-keyboard-response,341,2406812,0.0-19.0-1.4,38971,List2A,black,man,,,,null,,,,
null,is flirting with,,html-keyboard-response,342,2408816,0.0-19.0-2.4,38971,List2A,black,man,,,,null,,,,
13438,,,survey-text,343,2422257,0.0-19.0-3.4,38971,List2A,black,man,,,,,"{""Q0"":""Ruth is flirting with Dave ""}","<img src=""stim_listA/flirt7.gif""style=""height:400px;""></stim_listA>",is flirting with,
null,"<div style=""font-size:60px;"">+</div>",,html-keyboard-response,344,2422763,0.0-19.0-0.5,38971,List2A,black,man,,,,null,,,,
null,"<img src=""stim_listA/play1.gif""style=""height:400px;""></stim_listA>",,html-keyboard-response,345,2424767,0.0-19.0-1.5,38971,List2A,black,man,,,,null,,,,
null,is playing with,,html-keyboard-response,346,2426771,0.0-19.0-2.5,38971,List2A,black,man,,,,null,,,,
82255,,,survey-text,347,2509031,0.0-19.0-3.5,38971,List2A,black,man,,,,,"{""Q0"":""Ruth and Fred are playing cards ""}","<img src=""stim_listA/play1.gif""style=""height:400px;""></stim_listA>",is playing with,
null,"<div style=""font-size:60px;"">+</div>",,html-keyboard-response,348,2509535,0.0-19.0-0.6,38971,List2A,black,man,,,,null,,,,
null,"<img src=""stim_listA/marry4.gif""style=""height:400px;""></stim_listA>",,html-keyboard-response,349,2511539,0.0-19.0-1.6,38971,List2A,black,man,,,,null,,,,
null,are marrying each other,,html-keyboard-response,350,2513542,0.0-19.0-2.6,38971,List2A,black,man,,,,null,,,,
12287,,,survey-text,351,2525833,0.0-19.0-3.6,38971,List2A,black,man,,,,,"{""Q0"":""Fred and Kate are marrying each other ""}","<img src=""stim_listA/marry4.gif""style=""height:400px;""></stim_listA>",are marrying each other,
null,"<div style=""font-size:60px;"">+</div>",,html-keyboard-response,352,2526338,0.0-19.0-0.7,38971,List2A,black,man,,,,null,,,,
null,"<img src=""stim_listA/argue3.gif""style=""height:400px;""></stim_listA>",,html-keyboard-response,353,2528343,0.0-19.0-1.7,38971,List2A,black,man,,,,null,,,,
null,is arguing with,,html-keyboard-response,354,2530346,0.0-19.0-2.7,38971,List2A,black,man,,,,null,,,,
20901,,,survey-text,355,2551248,0.0-19.0-3.7,38971,List2A,black,man,,,,,"{""Q0"":""Mike and Beth are arguing each other ""}","<img src=""stim_listA/argue3.gif""style=""height:400px;""></stim_listA>",is arguing with,
null,"<div style=""font-size:60px;"">+</div>",,html-keyboard-response,356,2551751,0.0-19.0-0.8,38971,List2A,black,man,,,,null,,,,
null,"<img src=""stim_listA/shout2.gif""style=""height:400px;""></stim_listA>",,html-keyboard-response,357,2553754,0.0-19.0-1.8,38971,List2A,black,man,,,,null,,,,
null,are shouting at each other,,html-keyboard-response,358,2555761,0.0-19.0-2.8,38971,List2A,black,man,,,,null,,,,
28173,,,survey-text,359,2583938,0.0-19.0-3.8,38971,List2A,black,man,,,,,"{""Q0"":""Ruth and Fred are flirting with each other ""}","<img src=""stim_listA/shout2.gif""style=""height:400px;""></stim_listA>",are shouting at each other,
null,"<div style=""font-size:60px;"">+</div>",,html-keyboard-response,360,2584443,0.0-19.0-0.9,38971,List2A,black,man,,,,null,,,,
null,"<img src=""stim_listA/argue6.gif""style=""height:400px;""></stim_listA>",,html-keyboard-response,361,2586448,0.0-19.0-1.9,38971,List2A,black,man,,,,null,,,,
null,are arguing with each other,,html-keyboard-response,362,2588451,0.0-19.0-2.9,38971,List2A,black,man,,,,null,,,,
50199,,,survey-text,363,2638654,0.0-19.0-3.9,38971,List2A,black,man,,,,,"{""Q0"":""Luke and mike are arguing ""}","<img src=""stim_listA/argue6.gif""style=""height:400px;""></stim_listA>",are arguing with each other,
null,"<div style=""font-size:60px;"">+</div>",,html-keyboard-response,364,2639157,0.0-19.0-0.10,38971,List2A,black,man,,,,null,,,,
null,"<img src=""stim_listA/fight2.gif""style=""height:400px;""></stim_listA>",,html-keyboard-response,365,2641162,0.0-19.0-1.10,38971,List2A,black,man,,,,null,,,,
null,are fighting each other,,html-keyboard-response,366,2643166,0.0-19.0-2.10,38971,List2A,black,man,,,,null,,,,
19379,,,survey-text,367,2662548,0.0-19.0-3.10,38971,List2A,black,man,,,,,"{""Q0"":""Mike and Ruth are fighting each other ""}","<img src=""stim_listA/fight2.gif""style=""height:400px;""></stim_listA>",are fighting each other,
null,"<div style=""font-size:60px;"">+</div>",,html-keyboard-response,368,2663056,0.0-19.0-0.11,38971,List2A,black,man,,,,null,,,,
null,"<img src=""stim_listA/touch2.gif""style=""height:400px;""></stim_listA>",,html-keyboard-response,369,2665060,0.0-19.0-1.11,38971,List2A,black,man,,,,null,,,,
null,are touching each other,,html-keyboard-response,370,2667064,0.0-19.0-2.11,38971,List2A,black,man,,,,null,,,,
13985,,,survey-text,371,2681053,0.0-19.0-3.11,38971,List2A,black,man,,,,,"{""Q0"":""Luke and Beth are touching each other ""}","<img src=""stim_listA/touch2.gif""style=""height:400px;""></stim_listA>",are touching each other,
null,"<div style=""font-size:60px;"">+</div>",,html-keyboard-response,372,2681558,0.0-19.0-0.12,38971,List2A,black,man,,,,null,,,,
null,"<img src=""stim_listA/play2.gif""style=""height:400px;""></stim_listA>",,html-keyboard-response,373,2683561,0.0-19.0-1.12,38971,List2A,black,man,,,,null,,,,
null,are playing with each other,,html-keyboard-response,374,2685564,0.0-19.0-2.12,38971,List2A,black,man,,,,null,,,,
36236,,,survey-text,375,2721803,0.0-19.0-3.12,38971,List2A,black,man,,,,,"{""Q0"":""Luke is marrying mike ""}","<img src=""stim_listA/play2.gif""style=""height:400px;""></stim_listA>",are playing with each other,
null,"<div style=""font-size:60px;"">+</div>",,html-keyboard-response,376,2722306,0.0-19.0-0.13,38971,List2A,black,man,,,,null,,,,
null,"<img src=""stim_listA/dance2.gif""style=""height:400px;""></stim_listA>",,html-keyboard-response,377,2724310,0.0-19.0-1.13,38971,List2A,black,man,,,,null,,,,
null,are dancing with each other,,html-keyboard-response,378,2726312,0.0-19.0-2.13,38971,List2A,black,man,,,,null,,,,
10888,,,survey-text,379,2737209,0.0-19.0-3.13,38971,List2A,black,man,,,,,"{""Q0"":""Dave ya dancing with Ruth ""}","<img src=""stim_listA/dance2.gif""style=""height:400px;""></stim_listA>",are dancing with each other,
null,"<div style=""font-size:60px;"">+</div>",,html-keyboard-response,380,2737713,0.0-19.0-0.14,38971,List2A,black,man,,,,null,,,,
null,"<img src=""stim_listA/argue8.gif""style=""height:400px;""></stim_listA>",,html-keyboard-response,381,2739718,0.0-19.0-1.14,38971,List2A,black,man,,,,null,,,,
null,are arguing with each other,,html-keyboard-response,382,2741722,0.0-19.0-2.14,38971,List2A,black,man,,,,null,,,,
19831,,,survey-text,383,2761556,0.0-19.0-3.14,38971,List2A,black,man,,,,,"{""Q0"":""Jane is dancing with Beth ""}","<img src=""stim_listA/argue8.gif""style=""height:400px;""></stim_listA>",are arguing with each other,
null,"<div style=""font-size:60px;"">+</div>",,html-keyboard-response,384,2762064,0.0-19.0-0.15,38971,List2A,black,man,,,,null,,,,
null,"<img src=""stim_listA/kiss6.gif""style=""height:400px;""></stim_listA>",,html-keyboard-response,385,2764070,0.0-19.0-1.15,38971,List2A,black,man,,,,null,,,,
null,are kissing each other,,html-keyboard-response,386,2766073,0.0-19.0-2.15,38971,List2A,black,man,,,,null,,,,
12202,,,survey-text,387,2778280,0.0-19.0-3.15,38971,List2A,black,man,,,,,"{""Q0"":""Dave is kissing mike ""}","<img src=""stim_listA/kiss6.gif""style=""height:400px;""></stim_listA>",are kissing each other,
null,"<div style=""font-size:60px;"">+</div>",,html-keyboard-response,388,2778785,0.0-19.0-0.16,38971,List2A,black,man,,,,null,,,,
null,"<img src=""stim_listA/marry3.gif""style=""height:400px;""></stim_listA>",,html-keyboard-response,389,2780790,0.0-19.0-1.16,38971,List2A,black,man,,,,null,,,,
null,is marrying,,html-keyboard-response,390,2782794,0.0-19.0-2.16,38971,List2A,black,man,,,,null,,,,
10786,,,survey-text,391,2793583,0.0-19.0-3.16,38971,List2A,black,man,,,,,"{""Q0"":""Mike is marrying Beth ""}","<img src=""stim_listA/marry3.gif""style=""height:400px;""></stim_listA>",is marrying,
null,"<div style=""font-size:60px;"">+</div>",,html-keyboard-response,392,2794086,0.0-19.0-0.17,38971,List2A,black,man,,,,null,,,,
null,"<img src=""stim_listA/talk5.gif""style=""height:400px;""></stim_listA>",,html-keyboard-response,393,2796090,0.0-19.0-1.17,38971,List2A,black,man,,,,null,,,,
null,is talking to,,html-keyboard-response,394,2798094,0.0-19.0-2.17,38971,List2A,black,man,,,,null,,,,
8169,,,survey-text,395,2806266,0.0-19.0-3.17,38971,List2A,black,man,,,,,"{""Q0"":""Luke is talking to mike ""}","<img src=""stim_listA/talk5.gif""style=""height:400px;""></stim_listA>",is talking to,
null,"<div style=""font-size:60px;"">+</div>",,html-keyboard-response,396,2806770,0.0-19.0-0.18,38971,List2A,black,man,,,,null,,,,
null,"<img src=""stim_listA/kiss2.gif""style=""height:400px;""></stim_listA>",,html-keyboard-response,397,2808775,0.0-19.0-1.18,38971,List2A,black,man,,,,null,,,,
null,are kissing each other,,html-keyboard-response,398,2810783,0.0-19.0-2.18,38971,List2A,black,man,,,,null,,,,
61452,,,survey-text,399,2872238,0.0-19.0-3.18,38971,List2A,black,man,,,,,"{""Q0"":""Jane is touching Kate ""}","<img src=""stim_listA/kiss2.gif""style=""height:400px;""></stim_listA>",are kissing each other,
null,"<div style=""font-size:60px;"">+</div>",,html-keyboard-response,400,2872743,0.0-19.0-0.19,38971,List2A,black,man,,,,null,,,,
null,"<img src=""stim_listA/talk4.gif""style=""height:400px;""></stim_listA>",,html-keyboard-response,401,2874748,0.0-19.0-1.19,38971,List2A,black,man,,,,null,,,,
null,are talking to each other,,html-keyboard-response,402,2876752,0.0-19.0-2.19,38971,List2A,black,man,,,,null,,,,
27075,,,survey-text,403,2903829,0.0-19.0-3.19,38971,List2A,black,man,,,,,"{""Q0"":""Ruth is talking to Kate ""}","<img src=""stim_listA/talk4.gif""style=""height:400px;""></stim_listA>",are talking to each other,
3592,<p>Thank you for completing that task.</p><p>The final part of this session is a short questionnaire.</p><p>Press Continue.</p>,0,html-button-response,404,2907427,0.0-20.0,38971,List2A,black,man,,,,,,,,
33753,,,survey-text,405,2942187,0.0-21.0,38971,List2A,black,man,,,,,"{""Q0"":""22"",""Q1"":""English "",""Q2"":""English "",""Q3"":""United States "",""Q4"":""Black"",""Q5"":""Male""}",,,demographics
24583,,,survey-likert,406,2966789,0.0-22.0,38971,List2A,black,man,,,,,"{""Q0"":4}",,,likert_ESS
9198,,,survey-likert,407,2976004,0.0-23.0,38971,List2A,black,man,,,,,"{""Q0"":4}",,,likert_NSSAL_Q1
15541,,,survey-likert,408,2991556,0.0-24.0,38971,List2A,black,man,,,,,"{""Q0"":4}",,,likert_NSSAL_Q2
7375,,,survey-likert,409,2998941,0.0-25.0,38971,List2A,black,man,,,,,"{""Q0"":4}",,,likert_CGRS_Q1
7533,,,survey-likert,410,3006485,0.0-26.0,38971,List2A,black,man,,,,,"{""Q0"":3}",,,likert_CGRS_Q2
7806,,,survey-likert,411,3014306,0.0-27.0,38971,List2A,black,man,,,,,"{""Q0"":3}",,,likert_CGRS_Q3
17895,,,survey-text,412,3032216,0.0-28.0,38971,List2A,black,man,,,,,"{""Q0"":""ccc""}",,,worker_id
6289,,,external-html,413,3038827,0.0-29.0,38971,List2A,black,man,debrief.html,,,,,,,
