rt,stimulus,button_pressed,trial_type,trial_index,time_elapsed,internal_node_id,subject,list,ppt_race,ppt_gender,url,first_guess,correct,key_press,responses,image_type,phrase_type,test_part
2640,Welcome to the experiment. Press Continue to begin.,0,html-button-response,0,2649,0.0-0.0,39035,List2B,black,man,,,,,,,,
10356,,,external-html,1,14286,0.0-1.0,39035,List2B,black,man,consent.html,,,,,,,
15966,"<p>On the next page, you will see portraits of 8 people and their names.</p><p>Your first task is to take a few minutes to memorise the names of these people.</p><p>You will have to recall their names during the rest of the experiment, so it is</p><p>essential that you try to memorise these people and their names as best as you can.</p><br><p><strong>You will then be tested on your memory of these names and portraits.</strong></p><br><p>The experiment will start after you have completed this memory test.</p><br><p>Ready?</p>",0,html-button-response,2,30257,0.0-2.0,39035,List2B,black,man,,,,,,,,
77815,"<img src='img/portrait_matrix_list2.jpg' style='width:900px;height:500px;''></img><p>If you have memorised all the portraits and names and are ready to start, press Continue.</p><p><strong>Please note: Your memory of these faces will be tested 4 times during this experiment.</strong></p>",0,html-button-response,3,109081,0.0-3.0-0.0,39035,List2B,black,man,,,,,,,,
11864,"<img src=""portrait/WM1.jpg""style=""height:400px;""></img>",6,html-button-response,4,121960,0.0-3.0-1.0,39035,List2B,black,man,,TRUE,6,,,,,
null,CORRECT,,html-keyboard-response,5,123472,0.0-3.0-2.0-0.0,39035,List2B,black,man,,,,null,,,,
2443,"<img src=""portrait/WM2.jpg""style=""height:400px;""></img>",7,html-button-response,6,125922,0.0-3.0-4.0,39035,List2B,black,man,,TRUE,7,,,,,
null,CORRECT,,html-keyboard-response,7,127473,0.0-3.0-5.0-0.0,39035,List2B,black,man,,,,null,,,,
2164,"<img src=""portrait/BM2.jpg""style=""height:400px;""></img>",5,html-button-response,8,129641,0.0-3.0-7.0,39035,List2B,black,man,,TRUE,5,,,,,
null,CORRECT,,html-keyboard-response,9,131148,0.0-3.0-8.0-0.0,39035,List2B,black,man,,,,null,,,,
2422,"<img src=""portrait/BW2.jpg""style=""height:400px;""></img>",2,html-button-response,10,133574,0.0-3.0-10.0,39035,List2B,black,man,,TRUE,2,,,,,
null,CORRECT,,html-keyboard-response,11,135083,0.0-3.0-11.0-0.0,39035,List2B,black,man,,,,null,,,,
8790,"<img src=""portrait/BW1.jpg""style=""height:400px;""></img>",0,html-button-response,12,143879,0.0-3.0-13.0,39035,List2B,black,man,,TRUE,0,,,,,
null,CORRECT,,html-keyboard-response,13,145384,0.0-3.0-14.0-0.0,39035,List2B,black,man,,,,null,,,,
7189,"<img src=""portrait/WW1.jpg""style=""height:400px;""></img>",1,html-button-response,14,152585,0.0-3.0-16.0,39035,List2B,black,man,,TRUE,1,,,,,
null,CORRECT,,html-keyboard-response,15,154094,0.0-3.0-17.0-0.0,39035,List2B,black,man,,,,null,,,,
4225,"<img src=""portrait/WW2.jpg""style=""height:400px;""></img>",3,html-button-response,16,158325,0.0-3.0-19.0,39035,List2B,black,man,,TRUE,3,,,,,
null,CORRECT,,html-keyboard-response,17,159833,0.0-3.0-20.0-0.0,39035,List2B,black,man,,,,null,,,,
7809,"<img src=""portrait/BM1.jpg""style=""height:400px;""></img>",4,html-button-response,18,167647,0.0-3.0-22.0,39035,List2B,black,man,,TRUE,4,,,,,
null,CORRECT,,html-keyboard-response,19,169154,0.0-3.0-23.0-0.0,39035,List2B,black,man,,,,null,,,,
2418,<p>You got 8 out of 8 right first time. Press Continue.</p>,0,html-button-response,20,171579,0.0-3.0-25.0,39035,List2B,black,man,,,,,,,,
67624,"<p>In this experiment, you will view photographs of the people from the memory game interacting.</p><p>By using the <strong>exact</strong> phrase given <i>after</i> the photograph appears and recalling the correct names of the people in the photographs, form a sentence describing the interaction. You do not need to capitalise names.</p><p>Type your answer in the space provided. Please complete every sentence before moving onto the next trial.</p><p>You will only have a few seconds to memorise each given photograph and phrase before you can respond, so try your best to focus.</p><p>An example is given below. Press 'Continue' when you are ready.</p><img src='img/speaking_example.jpg' style='width:800px;height:460px;''></img>",0,html-button-response,21,240214,0.0-4.0,39035,List2B,black,man,,,,,,,,
3932,"<p>Before the experiment starts, you will watch two example trials. Press 'Continue'.</p>",0,html-button-response,22,245152,0.0-5.0,39035,List2B,black,man,,,,,,,,
null,<img src='img/meet_eg.gif' style='height:400px;''></img>,,html-keyboard-response,23,248159,0.0-6.0,39035,List2B,black,man,,,,null,,,,
null,<p>is meeting</p>,,html-keyboard-response,24,250163,0.0-7.0,39035,List2B,black,man,,,,null,,,,
6491,<p><b>Answer:</b> jane is meeting ruth</p>,0,html-button-response,25,256659,0.0-8.0,39035,List2B,black,man,,,,,,,,
null,<img src='img/look_eg.gif' style='height:400px;''></img>,,html-keyboard-response,26,259667,0.0-9.0,39035,List2B,black,man,,,,null,,,,
null,<p>are looking at each other</p>,,html-keyboard-response,27,261673,0.0-10.0,39035,List2B,black,man,,,,null,,,,
3167,<p><b>Answer:</b> fred and mike are looking at each other</p>,0,html-button-response,28,264843,0.0-11.0,39035,List2B,black,man,,,,,,,,
15709,"<p>Ready to start the experiment?</p><br><p><strong>Remember to describe the picture using a full sentence,</strong></p><p><strong>that combines the names of the people with the <i>exact</i> phrase given.</strong></p><p><strong>To receive full payment you must do this correctly.</strong></p><p><strong> You do not need to capitalise names or use punctuation.</strong></p><br><p>Press 'Continue' to begin.</p>",0,html-button-response,29,281559,0.0-12.0,39035,List2B,black,man,,,,,,,,
null,"<div style=""font-size:60px;"">+</div>",,html-keyboard-response,30,283067,0.0-13.0-0.0,39035,List2B,black,man,,,,null,,,,
null,"<img src=""stim_listB/flirt6.gif""style=""height:400px;""></stim_listB>",,html-keyboard-response,31,285079,0.0-13.0-1.0,39035,List2B,black,man,,,,null,,,,
null,are flirting with each other,,html-keyboard-response,32,287082,0.0-13.0-2.0,39035,List2B,black,man,,,,null,,,,
25408,,,survey-text,33,312500,0.0-13.0-3.0,39035,List2B,black,man,,,,,"{""Q0"":""fred and dave are flirting with each other.""}","<img src=""stim_listB/flirt6.gif""style=""height:400px;""></stim_listB>",are flirting with each other,
null,"<div style=""font-size:60px;"">+</div>",,html-keyboard-response,34,313004,0.0-13.0-0.1,39035,List2B,black,man,,,,null,,,,
null,"<img src=""stim_listB/dance7.gif""style=""height:400px;""></stim_listB>",,html-keyboard-response,35,315008,0.0-13.0-1.1,39035,List2B,black,man,,,,null,,,,
null,is dancing with,,html-keyboard-response,36,317012,0.0-13.0-2.1,39035,List2B,black,man,,,,null,,,,
25599,,,survey-text,37,342615,0.0-13.0-3.1,39035,List2B,black,man,,,,,"{""Q0"":""jane and kate are dancing .""}","<img src=""stim_listB/dance7.gif""style=""height:400px;""></stim_listB>",is dancing with,
null,"<div style=""font-size:60px;"">+</div>",,html-keyboard-response,38,343119,0.0-13.0-0.2,39035,List2B,black,man,,,,null,,,,
null,"<img src=""stim_listB/shout6.gif""style=""height:400px;""></stim_listB>",,html-keyboard-response,39,345125,0.0-13.0-1.2,39035,List2B,black,man,,,,null,,,,
null,are shouting at each other,,html-keyboard-response,40,347130,0.0-13.0-2.2,39035,List2B,black,man,,,,null,,,,
21645,,,survey-text,41,368779,0.0-13.0-3.2,39035,List2B,black,man,,,,,"{""Q0"":""mike and dave are shouting at each other.""}","<img src=""stim_listB/shout6.gif""style=""height:400px;""></stim_listB>",are shouting at each other,
null,"<div style=""font-size:60px;"">+</div>",,html-keyboard-response,42,369282,0.0-13.0-0.3,39035,List2B,black,man,,,,null,,,,
null,"<img src=""stim_listB/argue2.gif""style=""height:400px;""></stim_listB>",,html-keyboard-response,43,371295,0.0-13.0-1.3,39035,List2B,black,man,,,,null,,,,
null,are arguing with each other,,html-keyboard-response,44,373300,0.0-13.0-2.3,39035,List2B,black,man,,,,null,,,,
62227,,,survey-text,45,435531,0.0-13.0-3.3,39035,List2B,black,man,,,,,"{""Q0"":""ruth and fred are arguing with each other.""}","<img src=""stim_listB/argue2.gif""style=""height:400px;""></stim_listB>",are arguing with each other,
null,"<div style=""font-size:60px;"">+</div>",,html-keyboard-response,46,436034,0.0-13.0-0.4,39035,List2B,black,man,,,,null,,,,
null,"<img src=""stim_listB/play8.gif""style=""height:400px;""></stim_listB>",,html-keyboard-response,47,438056,0.0-13.0-1.4,39035,List2B,black,man,,,,null,,,,
null,are playing with each other,,html-keyboard-response,48,440061,0.0-13.0-2.4,39035,List2B,black,man,,,,null,,,,
24962,,,survey-text,49,465027,0.0-13.0-3.4,39035,List2B,black,man,,,,,"{""Q0"":""beth and ruth are playing with each other.""}","<img src=""stim_listB/play8.gif""style=""height:400px;""></stim_listB>",are playing with each other,
null,"<div style=""font-size:60px;"">+</div>",,html-keyboard-response,50,465533,0.0-13.0-0.5,39035,List2B,black,man,,,,null,,,,
null,"<img src=""stim_listB/shout5.gif""style=""height:400px;""></stim_listB>",,html-keyboard-response,51,467545,0.0-13.0-1.5,39035,List2B,black,man,,,,null,,,,
null,is shouting at,,html-keyboard-response,52,469553,0.0-13.0-2.5,39035,List2B,black,man,,,,null,,,,
22923,,,survey-text,53,492479,0.0-13.0-3.5,39035,List2B,black,man,,,,,"{""Q0"":""mike is shouting at fred.""}","<img src=""stim_listB/shout5.gif""style=""height:400px;""></stim_listB>",is shouting at,
null,"<div style=""font-size:60px;"">+</div>",,html-keyboard-response,54,492983,0.0-13.0-0.6,39035,List2B,black,man,,,,null,,,,
null,"<img src=""stim_listB/marry7.gif""style=""height:400px;""></stim_listB>",,html-keyboard-response,55,494992,0.0-13.0-1.6,39035,List2B,black,man,,,,null,,,,
null,is marrying,,html-keyboard-response,56,496997,0.0-13.0-2.6,39035,List2B,black,man,,,,null,,,,
16202,,,survey-text,57,513203,0.0-13.0-3.6,39035,List2B,black,man,,,,,"{""Q0"":""kate is marrying beth.""}","<img src=""stim_listB/marry7.gif""style=""height:400px;""></stim_listB>",is marrying,
null,"<div style=""font-size:60px;"">+</div>",,html-keyboard-response,58,513707,0.0-13.0-0.7,39035,List2B,black,man,,,,null,,,,
null,"<img src=""stim_listB/kiss7.gif""style=""height:400px;""></stim_listB>",,html-keyboard-response,59,515716,0.0-13.0-1.7,39035,List2B,black,man,,,,null,,,,
null,is kissing,,html-keyboard-response,60,517725,0.0-13.0-2.7,39035,List2B,black,man,,,,null,,,,
12222,,,survey-text,61,529951,0.0-13.0-3.7,39035,List2B,black,man,,,,,"{""Q0"":""jane is kissing beth.""}","<img src=""stim_listB/kiss7.gif""style=""height:400px;""></stim_listB>",is kissing,
null,"<div style=""font-size:60px;"">+</div>",,html-keyboard-response,62,530455,0.0-13.0-0.8,39035,List2B,black,man,,,,null,,,,
null,"<img src=""stim_listB/kiss5.gif""style=""height:400px;""></stim_listB>",,html-keyboard-response,63,532462,0.0-13.0-1.8,39035,List2B,black,man,,,,null,,,,
null,is kissing,,html-keyboard-response,64,534466,0.0-13.0-2.8,39035,List2B,black,man,,,,null,,,,
16863,,,survey-text,65,551334,0.0-13.0-3.8,39035,List2B,black,man,,,,,"{""Q0"":""fred is kissing mike.""}","<img src=""stim_listB/kiss5.gif""style=""height:400px;""></stim_listB>",is kissing,
null,"<div style=""font-size:60px;"">+</div>",,html-keyboard-response,66,551844,0.0-13.0-0.9,39035,List2B,black,man,,,,null,,,,
null,"<img src=""stim_listB/fight4.gif""style=""height:400px;""></stim_listB>",,html-keyboard-response,67,553853,0.0-13.0-1.9,39035,List2B,black,man,,,,null,,,,
null,are fighting each other,,html-keyboard-response,68,555857,0.0-13.0-2.9,39035,List2B,black,man,,,,null,,,,
23710,,,survey-text,69,579570,0.0-13.0-3.9,39035,List2B,black,man,,,,,"{""Q0"":""fred and beth are fighting each other.""}","<img src=""stim_listB/fight4.gif""style=""height:400px;""></stim_listB>",are fighting each other,
null,"<div style=""font-size:60px;"">+</div>",,html-keyboard-response,70,580075,0.0-13.0-0.10,39035,List2B,black,man,,,,null,,,,
null,"<img src=""stim_listB/touch3.gif""style=""height:400px;""></stim_listB>",,html-keyboard-response,71,582081,0.0-13.0-1.10,39035,List2B,black,man,,,,null,,,,
null,is touching,,html-keyboard-response,72,584083,0.0-13.0-2.10,39035,List2B,black,man,,,,null,,,,
12067,,,survey-text,73,596154,0.0-13.0-3.10,39035,List2B,black,man,,,,,"{""Q0"":""mike is touching kate.""}","<img src=""stim_listB/touch3.gif""style=""height:400px;""></stim_listB>",is touching,
null,"<div style=""font-size:60px;"">+</div>",,html-keyboard-response,74,596659,0.0-13.0-0.11,39035,List2B,black,man,,,,null,,,,
null,"<img src=""stim_listB/shout2.gif""style=""height:400px;""></stim_listB>",,html-keyboard-response,75,598665,0.0-13.0-1.11,39035,List2B,black,man,,,,null,,,,
null,are shouting at each other,,html-keyboard-response,76,600669,0.0-13.0-2.11,39035,List2B,black,man,,,,null,,,,
17338,,,survey-text,77,618009,0.0-13.0-3.11,39035,List2B,black,man,,,,,"{""Q0"":""jane and dave are shouting at each other.""}","<img src=""stim_listB/shout2.gif""style=""height:400px;""></stim_listB>",are shouting at each other,
null,"<div style=""font-size:60px;"">+</div>",,html-keyboard-response,78,618513,0.0-13.0-0.12,39035,List2B,black,man,,,,null,,,,
null,"<img src=""stim_listB/marry3.gif""style=""height:400px;""></stim_listB>",,html-keyboard-response,79,620526,0.0-13.0-1.12,39035,List2B,black,man,,,,null,,,,
null,is marrying,,html-keyboard-response,80,622529,0.0-13.0-2.12,39035,List2B,black,man,,,,null,,,,
18959,,,survey-text,81,641491,0.0-13.0-3.12,39035,List2B,black,man,,,,,"{""Q0"":""mike is marrying beth.""}","<img src=""stim_listB/marry3.gif""style=""height:400px;""></stim_listB>",is marrying,
null,"<div style=""font-size:60px;"">+</div>",,html-keyboard-response,82,641995,0.0-13.0-0.13,39035,List2B,black,man,,,,null,,,,
null,"<img src=""stim_listB/talk7.gif""style=""height:400px;""></stim_listB>",,html-keyboard-response,83,644000,0.0-13.0-1.13,39035,List2B,black,man,,,,null,,,,
null,is talking to,,html-keyboard-response,84,646003,0.0-13.0-2.13,39035,List2B,black,man,,,,null,,,,
13205,,,survey-text,85,659211,0.0-13.0-3.13,39035,List2B,black,man,,,,,"{""Q0"":""kate is talking to ruth.""}","<img src=""stim_listB/talk7.gif""style=""height:400px;""></stim_listB>",is talking to,
null,"<div style=""font-size:60px;"">+</div>",,html-keyboard-response,86,659715,0.0-13.0-0.14,39035,List2B,black,man,,,,null,,,,
null,"<img src=""stim_listB/play6.gif""style=""height:400px;""></stim_listB>",,html-keyboard-response,87,661722,0.0-13.0-1.14,39035,List2B,black,man,,,,null,,,,
null,are playing with each other,,html-keyboard-response,88,663724,0.0-13.0-2.14,39035,List2B,black,man,,,,null,,,,
26690,,,survey-text,89,690417,0.0-13.0-3.14,39035,List2B,black,man,,,,,"{""Q0"":""fred and mike are playing with each other.""}","<img src=""stim_listB/play6.gif""style=""height:400px;""></stim_listB>",are playing with each other,
null,"<div style=""font-size:60px;"">+</div>",,html-keyboard-response,90,690920,0.0-13.0-0.15,39035,List2B,black,man,,,,null,,,,
null,"<img src=""stim_listB/marry1.gif""style=""height:400px;""></stim_listB>",,html-keyboard-response,91,692925,0.0-13.0-1.15,39035,List2B,black,man,,,,null,,,,
null,is marrying,,html-keyboard-response,92,694929,0.0-13.0-2.15,39035,List2B,black,man,,,,null,,,,
11811,,,survey-text,93,706743,0.0-13.0-3.15,39035,List2B,black,man,,,,,"{""Q0"":""dave is marrying ruth.""}","<img src=""stim_listB/marry1.gif""style=""height:400px;""></stim_listB>",is marrying,
null,"<div style=""font-size:60px;"">+</div>",,html-keyboard-response,94,707247,0.0-13.0-0.16,39035,List2B,black,man,,,,null,,,,
null,"<img src=""stim_listB/shout7.gif""style=""height:400px;""></stim_listB>",,html-keyboard-response,95,709262,0.0-13.0-1.16,39035,List2B,black,man,,,,null,,,,
null,is shouting at,,html-keyboard-response,96,711265,0.0-13.0-2.16,39035,List2B,black,man,,,,null,,,,
14443,,,survey-text,97,725712,0.0-13.0-3.16,39035,List2B,black,man,,,,,"{""Q0"":""ruth is shouting at beth.""}","<img src=""stim_listB/shout7.gif""style=""height:400px;""></stim_listB>",is shouting at,
null,"<div style=""font-size:60px;"">+</div>",,html-keyboard-response,98,726216,0.0-13.0-0.17,39035,List2B,black,man,,,,null,,,,
null,"<img src=""stim_listB/flirt3.gif""style=""height:400px;""></stim_listB>",,html-keyboard-response,99,728233,0.0-13.0-1.17,39035,List2B,black,man,,,,null,,,,
null,is flirting with,,html-keyboard-response,100,730235,0.0-13.0-2.17,39035,List2B,black,man,,,,null,,,,
13256,,,survey-text,101,743495,0.0-13.0-3.17,39035,List2B,black,man,,,,,"{""Q0"":""mike is flirting with kate.""}","<img src=""stim_listB/flirt3.gif""style=""height:400px;""></stim_listB>",is flirting with,
null,"<div style=""font-size:60px;"">+</div>",,html-keyboard-response,102,743999,0.0-13.0-0.18,39035,List2B,black,man,,,,null,,,,
null,"<img src=""stim_listB/marry2.gif""style=""height:400px;""></stim_listB>",,html-keyboard-response,103,746006,0.0-13.0-1.18,39035,List2B,black,man,,,,null,,,,
null,are marrying each other,,html-keyboard-response,104,748010,0.0-13.0-2.18,39035,List2B,black,man,,,,null,,,,
49097,,,survey-text,105,797111,0.0-13.0-3.18,39035,List2B,black,man,,,,,"{""Q0"":""mike and ruth are getting married.""}","<img src=""stim_listB/marry2.gif""style=""height:400px;""></stim_listB>",are marrying each other,
null,"<div style=""font-size:60px;"">+</div>",,html-keyboard-response,106,797616,0.0-13.0-0.19,39035,List2B,black,man,,,,null,,,,
null,"<img src=""stim_listB/kiss2.gif""style=""height:400px;""></stim_listB>",,html-keyboard-response,107,799626,0.0-13.0-1.19,39035,List2B,black,man,,,,null,,,,
null,are kissing each other,,html-keyboard-response,108,801633,0.0-13.0-2.19,39035,List2B,black,man,,,,null,,,,
18842,,,survey-text,109,820479,0.0-13.0-3.19,39035,List2B,black,man,,,,,"{""Q0"":""dave and kate are kissing each other.""}","<img src=""stim_listB/kiss2.gif""style=""height:400px;""></stim_listB>",are kissing each other,
68536,"<img src='img/portrait_matrix_list2.jpg' style='width:900px;height:500px;''></img><p>If you have memorised all the portraits and names and are ready to start, press Continue.</p><p><strong>Please note: Your memory of these faces will be tested 4 times during this experiment.</strong></p>",0,html-button-response,110,889017,0.0-14.0-0.0,39035,List2B,black,man,,,,,,,,
6247,"<img src=""portrait/BW2.jpg""style=""height:400px;""></img>",2,html-button-response,111,896274,0.0-14.0-1.0,39035,List2B,black,man,,TRUE,2,,,,,
null,CORRECT,,html-keyboard-response,112,897782,0.0-14.0-2.0-0.0,39035,List2B,black,man,,,,null,,,,
5228,"<img src=""portrait/BM2.jpg""style=""height:400px;""></img>",5,html-button-response,113,903016,0.0-14.0-4.0,39035,List2B,black,man,,TRUE,5,,,,,
null,CORRECT,,html-keyboard-response,114,904524,0.0-14.0-5.0-0.0,39035,List2B,black,man,,,,null,,,,
4478,"<img src=""portrait/WW1.jpg""style=""height:400px;""></img>",1,html-button-response,115,909008,0.0-14.0-7.0,39035,List2B,black,man,,TRUE,1,,,,,
null,CORRECT,,html-keyboard-response,116,910516,0.0-14.0-8.0-0.0,39035,List2B,black,man,,,,null,,,,
5504,"<img src=""portrait/BM1.jpg""style=""height:400px;""></img>",4,html-button-response,117,916028,0.0-14.0-10.0,39035,List2B,black,man,,TRUE,4,,,,,
null,CORRECT,,html-keyboard-response,118,917536,0.0-14.0-11.0-0.0,39035,List2B,black,man,,,,null,,,,
5705,"<img src=""portrait/WM1.jpg""style=""height:400px;""></img>",6,html-button-response,119,923246,0.0-14.0-13.0,39035,List2B,black,man,,TRUE,6,,,,,
null,CORRECT,,html-keyboard-response,120,924755,0.0-14.0-14.0-0.0,39035,List2B,black,man,,,,null,,,,
3378,"<img src=""portrait/BW1.jpg""style=""height:400px;""></img>",0,html-button-response,121,928138,0.0-14.0-16.0,39035,List2B,black,man,,TRUE,0,,,,,
null,CORRECT,,html-keyboard-response,122,929649,0.0-14.0-17.0-0.0,39035,List2B,black,man,,,,null,,,,
5205,"<img src=""portrait/WM2.jpg""style=""height:400px;""></img>",7,html-button-response,123,934862,0.0-14.0-19.0,39035,List2B,black,man,,TRUE,7,,,,,
null,CORRECT,,html-keyboard-response,124,936368,0.0-14.0-20.0-0.0,39035,List2B,black,man,,,,null,,,,
5361,"<img src=""portrait/WW2.jpg""style=""height:400px;""></img>",3,html-button-response,125,941732,0.0-14.0-22.0,39035,List2B,black,man,,TRUE,3,,,,,
null,CORRECT,,html-keyboard-response,126,943239,0.0-14.0-23.0-0.0,39035,List2B,black,man,,,,null,,,,
1984,<p>You got 8 out of 8 right first time. Press Continue.</p>,0,html-button-response,127,945227,0.0-14.0-25.0,39035,List2B,black,man,,,,,,,,
null,"<div style=""font-size:60px;"">+</div>",,html-keyboard-response,128,946737,0.0-15.0-0.0,39035,List2B,black,man,,,,null,,,,
null,"<img src=""stim_listB/dance2.gif""style=""height:400px;""></stim_listB>",,html-keyboard-response,129,948749,0.0-15.0-1.0,39035,List2B,black,man,,,,null,,,,
null,are dancing with each other,,html-keyboard-response,130,950754,0.0-15.0-2.0,39035,List2B,black,man,,,,null,,,,
22362,,,survey-text,131,973119,0.0-15.0-3.0,39035,List2B,black,man,,,,,"{""Q0"":""ruth and dave are dancing with each other.""}","<img src=""stim_listB/dance2.gif""style=""height:400px;""></stim_listB>",are dancing with each other,
null,"<div style=""font-size:60px;"">+</div>",,html-keyboard-response,132,973623,0.0-15.0-0.1,39035,List2B,black,man,,,,null,,,,
null,"<img src=""stim_listB/flirt2.gif""style=""height:400px;""></stim_listB>",,html-keyboard-response,133,975631,0.0-15.0-1.1,39035,List2B,black,man,,,,null,,,,
null,are flirting with each other,,html-keyboard-response,134,977635,0.0-15.0-2.1,39035,List2B,black,man,,,,null,,,,
23559,,,survey-text,135,1001197,0.0-15.0-3.1,39035,List2B,black,man,,,,,"{""Q0"":""dave and ruth are flirting with each other.""}","<img src=""stim_listB/flirt2.gif""style=""height:400px;""></stim_listB>",are flirting with each other,
null,"<div style=""font-size:60px;"">+</div>",,html-keyboard-response,136,1001701,0.0-15.0-0.2,39035,List2B,black,man,,,,null,,,,
null,"<img src=""stim_listB/talk3.gif""style=""height:400px;""></stim_listB>",,html-keyboard-response,137,1003706,0.0-15.0-1.2,39035,List2B,black,man,,,,null,,,,
null,is talking to,,html-keyboard-response,138,1005710,0.0-15.0-2.2,39035,List2B,black,man,,,,null,,,,
19786,,,survey-text,139,1025500,0.0-15.0-3.2,39035,List2B,black,man,,,,,"{""Q0"":""fred is talking to kate.""}","<img src=""stim_listB/talk3.gif""style=""height:400px;""></stim_listB>",is talking to,
null,"<div style=""font-size:60px;"">+</div>",,html-keyboard-response,140,1026003,0.0-15.0-0.3,39035,List2B,black,man,,,,null,,,,
null,"<img src=""stim_listB/touch4.gif""style=""height:400px;""></stim_listB>",,html-keyboard-response,141,1028029,0.0-15.0-1.3,39035,List2B,black,man,,,,null,,,,
null,are touching each other,,html-keyboard-response,142,1030033,0.0-15.0-2.3,39035,List2B,black,man,,,,null,,,,
18796,,,survey-text,143,1048837,0.0-15.0-3.3,39035,List2B,black,man,,,,,"{""Q0"":""fred and beth are touching each other.""}","<img src=""stim_listB/touch4.gif""style=""height:400px;""></stim_listB>",are touching each other,
null,"<div style=""font-size:60px;"">+</div>",,html-keyboard-response,144,1049342,0.0-15.0-0.4,39035,List2B,black,man,,,,null,,,,
null,"<img src=""stim_listB/argue1.gif""style=""height:400px;""></stim_listB>",,html-keyboard-response,145,1051349,0.0-15.0-1.4,39035,List2B,black,man,,,,null,,,,
null,is arguing with,,html-keyboard-response,146,1053351,0.0-15.0-2.4,39035,List2B,black,man,,,,null,,,,
17706,,,survey-text,147,1071060,0.0-15.0-3.4,39035,List2B,black,man,,,,,"{""Q0"":""dave is arguing with ruth.""}","<img src=""stim_listB/argue1.gif""style=""height:400px;""></stim_listB>",is arguing with,
null,"<div style=""font-size:60px;"">+</div>",,html-keyboard-response,148,1071564,0.0-15.0-0.5,39035,List2B,black,man,,,,null,,,,
null,"<img src=""stim_listB/kiss1.gif""style=""height:400px;""></stim_listB>",,html-keyboard-response,149,1073575,0.0-15.0-1.5,39035,List2B,black,man,,,,null,,,,
null,is kissing,,html-keyboard-response,150,1075580,0.0-15.0-2.5,39035,List2B,black,man,,,,null,,,,
16100,,,survey-text,151,1091683,0.0-15.0-3.5,39035,List2B,black,man,,,,,"{""Q0"":""luke is kissing ruth.""}","<img src=""stim_listB/kiss1.gif""style=""height:400px;""></stim_listB>",is kissing,
null,"<div style=""font-size:60px;"">+</div>",,html-keyboard-response,152,1092187,0.0-15.0-0.6,39035,List2B,black,man,,,,null,,,,
null,"<img src=""stim_listB/play3.gif""style=""height:400px;""></stim_listB>",,html-keyboard-response,153,1094195,0.0-15.0-1.6,39035,List2B,black,man,,,,null,,,,
null,is playing with,,html-keyboard-response,154,1096199,0.0-15.0-2.6,39035,List2B,black,man,,,,null,,,,
16561,,,survey-text,155,1112763,0.0-15.0-3.6,39035,List2B,black,man,,,,,"{""Q0"":""mike is playing with kate.""}","<img src=""stim_listB/play3.gif""style=""height:400px;""></stim_listB>",is playing with,
null,"<div style=""font-size:60px;"">+</div>",,html-keyboard-response,156,1113267,0.0-15.0-0.7,39035,List2B,black,man,,,,null,,,,
null,"<img src=""stim_listB/argue8.gif""style=""height:400px;""></stim_listB>",,html-keyboard-response,157,1115273,0.0-15.0-1.7,39035,List2B,black,man,,,,null,,,,
null,are arguing with each other,,html-keyboard-response,158,1117279,0.0-15.0-2.7,39035,List2B,black,man,,,,null,,,,
22207,,,survey-text,159,1139490,0.0-15.0-3.7,39035,List2B,black,man,,,,,"{""Q0"":""kate and ruth are arguing with each other.""}","<img src=""stim_listB/argue8.gif""style=""height:400px;""></stim_listB>",are arguing with each other,
null,"<div style=""font-size:60px;"">+</div>",,html-keyboard-response,160,1139994,0.0-15.0-0.8,39035,List2B,black,man,,,,null,,,,
null,"<img src=""stim_listB/touch2.gif""style=""height:400px;""></stim_listB>",,html-keyboard-response,161,1142001,0.0-15.0-1.8,39035,List2B,black,man,,,,null,,,,
null,are touching each other,,html-keyboard-response,162,1144003,0.0-15.0-2.8,39035,List2B,black,man,,,,null,,,,
18377,,,survey-text,163,1162384,0.0-15.0-3.8,39035,List2B,black,man,,,,,"{""Q0"":""luke and ruth are touching each other.""}","<img src=""stim_listB/touch2.gif""style=""height:400px;""></stim_listB>",are touching each other,
null,"<div style=""font-size:60px;"">+</div>",,html-keyboard-response,164,1162887,0.0-15.0-0.9,39035,List2B,black,man,,,,null,,,,
null,"<img src=""stim_listB/talk1.gif""style=""height:400px;""></stim_listB>",,html-keyboard-response,165,1164896,0.0-15.0-1.9,39035,List2B,black,man,,,,null,,,,
null,is talking to,,html-keyboard-response,166,1166902,0.0-15.0-2.9,39035,List2B,black,man,,,,null,,,,
15649,,,survey-text,167,1182554,0.0-15.0-3.9,39035,List2B,black,man,,,,,"{""Q0"":""luke is talking to jane""}","<img src=""stim_listB/talk1.gif""style=""height:400px;""></stim_listB>",is talking to,
null,"<div style=""font-size:60px;"">+</div>",,html-keyboard-response,168,1183057,0.0-15.0-0.10,39035,List2B,black,man,,,,null,,,,
null,"<img src=""stim_listB/dance8.gif""style=""height:400px;""></stim_listB>",,html-keyboard-response,169,1185066,0.0-15.0-1.10,39035,List2B,black,man,,,,null,,,,
null,are dancing with each other,,html-keyboard-response,170,1187071,0.0-15.0-2.10,39035,List2B,black,man,,,,null,,,,
20558,,,survey-text,171,1207632,0.0-15.0-3.10,39035,List2B,black,man,,,,,"{""Q0"":""kate and jane are dancing with each other.""}","<img src=""stim_listB/dance8.gif""style=""height:400px;""></stim_listB>",are dancing with each other,
null,"<div style=""font-size:60px;"">+</div>",,html-keyboard-response,172,1208136,0.0-15.0-0.11,39035,List2B,black,man,,,,null,,,,
null,"<img src=""stim_listB/dance3.gif""style=""height:400px;""></stim_listB>",,html-keyboard-response,173,1210144,0.0-15.0-1.11,39035,List2B,black,man,,,,null,,,,
null,is dancing with,,html-keyboard-response,174,1212147,0.0-15.0-2.11,39035,List2B,black,man,,,,null,,,,
21365,,,survey-text,175,1233516,0.0-15.0-3.11,39035,List2B,black,man,,,,,"{""Q0"":""fred and kate are dancing with each other.""}","<img src=""stim_listB/dance3.gif""style=""height:400px;""></stim_listB>",is dancing with,
null,"<div style=""font-size:60px;"">+</div>",,html-keyboard-response,176,1234020,0.0-15.0-0.12,39035,List2B,black,man,,,,null,,,,
null,"<img src=""stim_listB/fight1.gif""style=""height:400px;""></stim_listB>",,html-keyboard-response,177,1236031,0.0-15.0-1.12,39035,List2B,black,man,,,,null,,,,
null,is fighting,,html-keyboard-response,178,1238034,0.0-15.0-2.12,39035,List2B,black,man,,,,null,,,,
12225,,,survey-text,179,1250262,0.0-15.0-3.12,39035,List2B,black,man,,,,,"{""Q0"":""jane is fighting dave.""}","<img src=""stim_listB/fight1.gif""style=""height:400px;""></stim_listB>",is fighting,
null,"<div style=""font-size:60px;"">+</div>",,html-keyboard-response,180,1250765,0.0-15.0-0.13,39035,List2B,black,man,,,,null,,,,
null,"<img src=""stim_listB/touch5.gif""style=""height:400px;""></stim_listB>",,html-keyboard-response,181,1252773,0.0-15.0-1.13,39035,List2B,black,man,,,,null,,,,
null,is touching,,html-keyboard-response,182,1254777,0.0-15.0-2.13,39035,List2B,black,man,,,,null,,,,
12117,,,survey-text,183,1266897,0.0-15.0-3.13,39035,List2B,black,man,,,,,"{""Q0"":""mike is touching dave.""}","<img src=""stim_listB/touch5.gif""style=""height:400px;""></stim_listB>",is touching,
null,"<div style=""font-size:60px;"">+</div>",,html-keyboard-response,184,1267402,0.0-15.0-0.14,39035,List2B,black,man,,,,null,,,,
null,"<img src=""stim_listB/fight2.gif""style=""height:400px;""></stim_listB>",,html-keyboard-response,185,1269411,0.0-15.0-1.14,39035,List2B,black,man,,,,null,,,,
null,are fighting each other,,html-keyboard-response,186,1271414,0.0-15.0-2.14,39035,List2B,black,man,,,,null,,,,
19105,,,survey-text,187,1290524,0.0-15.0-3.14,39035,List2B,black,man,,,,,"{""Q0"":""luke and ruth are fighting each other.""}","<img src=""stim_listB/fight2.gif""style=""height:400px;""></stim_listB>",are fighting each other,
null,"<div style=""font-size:60px;"">+</div>",,html-keyboard-response,188,1291027,0.0-15.0-0.15,39035,List2B,black,man,,,,null,,,,
null,"<img src=""stim_listB/shout8.gif""style=""height:400px;""></stim_listB>",,html-keyboard-response,189,1293034,0.0-15.0-1.15,39035,List2B,black,man,,,,null,,,,
null,are shouting at each other,,html-keyboard-response,190,1295044,0.0-15.0-2.15,39035,List2B,black,man,,,,null,,,,
17794,,,survey-text,191,1312840,0.0-15.0-3.15,39035,List2B,black,man,,,,,"{""Q0"":""jane and kate are shouting at each other.""}","<img src=""stim_listB/shout8.gif""style=""height:400px;""></stim_listB>",are shouting at each other,
null,"<div style=""font-size:60px;"">+</div>",,html-keyboard-response,192,1313343,0.0-15.0-0.16,39035,List2B,black,man,,,,null,,,,
null,"<img src=""stim_listB/argue7.gif""style=""height:400px;""></stim_listB>",,html-keyboard-response,193,1315350,0.0-15.0-1.16,39035,List2B,black,man,,,,null,,,,
null,is arguing with,,html-keyboard-response,194,1317354,0.0-15.0-2.16,39035,List2B,black,man,,,,null,,,,
35829,,,survey-text,195,1353187,0.0-15.0-3.16,39035,List2B,black,man,,,,,"{""Q0"":""jane is arguing with beth""}","<img src=""stim_listB/argue7.gif""style=""height:400px;""></stim_listB>",is arguing with,
null,"<div style=""font-size:60px;"">+</div>",,html-keyboard-response,196,1353693,0.0-15.0-0.17,39035,List2B,black,man,,,,null,,,,
null,"<img src=""stim_listB/kiss8.gif""style=""height:400px;""></stim_listB>",,html-keyboard-response,197,1355700,0.0-15.0-1.17,39035,List2B,black,man,,,,null,,,,
null,are kissing each other,,html-keyboard-response,198,1357712,0.0-15.0-2.17,39035,List2B,black,man,,,,null,,,,
15195,,,survey-text,199,1372910,0.0-15.0-3.17,39035,List2B,black,man,,,,,"{""Q0"":""jane and kate are kissing each other.""}","<img src=""stim_listB/kiss8.gif""style=""height:400px;""></stim_listB>",are kissing each other,
null,"<div style=""font-size:60px;"">+</div>",,html-keyboard-response,200,1373418,0.0-15.0-0.18,39035,List2B,black,man,,,,null,,,,
null,"<img src=""stim_listB/touch6.gif""style=""height:400px;""></stim_listB>",,html-keyboard-response,201,1375430,0.0-15.0-1.18,39035,List2B,black,man,,,,null,,,,
null,are touching each other,,html-keyboard-response,202,1377432,0.0-15.0-2.18,39035,List2B,black,man,,,,null,,,,
22342,,,survey-text,203,1399778,0.0-15.0-3.18,39035,List2B,black,man,,,,,"{""Q0"":""fred and luke are touching each other.""}","<img src=""stim_listB/touch6.gif""style=""height:400px;""></stim_listB>",are touching each other,
null,"<div style=""font-size:60px;"">+</div>",,html-keyboard-response,204,1400282,0.0-15.0-0.19,39035,List2B,black,man,,,,null,,,,
null,"<img src=""stim_listB/play1.gif""style=""height:400px;""></stim_listB>",,html-keyboard-response,205,1402290,0.0-15.0-1.19,39035,List2B,black,man,,,,null,,,,
null,is playing with,,html-keyboard-response,206,1404294,0.0-15.0-2.19,39035,List2B,black,man,,,,null,,,,
13979,,,survey-text,207,1418277,0.0-15.0-3.19,39035,List2B,black,man,,,,,"{""Q0"":""jane is playing with dave.""}","<img src=""stim_listB/play1.gif""style=""height:400px;""></stim_listB>",is playing with,
25671,"<img src='img/portrait_matrix_list2.jpg' style='width:900px;height:500px;''></img><p>If you have memorised all the portraits and names and are ready to start, press Continue.</p><p><strong>Please note: Your memory of these faces will be tested 4 times during this experiment.</strong></p>",0,html-button-response,208,1443952,0.0-16.0-0.0,39035,List2B,black,man,,,,,,,,
3792,"<img src=""portrait/BM2.jpg""style=""height:400px;""></img>",5,html-button-response,209,1448753,0.0-16.0-1.0,39035,List2B,black,man,,TRUE,5,,,,,
null,CORRECT,,html-keyboard-response,210,1450258,0.0-16.0-2.0-0.0,39035,List2B,black,man,,,,null,,,,
3622,"<img src=""portrait/BW1.jpg""style=""height:400px;""></img>",0,html-button-response,211,1453884,0.0-16.0-4.0,39035,List2B,black,man,,TRUE,0,,,,,
null,CORRECT,,html-keyboard-response,212,1455392,0.0-16.0-5.0-0.0,39035,List2B,black,man,,,,null,,,,
2140,"<img src=""portrait/WM2.jpg""style=""height:400px;""></img>",7,html-button-response,213,1457537,0.0-16.0-7.0,39035,List2B,black,man,,TRUE,7,,,,,
null,CORRECT,,html-keyboard-response,214,1459050,0.0-16.0-8.0-0.0,39035,List2B,black,man,,,,null,,,,
2139,"<img src=""portrait/BW2.jpg""style=""height:400px;""></img>",2,html-button-response,215,1461195,0.0-16.0-10.0,39035,List2B,black,man,,TRUE,2,,,,,
null,CORRECT,,html-keyboard-response,216,1462702,0.0-16.0-11.0-0.0,39035,List2B,black,man,,,,null,,,,
3763,"<img src=""portrait/WM1.jpg""style=""height:400px;""></img>",6,html-button-response,217,1466471,0.0-16.0-13.0,39035,List2B,black,man,,TRUE,6,,,,,
null,CORRECT,,html-keyboard-response,218,1467977,0.0-16.0-14.0-0.0,39035,List2B,black,man,,,,null,,,,
2503,"<img src=""portrait/BM1.jpg""style=""height:400px;""></img>",4,html-button-response,219,1470489,0.0-16.0-16.0,39035,List2B,black,man,,TRUE,4,,,,,
null,CORRECT,,html-keyboard-response,220,1471997,0.0-16.0-17.0-0.0,39035,List2B,black,man,,,,null,,,,
3682,"<img src=""portrait/WW1.jpg""style=""height:400px;""></img>",1,html-button-response,221,1475685,0.0-16.0-19.0,39035,List2B,black,man,,TRUE,1,,,,,
null,CORRECT,,html-keyboard-response,222,1477190,0.0-16.0-20.0-0.0,39035,List2B,black,man,,,,null,,,,
2672,"<img src=""portrait/WW2.jpg""style=""height:400px;""></img>",3,html-button-response,223,1479866,0.0-16.0-22.0,39035,List2B,black,man,,TRUE,3,,,,,
null,CORRECT,,html-keyboard-response,224,1481375,0.0-16.0-23.0-0.0,39035,List2B,black,man,,,,null,,,,
2347,<p>You got 8 out of 8 right first time. Press Continue.</p>,0,html-button-response,225,1483728,0.0-16.0-25.0,39035,List2B,black,man,,,,,,,,
null,"<div style=""font-size:60px;"">+</div>",,html-keyboard-response,226,1485237,0.0-17.0-0.0,39035,List2B,black,man,,,,null,,,,
null,"<img src=""stim_listB/marry8.gif""style=""height:400px;""></stim_listB>",,html-keyboard-response,227,1487243,0.0-17.0-1.0,39035,List2B,black,man,,,,null,,,,
null,are marrying each other,,html-keyboard-response,228,1489246,0.0-17.0-2.0,39035,List2B,black,man,,,,null,,,,
17360,,,survey-text,229,1506610,0.0-17.0-3.0,39035,List2B,black,man,,,,,"{""Q0"":""ruth and kate are marrying each other""}","<img src=""stim_listB/marry8.gif""style=""height:400px;""></stim_listB>",are marrying each other,
null,"<div style=""font-size:60px;"">+</div>",,html-keyboard-response,230,1507115,0.0-17.0-0.1,39035,List2B,black,man,,,,null,,,,
null,"<img src=""stim_listB/play7.gif""style=""height:400px;""></stim_listB>",,html-keyboard-response,231,1509126,0.0-17.0-1.1,39035,List2B,black,man,,,,null,,,,
null,is playing with,,html-keyboard-response,232,1511129,0.0-17.0-2.1,39035,List2B,black,man,,,,null,,,,
13140,,,survey-text,233,1524273,0.0-17.0-3.1,39035,List2B,black,man,,,,,"{""Q0"":""kate is playing with jane""}","<img src=""stim_listB/play7.gif""style=""height:400px;""></stim_listB>",is playing with,
null,"<div style=""font-size:60px;"">+</div>",,html-keyboard-response,234,1524776,0.0-17.0-0.2,39035,List2B,black,man,,,,null,,,,
null,"<img src=""stim_listB/talk8.gif""style=""height:400px;""></stim_listB>",,html-keyboard-response,235,1526784,0.0-17.0-1.2,39035,List2B,black,man,,,,null,,,,
null,are talking to each other,,html-keyboard-response,236,1528788,0.0-17.0-2.2,39035,List2B,black,man,,,,null,,,,
16200,,,survey-text,237,1544993,0.0-17.0-3.2,39035,List2B,black,man,,,,,"{""Q0"":""jane and beth are talking to each other.""}","<img src=""stim_listB/talk8.gif""style=""height:400px;""></stim_listB>",are talking to each other,
null,"<div style=""font-size:60px;"">+</div>",,html-keyboard-response,238,1545497,0.0-17.0-0.3,39035,List2B,black,man,,,,null,,,,
null,"<img src=""stim_listB/dance5.gif""style=""height:400px;""></stim_listB>",,html-keyboard-response,239,1547504,0.0-17.0-1.3,39035,List2B,black,man,,,,null,,,,
null,is dancing with,,html-keyboard-response,240,1549509,0.0-17.0-2.3,39035,List2B,black,man,,,,null,,,,
12972,,,survey-text,241,1562483,0.0-17.0-3.3,39035,List2B,black,man,,,,,"{""Q0"":""luke is dancing with mike.""}","<img src=""stim_listB/dance5.gif""style=""height:400px;""></stim_listB>",is dancing with,
null,"<div style=""font-size:60px;"">+</div>",,html-keyboard-response,242,1562987,0.0-17.0-0.4,39035,List2B,black,man,,,,null,,,,
null,"<img src=""stim_listB/fight5.gif""style=""height:400px;""></stim_listB>",,html-keyboard-response,243,1564995,0.0-17.0-1.4,39035,List2B,black,man,,,,null,,,,
null,is fighting,,html-keyboard-response,244,1567000,0.0-17.0-2.4,39035,List2B,black,man,,,,null,,,,
11627,,,survey-text,245,1578631,0.0-17.0-3.4,39035,List2B,black,man,,,,,"{""Q0"":""mike is fighting dave.""}","<img src=""stim_listB/fight5.gif""style=""height:400px;""></stim_listB>",is fighting,
null,"<div style=""font-size:60px;"">+</div>",,html-keyboard-response,246,1579136,0.0-17.0-0.5,39035,List2B,black,man,,,,null,,,,
null,"<img src=""stim_listB/argue3.gif""style=""height:400px;""></stim_listB>",,html-keyboard-response,247,1581142,0.0-17.0-1.5,39035,List2B,black,man,,,,null,,,,
null,is arguing with,,html-keyboard-response,248,1583145,0.0-17.0-2.5,39035,List2B,black,man,,,,null,,,,
12708,,,survey-text,249,1595855,0.0-17.0-3.5,39035,List2B,black,man,,,,,"{""Q0"":""mike is arguing with beth.""}","<img src=""stim_listB/argue3.gif""style=""height:400px;""></stim_listB>",is arguing with,
null,"<div style=""font-size:60px;"">+</div>",,html-keyboard-response,250,1596360,0.0-17.0-0.6,39035,List2B,black,man,,,,null,,,,
null,"<img src=""stim_listB/touch1.gif""style=""height:400px;""></stim_listB>",,html-keyboard-response,251,1598367,0.0-17.0-1.6,39035,List2B,black,man,,,,null,,,,
null,is touching,,html-keyboard-response,252,1600370,0.0-17.0-2.6,39035,List2B,black,man,,,,null,,,,
16970,,,survey-text,253,1617345,0.0-17.0-3.6,39035,List2B,black,man,,,,,"{""Q0"":""dave is touching jane""}","<img src=""stim_listB/touch1.gif""style=""height:400px;""></stim_listB>",is touching,
null,"<div style=""font-size:60px;"">+</div>",,html-keyboard-response,254,1617849,0.0-17.0-0.7,39035,List2B,black,man,,,,null,,,,
null,"<img src=""stim_listB/touch7.gif""style=""height:400px;""></stim_listB>",,html-keyboard-response,255,1619857,0.0-17.0-1.7,39035,List2B,black,man,,,,null,,,,
null,is touching,,html-keyboard-response,256,1621860,0.0-17.0-2.7,39035,List2B,black,man,,,,null,,,,
11097,,,survey-text,257,1632960,0.0-17.0-3.7,39035,List2B,black,man,,,,,"{""Q0"":""jane is touching kate""}","<img src=""stim_listB/touch7.gif""style=""height:400px;""></stim_listB>",is touching,
null,"<div style=""font-size:60px;"">+</div>",,html-keyboard-response,258,1633464,0.0-17.0-0.8,39035,List2B,black,man,,,,null,,,,
null,"<img src=""stim_listB/shout3.gif""style=""height:400px;""></stim_listB>",,html-keyboard-response,259,1635505,0.0-17.0-1.8,39035,List2B,black,man,,,,null,,,,
null,is shouting at,,html-keyboard-response,260,1637507,0.0-17.0-2.8,39035,List2B,black,man,,,,null,,,,
11528,,,survey-text,261,1649040,0.0-17.0-3.8,39035,List2B,black,man,,,,,"{""Q0"":""fred is shouting at beth""}","<img src=""stim_listB/shout3.gif""style=""height:400px;""></stim_listB>",is shouting at,
null,"<div style=""font-size:60px;"">+</div>",,html-keyboard-response,262,1649544,0.0-17.0-0.9,39035,List2B,black,man,,,,null,,,,
null,"<img src=""stim_listB/marry6.gif""style=""height:400px;""></stim_listB>",,html-keyboard-response,263,1651550,0.0-17.0-1.9,39035,List2B,black,man,,,,null,,,,
null,are marrying each other,,html-keyboard-response,264,1653556,0.0-17.0-2.9,39035,List2B,black,man,,,,null,,,,
16823,,,survey-text,265,1670381,0.0-17.0-3.9,39035,List2B,black,man,,,,,"{""Q0"":""mike and luke are marrying each other.""}","<img src=""stim_listB/marry6.gif""style=""height:400px;""></stim_listB>",are marrying each other,
null,"<div style=""font-size:60px;"">+</div>",,html-keyboard-response,266,1670885,0.0-17.0-0.10,39035,List2B,black,man,,,,null,,,,
null,"<img src=""stim_listB/argue5.gif""style=""height:400px;""></stim_listB>",,html-keyboard-response,267,1672903,0.0-17.0-1.10,39035,List2B,black,man,,,,null,,,,
null,is arguing with,,html-keyboard-response,268,1674907,0.0-17.0-2.10,39035,List2B,black,man,,,,null,,,,
14613,,,survey-text,269,1689525,0.0-17.0-3.10,39035,List2B,black,man,,,,,"{""Q0"":""dave is arguing with fred.""}","<img src=""stim_listB/argue5.gif""style=""height:400px;""></stim_listB>",is arguing with,
null,"<div style=""font-size:60px;"">+</div>",,html-keyboard-response,270,1690030,0.0-17.0-0.11,39035,List2B,black,man,,,,null,,,,
null,"<img src=""stim_listB/marry4.gif""style=""height:400px;""></stim_listB>",,html-keyboard-response,271,1692037,0.0-17.0-1.11,39035,List2B,black,man,,,,null,,,,
null,are marrying each other,,html-keyboard-response,272,1694042,0.0-17.0-2.11,39035,List2B,black,man,,,,null,,,,
17371,,,survey-text,273,1711418,0.0-17.0-3.11,39035,List2B,black,man,,,,,"{""Q0"":""kate and fred are marrying each other.""}","<img src=""stim_listB/marry4.gif""style=""height:400px;""></stim_listB>",are marrying each other,
null,"<div style=""font-size:60px;"">+</div>",,html-keyboard-response,274,1711922,0.0-17.0-0.12,39035,List2B,black,man,,,,null,,,,
null,"<img src=""stim_listB/shout1.gif""style=""height:400px;""></stim_listB>",,html-keyboard-response,275,1713928,0.0-17.0-1.12,39035,List2B,black,man,,,,null,,,,
null,is shouting at,,html-keyboard-response,276,1715932,0.0-17.0-2.12,39035,List2B,black,man,,,,null,,,,
21531,,,survey-text,277,1737466,0.0-17.0-3.12,39035,List2B,black,man,,,,,"{""Q0"":""luke is shouting at ruth""}","<img src=""stim_listB/shout1.gif""style=""height:400px;""></stim_listB>",is shouting at,
null,"<div style=""font-size:60px;"">+</div>",,html-keyboard-response,278,1737970,0.0-17.0-0.13,39035,List2B,black,man,,,,null,,,,
null,"<img src=""stim_listB/flirt4.gif""style=""height:400px;""></stim_listB>",,html-keyboard-response,279,1739984,0.0-17.0-1.13,39035,List2B,black,man,,,,null,,,,
null,are flirting with each other,,html-keyboard-response,280,1741990,0.0-17.0-2.13,39035,List2B,black,man,,,,null,,,,
20029,,,survey-text,281,1762022,0.0-17.0-3.13,39035,List2B,black,man,,,,,"{""Q0"":""mike and beth are flirting with each other.""}","<img src=""stim_listB/flirt4.gif""style=""height:400px;""></stim_listB>",are flirting with each other,
null,"<div style=""font-size:60px;"">+</div>",,html-keyboard-response,282,1762526,0.0-17.0-0.14,39035,List2B,black,man,,,,null,,,,
null,"<img src=""stim_listB/touch8.gif""style=""height:400px;""></stim_listB>",,html-keyboard-response,283,1764540,0.0-17.0-1.14,39035,List2B,black,man,,,,null,,,,
null,are touching each other,,html-keyboard-response,284,1766544,0.0-17.0-2.14,39035,List2B,black,man,,,,null,,,,
20340,,,survey-text,285,1786888,0.0-17.0-3.14,39035,List2B,black,man,,,,,"{""Q0"":""ruth and beth are touching each other.""}","<img src=""stim_listB/touch8.gif""style=""height:400px;""></stim_listB>",are touching each other,
null,"<div style=""font-size:60px;"">+</div>",,html-keyboard-response,286,1787393,0.0-17.0-0.15,39035,List2B,black,man,,,,null,,,,
null,"<img src=""stim_listB/marry5.gif""style=""height:400px;""></stim_listB>",,html-keyboard-response,287,1789399,0.0-17.0-1.15,39035,List2B,black,man,,,,null,,,,
null,is marrying,,html-keyboard-response,288,1791408,0.0-17.0-2.15,39035,List2B,black,man,,,,null,,,,
11545,,,survey-text,289,1802956,0.0-17.0-3.15,39035,List2B,black,man,,,,,"{""Q0"":""dave is marrying fred.""}","<img src=""stim_listB/marry5.gif""style=""height:400px;""></stim_listB>",is marrying,
null,"<div style=""font-size:60px;"">+</div>",,html-keyboard-response,290,1803461,0.0-17.0-0.16,39035,List2B,black,man,,,,null,,,,
null,"<img src=""stim_listB/fight6.gif""style=""height:400px;""></stim_listB>",,html-keyboard-response,291,1805472,0.0-17.0-1.16,39035,List2B,black,man,,,,null,,,,
null,are fighting each other,,html-keyboard-response,292,1807476,0.0-17.0-2.16,39035,List2B,black,man,,,,null,,,,
20187,,,survey-text,293,1827666,0.0-17.0-3.16,39035,List2B,black,man,,,,,"{""Q0"":""luke and fred are fighting each other.""}","<img src=""stim_listB/fight6.gif""style=""height:400px;""></stim_listB>",are fighting each other,
null,"<div style=""font-size:60px;"">+</div>",,html-keyboard-response,294,1828171,0.0-17.0-0.17,39035,List2B,black,man,,,,null,,,,
null,"<img src=""stim_listB/talk2.gif""style=""height:400px;""></stim_listB>",,html-keyboard-response,295,1830177,0.0-17.0-1.17,39035,List2B,black,man,,,,null,,,,
null,are talking to each other,,html-keyboard-response,296,1832186,0.0-17.0-2.17,39035,List2B,black,man,,,,null,,,,
17867,,,survey-text,297,1850056,0.0-17.0-3.17,39035,List2B,black,man,,,,,"{""Q0"":""ruth and dave are talking to each other.""}","<img src=""stim_listB/talk2.gif""style=""height:400px;""></stim_listB>",are talking to each other,
null,"<div style=""font-size:60px;"">+</div>",,html-keyboard-response,298,1850561,0.0-17.0-0.18,39035,List2B,black,man,,,,null,,,,
null,"<img src=""stim_listB/kiss6.gif""style=""height:400px;""></stim_listB>",,html-keyboard-response,299,1852569,0.0-17.0-1.18,39035,List2B,black,man,,,,null,,,,
null,are kissing each other,,html-keyboard-response,300,1854571,0.0-17.0-2.18,39035,List2B,black,man,,,,null,,,,
13777,,,survey-text,301,1868350,0.0-17.0-3.18,39035,List2B,black,man,,,,,"{""Q0"":""mike and dave are kissing each other.""}","<img src=""stim_listB/kiss6.gif""style=""height:400px;""></stim_listB>",are kissing each other,
null,"<div style=""font-size:60px;"">+</div>",,html-keyboard-response,302,1868853,0.0-17.0-0.19,39035,List2B,black,man,,,,null,,,,
null,"<img src=""stim_listB/talk6.gif""style=""height:400px;""></stim_listB>",,html-keyboard-response,303,1870859,0.0-17.0-1.19,39035,List2B,black,man,,,,null,,,,
null,are talking to each other,,html-keyboard-response,304,1872862,0.0-17.0-2.19,39035,List2B,black,man,,,,null,,,,
19746,,,survey-text,305,1892610,0.0-17.0-3.19,39035,List2B,black,man,,,,,"{""Q0"":""fred and dave are talking to each other.""}","<img src=""stim_listB/talk6.gif""style=""height:400px;""></stim_listB>",are talking to each other,
17991,"<img src='img/portrait_matrix_list2.jpg' style='width:900px;height:500px;''></img><p>If you have memorised all the portraits and names and are ready to start, press Continue.</p><p><strong>Please note: Your memory of these faces will be tested 4 times during this experiment.</strong></p>",0,html-button-response,306,1910604,0.0-18.0-0.0,39035,List2B,black,man,,,,,,,,
2021,"<img src=""portrait/WM1.jpg""style=""height:400px;""></img>",6,html-button-response,307,1913633,0.0-18.0-1.0,39035,List2B,black,man,,TRUE,6,,,,,
null,CORRECT,,html-keyboard-response,308,1915141,0.0-18.0-2.0-0.0,39035,List2B,black,man,,,,null,,,,
1538,"<img src=""portrait/WM2.jpg""style=""height:400px;""></img>",7,html-button-response,309,1916684,0.0-18.0-4.0,39035,List2B,black,man,,TRUE,7,,,,,
null,CORRECT,,html-keyboard-response,310,1918191,0.0-18.0-5.0-0.0,39035,List2B,black,man,,,,null,,,,
2824,"<img src=""portrait/BM1.jpg""style=""height:400px;""></img>",4,html-button-response,311,1921022,0.0-18.0-7.0,39035,List2B,black,man,,TRUE,4,,,,,
null,CORRECT,,html-keyboard-response,312,1922530,0.0-18.0-8.0-0.0,39035,List2B,black,man,,,,null,,,,
3611,"<img src=""portrait/WW2.jpg""style=""height:400px;""></img>",3,html-button-response,313,1926148,0.0-18.0-10.0,39035,List2B,black,man,,TRUE,3,,,,,
null,CORRECT,,html-keyboard-response,314,1927656,0.0-18.0-11.0-0.0,39035,List2B,black,man,,,,null,,,,
1914,"<img src=""portrait/WW1.jpg""style=""height:400px;""></img>",1,html-button-response,315,1929575,0.0-18.0-13.0,39035,List2B,black,man,,TRUE,1,,,,,
null,CORRECT,,html-keyboard-response,316,1931078,0.0-18.0-14.0-0.0,39035,List2B,black,man,,,,null,,,,
1706,"<img src=""portrait/BW1.jpg""style=""height:400px;""></img>",0,html-button-response,317,1932789,0.0-18.0-16.0,39035,List2B,black,man,,TRUE,0,,,,,
null,CORRECT,,html-keyboard-response,318,1934297,0.0-18.0-17.0-0.0,39035,List2B,black,man,,,,null,,,,
2630,"<img src=""portrait/BW2.jpg""style=""height:400px;""></img>",2,html-button-response,319,1936939,0.0-18.0-19.0,39035,List2B,black,man,,TRUE,2,,,,,
null,CORRECT,,html-keyboard-response,320,1938446,0.0-18.0-20.0-0.0,39035,List2B,black,man,,,,null,,,,
2287,"<img src=""portrait/BM2.jpg""style=""height:400px;""></img>",5,html-button-response,321,1940740,0.0-18.0-22.0,39035,List2B,black,man,,TRUE,5,,,,,
null,CORRECT,,html-keyboard-response,322,1942247,0.0-18.0-23.0-0.0,39035,List2B,black,man,,,,null,,,,
6055,<p>You got 8 out of 8 right first time. Press Continue.</p>,0,html-button-response,323,1948308,0.0-18.0-25.0,39035,List2B,black,man,,,,,,,,
null,"<div style=""font-size:60px;"">+</div>",,html-keyboard-response,324,1949815,0.0-19.0-0.0,39035,List2B,black,man,,,,null,,,,
null,"<img src=""stim_listB/flirt5.gif""style=""height:400px;""></stim_listB>",,html-keyboard-response,325,1951831,0.0-19.0-1.0,39035,List2B,black,man,,,,null,,,,
null,is flirting with,,html-keyboard-response,326,1953833,0.0-19.0-2.0,39035,List2B,black,man,,,,null,,,,
14865,,,survey-text,327,1968702,0.0-19.0-3.0,39035,List2B,black,man,,,,,"{""Q0"":""mike is flirting with luke.""}","<img src=""stim_listB/flirt5.gif""style=""height:400px;""></stim_listB>",is flirting with,
null,"<div style=""font-size:60px;"">+</div>",,html-keyboard-response,328,1969206,0.0-19.0-0.1,39035,List2B,black,man,,,,null,,,,
null,"<img src=""stim_listB/argue6.gif""style=""height:400px;""></stim_listB>",,html-keyboard-response,329,1971216,0.0-19.0-1.1,39035,List2B,black,man,,,,null,,,,
null,are arguing with each other,,html-keyboard-response,330,1973224,0.0-19.0-2.1,39035,List2B,black,man,,,,null,,,,
17655,,,survey-text,331,1990882,0.0-19.0-3.1,39035,List2B,black,man,,,,,"{""Q0"":""luke and mike are arguing with each other.""}","<img src=""stim_listB/argue6.gif""style=""height:400px;""></stim_listB>",are arguing with each other,
null,"<div style=""font-size:60px;"">+</div>",,html-keyboard-response,332,1991385,0.0-19.0-0.2,39035,List2B,black,man,,,,null,,,,
null,"<img src=""stim_listB/play4.gif""style=""height:400px;""></stim_listB>",,html-keyboard-response,333,1993391,0.0-19.0-1.2,39035,List2B,black,man,,,,null,,,,
null,are playing with each other,,html-keyboard-response,334,1995395,0.0-19.0-2.2,39035,List2B,black,man,,,,null,,,,
17794,,,survey-text,335,2013192,0.0-19.0-3.2,39035,List2B,black,man,,,,,"{""Q0"":""fred and beth are playing with each other.""}","<img src=""stim_listB/play4.gif""style=""height:400px;""></stim_listB>",are playing with each other,
null,"<div style=""font-size:60px;"">+</div>",,html-keyboard-response,336,2013695,0.0-19.0-0.3,39035,List2B,black,man,,,,null,,,,
null,"<img src=""stim_listB/kiss3.gif""style=""height:400px;""></stim_listB>",,html-keyboard-response,337,2015703,0.0-19.0-1.3,39035,List2B,black,man,,,,null,,,,
null,is kissing,,html-keyboard-response,338,2017714,0.0-19.0-2.3,39035,List2B,black,man,,,,null,,,,
11184,,,survey-text,339,2028900,0.0-19.0-3.3,39035,List2B,black,man,,,,,"{""Q0"":""fred is kissing beth""}","<img src=""stim_listB/kiss3.gif""style=""height:400px;""></stim_listB>",is kissing,
null,"<div style=""font-size:60px;"">+</div>",,html-keyboard-response,340,2029404,0.0-19.0-0.4,39035,List2B,black,man,,,,null,,,,
null,"<img src=""stim_listB/talk4.gif""style=""height:400px;""></stim_listB>",,html-keyboard-response,341,2031418,0.0-19.0-1.4,39035,List2B,black,man,,,,null,,,,
null,are talking to each other,,html-keyboard-response,342,2033421,0.0-19.0-2.4,39035,List2B,black,man,,,,null,,,,
16956,,,survey-text,343,2050381,0.0-19.0-3.4,39035,List2B,black,man,,,,,"{""Q0"":""mike and beth are talking to each other.""}","<img src=""stim_listB/talk4.gif""style=""height:400px;""></stim_listB>",are talking to each other,
null,"<div style=""font-size:60px;"">+</div>",,html-keyboard-response,344,2050885,0.0-19.0-0.5,39035,List2B,black,man,,,,null,,,,
null,"<img src=""stim_listB/play5.gif""style=""height:400px;""></stim_listB>",,html-keyboard-response,345,2052889,0.0-19.0-1.5,39035,List2B,black,man,,,,null,,,,
null,is playing with,,html-keyboard-response,346,2054891,0.0-19.0-2.5,39035,List2B,black,man,,,,null,,,,
17598,,,survey-text,347,2072493,0.0-19.0-3.5,39035,List2B,black,man,,,,,"{""Q0"":""dave is playing with mike.""}","<img src=""stim_listB/play5.gif""style=""height:400px;""></stim_listB>",is playing with,
null,"<div style=""font-size:60px;"">+</div>",,html-keyboard-response,348,2072997,0.0-19.0-0.6,39035,List2B,black,man,,,,null,,,,
null,"<img src=""stim_listB/fight8.gif""style=""height:400px;""></stim_listB>",,html-keyboard-response,349,2075020,0.0-19.0-1.6,39035,List2B,black,man,,,,null,,,,
null,are fighting each other,,html-keyboard-response,350,2077024,0.0-19.0-2.6,39035,List2B,black,man,,,,null,,,,
18635,,,survey-text,351,2095663,0.0-19.0-3.6,39035,List2B,black,man,,,,,"{""Q0"":""ruth and beth are fighting each other.""}","<img src=""stim_listB/fight8.gif""style=""height:400px;""></stim_listB>",are fighting each other,
null,"<div style=""font-size:60px;"">+</div>",,html-keyboard-response,352,2096165,0.0-19.0-0.7,39035,List2B,black,man,,,,null,,,,
null,"<img src=""stim_listB/fight3.gif""style=""height:400px;""></stim_listB>",,html-keyboard-response,353,2098170,0.0-19.0-1.7,39035,List2B,black,man,,,,null,,,,
null,is fighting,,html-keyboard-response,354,2100174,0.0-19.0-2.7,39035,List2B,black,man,,,,null,,,,
10830,,,survey-text,355,2111008,0.0-19.0-3.7,39035,List2B,black,man,,,,,"{""Q0"":""mike is fighting kate.""}","<img src=""stim_listB/fight3.gif""style=""height:400px;""></stim_listB>",is fighting,
null,"<div style=""font-size:60px;"">+</div>",,html-keyboard-response,356,2111514,0.0-19.0-0.8,39035,List2B,black,man,,,,null,,,,
null,"<img src=""stim_listB/fight7.gif""style=""height:400px;""></stim_listB>",,html-keyboard-response,357,2113518,0.0-19.0-1.8,39035,List2B,black,man,,,,null,,,,
null,is fighting,,html-keyboard-response,358,2115523,0.0-19.0-2.8,39035,List2B,black,man,,,,null,,,,
11139,,,survey-text,359,2126667,0.0-19.0-3.8,39035,List2B,black,man,,,,,"{""Q0"":""jane is fighting kate.""}","<img src=""stim_listB/fight7.gif""style=""height:400px;""></stim_listB>",is fighting,
null,"<div style=""font-size:60px;"">+</div>",,html-keyboard-response,360,2127171,0.0-19.0-0.9,39035,List2B,black,man,,,,null,,,,
null,"<img src=""stim_listB/flirt1.gif""style=""height:400px;""></stim_listB>",,html-keyboard-response,361,2129178,0.0-19.0-1.9,39035,List2B,black,man,,,,null,,,,
null,is flirting with,,html-keyboard-response,362,2131191,0.0-19.0-2.9,39035,List2B,black,man,,,,null,,,,
13306,,,survey-text,363,2144499,0.0-19.0-3.9,39035,List2B,black,man,,,,,"{""Q0"":""luke is flirting with jane.""}","<img src=""stim_listB/flirt1.gif""style=""height:400px;""></stim_listB>",is flirting with,
null,"<div style=""font-size:60px;"">+</div>",,html-keyboard-response,364,2145006,0.0-19.0-0.10,39035,List2B,black,man,,,,null,,,,
null,"<img src=""stim_listB/flirt8.gif""style=""height:400px;""></stim_listB>",,html-keyboard-response,365,2147015,0.0-19.0-1.10,39035,List2B,black,man,,,,null,,,,
null,are flirting with each other,,html-keyboard-response,366,2149021,0.0-19.0-2.10,39035,List2B,black,man,,,,null,,,,
16693,,,survey-text,367,2165717,0.0-19.0-3.10,39035,List2B,black,man,,,,,"{""Q0"":""jane and beth are flirting with each other.""}","<img src=""stim_listB/flirt8.gif""style=""height:400px;""></stim_listB>",are flirting with each other,
null,"<div style=""font-size:60px;"">+</div>",,html-keyboard-response,368,2166221,0.0-19.0-0.11,39035,List2B,black,man,,,,null,,,,
null,"<img src=""stim_listB/argue4.gif""style=""height:400px;""></stim_listB>",,html-keyboard-response,369,2168228,0.0-19.0-1.11,39035,List2B,black,man,,,,null,,,,
null,are arguing with each other,,html-keyboard-response,370,2170231,0.0-19.0-2.11,39035,List2B,black,man,,,,null,,,,
17188,,,survey-text,371,2187422,0.0-19.0-3.11,39035,List2B,black,man,,,,,"{""Q0"":""fred and kate are arguing with each other.""}","<img src=""stim_listB/argue4.gif""style=""height:400px;""></stim_listB>",are arguing with each other,
null,"<div style=""font-size:60px;"">+</div>",,html-keyboard-response,372,2187926,0.0-19.0-0.12,39035,List2B,black,man,,,,null,,,,
null,"<img src=""stim_listB/dance6.gif""style=""height:400px;""></stim_listB>",,html-keyboard-response,373,2189933,0.0-19.0-1.12,39035,List2B,black,man,,,,null,,,,
null,are dancing with each other,,html-keyboard-response,374,2191936,0.0-19.0-2.12,39035,List2B,black,man,,,,null,,,,
14514,,,survey-text,375,2206454,0.0-19.0-3.12,39035,List2B,black,man,,,,,"{""Q0"":""fred and dave are dancing.""}","<img src=""stim_listB/dance6.gif""style=""height:400px;""></stim_listB>",are dancing with each other,
null,"<div style=""font-size:60px;"">+</div>",,html-keyboard-response,376,2206957,0.0-19.0-0.13,39035,List2B,black,man,,,,null,,,,
null,"<img src=""stim_listB/kiss4.gif""style=""height:400px;""></stim_listB>",,html-keyboard-response,377,2208965,0.0-19.0-1.13,39035,List2B,black,man,,,,null,,,,
null,are kissing each other,,html-keyboard-response,378,2210979,0.0-19.0-2.13,39035,List2B,black,man,,,,null,,,,
14512,,,survey-text,379,2225496,0.0-19.0-3.13,39035,List2B,black,man,,,,,"{""Q0"":""mike and kate are kissing each other.""}","<img src=""stim_listB/kiss4.gif""style=""height:400px;""></stim_listB>",are kissing each other,
null,"<div style=""font-size:60px;"">+</div>",,html-keyboard-response,380,2226001,0.0-19.0-0.14,39035,List2B,black,man,,,,null,,,,
null,"<img src=""stim_listB/play2.gif""style=""height:400px;""></stim_listB>",,html-keyboard-response,381,2228010,0.0-19.0-1.14,39035,List2B,black,man,,,,null,,,,
null,are playing with each other,,html-keyboard-response,382,2230016,0.0-19.0-2.14,39035,List2B,black,man,,,,null,,,,
18457,,,survey-text,383,2248476,0.0-19.0-3.14,39035,List2B,black,man,,,,,"{""Q0"":""luke and ruth are playing with each other.""}","<img src=""stim_listB/play2.gif""style=""height:400px;""></stim_listB>",are playing with each other,
null,"<div style=""font-size:60px;"">+</div>",,html-keyboard-response,384,2248980,0.0-19.0-0.15,39035,List2B,black,man,,,,null,,,,
null,"<img src=""stim_listB/talk5.gif""style=""height:400px;""></stim_listB>",,html-keyboard-response,385,2250986,0.0-19.0-1.15,39035,List2B,black,man,,,,null,,,,
null,is talking to,,html-keyboard-response,386,2252990,0.0-19.0-2.15,39035,List2B,black,man,,,,null,,,,
11957,,,survey-text,387,2264951,0.0-19.0-3.15,39035,List2B,black,man,,,,,"{""Q0"":""mike is talking to luke.""}","<img src=""stim_listB/talk5.gif""style=""height:400px;""></stim_listB>",is talking to,
null,"<div style=""font-size:60px;"">+</div>",,html-keyboard-response,388,2265455,0.0-19.0-0.16,39035,List2B,black,man,,,,null,,,,
null,"<img src=""stim_listB/shout4.gif""style=""height:400px;""></stim_listB>",,html-keyboard-response,389,2267466,0.0-19.0-1.16,39035,List2B,black,man,,,,null,,,,
null,are shouting at each other,,html-keyboard-response,390,2269471,0.0-19.0-2.16,39035,List2B,black,man,,,,null,,,,
19104,,,survey-text,391,2288578,0.0-19.0-3.16,39035,List2B,black,man,,,,,"{""Q0"":""mike and kate are shouting at each other.""}","<img src=""stim_listB/shout4.gif""style=""height:400px;""></stim_listB>",are shouting at each other,
null,"<div style=""font-size:60px;"">+</div>",,html-keyboard-response,392,2289082,0.0-19.0-0.17,39035,List2B,black,man,,,,null,,,,
null,"<img src=""stim_listB/dance4.gif""style=""height:400px;""></stim_listB>",,html-keyboard-response,393,2291095,0.0-19.0-1.17,39035,List2B,black,man,,,,null,,,,
null,are dancing with each other,,html-keyboard-response,394,2293098,0.0-19.0-2.17,39035,List2B,black,man,,,,null,,,,
21882,,,survey-text,395,2314985,0.0-19.0-3.17,39035,List2B,black,man,,,,,"{""Q0"":""mike and beth are dancing with each other.""}","<img src=""stim_listB/dance4.gif""style=""height:400px;""></stim_listB>",are dancing with each other,
null,"<div style=""font-size:60px;"">+</div>",,html-keyboard-response,396,2315489,0.0-19.0-0.18,39035,List2B,black,man,,,,null,,,,
null,"<img src=""stim_listB/flirt7.gif""style=""height:400px;""></stim_listB>",,html-keyboard-response,397,2317504,0.0-19.0-1.18,39035,List2B,black,man,,,,null,,,,
null,is flirting with,,html-keyboard-response,398,2319511,0.0-19.0-2.18,39035,List2B,black,man,,,,null,,,,
13131,,,survey-text,399,2332649,0.0-19.0-3.18,39035,List2B,black,man,,,,,"{""Q0"":""kate is flirting with ruth.""}","<img src=""stim_listB/flirt7.gif""style=""height:400px;""></stim_listB>",is flirting with,
null,"<div style=""font-size:60px;"">+</div>",,html-keyboard-response,400,2333153,0.0-19.0-0.19,39035,List2B,black,man,,,,null,,,,
null,"<img src=""stim_listB/dance1.gif""style=""height:400px;""></stim_listB>",,html-keyboard-response,401,2335160,0.0-19.0-1.19,39035,List2B,black,man,,,,null,,,,
null,is dancing with,,html-keyboard-response,402,2337163,0.0-19.0-2.19,39035,List2B,black,man,,,,null,,,,
11560,,,survey-text,403,2348727,0.0-19.0-3.19,39035,List2B,black,man,,,,,"{""Q0"":""luke is dancing with jane.""}","<img src=""stim_listB/dance1.gif""style=""height:400px;""></stim_listB>",is dancing with,
3665,<p>Thank you for completing that task.</p><p>The final part of this session is a short questionnaire.</p><p>Press Continue.</p>,0,html-button-response,404,2352395,0.0-20.0,39035,List2B,black,man,,,,,,,,
39540,,,survey-text,405,2392941,0.0-21.0,39035,List2B,black,man,,,,,"{""Q0"":""38"",""Q1"":""english"",""Q2"":""english"",""Q3"":""usa"",""Q4"":""american"",""Q5"":""male""}",,,demographics
10289,,,survey-likert,406,2403241,0.0-22.0,39035,List2B,black,man,,,,,"{""Q0"":4}",,,likert_ESS
9968,,,survey-likert,407,2413214,0.0-23.0,39035,List2B,black,man,,,,,"{""Q0"":5}",,,likert_NSSAL_Q1
5316,,,survey-likert,408,2418534,0.0-24.0,39035,List2B,black,man,,,,,"{""Q0"":5}",,,likert_NSSAL_Q2
4185,,,survey-likert,409,2422724,0.0-25.0,39035,List2B,black,man,,,,,"{""Q0"":4}",,,likert_CGRS_Q1
4200,,,survey-likert,410,2426928,0.0-26.0,39035,List2B,black,man,,,,,"{""Q0"":4}",,,likert_CGRS_Q2
3957,,,survey-likert,411,2430890,0.0-27.0,39035,List2B,black,man,,,,,"{""Q0"":4}",,,likert_CGRS_Q3
16641,,,survey-text,412,2447535,0.0-28.0,39035,List2B,black,man,,,,,"{""Q0"":""ccc""}",,,worker_id
4945,,,external-html,413,2452755,0.0-29.0,39035,List2B,black,man,debrief.html,,,,,,,
