rt,stimulus,button_pressed,trial_type,trial_index,time_elapsed,internal_node_id,subject,list,ppt_race,ppt_gender,url,first_guess,correct,key_press,responses,image_type,phrase_type,test_part
4298,Welcome to the experiment. Press Continue to begin.,0,html-button-response,0,4314,0.0-0.0,39229,List2B,black,woman,,,,,,,,
224300,,,external-html,1,229892,0.0-1.0,39229,List2B,black,woman,consent.html,,,,,,,
47391,"<p>On the next page, you will see portraits of 8 people and their names.</p><p>Your first task is to take a few minutes to memorise the names of these people.</p><p>You will have to recall their names during the rest of the experiment, so it is</p><p>essential that you try to memorise these people and their names as best as you can.</p><br><p><strong>You will then be tested on your memory of these names and portraits.</strong></p><br><p>The experiment will start after you have completed this memory test.</p><br><p>Ready?</p>",0,html-button-response,2,277287,0.0-2.0,39229,List2B,black,woman,,,,,,,,
80828,"<img src='img/portrait_matrix_list2.jpg' style='width:900px;height:500px;''></img><p>If you have memorised all the portraits and names and are ready to start, press Continue.</p><p><strong>Please note: Your memory of these faces will be tested 4 times during this experiment.</strong></p>",0,html-button-response,3,359118,0.0-3.0-0.0,39229,List2B,black,woman,,,,,,,,
22305,"<img src=""portrait/BM1.jpg""style=""height:400px;""></img>",4,html-button-response,4,382427,0.0-3.0-1.0,39229,List2B,black,woman,,TRUE,4,,,,,
null,CORRECT,,html-keyboard-response,5,383933,0.0-3.0-2.0-0.0,39229,List2B,black,woman,,,,null,,,,
26379,"<img src=""portrait/WW1.jpg""style=""height:400px;""></img>",1,html-button-response,6,410314,0.0-3.0-4.0,39229,List2B,black,woman,,TRUE,1,,,,,
null,CORRECT,,html-keyboard-response,7,411819,0.0-3.0-5.0-0.0,39229,List2B,black,woman,,,,null,,,,
16701,"<img src=""portrait/BW1.jpg""style=""height:400px;""></img>",2,html-button-response,8,428522,0.0-3.0-7.0,39229,List2B,black,woman,,TRUE,0,,,,,
16744,"<img src=""portrait/BW1.jpg""style=""height:400px;""></img>",0,html-button-response,9,446270,0.0-3.0-9.0-0.0,39229,List2B,black,woman,,FALSE,0,,,,,
null,CORRECT,,html-keyboard-response,10,447773,0.0-3.0-9.0-1.0-0.0,39229,List2B,black,woman,,,,null,,,,
8400,"<img src=""portrait/BW2.jpg""style=""height:400px;""></img>",2,html-button-response,11,456175,0.0-3.0-10.0,39229,List2B,black,woman,,TRUE,2,,,,,
null,CORRECT,,html-keyboard-response,12,457679,0.0-3.0-11.0-0.0,39229,List2B,black,woman,,,,null,,,,
17666,"<img src=""portrait/WM2.jpg""style=""height:400px;""></img>",6,html-button-response,13,475347,0.0-3.0-13.0,39229,List2B,black,woman,,TRUE,7,,,,,
18859,"<img src=""portrait/WM2.jpg""style=""height:400px;""></img>",7,html-button-response,14,495210,0.0-3.0-15.0-0.0,39229,List2B,black,woman,,FALSE,7,,,,,
null,CORRECT,,html-keyboard-response,15,496712,0.0-3.0-15.0-1.0-0.0,39229,List2B,black,woman,,,,null,,,,
18539,"<img src=""portrait/WW2.jpg""style=""height:400px;""></img>",3,html-button-response,16,515253,0.0-3.0-16.0,39229,List2B,black,woman,,TRUE,3,,,,,
null,CORRECT,,html-keyboard-response,17,516756,0.0-3.0-17.0-0.0,39229,List2B,black,woman,,,,null,,,,
24034,"<img src=""portrait/WM1.jpg""style=""height:400px;""></img>",7,html-button-response,18,540792,0.0-3.0-19.0,39229,List2B,black,woman,,TRUE,6,,,,,
13501,"<img src=""portrait/WM1.jpg""style=""height:400px;""></img>",6,html-button-response,19,555297,0.0-3.0-21.0-0.0,39229,List2B,black,woman,,FALSE,6,,,,,
null,CORRECT,,html-keyboard-response,20,556800,0.0-3.0-21.0-1.0-0.0,39229,List2B,black,woman,,,,null,,,,
8159,"<img src=""portrait/BM2.jpg""style=""height:400px;""></img>",5,html-button-response,21,564961,0.0-3.0-22.0,39229,List2B,black,woman,,TRUE,5,,,,,
null,CORRECT,,html-keyboard-response,22,566464,0.0-3.0-23.0-0.0,39229,List2B,black,woman,,,,null,,,,
5512,<p>You got 5 out of 8 right first time. Press Continue.</p>,0,html-button-response,23,571978,0.0-3.0-25.0,39229,List2B,black,woman,,,,,,,,
8396,"As you did not score 100%, the memory game will repeat. Press Continue.",0,html-button-response,24,581377,0.0-3.0-26.0-0.0,39229,List2B,black,woman,,,,,,,,
133131,"<img src='img/portrait_matrix_list2.jpg' style='width:900px;height:500px;''></img><p>If you have memorised all the portraits and names and are ready to start, press Continue.</p><p><strong>Please note: Your memory of these faces will be tested 4 times during this experiment.</strong></p>",0,html-button-response,25,715512,0.0-3.1-0.1,39229,List2B,black,woman,,,,,,,,
7922,"<img src=""portrait/BM1.jpg""style=""height:400px;""></img>",4,html-button-response,26,724437,0.0-3.1-1.1,39229,List2B,black,woman,,TRUE,4,,,,,
null,CORRECT,,html-keyboard-response,27,725939,0.0-3.1-2.1-0.1,39229,List2B,black,woman,,,,null,,,,
5066,"<img src=""portrait/WW1.jpg""style=""height:400px;""></img>",1,html-button-response,28,731007,0.0-3.1-4.1,39229,List2B,black,woman,,TRUE,1,,,,,
null,CORRECT,,html-keyboard-response,29,732510,0.0-3.1-5.1-0.1,39229,List2B,black,woman,,,,null,,,,
21910,"<img src=""portrait/BW1.jpg""style=""height:400px;""></img>",2,html-button-response,30,754422,0.0-3.1-7.1,39229,List2B,black,woman,,TRUE,0,,,,,
17716,"<img src=""portrait/BW1.jpg""style=""height:400px;""></img>",0,html-button-response,31,773141,0.0-3.1-9.1-0.1,39229,List2B,black,woman,,FALSE,0,,,,,
null,CORRECT,,html-keyboard-response,32,774644,0.0-3.1-9.1-1.1-0.1,39229,List2B,black,woman,,,,null,,,,
91583,"<img src=""portrait/BW2.jpg""style=""height:400px;""></img>",2,html-button-response,33,866229,0.0-3.1-10.1,39229,List2B,black,woman,,TRUE,2,,,,,
null,CORRECT,,html-keyboard-response,34,867732,0.0-3.1-11.1-0.1,39229,List2B,black,woman,,,,null,,,,
14080,"<img src=""portrait/WM2.jpg""style=""height:400px;""></img>",7,html-button-response,35,881815,0.0-3.1-13.1,39229,List2B,black,woman,,TRUE,7,,,,,
null,CORRECT,,html-keyboard-response,36,883317,0.0-3.1-14.1-0.1,39229,List2B,black,woman,,,,null,,,,
8379,"<img src=""portrait/WW2.jpg""style=""height:400px;""></img>",3,html-button-response,37,891699,0.0-3.1-16.1,39229,List2B,black,woman,,TRUE,3,,,,,
null,CORRECT,,html-keyboard-response,38,893202,0.0-3.1-17.1-0.1,39229,List2B,black,woman,,,,null,,,,
20736,"<img src=""portrait/WM1.jpg""style=""height:400px;""></img>",6,html-button-response,39,913941,0.0-3.1-19.1,39229,List2B,black,woman,,TRUE,6,,,,,
null,CORRECT,,html-keyboard-response,40,915444,0.0-3.1-20.1-0.1,39229,List2B,black,woman,,,,null,,,,
9757,"<img src=""portrait/BM2.jpg""style=""height:400px;""></img>",5,html-button-response,41,925204,0.0-3.1-22.1,39229,List2B,black,woman,,TRUE,5,,,,,
null,CORRECT,,html-keyboard-response,42,926707,0.0-3.1-23.1-0.1,39229,List2B,black,woman,,,,null,,,,
3440,<p>You got 7 out of 8 right first time. Press Continue.</p>,0,html-button-response,43,930149,0.0-3.1-25.1,39229,List2B,black,woman,,,,,,,,
23055,"As you did not score 100%, the memory game will repeat. Press Continue.",0,html-button-response,44,954207,0.0-3.1-26.1-0.1,39229,List2B,black,woman,,,,,,,,
132346,"<img src='img/portrait_matrix_list2.jpg' style='width:900px;height:500px;''></img><p>If you have memorised all the portraits and names and are ready to start, press Continue.</p><p><strong>Please note: Your memory of these faces will be tested 4 times during this experiment.</strong></p>",0,html-button-response,45,1087556,0.0-3.2-0.2,39229,List2B,black,woman,,,,,,,,
6768,"<img src=""portrait/BM1.jpg""style=""height:400px;""></img>",4,html-button-response,46,1095327,0.0-3.2-1.2,39229,List2B,black,woman,,TRUE,4,,,,,
null,CORRECT,,html-keyboard-response,47,1096831,0.0-3.2-2.2-0.2,39229,List2B,black,woman,,,,null,,,,
5466,"<img src=""portrait/WW1.jpg""style=""height:400px;""></img>",1,html-button-response,48,1102299,0.0-3.2-4.2,39229,List2B,black,woman,,TRUE,1,,,,,
null,CORRECT,,html-keyboard-response,49,1103802,0.0-3.2-5.2-0.2,39229,List2B,black,woman,,,,null,,,,
7624,"<img src=""portrait/BW1.jpg""style=""height:400px;""></img>",0,html-button-response,50,1111428,0.0-3.2-7.2,39229,List2B,black,woman,,TRUE,0,,,,,
null,CORRECT,,html-keyboard-response,51,1112930,0.0-3.2-8.2-0.2,39229,List2B,black,woman,,,,null,,,,
11172,"<img src=""portrait/BW2.jpg""style=""height:400px;""></img>",2,html-button-response,52,1124104,0.0-3.2-10.2,39229,List2B,black,woman,,TRUE,2,,,,,
null,CORRECT,,html-keyboard-response,53,1125607,0.0-3.2-11.2-0.2,39229,List2B,black,woman,,,,null,,,,
5160,"<img src=""portrait/WM2.jpg""style=""height:400px;""></img>",7,html-button-response,54,1130771,0.0-3.2-13.2,39229,List2B,black,woman,,TRUE,7,,,,,
null,CORRECT,,html-keyboard-response,55,1132273,0.0-3.2-14.2-0.2,39229,List2B,black,woman,,,,null,,,,
6947,"<img src=""portrait/WW2.jpg""style=""height:400px;""></img>",3,html-button-response,56,1139222,0.0-3.2-16.2,39229,List2B,black,woman,,TRUE,3,,,,,
null,CORRECT,,html-keyboard-response,57,1140724,0.0-3.2-17.2-0.2,39229,List2B,black,woman,,,,null,,,,
8059,"<img src=""portrait/WM1.jpg""style=""height:400px;""></img>",6,html-button-response,58,1148786,0.0-3.2-19.2,39229,List2B,black,woman,,TRUE,6,,,,,
null,CORRECT,,html-keyboard-response,59,1150289,0.0-3.2-20.2-0.2,39229,List2B,black,woman,,,,null,,,,
3708,"<img src=""portrait/BM2.jpg""style=""height:400px;""></img>",5,html-button-response,60,1153999,0.0-3.2-22.2,39229,List2B,black,woman,,TRUE,5,,,,,
null,CORRECT,,html-keyboard-response,61,1155502,0.0-3.2-23.2-0.2,39229,List2B,black,woman,,,,null,,,,
3030,<p>You got 8 out of 8 right first time. Press Continue.</p>,0,html-button-response,62,1158533,0.0-3.2-25.2,39229,List2B,black,woman,,,,,,,,
60138,"<p>In this experiment, you will view photographs of the people from the memory game interacting.</p><p>By using the <strong>exact</strong> phrase given <i>after</i> the photograph appears and recalling the correct names of the people in the photographs, form a sentence describing the interaction. You do not need to capitalise names.</p><p>Type your answer in the space provided. Please complete every sentence before moving onto the next trial.</p><p>You will only have a few seconds to memorise each given photograph and phrase before you can respond, so try your best to focus.</p><p>An example is given below. Press 'Continue' when you are ready.</p><img src='img/speaking_example.jpg' style='width:800px;height:460px;''></img>",0,html-button-response,63,1219674,0.0-4.0,39229,List2B,black,woman,,,,,,,,
5687,"<p>Before the experiment starts, you will watch two example trials. Press 'Continue'.</p>",0,html-button-response,64,1226364,0.0-5.0,39229,List2B,black,woman,,,,,,,,
null,<img src='img/meet_eg.gif' style='height:400px;''></img>,,html-keyboard-response,65,1229368,0.0-6.0,39229,List2B,black,woman,,,,null,,,,
null,<p>is meeting</p>,,html-keyboard-response,66,1231370,0.0-7.0,39229,List2B,black,woman,,,,null,,,,
5466,<p><b>Answer:</b> jane is meeting ruth</p>,0,html-button-response,67,1236837,0.0-8.0,39229,List2B,black,woman,,,,,,,,
null,<img src='img/look_eg.gif' style='height:400px;''></img>,,html-keyboard-response,68,1239840,0.0-9.0,39229,List2B,black,woman,,,,null,,,,
null,<p>are looking at each other</p>,,html-keyboard-response,69,1241841,0.0-10.0,39229,List2B,black,woman,,,,null,,,,
9317,<p><b>Answer:</b> fred and mike are looking at each other</p>,0,html-button-response,70,1251160,0.0-11.0,39229,List2B,black,woman,,,,,,,,
20080,"<p>Ready to start the experiment?</p><br><p><strong>Remember to describe the picture using a full sentence,</strong></p><p><strong>that combines the names of the people with the <i>exact</i> phrase given.</strong></p><p><strong>To receive full payment you must do this correctly.</strong></p><p><strong> You do not need to capitalise names or use punctuation.</strong></p><br><p>Press 'Continue' to begin.</p>",0,html-button-response,71,1272242,0.0-12.0,39229,List2B,black,woman,,,,,,,,
null,"<div style=""font-size:60px;"">+</div>",,html-keyboard-response,72,1273746,0.0-13.0-0.0,39229,List2B,black,woman,,,,null,,,,
null,"<img src=""stim_listB/marry3.gif""style=""height:400px;""></stim_listB>",,html-keyboard-response,73,1275749,0.0-13.0-1.0,39229,List2B,black,woman,,,,null,,,,
null,is marrying,,html-keyboard-response,74,1277751,0.0-13.0-2.0,39229,List2B,black,woman,,,,null,,,,
19829,,,survey-text,75,1297581,0.0-13.0-3.0,39229,List2B,black,woman,,,,,"{""Q0"":""Mike and beth are talking""}","<img src=""stim_listB/marry3.gif""style=""height:400px;""></stim_listB>",is marrying,
null,"<div style=""font-size:60px;"">+</div>",,html-keyboard-response,76,1298084,0.0-13.0-0.1,39229,List2B,black,woman,,,,null,,,,
null,"<img src=""stim_listB/argue3.gif""style=""height:400px;""></stim_listB>",,html-keyboard-response,77,1300087,0.0-13.0-1.1,39229,List2B,black,woman,,,,null,,,,
null,is arguing with,,html-keyboard-response,78,1302089,0.0-13.0-2.1,39229,List2B,black,woman,,,,null,,,,
25428,,,survey-text,79,1327518,0.0-13.0-3.1,39229,List2B,black,woman,,,,,"{""Q0"":""Mike and Kate are arguing""}","<img src=""stim_listB/argue3.gif""style=""height:400px;""></stim_listB>",is arguing with,
null,"<div style=""font-size:60px;"">+</div>",,html-keyboard-response,80,1328019,0.0-13.0-0.2,39229,List2B,black,woman,,,,null,,,,
null,"<img src=""stim_listB/play5.gif""style=""height:400px;""></stim_listB>",,html-keyboard-response,81,1330022,0.0-13.0-1.2,39229,List2B,black,woman,,,,null,,,,
null,is playing with,,html-keyboard-response,82,1332024,0.0-13.0-2.2,39229,List2B,black,woman,,,,null,,,,
18685,,,survey-text,83,1350711,0.0-13.0-3.2,39229,List2B,black,woman,,,,,"{""Q0"":""Mike is playing with Dave""}","<img src=""stim_listB/play5.gif""style=""height:400px;""></stim_listB>",is playing with,
null,"<div style=""font-size:60px;"">+</div>",,html-keyboard-response,84,1351213,0.0-13.0-0.3,39229,List2B,black,woman,,,,null,,,,
null,"<img src=""stim_listB/marry7.gif""style=""height:400px;""></stim_listB>",,html-keyboard-response,85,1353215,0.0-13.0-1.3,39229,List2B,black,woman,,,,null,,,,
null,is marrying,,html-keyboard-response,86,1355218,0.0-13.0-2.3,39229,List2B,black,woman,,,,null,,,,
62088,,,survey-text,87,1417306,0.0-13.0-3.3,39229,List2B,black,woman,,,,,"{""Q0"":""Jane is marrying Kate""}","<img src=""stim_listB/marry7.gif""style=""height:400px;""></stim_listB>",is marrying,
null,"<div style=""font-size:60px;"">+</div>",,html-keyboard-response,88,1417809,0.0-13.0-0.4,39229,List2B,black,woman,,,,null,,,,
null,"<img src=""stim_listB/play2.gif""style=""height:400px;""></stim_listB>",,html-keyboard-response,89,1419811,0.0-13.0-1.4,39229,List2B,black,woman,,,,null,,,,
null,are playing with each other,,html-keyboard-response,90,1421813,0.0-13.0-2.4,39229,List2B,black,woman,,,,null,,,,
25840,,,survey-text,91,1447654,0.0-13.0-3.4,39229,List2B,black,woman,,,,,"{""Q0"":""Luke and Ruth are playing with each other""}","<img src=""stim_listB/play2.gif""style=""height:400px;""></stim_listB>",are playing with each other,
null,"<div style=""font-size:60px;"">+</div>",,html-keyboard-response,92,1448156,0.0-13.0-0.5,39229,List2B,black,woman,,,,null,,,,
null,"<img src=""stim_listB/dance3.gif""style=""height:400px;""></stim_listB>",,html-keyboard-response,93,1450158,0.0-13.0-1.5,39229,List2B,black,woman,,,,null,,,,
null,is dancing with,,html-keyboard-response,94,1452159,0.0-13.0-2.5,39229,List2B,black,woman,,,,null,,,,
33537,,,survey-text,95,1485698,0.0-13.0-3.5,39229,List2B,black,woman,,,,,"{""Q0"":""fred is dancing with kate""}","<img src=""stim_listB/dance3.gif""style=""height:400px;""></stim_listB>",is dancing with,
null,"<div style=""font-size:60px;"">+</div>",,html-keyboard-response,96,1486199,0.0-13.0-0.6,39229,List2B,black,woman,,,,null,,,,
null,"<img src=""stim_listB/flirt7.gif""style=""height:400px;""></stim_listB>",,html-keyboard-response,97,1488202,0.0-13.0-1.6,39229,List2B,black,woman,,,,null,,,,
null,is flirting with,,html-keyboard-response,98,1490203,0.0-13.0-2.6,39229,List2B,black,woman,,,,null,,,,
13331,,,survey-text,99,1503535,0.0-13.0-3.6,39229,List2B,black,woman,,,,,"{""Q0"":""kate is flirting with ruth""}","<img src=""stim_listB/flirt7.gif""style=""height:400px;""></stim_listB>",is flirting with,
null,"<div style=""font-size:60px;"">+</div>",,html-keyboard-response,100,1504037,0.0-13.0-0.7,39229,List2B,black,woman,,,,null,,,,
null,"<img src=""stim_listB/flirt4.gif""style=""height:400px;""></stim_listB>",,html-keyboard-response,101,1506039,0.0-13.0-1.7,39229,List2B,black,woman,,,,null,,,,
null,are flirting with each other,,html-keyboard-response,102,1508042,0.0-13.0-2.7,39229,List2B,black,woman,,,,null,,,,
35686,,,survey-text,103,1543730,0.0-13.0-3.7,39229,List2B,black,woman,,,,,"{""Q0"":""mike and beth are flirting with each other""}","<img src=""stim_listB/flirt4.gif""style=""height:400px;""></stim_listB>",are flirting with each other,
null,"<div style=""font-size:60px;"">+</div>",,html-keyboard-response,104,1544232,0.0-13.0-0.8,39229,List2B,black,woman,,,,null,,,,
null,"<img src=""stim_listB/talk2.gif""style=""height:400px;""></stim_listB>",,html-keyboard-response,105,1546235,0.0-13.0-1.8,39229,List2B,black,woman,,,,null,,,,
null,are talking to each other,,html-keyboard-response,106,1548236,0.0-13.0-2.8,39229,List2B,black,woman,,,,null,,,,
36179,,,survey-text,107,1584417,0.0-13.0-3.8,39229,List2B,black,woman,,,,,"{""Q0"":""ruth and fred are talking with each other""}","<img src=""stim_listB/talk2.gif""style=""height:400px;""></stim_listB>",are talking to each other,
null,"<div style=""font-size:60px;"">+</div>",,html-keyboard-response,108,1584919,0.0-13.0-0.9,39229,List2B,black,woman,,,,null,,,,
null,"<img src=""stim_listB/talk8.gif""style=""height:400px;""></stim_listB>",,html-keyboard-response,109,1586922,0.0-13.0-1.9,39229,List2B,black,woman,,,,null,,,,
null,are talking to each other,,html-keyboard-response,110,1588923,0.0-13.0-2.9,39229,List2B,black,woman,,,,null,,,,
59453,,,survey-text,111,1648378,0.0-13.0-3.9,39229,List2B,black,woman,,,,,"{""Q0"":""jane and beth are talking to each other""}","<img src=""stim_listB/talk8.gif""style=""height:400px;""></stim_listB>",are talking to each other,
null,"<div style=""font-size:60px;"">+</div>",,html-keyboard-response,112,1648880,0.0-13.0-0.10,39229,List2B,black,woman,,,,null,,,,
null,"<img src=""stim_listB/marry2.gif""style=""height:400px;""></stim_listB>",,html-keyboard-response,113,1650882,0.0-13.0-1.10,39229,List2B,black,woman,,,,null,,,,
null,are marrying each other,,html-keyboard-response,114,1652884,0.0-13.0-2.10,39229,List2B,black,woman,,,,null,,,,
22749,,,survey-text,115,1675635,0.0-13.0-3.10,39229,List2B,black,woman,,,,,"{""Q0"":""luke and jane are marrying each other""}","<img src=""stim_listB/marry2.gif""style=""height:400px;""></stim_listB>",are marrying each other,
null,"<div style=""font-size:60px;"">+</div>",,html-keyboard-response,116,1676137,0.0-13.0-0.11,39229,List2B,black,woman,,,,null,,,,
null,"<img src=""stim_listB/dance8.gif""style=""height:400px;""></stim_listB>",,html-keyboard-response,117,1678140,0.0-13.0-1.11,39229,List2B,black,woman,,,,null,,,,
null,are dancing with each other,,html-keyboard-response,118,1680141,0.0-13.0-2.11,39229,List2B,black,woman,,,,null,,,,
35942,,,survey-text,119,1716085,0.0-13.0-3.11,39229,List2B,black,woman,,,,,"{""Q0"":""jane  and kate are dancing with each other""}","<img src=""stim_listB/dance8.gif""style=""height:400px;""></stim_listB>",are dancing with each other,
null,"<div style=""font-size:60px;"">+</div>",,html-keyboard-response,120,1716587,0.0-13.0-0.12,39229,List2B,black,woman,,,,null,,,,
null,"<img src=""stim_listB/fight4.gif""style=""height:400px;""></stim_listB>",,html-keyboard-response,121,1718590,0.0-13.0-1.12,39229,List2B,black,woman,,,,null,,,,
null,are fighting each other,,html-keyboard-response,122,1720593,0.0-13.0-2.12,39229,List2B,black,woman,,,,null,,,,
31806,,,survey-text,123,1752400,0.0-13.0-3.12,39229,List2B,black,woman,,,,,"{""Q0"":""fred and beth are arguing with each other""}","<img src=""stim_listB/fight4.gif""style=""height:400px;""></stim_listB>",are fighting each other,
null,"<div style=""font-size:60px;"">+</div>",,html-keyboard-response,124,1752902,0.0-13.0-0.13,39229,List2B,black,woman,,,,null,,,,
null,"<img src=""stim_listB/shout4.gif""style=""height:400px;""></stim_listB>",,html-keyboard-response,125,1754905,0.0-13.0-1.13,39229,List2B,black,woman,,,,null,,,,
null,are shouting at each other,,html-keyboard-response,126,1756907,0.0-13.0-2.13,39229,List2B,black,woman,,,,null,,,,
77733,,,survey-text,127,1834641,0.0-13.0-3.13,39229,List2B,black,woman,,,,,"{""Q0"":""mike and kate are shouting at each other""}","<img src=""stim_listB/shout4.gif""style=""height:400px;""></stim_listB>",are shouting at each other,
null,"<div style=""font-size:60px;"">+</div>",,html-keyboard-response,128,1835143,0.0-13.0-0.14,39229,List2B,black,woman,,,,null,,,,
null,"<img src=""stim_listB/flirt6.gif""style=""height:400px;""></stim_listB>",,html-keyboard-response,129,1837145,0.0-13.0-1.14,39229,List2B,black,woman,,,,null,,,,
null,are flirting with each other,,html-keyboard-response,130,1839146,0.0-13.0-2.14,39229,List2B,black,woman,,,,null,,,,
70257,,,survey-text,131,1909405,0.0-13.0-3.14,39229,List2B,black,woman,,,,,"{""Q0"":""fred and dave are flirting with each other""}","<img src=""stim_listB/flirt6.gif""style=""height:400px;""></stim_listB>",are flirting with each other,
null,"<div style=""font-size:60px;"">+</div>",,html-keyboard-response,132,1909907,0.0-13.0-0.15,39229,List2B,black,woman,,,,null,,,,
null,"<img src=""stim_listB/flirt8.gif""style=""height:400px;""></stim_listB>",,html-keyboard-response,133,1911910,0.0-13.0-1.15,39229,List2B,black,woman,,,,null,,,,
null,are flirting with each other,,html-keyboard-response,134,1913911,0.0-13.0-2.15,39229,List2B,black,woman,,,,null,,,,
36305,,,survey-text,135,1950218,0.0-13.0-3.15,39229,List2B,black,woman,,,,,"{""Q0"":""kate and jane are flirting with each other""}","<img src=""stim_listB/flirt8.gif""style=""height:400px;""></stim_listB>",are flirting with each other,
null,"<div style=""font-size:60px;"">+</div>",,html-keyboard-response,136,1950719,0.0-13.0-0.16,39229,List2B,black,woman,,,,null,,,,
null,"<img src=""stim_listB/play3.gif""style=""height:400px;""></stim_listB>",,html-keyboard-response,137,1952721,0.0-13.0-1.16,39229,List2B,black,woman,,,,null,,,,
null,is playing with,,html-keyboard-response,138,1954723,0.0-13.0-2.16,39229,List2B,black,woman,,,,null,,,,
21175,,,survey-text,139,1975899,0.0-13.0-3.16,39229,List2B,black,woman,,,,,"{""Q0"":""mike is playing with kate""}","<img src=""stim_listB/play3.gif""style=""height:400px;""></stim_listB>",is playing with,
null,"<div style=""font-size:60px;"">+</div>",,html-keyboard-response,140,1976401,0.0-13.0-0.17,39229,List2B,black,woman,,,,null,,,,
null,"<img src=""stim_listB/touch4.gif""style=""height:400px;""></stim_listB>",,html-keyboard-response,141,1978404,0.0-13.0-1.17,39229,List2B,black,woman,,,,null,,,,
null,are touching each other,,html-keyboard-response,142,1980405,0.0-13.0-2.17,39229,List2B,black,woman,,,,null,,,,
33454,,,survey-text,143,2013860,0.0-13.0-3.17,39229,List2B,black,woman,,,,,"{""Q0"":""fred and beth are touching each other""}","<img src=""stim_listB/touch4.gif""style=""height:400px;""></stim_listB>",are touching each other,
null,"<div style=""font-size:60px;"">+</div>",,html-keyboard-response,144,2014362,0.0-13.0-0.18,39229,List2B,black,woman,,,,null,,,,
null,"<img src=""stim_listB/talk3.gif""style=""height:400px;""></stim_listB>",,html-keyboard-response,145,2016365,0.0-13.0-1.18,39229,List2B,black,woman,,,,null,,,,
null,is talking to,,html-keyboard-response,146,2018367,0.0-13.0-2.18,39229,List2B,black,woman,,,,null,,,,
29688,,,survey-text,147,2048055,0.0-13.0-3.18,39229,List2B,black,woman,,,,,"{""Q0"":""fred is talking to beth""}","<img src=""stim_listB/talk3.gif""style=""height:400px;""></stim_listB>",is talking to,
null,"<div style=""font-size:60px;"">+</div>",,html-keyboard-response,148,2048557,0.0-13.0-0.19,39229,List2B,black,woman,,,,null,,,,
null,"<img src=""stim_listB/marry6.gif""style=""height:400px;""></stim_listB>",,html-keyboard-response,149,2050560,0.0-13.0-1.19,39229,List2B,black,woman,,,,null,,,,
null,are marrying each other,,html-keyboard-response,150,2052561,0.0-13.0-2.19,39229,List2B,black,woman,,,,null,,,,
16065,,,survey-text,151,2068628,0.0-13.0-3.19,39229,List2B,black,woman,,,,,"{""Q0"":""luke and mike are marrying each other""}","<img src=""stim_listB/marry6.gif""style=""height:400px;""></stim_listB>",are marrying each other,
48148,"<img src='img/portrait_matrix_list2.jpg' style='width:900px;height:500px;''></img><p>If you have memorised all the portraits and names and are ready to start, press Continue.</p><p><strong>Please note: Your memory of these faces will be tested 4 times during this experiment.</strong></p>",0,html-button-response,152,2116777,0.0-14.0-0.0,39229,List2B,black,woman,,,,,,,,
2737,"<img src=""portrait/WW1.jpg""style=""height:400px;""></img>",1,html-button-response,153,2120517,0.0-14.0-1.0,39229,List2B,black,woman,,TRUE,1,,,,,
null,CORRECT,,html-keyboard-response,154,2122019,0.0-14.0-2.0-0.0,39229,List2B,black,woman,,,,null,,,,
7617,"<img src=""portrait/BW2.jpg""style=""height:400px;""></img>",2,html-button-response,155,2129638,0.0-14.0-4.0,39229,List2B,black,woman,,TRUE,2,,,,,
null,CORRECT,,html-keyboard-response,156,2131141,0.0-14.0-5.0-0.0,39229,List2B,black,woman,,,,null,,,,
5359,"<img src=""portrait/WM2.jpg""style=""height:400px;""></img>",7,html-button-response,157,2136502,0.0-14.0-7.0,39229,List2B,black,woman,,TRUE,7,,,,,
null,CORRECT,,html-keyboard-response,158,2138005,0.0-14.0-8.0-0.0,39229,List2B,black,woman,,,,null,,,,
4586,"<img src=""portrait/WM1.jpg""style=""height:400px;""></img>",6,html-button-response,159,2142593,0.0-14.0-10.0,39229,List2B,black,woman,,TRUE,6,,,,,
null,CORRECT,,html-keyboard-response,160,2144097,0.0-14.0-11.0-0.0,39229,List2B,black,woman,,,,null,,,,
2484,"<img src=""portrait/WW2.jpg""style=""height:400px;""></img>",3,html-button-response,161,2146583,0.0-14.0-13.0,39229,List2B,black,woman,,TRUE,3,,,,,
null,CORRECT,,html-keyboard-response,162,2148085,0.0-14.0-14.0-0.0,39229,List2B,black,woman,,,,null,,,,
6796,"<img src=""portrait/BW1.jpg""style=""height:400px;""></img>",0,html-button-response,163,2154883,0.0-14.0-16.0,39229,List2B,black,woman,,TRUE,0,,,,,
null,CORRECT,,html-keyboard-response,164,2156386,0.0-14.0-17.0-0.0,39229,List2B,black,woman,,,,null,,,,
7532,"<img src=""portrait/BM1.jpg""style=""height:400px;""></img>",4,html-button-response,165,2163920,0.0-14.0-19.0,39229,List2B,black,woman,,TRUE,4,,,,,
null,CORRECT,,html-keyboard-response,166,2165423,0.0-14.0-20.0-0.0,39229,List2B,black,woman,,,,null,,,,
2301,"<img src=""portrait/BM2.jpg""style=""height:400px;""></img>",5,html-button-response,167,2167725,0.0-14.0-22.0,39229,List2B,black,woman,,TRUE,5,,,,,
null,CORRECT,,html-keyboard-response,168,2169228,0.0-14.0-23.0-0.0,39229,List2B,black,woman,,,,null,,,,
4076,<p>You got 8 out of 8 right first time. Press Continue.</p>,0,html-button-response,169,2173305,0.0-14.0-25.0,39229,List2B,black,woman,,,,,,,,
null,"<div style=""font-size:60px;"">+</div>",,html-keyboard-response,170,2174809,0.0-15.0-0.0,39229,List2B,black,woman,,,,null,,,,
null,"<img src=""stim_listB/fight6.gif""style=""height:400px;""></stim_listB>",,html-keyboard-response,171,2176811,0.0-15.0-1.0,39229,List2B,black,woman,,,,null,,,,
null,are fighting each other,,html-keyboard-response,172,2178812,0.0-15.0-2.0,39229,List2B,black,woman,,,,null,,,,
30637,,,survey-text,173,2209450,0.0-15.0-3.0,39229,List2B,black,woman,,,,,"{""Q0"":""luke and fred are fighting each other""}","<img src=""stim_listB/fight6.gif""style=""height:400px;""></stim_listB>",are fighting each other,
null,"<div style=""font-size:60px;"">+</div>",,html-keyboard-response,174,2209952,0.0-15.0-0.1,39229,List2B,black,woman,,,,null,,,,
null,"<img src=""stim_listB/touch7.gif""style=""height:400px;""></stim_listB>",,html-keyboard-response,175,2211954,0.0-15.0-1.1,39229,List2B,black,woman,,,,null,,,,
null,is touching,,html-keyboard-response,176,2213956,0.0-15.0-2.1,39229,List2B,black,woman,,,,null,,,,
22298,,,survey-text,177,2236256,0.0-15.0-3.1,39229,List2B,black,woman,,,,,"{""Q0"":""kate is touching jane""}","<img src=""stim_listB/touch7.gif""style=""height:400px;""></stim_listB>",is touching,
null,"<div style=""font-size:60px;"">+</div>",,html-keyboard-response,178,2236758,0.0-15.0-0.2,39229,List2B,black,woman,,,,null,,,,
null,"<img src=""stim_listB/fight5.gif""style=""height:400px;""></stim_listB>",,html-keyboard-response,179,2238760,0.0-15.0-1.2,39229,List2B,black,woman,,,,null,,,,
null,is fighting,,html-keyboard-response,180,2240761,0.0-15.0-2.2,39229,List2B,black,woman,,,,null,,,,
17727,,,survey-text,181,2258490,0.0-15.0-3.2,39229,List2B,black,woman,,,,,"{""Q0"":""mike is fighting dave""}","<img src=""stim_listB/fight5.gif""style=""height:400px;""></stim_listB>",is fighting,
null,"<div style=""font-size:60px;"">+</div>",,html-keyboard-response,182,2258991,0.0-15.0-0.3,39229,List2B,black,woman,,,,null,,,,
null,"<img src=""stim_listB/fight2.gif""style=""height:400px;""></stim_listB>",,html-keyboard-response,183,2260993,0.0-15.0-1.3,39229,List2B,black,woman,,,,null,,,,
null,are fighting each other,,html-keyboard-response,184,2262995,0.0-15.0-2.3,39229,List2B,black,woman,,,,null,,,,
22391,,,survey-text,185,2285386,0.0-15.0-3.3,39229,List2B,black,woman,,,,,"{""Q0"":""ruth and luke are fighting each other""}","<img src=""stim_listB/fight2.gif""style=""height:400px;""></stim_listB>",are fighting each other,
null,"<div style=""font-size:60px;"">+</div>",,html-keyboard-response,186,2285888,0.0-15.0-0.4,39229,List2B,black,woman,,,,null,,,,
null,"<img src=""stim_listB/talk1.gif""style=""height:400px;""></stim_listB>",,html-keyboard-response,187,2287891,0.0-15.0-1.4,39229,List2B,black,woman,,,,null,,,,
null,is talking to,,html-keyboard-response,188,2289892,0.0-15.0-2.4,39229,List2B,black,woman,,,,null,,,,
23547,,,survey-text,189,2313441,0.0-15.0-3.4,39229,List2B,black,woman,,,,,"{""Q0"":""jane is talking to luke""}","<img src=""stim_listB/talk1.gif""style=""height:400px;""></stim_listB>",is talking to,
null,"<div style=""font-size:60px;"">+</div>",,html-keyboard-response,190,2313943,0.0-15.0-0.5,39229,List2B,black,woman,,,,null,,,,
null,"<img src=""stim_listB/talk7.gif""style=""height:400px;""></stim_listB>",,html-keyboard-response,191,2315945,0.0-15.0-1.5,39229,List2B,black,woman,,,,null,,,,
null,is talking to,,html-keyboard-response,192,2317946,0.0-15.0-2.5,39229,List2B,black,woman,,,,null,,,,
26888,,,survey-text,193,2344836,0.0-15.0-3.5,39229,List2B,black,woman,,,,,"{""Q0"":""ruth is talking to kate""}","<img src=""stim_listB/talk7.gif""style=""height:400px;""></stim_listB>",is talking to,
null,"<div style=""font-size:60px;"">+</div>",,html-keyboard-response,194,2345339,0.0-15.0-0.6,39229,List2B,black,woman,,,,null,,,,
null,"<img src=""stim_listB/dance5.gif""style=""height:400px;""></stim_listB>",,html-keyboard-response,195,2347340,0.0-15.0-1.6,39229,List2B,black,woman,,,,null,,,,
null,is dancing with,,html-keyboard-response,196,2349341,0.0-15.0-2.6,39229,List2B,black,woman,,,,null,,,,
48930,,,survey-text,197,2398273,0.0-15.0-3.6,39229,List2B,black,woman,,,,,"{""Q0"":""mike is dancinng with luke""}","<img src=""stim_listB/dance5.gif""style=""height:400px;""></stim_listB>",is dancing with,
null,"<div style=""font-size:60px;"">+</div>",,html-keyboard-response,198,2398774,0.0-15.0-0.7,39229,List2B,black,woman,,,,null,,,,
null,"<img src=""stim_listB/play4.gif""style=""height:400px;""></stim_listB>",,html-keyboard-response,199,2400777,0.0-15.0-1.7,39229,List2B,black,woman,,,,null,,,,
null,are playing with each other,,html-keyboard-response,200,2402778,0.0-15.0-2.7,39229,List2B,black,woman,,,,null,,,,
23505,,,survey-text,201,2426285,0.0-15.0-3.7,39229,List2B,black,woman,,,,,"{""Q0"":""fred and beth are playing with other""}","<img src=""stim_listB/play4.gif""style=""height:400px;""></stim_listB>",are playing with each other,
null,"<div style=""font-size:60px;"">+</div>",,html-keyboard-response,202,2426787,0.0-15.0-0.8,39229,List2B,black,woman,,,,null,,,,
null,"<img src=""stim_listB/kiss4.gif""style=""height:400px;""></stim_listB>",,html-keyboard-response,203,2428789,0.0-15.0-1.8,39229,List2B,black,woman,,,,null,,,,
null,are kissing each other,,html-keyboard-response,204,2430791,0.0-15.0-2.8,39229,List2B,black,woman,,,,null,,,,
21743,,,survey-text,205,2452534,0.0-15.0-3.8,39229,List2B,black,woman,,,,,"{""Q0"":""mike and kate are kissing each other""}","<img src=""stim_listB/kiss4.gif""style=""height:400px;""></stim_listB>",are kissing each other,
null,"<div style=""font-size:60px;"">+</div>",,html-keyboard-response,206,2453036,0.0-15.0-0.9,39229,List2B,black,woman,,,,null,,,,
null,"<img src=""stim_listB/shout1.gif""style=""height:400px;""></stim_listB>",,html-keyboard-response,207,2455038,0.0-15.0-1.9,39229,List2B,black,woman,,,,null,,,,
null,is shouting at,,html-keyboard-response,208,2457041,0.0-15.0-2.9,39229,List2B,black,woman,,,,null,,,,
58083,,,survey-text,209,2515126,0.0-15.0-3.9,39229,List2B,black,woman,,,,,"{""Q0"":""luke is shouting at ruth""}","<img src=""stim_listB/shout1.gif""style=""height:400px;""></stim_listB>",is shouting at,
null,"<div style=""font-size:60px;"">+</div>",,html-keyboard-response,210,2515628,0.0-15.0-0.10,39229,List2B,black,woman,,,,null,,,,
null,"<img src=""stim_listB/kiss8.gif""style=""height:400px;""></stim_listB>",,html-keyboard-response,211,2517630,0.0-15.0-1.10,39229,List2B,black,woman,,,,null,,,,
null,are kissing each other,,html-keyboard-response,212,2519631,0.0-15.0-2.10,39229,List2B,black,woman,,,,null,,,,
32857,,,survey-text,213,2552490,0.0-15.0-3.10,39229,List2B,black,woman,,,,,"{""Q0"":""jane and kate are kissing each other""}","<img src=""stim_listB/kiss8.gif""style=""height:400px;""></stim_listB>",are kissing each other,
null,"<div style=""font-size:60px;"">+</div>",,html-keyboard-response,214,2552992,0.0-15.0-0.11,39229,List2B,black,woman,,,,null,,,,
null,"<img src=""stim_listB/shout7.gif""style=""height:400px;""></stim_listB>",,html-keyboard-response,215,2554994,0.0-15.0-1.11,39229,List2B,black,woman,,,,null,,,,
null,is shouting at,,html-keyboard-response,216,2556995,0.0-15.0-2.11,39229,List2B,black,woman,,,,null,,,,
27256,,,survey-text,217,2584252,0.0-15.0-3.11,39229,List2B,black,woman,,,,,"{""Q0"":""ruth is shouting at kate""}","<img src=""stim_listB/shout7.gif""style=""height:400px;""></stim_listB>",is shouting at,
null,"<div style=""font-size:60px;"">+</div>",,html-keyboard-response,218,2584754,0.0-15.0-0.12,39229,List2B,black,woman,,,,null,,,,
null,"<img src=""stim_listB/touch1.gif""style=""height:400px;""></stim_listB>",,html-keyboard-response,219,2586757,0.0-15.0-1.12,39229,List2B,black,woman,,,,null,,,,
null,is touching,,html-keyboard-response,220,2588758,0.0-15.0-2.12,39229,List2B,black,woman,,,,null,,,,
11676,,,survey-text,221,2600435,0.0-15.0-3.12,39229,List2B,black,woman,,,,,"{""Q0"":""jane is touching dave""}","<img src=""stim_listB/touch1.gif""style=""height:400px;""></stim_listB>",is touching,
null,"<div style=""font-size:60px;"">+</div>",,html-keyboard-response,222,2600937,0.0-15.0-0.13,39229,List2B,black,woman,,,,null,,,,
null,"<img src=""stim_listB/flirt2.gif""style=""height:400px;""></stim_listB>",,html-keyboard-response,223,2602939,0.0-15.0-1.13,39229,List2B,black,woman,,,,null,,,,
null,are flirting with each other,,html-keyboard-response,224,2604941,0.0-15.0-2.13,39229,List2B,black,woman,,,,null,,,,
28931,,,survey-text,225,2633874,0.0-15.0-3.13,39229,List2B,black,woman,,,,,"{""Q0"":""ruth and dave are flirting with each other""}","<img src=""stim_listB/flirt2.gif""style=""height:400px;""></stim_listB>",are flirting with each other,
null,"<div style=""font-size:60px;"">+</div>",,html-keyboard-response,226,2634375,0.0-15.0-0.14,39229,List2B,black,woman,,,,null,,,,
null,"<img src=""stim_listB/shout8.gif""style=""height:400px;""></stim_listB>",,html-keyboard-response,227,2636378,0.0-15.0-1.14,39229,List2B,black,woman,,,,null,,,,
null,are shouting at each other,,html-keyboard-response,228,2638379,0.0-15.0-2.14,39229,List2B,black,woman,,,,null,,,,
21962,,,survey-text,229,2660343,0.0-15.0-3.14,39229,List2B,black,woman,,,,,"{""Q0"":""jane and kate are fighting each other""}","<img src=""stim_listB/shout8.gif""style=""height:400px;""></stim_listB>",are shouting at each other,
null,"<div style=""font-size:60px;"">+</div>",,html-keyboard-response,230,2660845,0.0-15.0-0.15,39229,List2B,black,woman,,,,null,,,,
null,"<img src=""stim_listB/dance6.gif""style=""height:400px;""></stim_listB>",,html-keyboard-response,231,2662847,0.0-15.0-1.15,39229,List2B,black,woman,,,,null,,,,
null,are dancing with each other,,html-keyboard-response,232,2664849,0.0-15.0-2.15,39229,List2B,black,woman,,,,null,,,,
23008,,,survey-text,233,2687858,0.0-15.0-3.15,39229,List2B,black,woman,,,,,"{""Q0"":""fred and dave are dancing with each other""}","<img src=""stim_listB/dance6.gif""style=""height:400px;""></stim_listB>",are dancing with each other,
null,"<div style=""font-size:60px;"">+</div>",,html-keyboard-response,234,2688361,0.0-15.0-0.16,39229,List2B,black,woman,,,,null,,,,
null,"<img src=""stim_listB/fight7.gif""style=""height:400px;""></stim_listB>",,html-keyboard-response,235,2690363,0.0-15.0-1.16,39229,List2B,black,woman,,,,null,,,,
null,is fighting,,html-keyboard-response,236,2692365,0.0-15.0-2.16,39229,List2B,black,woman,,,,null,,,,
19311,,,survey-text,237,2711677,0.0-15.0-3.16,39229,List2B,black,woman,,,,,"{""Q0"":""kate is fighting jane""}","<img src=""stim_listB/fight7.gif""style=""height:400px;""></stim_listB>",is fighting,
null,"<div style=""font-size:60px;"">+</div>",,html-keyboard-response,238,2712179,0.0-15.0-0.17,39229,List2B,black,woman,,,,null,,,,
null,"<img src=""stim_listB/marry5.gif""style=""height:400px;""></stim_listB>",,html-keyboard-response,239,2714182,0.0-15.0-1.17,39229,List2B,black,woman,,,,null,,,,
null,is marrying,,html-keyboard-response,240,2716184,0.0-15.0-2.17,39229,List2B,black,woman,,,,null,,,,
13184,,,survey-text,241,2729369,0.0-15.0-3.17,39229,List2B,black,woman,,,,,"{""Q0"":""fred is marrying dave""}","<img src=""stim_listB/marry5.gif""style=""height:400px;""></stim_listB>",is marrying,
null,"<div style=""font-size:60px;"">+</div>",,html-keyboard-response,242,2729872,0.0-15.0-0.18,39229,List2B,black,woman,,,,null,,,,
null,"<img src=""stim_listB/flirt1.gif""style=""height:400px;""></stim_listB>",,html-keyboard-response,243,2731874,0.0-15.0-1.18,39229,List2B,black,woman,,,,null,,,,
null,is flirting with,,html-keyboard-response,244,2733876,0.0-15.0-2.18,39229,List2B,black,woman,,,,null,,,,
12817,,,survey-text,245,2746694,0.0-15.0-3.18,39229,List2B,black,woman,,,,,"{""Q0"":""ruth is flirting with luke""}","<img src=""stim_listB/flirt1.gif""style=""height:400px;""></stim_listB>",is flirting with,
null,"<div style=""font-size:60px;"">+</div>",,html-keyboard-response,246,2747196,0.0-15.0-0.19,39229,List2B,black,woman,,,,null,,,,
null,"<img src=""stim_listB/kiss5.gif""style=""height:400px;""></stim_listB>",,html-keyboard-response,247,2749199,0.0-15.0-1.19,39229,List2B,black,woman,,,,null,,,,
null,is kissing,,html-keyboard-response,248,2751200,0.0-15.0-2.19,39229,List2B,black,woman,,,,null,,,,
21181,,,survey-text,249,2772382,0.0-15.0-3.19,39229,List2B,black,woman,,,,,"{""Q0"":""luke is kissing fred""}","<img src=""stim_listB/kiss5.gif""style=""height:400px;""></stim_listB>",is kissing,
66835,"<img src='img/portrait_matrix_list2.jpg' style='width:900px;height:500px;''></img><p>If you have memorised all the portraits and names and are ready to start, press Continue.</p><p><strong>Please note: Your memory of these faces will be tested 4 times during this experiment.</strong></p>",0,html-button-response,250,2839220,0.0-16.0-0.0,39229,List2B,black,woman,,,,,,,,
12967,"<img src=""portrait/WW2.jpg""style=""height:400px;""></img>",3,html-button-response,251,2853191,0.0-16.0-1.0,39229,List2B,black,woman,,TRUE,3,,,,,
null,CORRECT,,html-keyboard-response,252,2854695,0.0-16.0-2.0-0.0,39229,List2B,black,woman,,,,null,,,,
3324,"<img src=""portrait/WW1.jpg""style=""height:400px;""></img>",1,html-button-response,253,2858021,0.0-16.0-4.0,39229,List2B,black,woman,,TRUE,1,,,,,
null,CORRECT,,html-keyboard-response,254,2859524,0.0-16.0-5.0-0.0,39229,List2B,black,woman,,,,null,,,,
2317,"<img src=""portrait/WM2.jpg""style=""height:400px;""></img>",7,html-button-response,255,2861843,0.0-16.0-7.0,39229,List2B,black,woman,,TRUE,7,,,,,
null,CORRECT,,html-keyboard-response,256,2863346,0.0-16.0-8.0-0.0,39229,List2B,black,woman,,,,null,,,,
4579,"<img src=""portrait/BW1.jpg""style=""height:400px;""></img>",0,html-button-response,257,2867927,0.0-16.0-10.0,39229,List2B,black,woman,,TRUE,0,,,,,
null,CORRECT,,html-keyboard-response,258,2869430,0.0-16.0-11.0-0.0,39229,List2B,black,woman,,,,null,,,,
4194,"<img src=""portrait/BM2.jpg""style=""height:400px;""></img>",5,html-button-response,259,2873626,0.0-16.0-13.0,39229,List2B,black,woman,,TRUE,5,,,,,
null,CORRECT,,html-keyboard-response,260,2875129,0.0-16.0-14.0-0.0,39229,List2B,black,woman,,,,null,,,,
3571,"<img src=""portrait/BW2.jpg""style=""height:400px;""></img>",2,html-button-response,261,2878702,0.0-16.0-16.0,39229,List2B,black,woman,,TRUE,2,,,,,
null,CORRECT,,html-keyboard-response,262,2880206,0.0-16.0-17.0-0.0,39229,List2B,black,woman,,,,null,,,,
3009,"<img src=""portrait/BM1.jpg""style=""height:400px;""></img>",4,html-button-response,263,2883217,0.0-16.0-19.0,39229,List2B,black,woman,,TRUE,4,,,,,
null,CORRECT,,html-keyboard-response,264,2884721,0.0-16.0-20.0-0.0,39229,List2B,black,woman,,,,null,,,,
3128,"<img src=""portrait/WM1.jpg""style=""height:400px;""></img>",6,html-button-response,265,2887851,0.0-16.0-22.0,39229,List2B,black,woman,,TRUE,6,,,,,
null,CORRECT,,html-keyboard-response,266,2889353,0.0-16.0-23.0-0.0,39229,List2B,black,woman,,,,null,,,,
3198,<p>You got 8 out of 8 right first time. Press Continue.</p>,0,html-button-response,267,2892554,0.0-16.0-25.0,39229,List2B,black,woman,,,,,,,,
null,"<div style=""font-size:60px;"">+</div>",,html-keyboard-response,268,2894057,0.0-17.0-0.0,39229,List2B,black,woman,,,,null,,,,
null,"<img src=""stim_listB/kiss1.gif""style=""height:400px;""></stim_listB>",,html-keyboard-response,269,2896059,0.0-17.0-1.0,39229,List2B,black,woman,,,,null,,,,
null,is kissing,,html-keyboard-response,270,2898060,0.0-17.0-2.0,39229,List2B,black,woman,,,,null,,,,
17413,,,survey-text,271,2915474,0.0-17.0-3.0,39229,List2B,black,woman,,,,,"{""Q0"":""luke is kissing ruth""}","<img src=""stim_listB/kiss1.gif""style=""height:400px;""></stim_listB>",is kissing,
null,"<div style=""font-size:60px;"">+</div>",,html-keyboard-response,272,2915977,0.0-17.0-0.1,39229,List2B,black,woman,,,,null,,,,
null,"<img src=""stim_listB/marry8.gif""style=""height:400px;""></stim_listB>",,html-keyboard-response,273,2917979,0.0-17.0-1.1,39229,List2B,black,woman,,,,null,,,,
null,are marrying each other,,html-keyboard-response,274,2919980,0.0-17.0-2.1,39229,List2B,black,woman,,,,null,,,,
18575,,,survey-text,275,2938557,0.0-17.0-3.1,39229,List2B,black,woman,,,,,"{""Q0"":""ruth and kate are marrying each other""}","<img src=""stim_listB/marry8.gif""style=""height:400px;""></stim_listB>",are marrying each other,
null,"<div style=""font-size:60px;"">+</div>",,html-keyboard-response,276,2939059,0.0-17.0-0.2,39229,List2B,black,woman,,,,null,,,,
null,"<img src=""stim_listB/fight8.gif""style=""height:400px;""></stim_listB>",,html-keyboard-response,277,2941062,0.0-17.0-1.2,39229,List2B,black,woman,,,,null,,,,
null,are fighting each other,,html-keyboard-response,278,2943063,0.0-17.0-2.2,39229,List2B,black,woman,,,,null,,,,
34742,,,survey-text,279,2977807,0.0-17.0-3.2,39229,List2B,black,woman,,,,,"{""Q0"":""ruth and beth kate are fighting each other""}","<img src=""stim_listB/fight8.gif""style=""height:400px;""></stim_listB>",are fighting each other,
null,"<div style=""font-size:60px;"">+</div>",,html-keyboard-response,280,2978309,0.0-17.0-0.3,39229,List2B,black,woman,,,,null,,,,
null,"<img src=""stim_listB/touch6.gif""style=""height:400px;""></stim_listB>",,html-keyboard-response,281,2980311,0.0-17.0-1.3,39229,List2B,black,woman,,,,null,,,,
null,are touching each other,,html-keyboard-response,282,2982313,0.0-17.0-2.3,39229,List2B,black,woman,,,,null,,,,
15218,,,survey-text,283,2997532,0.0-17.0-3.3,39229,List2B,black,woman,,,,,"{""Q0"":""fred and luke are touching each other""}","<img src=""stim_listB/touch6.gif""style=""height:400px;""></stim_listB>",are touching each other,
null,"<div style=""font-size:60px;"">+</div>",,html-keyboard-response,284,2998035,0.0-17.0-0.4,39229,List2B,black,woman,,,,null,,,,
null,"<img src=""stim_listB/argue6.gif""style=""height:400px;""></stim_listB>",,html-keyboard-response,285,3000037,0.0-17.0-1.4,39229,List2B,black,woman,,,,null,,,,
null,are arguing with each other,,html-keyboard-response,286,3002038,0.0-17.0-2.4,39229,List2B,black,woman,,,,null,,,,
16347,,,survey-text,287,3018386,0.0-17.0-3.4,39229,List2B,black,woman,,,,,"{""Q0"":""luke and mike are arguing each other""}","<img src=""stim_listB/argue6.gif""style=""height:400px;""></stim_listB>",are arguing with each other,
null,"<div style=""font-size:60px;"">+</div>",,html-keyboard-response,288,3018888,0.0-17.0-0.5,39229,List2B,black,woman,,,,null,,,,
null,"<img src=""stim_listB/kiss7.gif""style=""height:400px;""></stim_listB>",,html-keyboard-response,289,3020891,0.0-17.0-1.5,39229,List2B,black,woman,,,,null,,,,
null,is kissing,,html-keyboard-response,290,3022893,0.0-17.0-2.5,39229,List2B,black,woman,,,,null,,,,
12511,,,survey-text,291,3035405,0.0-17.0-3.5,39229,List2B,black,woman,,,,,"{""Q0"":""ruth is kissing beth""}","<img src=""stim_listB/kiss7.gif""style=""height:400px;""></stim_listB>",is kissing,
null,"<div style=""font-size:60px;"">+</div>",,html-keyboard-response,292,3035908,0.0-17.0-0.6,39229,List2B,black,woman,,,,null,,,,
null,"<img src=""stim_listB/fight1.gif""style=""height:400px;""></stim_listB>",,html-keyboard-response,293,3037911,0.0-17.0-1.6,39229,List2B,black,woman,,,,null,,,,
null,is fighting,,html-keyboard-response,294,3039913,0.0-17.0-2.6,39229,List2B,black,woman,,,,null,,,,
10613,,,survey-text,295,3050527,0.0-17.0-3.6,39229,List2B,black,woman,,,,,"{""Q0"":""jane is fighting fred""}","<img src=""stim_listB/fight1.gif""style=""height:400px;""></stim_listB>",is fighting,
null,"<div style=""font-size:60px;"">+</div>",,html-keyboard-response,296,3051030,0.0-17.0-0.7,39229,List2B,black,woman,,,,null,,,,
null,"<img src=""stim_listB/flirt5.gif""style=""height:400px;""></stim_listB>",,html-keyboard-response,297,3053032,0.0-17.0-1.7,39229,List2B,black,woman,,,,null,,,,
null,is flirting with,,html-keyboard-response,298,3055034,0.0-17.0-2.7,39229,List2B,black,woman,,,,null,,,,
12072,,,survey-text,299,3067107,0.0-17.0-3.7,39229,List2B,black,woman,,,,,"{""Q0"":""mike is flirting with luke""}","<img src=""stim_listB/flirt5.gif""style=""height:400px;""></stim_listB>",is flirting with,
null,"<div style=""font-size:60px;"">+</div>",,html-keyboard-response,300,3067610,0.0-17.0-0.8,39229,List2B,black,woman,,,,null,,,,
null,"<img src=""stim_listB/shout2.gif""style=""height:400px;""></stim_listB>",,html-keyboard-response,301,3069612,0.0-17.0-1.8,39229,List2B,black,woman,,,,null,,,,
null,are shouting at each other,,html-keyboard-response,302,3071615,0.0-17.0-2.8,39229,List2B,black,woman,,,,null,,,,
27387,,,survey-text,303,3099002,0.0-17.0-3.8,39229,List2B,black,woman,,,,,"{""Q0"":""jane and dave is fighting with each other""}","<img src=""stim_listB/shout2.gif""style=""height:400px;""></stim_listB>",are shouting at each other,
null,"<div style=""font-size:60px;"">+</div>",,html-keyboard-response,304,3099504,0.0-17.0-0.9,39229,List2B,black,woman,,,,null,,,,
null,"<img src=""stim_listB/play6.gif""style=""height:400px;""></stim_listB>",,html-keyboard-response,305,3101508,0.0-17.0-1.9,39229,List2B,black,woman,,,,null,,,,
null,are playing with each other,,html-keyboard-response,306,3103510,0.0-17.0-2.9,39229,List2B,black,woman,,,,null,,,,
31407,,,survey-text,307,3134918,0.0-17.0-3.9,39229,List2B,black,woman,,,,,"{""Q0"":""luke and fred are playing with each other""}","<img src=""stim_listB/play6.gif""style=""height:400px;""></stim_listB>",are playing with each other,
null,"<div style=""font-size:60px;"">+</div>",,html-keyboard-response,308,3135420,0.0-17.0-0.10,39229,List2B,black,woman,,,,null,,,,
null,"<img src=""stim_listB/dance7.gif""style=""height:400px;""></stim_listB>",,html-keyboard-response,309,3137422,0.0-17.0-1.10,39229,List2B,black,woman,,,,null,,,,
null,is dancing with,,html-keyboard-response,310,3139423,0.0-17.0-2.10,39229,List2B,black,woman,,,,null,,,,
20022,,,survey-text,311,3159447,0.0-17.0-3.10,39229,List2B,black,woman,,,,,"{""Q0"":""jane is dancing with kate""}","<img src=""stim_listB/dance7.gif""style=""height:400px;""></stim_listB>",is dancing with,
null,"<div style=""font-size:60px;"">+</div>",,html-keyboard-response,312,3159949,0.0-17.0-0.11,39229,List2B,black,woman,,,,null,,,,
null,"<img src=""stim_listB/argue7.gif""style=""height:400px;""></stim_listB>",,html-keyboard-response,313,3161952,0.0-17.0-1.11,39229,List2B,black,woman,,,,null,,,,
null,is arguing with,,html-keyboard-response,314,3163953,0.0-17.0-2.11,39229,List2B,black,woman,,,,null,,,,
12979,,,survey-text,315,3176934,0.0-17.0-3.11,39229,List2B,black,woman,,,,,"{""Q0"":""beth is arguing with jane""}","<img src=""stim_listB/argue7.gif""style=""height:400px;""></stim_listB>",is arguing with,
null,"<div style=""font-size:60px;"">+</div>",,html-keyboard-response,316,3177436,0.0-17.0-0.12,39229,List2B,black,woman,,,,null,,,,
null,"<img src=""stim_listB/shout3.gif""style=""height:400px;""></stim_listB>",,html-keyboard-response,317,3179438,0.0-17.0-1.12,39229,List2B,black,woman,,,,null,,,,
null,is shouting at,,html-keyboard-response,318,3181440,0.0-17.0-2.12,39229,List2B,black,woman,,,,null,,,,
15523,,,survey-text,319,3196965,0.0-17.0-3.12,39229,List2B,black,woman,,,,,"{""Q0"":""beth is shouting at fred""}","<img src=""stim_listB/shout3.gif""style=""height:400px;""></stim_listB>",is shouting at,
null,"<div style=""font-size:60px;"">+</div>",,html-keyboard-response,320,3197467,0.0-17.0-0.13,39229,List2B,black,woman,,,,null,,,,
null,"<img src=""stim_listB/play8.gif""style=""height:400px;""></stim_listB>",,html-keyboard-response,321,3199470,0.0-17.0-1.13,39229,List2B,black,woman,,,,null,,,,
null,are playing with each other,,html-keyboard-response,322,3201472,0.0-17.0-2.13,39229,List2B,black,woman,,,,null,,,,
16961,,,survey-text,323,3218434,0.0-17.0-3.13,39229,List2B,black,woman,,,,,"{""Q0"":""jane and beth are playing with each other""}","<img src=""stim_listB/play8.gif""style=""height:400px;""></stim_listB>",are playing with each other,
null,"<div style=""font-size:60px;"">+</div>",,html-keyboard-response,324,3218936,0.0-17.0-0.14,39229,List2B,black,woman,,,,null,,,,
null,"<img src=""stim_listB/flirt3.gif""style=""height:400px;""></stim_listB>",,html-keyboard-response,325,3220938,0.0-17.0-1.14,39229,List2B,black,woman,,,,null,,,,
null,is flirting with,,html-keyboard-response,326,3222939,0.0-17.0-2.14,39229,List2B,black,woman,,,,null,,,,
12279,,,survey-text,327,3235220,0.0-17.0-3.14,39229,List2B,black,woman,,,,,"{""Q0"":""fred is flirting with kate""}","<img src=""stim_listB/flirt3.gif""style=""height:400px;""></stim_listB>",is flirting with,
null,"<div style=""font-size:60px;"">+</div>",,html-keyboard-response,328,3235722,0.0-17.0-0.15,39229,List2B,black,woman,,,,null,,,,
null,"<img src=""stim_listB/touch2.gif""style=""height:400px;""></stim_listB>",,html-keyboard-response,329,3237726,0.0-17.0-1.15,39229,List2B,black,woman,,,,null,,,,
null,are touching each other,,html-keyboard-response,330,3239728,0.0-17.0-2.15,39229,List2B,black,woman,,,,null,,,,
21469,,,survey-text,331,3261198,0.0-17.0-3.15,39229,List2B,black,woman,,,,,"{""Q0"":""luke and ruth are touching each other""}","<img src=""stim_listB/touch2.gif""style=""height:400px;""></stim_listB>",are touching each other,
null,"<div style=""font-size:60px;"">+</div>",,html-keyboard-response,332,3261700,0.0-17.0-0.16,39229,List2B,black,woman,,,,null,,,,
null,"<img src=""stim_listB/dance4.gif""style=""height:400px;""></stim_listB>",,html-keyboard-response,333,3263703,0.0-17.0-1.16,39229,List2B,black,woman,,,,null,,,,
null,are dancing with each other,,html-keyboard-response,334,3265705,0.0-17.0-2.16,39229,List2B,black,woman,,,,null,,,,
15676,,,survey-text,335,3281383,0.0-17.0-3.16,39229,List2B,black,woman,,,,,"{""Q0"":""mike and beth are dancing with each other""}","<img src=""stim_listB/dance4.gif""style=""height:400px;""></stim_listB>",are dancing with each other,
null,"<div style=""font-size:60px;"">+</div>",,html-keyboard-response,336,3281886,0.0-17.0-0.17,39229,List2B,black,woman,,,,null,,,,
null,"<img src=""stim_listB/kiss2.gif""style=""height:400px;""></stim_listB>",,html-keyboard-response,337,3283889,0.0-17.0-1.17,39229,List2B,black,woman,,,,null,,,,
null,are kissing each other,,html-keyboard-response,338,3285891,0.0-17.0-2.17,39229,List2B,black,woman,,,,null,,,,
34115,,,survey-text,339,3320008,0.0-17.0-3.17,39229,List2B,black,woman,,,,,"{""Q0"":""jane and dave are kissing each other""}","<img src=""stim_listB/kiss2.gif""style=""height:400px;""></stim_listB>",are kissing each other,
null,"<div style=""font-size:60px;"">+</div>",,html-keyboard-response,340,3320510,0.0-17.0-0.18,39229,List2B,black,woman,,,,null,,,,
null,"<img src=""stim_listB/marry4.gif""style=""height:400px;""></stim_listB>",,html-keyboard-response,341,3322512,0.0-17.0-1.18,39229,List2B,black,woman,,,,null,,,,
null,are marrying each other,,html-keyboard-response,342,3324513,0.0-17.0-2.18,39229,List2B,black,woman,,,,null,,,,
14600,,,survey-text,343,3339114,0.0-17.0-3.18,39229,List2B,black,woman,,,,,"{""Q0"":""fred and kate are marrying each other""}","<img src=""stim_listB/marry4.gif""style=""height:400px;""></stim_listB>",are marrying each other,
null,"<div style=""font-size:60px;"">+</div>",,html-keyboard-response,344,3339617,0.0-17.0-0.19,39229,List2B,black,woman,,,,null,,,,
null,"<img src=""stim_listB/talk5.gif""style=""height:400px;""></stim_listB>",,html-keyboard-response,345,3341619,0.0-17.0-1.19,39229,List2B,black,woman,,,,null,,,,
null,is talking to,,html-keyboard-response,346,3343620,0.0-17.0-2.19,39229,List2B,black,woman,,,,null,,,,
17980,,,survey-text,347,3361601,0.0-17.0-3.19,39229,List2B,black,woman,,,,,"{""Q0"":""mike is talking to luke""}","<img src=""stim_listB/talk5.gif""style=""height:400px;""></stim_listB>",is talking to,
20268,"<img src='img/portrait_matrix_list2.jpg' style='width:900px;height:500px;''></img><p>If you have memorised all the portraits and names and are ready to start, press Continue.</p><p><strong>Please note: Your memory of these faces will be tested 4 times during this experiment.</strong></p>",0,html-button-response,348,3381872,0.0-18.0-0.0,39229,List2B,black,woman,,,,,,,,
4314,"<img src=""portrait/WW2.jpg""style=""height:400px;""></img>",3,html-button-response,349,3387189,0.0-18.0-1.0,39229,List2B,black,woman,,TRUE,3,,,,,
null,CORRECT,,html-keyboard-response,350,3388692,0.0-18.0-2.0-0.0,39229,List2B,black,woman,,,,null,,,,
3257,"<img src=""portrait/BM2.jpg""style=""height:400px;""></img>",5,html-button-response,351,3391951,0.0-18.0-4.0,39229,List2B,black,woman,,TRUE,5,,,,,
null,CORRECT,,html-keyboard-response,352,3393454,0.0-18.0-5.0-0.0,39229,List2B,black,woman,,,,null,,,,
2873,"<img src=""portrait/BW2.jpg""style=""height:400px;""></img>",2,html-button-response,353,3396329,0.0-18.0-7.0,39229,List2B,black,woman,,TRUE,2,,,,,
null,CORRECT,,html-keyboard-response,354,3397832,0.0-18.0-8.0-0.0,39229,List2B,black,woman,,,,null,,,,
2590,"<img src=""portrait/WW1.jpg""style=""height:400px;""></img>",1,html-button-response,355,3400423,0.0-18.0-10.0,39229,List2B,black,woman,,TRUE,1,,,,,
null,CORRECT,,html-keyboard-response,356,3401927,0.0-18.0-11.0-0.0,39229,List2B,black,woman,,,,null,,,,
3124,"<img src=""portrait/BW1.jpg""style=""height:400px;""></img>",0,html-button-response,357,3405053,0.0-18.0-13.0,39229,List2B,black,woman,,TRUE,0,,,,,
null,CORRECT,,html-keyboard-response,358,3406556,0.0-18.0-14.0-0.0,39229,List2B,black,woman,,,,null,,,,
3006,"<img src=""portrait/WM1.jpg""style=""height:400px;""></img>",6,html-button-response,359,3409564,0.0-18.0-16.0,39229,List2B,black,woman,,TRUE,6,,,,,
null,CORRECT,,html-keyboard-response,360,3411067,0.0-18.0-17.0-0.0,39229,List2B,black,woman,,,,null,,,,
2716,"<img src=""portrait/WM2.jpg""style=""height:400px;""></img>",7,html-button-response,361,3413785,0.0-18.0-19.0,39229,List2B,black,woman,,TRUE,7,,,,,
null,CORRECT,,html-keyboard-response,362,3415288,0.0-18.0-20.0-0.0,39229,List2B,black,woman,,,,null,,,,
2775,"<img src=""portrait/BM1.jpg""style=""height:400px;""></img>",4,html-button-response,363,3418065,0.0-18.0-22.0,39229,List2B,black,woman,,TRUE,4,,,,,
null,CORRECT,,html-keyboard-response,364,3419569,0.0-18.0-23.0-0.0,39229,List2B,black,woman,,,,null,,,,
2678,<p>You got 8 out of 8 right first time. Press Continue.</p>,0,html-button-response,365,3422248,0.0-18.0-25.0,39229,List2B,black,woman,,,,,,,,
null,"<div style=""font-size:60px;"">+</div>",,html-keyboard-response,366,3423751,0.0-19.0-0.0,39229,List2B,black,woman,,,,null,,,,
null,"<img src=""stim_listB/play1.gif""style=""height:400px;""></stim_listB>",,html-keyboard-response,367,3425754,0.0-19.0-1.0,39229,List2B,black,woman,,,,null,,,,
null,is playing with,,html-keyboard-response,368,3427756,0.0-19.0-2.0,39229,List2B,black,woman,,,,null,,,,
13107,,,survey-text,369,3440865,0.0-19.0-3.0,39229,List2B,black,woman,,,,,"{""Q0"":""fred is playing with jane""}","<img src=""stim_listB/play1.gif""style=""height:400px;""></stim_listB>",is playing with,
null,"<div style=""font-size:60px;"">+</div>",,html-keyboard-response,370,3441366,0.0-19.0-0.1,39229,List2B,black,woman,,,,null,,,,
null,"<img src=""stim_listB/argue1.gif""style=""height:400px;""></stim_listB>",,html-keyboard-response,371,3443368,0.0-19.0-1.1,39229,List2B,black,woman,,,,null,,,,
null,is arguing with,,html-keyboard-response,372,3445370,0.0-19.0-2.1,39229,List2B,black,woman,,,,null,,,,
17293,,,survey-text,373,3462665,0.0-19.0-3.1,39229,List2B,black,woman,,,,,"{""Q0"":""dave is arguing with ruth""}","<img src=""stim_listB/argue1.gif""style=""height:400px;""></stim_listB>",is arguing with,
null,"<div style=""font-size:60px;"">+</div>",,html-keyboard-response,374,3463167,0.0-19.0-0.2,39229,List2B,black,woman,,,,null,,,,
null,"<img src=""stim_listB/shout6.gif""style=""height:400px;""></stim_listB>",,html-keyboard-response,375,3465169,0.0-19.0-1.2,39229,List2B,black,woman,,,,null,,,,
null,are shouting at each other,,html-keyboard-response,376,3467170,0.0-19.0-2.2,39229,List2B,black,woman,,,,null,,,,
17314,,,survey-text,377,3484486,0.0-19.0-3.2,39229,List2B,black,woman,,,,,"{""Q0"":""dave and like are shouting at each other""}","<img src=""stim_listB/shout6.gif""style=""height:400px;""></stim_listB>",are shouting at each other,
null,"<div style=""font-size:60px;"">+</div>",,html-keyboard-response,378,3484988,0.0-19.0-0.3,39229,List2B,black,woman,,,,null,,,,
null,"<img src=""stim_listB/talk6.gif""style=""height:400px;""></stim_listB>",,html-keyboard-response,379,3486991,0.0-19.0-1.3,39229,List2B,black,woman,,,,null,,,,
null,are talking to each other,,html-keyboard-response,380,3488992,0.0-19.0-2.3,39229,List2B,black,woman,,,,null,,,,
17400,,,survey-text,381,3506393,0.0-19.0-3.3,39229,List2B,black,woman,,,,,"{""Q0"":""dave and fred are talking to each other""}","<img src=""stim_listB/talk6.gif""style=""height:400px;""></stim_listB>",are talking to each other,
null,"<div style=""font-size:60px;"">+</div>",,html-keyboard-response,382,3506896,0.0-19.0-0.4,39229,List2B,black,woman,,,,null,,,,
null,"<img src=""stim_listB/marry1.gif""style=""height:400px;""></stim_listB>",,html-keyboard-response,383,3508900,0.0-19.0-1.4,39229,List2B,black,woman,,,,null,,,,
null,is marrying,,html-keyboard-response,384,3510901,0.0-19.0-2.4,39229,List2B,black,woman,,,,null,,,,
11270,,,survey-text,385,3522173,0.0-19.0-3.4,39229,List2B,black,woman,,,,,"{""Q0"":""ruth is marrying dave""}","<img src=""stim_listB/marry1.gif""style=""height:400px;""></stim_listB>",is marrying,
null,"<div style=""font-size:60px;"">+</div>",,html-keyboard-response,386,3522675,0.0-19.0-0.5,39229,List2B,black,woman,,,,null,,,,
null,"<img src=""stim_listB/touch5.gif""style=""height:400px;""></stim_listB>",,html-keyboard-response,387,3524678,0.0-19.0-1.5,39229,List2B,black,woman,,,,null,,,,
null,is touching,,html-keyboard-response,388,3526679,0.0-19.0-2.5,39229,List2B,black,woman,,,,null,,,,
9164,,,survey-text,389,3535845,0.0-19.0-3.5,39229,List2B,black,woman,,,,,"{""Q0"":""mike is touching dave""}","<img src=""stim_listB/touch5.gif""style=""height:400px;""></stim_listB>",is touching,
null,"<div style=""font-size:60px;"">+</div>",,html-keyboard-response,390,3536347,0.0-19.0-0.6,39229,List2B,black,woman,,,,null,,,,
null,"<img src=""stim_listB/dance2.gif""style=""height:400px;""></stim_listB>",,html-keyboard-response,391,3538349,0.0-19.0-1.6,39229,List2B,black,woman,,,,null,,,,
null,are dancing with each other,,html-keyboard-response,392,3540351,0.0-19.0-2.6,39229,List2B,black,woman,,,,null,,,,
12946,,,survey-text,393,3553299,0.0-19.0-3.6,39229,List2B,black,woman,,,,,"{""Q0"":""ruth and dave are dancing with other""}","<img src=""stim_listB/dance2.gif""style=""height:400px;""></stim_listB>",are dancing with each other,
null,"<div style=""font-size:60px;"">+</div>",,html-keyboard-response,394,3553801,0.0-19.0-0.7,39229,List2B,black,woman,,,,null,,,,
null,"<img src=""stim_listB/dance1.gif""style=""height:400px;""></stim_listB>",,html-keyboard-response,395,3555804,0.0-19.0-1.7,39229,List2B,black,woman,,,,null,,,,
null,is dancing with,,html-keyboard-response,396,3557805,0.0-19.0-2.7,39229,List2B,black,woman,,,,null,,,,
10227,,,survey-text,397,3568034,0.0-19.0-3.7,39229,List2B,black,woman,,,,,"{""Q0"":""luke is dancing with jane""}","<img src=""stim_listB/dance1.gif""style=""height:400px;""></stim_listB>",is dancing with,
null,"<div style=""font-size:60px;"">+</div>",,html-keyboard-response,398,3568536,0.0-19.0-0.8,39229,List2B,black,woman,,,,null,,,,
null,"<img src=""stim_listB/talk4.gif""style=""height:400px;""></stim_listB>",,html-keyboard-response,399,3570540,0.0-19.0-1.8,39229,List2B,black,woman,,,,null,,,,
null,are talking to each other,,html-keyboard-response,400,3572541,0.0-19.0-2.8,39229,List2B,black,woman,,,,null,,,,
13552,,,survey-text,401,3586094,0.0-19.0-3.8,39229,List2B,black,woman,,,,,"{""Q0"":""mike and beth are talking to each other""}","<img src=""stim_listB/talk4.gif""style=""height:400px;""></stim_listB>",are talking to each other,
null,"<div style=""font-size:60px;"">+</div>",,html-keyboard-response,402,3586596,0.0-19.0-0.9,39229,List2B,black,woman,,,,null,,,,
null,"<img src=""stim_listB/touch3.gif""style=""height:400px;""></stim_listB>",,html-keyboard-response,403,3588599,0.0-19.0-1.9,39229,List2B,black,woman,,,,null,,,,
null,is touching,,html-keyboard-response,404,3590600,0.0-19.0-2.9,39229,List2B,black,woman,,,,null,,,,
9135,,,survey-text,405,3599736,0.0-19.0-3.9,39229,List2B,black,woman,,,,,"{""Q0"":""kate is touching mike""}","<img src=""stim_listB/touch3.gif""style=""height:400px;""></stim_listB>",is touching,
null,"<div style=""font-size:60px;"">+</div>",,html-keyboard-response,406,3600239,0.0-19.0-0.10,39229,List2B,black,woman,,,,null,,,,
null,"<img src=""stim_listB/argue8.gif""style=""height:400px;""></stim_listB>",,html-keyboard-response,407,3602241,0.0-19.0-1.10,39229,List2B,black,woman,,,,null,,,,
null,are arguing with each other,,html-keyboard-response,408,3604243,0.0-19.0-2.10,39229,List2B,black,woman,,,,null,,,,
18168,,,survey-text,409,3622412,0.0-19.0-3.10,39229,List2B,black,woman,,,,,"{""Q0"":""kate and ruth are arguing with each other""}","<img src=""stim_listB/argue8.gif""style=""height:400px;""></stim_listB>",are arguing with each other,
null,"<div style=""font-size:60px;"">+</div>",,html-keyboard-response,410,3622914,0.0-19.0-0.11,39229,List2B,black,woman,,,,null,,,,
null,"<img src=""stim_listB/play7.gif""style=""height:400px;""></stim_listB>",,html-keyboard-response,411,3624917,0.0-19.0-1.11,39229,List2B,black,woman,,,,null,,,,
null,is playing with,,html-keyboard-response,412,3626918,0.0-19.0-2.11,39229,List2B,black,woman,,,,null,,,,
9709,,,survey-text,413,3636628,0.0-19.0-3.11,39229,List2B,black,woman,,,,,"{""Q0"":""jane is playing with kate""}","<img src=""stim_listB/play7.gif""style=""height:400px;""></stim_listB>",is playing with,
null,"<div style=""font-size:60px;"">+</div>",,html-keyboard-response,414,3637130,0.0-19.0-0.12,39229,List2B,black,woman,,,,null,,,,
null,"<img src=""stim_listB/argue2.gif""style=""height:400px;""></stim_listB>",,html-keyboard-response,415,3639132,0.0-19.0-1.12,39229,List2B,black,woman,,,,null,,,,
null,are arguing with each other,,html-keyboard-response,416,3641135,0.0-19.0-2.12,39229,List2B,black,woman,,,,null,,,,
18105,,,survey-text,417,3659242,0.0-19.0-3.12,39229,List2B,black,woman,,,,,"{""Q0"":""luke is arguing with jane""}","<img src=""stim_listB/argue2.gif""style=""height:400px;""></stim_listB>",are arguing with each other,
null,"<div style=""font-size:60px;"">+</div>",,html-keyboard-response,418,3659743,0.0-19.0-0.13,39229,List2B,black,woman,,,,null,,,,
null,"<img src=""stim_listB/argue5.gif""style=""height:400px;""></stim_listB>",,html-keyboard-response,419,3661746,0.0-19.0-1.13,39229,List2B,black,woman,,,,null,,,,
null,is arguing with,,html-keyboard-response,420,3663748,0.0-19.0-2.13,39229,List2B,black,woman,,,,null,,,,
11593,,,survey-text,421,3675342,0.0-19.0-3.13,39229,List2B,black,woman,,,,,"{""Q0"":""fred is arguing with dave""}","<img src=""stim_listB/argue5.gif""style=""height:400px;""></stim_listB>",is arguing with,
null,"<div style=""font-size:60px;"">+</div>",,html-keyboard-response,422,3675844,0.0-19.0-0.14,39229,List2B,black,woman,,,,null,,,,
null,"<img src=""stim_listB/kiss6.gif""style=""height:400px;""></stim_listB>",,html-keyboard-response,423,3677847,0.0-19.0-1.14,39229,List2B,black,woman,,,,null,,,,
null,are kissing each other,,html-keyboard-response,424,3679848,0.0-19.0-2.14,39229,List2B,black,woman,,,,null,,,,
12779,,,survey-text,425,3692629,0.0-19.0-3.14,39229,List2B,black,woman,,,,,"{""Q0"":""mike and dave are kissing each other""}","<img src=""stim_listB/kiss6.gif""style=""height:400px;""></stim_listB>",are kissing each other,
null,"<div style=""font-size:60px;"">+</div>",,html-keyboard-response,426,3693132,0.0-19.0-0.15,39229,List2B,black,woman,,,,null,,,,
null,"<img src=""stim_listB/argue4.gif""style=""height:400px;""></stim_listB>",,html-keyboard-response,427,3695135,0.0-19.0-1.15,39229,List2B,black,woman,,,,null,,,,
null,are arguing with each other,,html-keyboard-response,428,3697136,0.0-19.0-2.15,39229,List2B,black,woman,,,,null,,,,
14919,,,survey-text,429,3712057,0.0-19.0-3.15,39229,List2B,black,woman,,,,,"{""Q0"":""kate and fred are arguing with each other""}","<img src=""stim_listB/argue4.gif""style=""height:400px;""></stim_listB>",are arguing with each other,
null,"<div style=""font-size:60px;"">+</div>",,html-keyboard-response,430,3712559,0.0-19.0-0.16,39229,List2B,black,woman,,,,null,,,,
null,"<img src=""stim_listB/fight3.gif""style=""height:400px;""></stim_listB>",,html-keyboard-response,431,3714563,0.0-19.0-1.16,39229,List2B,black,woman,,,,null,,,,
null,is fighting,,html-keyboard-response,432,3716565,0.0-19.0-2.16,39229,List2B,black,woman,,,,null,,,,
9573,,,survey-text,433,3726140,0.0-19.0-3.16,39229,List2B,black,woman,,,,,"{""Q0"":""kate is fighting mike""}","<img src=""stim_listB/fight3.gif""style=""height:400px;""></stim_listB>",is fighting,
null,"<div style=""font-size:60px;"">+</div>",,html-keyboard-response,434,3726642,0.0-19.0-0.17,39229,List2B,black,woman,,,,null,,,,
null,"<img src=""stim_listB/shout5.gif""style=""height:400px;""></stim_listB>",,html-keyboard-response,435,3728644,0.0-19.0-1.17,39229,List2B,black,woman,,,,null,,,,
null,is shouting at,,html-keyboard-response,436,3730646,0.0-19.0-2.17,39229,List2B,black,woman,,,,null,,,,
10838,,,survey-text,437,3741485,0.0-19.0-3.17,39229,List2B,black,woman,,,,,"{""Q0"":""luke is shouting at fred""}","<img src=""stim_listB/shout5.gif""style=""height:400px;""></stim_listB>",is shouting at,
null,"<div style=""font-size:60px;"">+</div>",,html-keyboard-response,438,3741987,0.0-19.0-0.18,39229,List2B,black,woman,,,,null,,,,
null,"<img src=""stim_listB/touch8.gif""style=""height:400px;""></stim_listB>",,html-keyboard-response,439,3743989,0.0-19.0-1.18,39229,List2B,black,woman,,,,null,,,,
null,are touching each other,,html-keyboard-response,440,3745991,0.0-19.0-2.18,39229,List2B,black,woman,,,,null,,,,
14380,,,survey-text,441,3760373,0.0-19.0-3.18,39229,List2B,black,woman,,,,,"{""Q0"":""ruth and beth are touching each other""}","<img src=""stim_listB/touch8.gif""style=""height:400px;""></stim_listB>",are touching each other,
null,"<div style=""font-size:60px;"">+</div>",,html-keyboard-response,442,3760875,0.0-19.0-0.19,39229,List2B,black,woman,,,,null,,,,
null,"<img src=""stim_listB/kiss3.gif""style=""height:400px;""></stim_listB>",,html-keyboard-response,443,3762877,0.0-19.0-1.19,39229,List2B,black,woman,,,,null,,,,
null,is kissing,,html-keyboard-response,444,3764880,0.0-19.0-2.19,39229,List2B,black,woman,,,,null,,,,
9848,,,survey-text,445,3774729,0.0-19.0-3.19,39229,List2B,black,woman,,,,,"{""Q0"":""fred is kissing beth""}","<img src=""stim_listB/kiss3.gif""style=""height:400px;""></stim_listB>",is kissing,
3974,<p>Thank you for completing that task.</p><p>The final part of this session is a short questionnaire.</p><p>Press Continue.</p>,0,html-button-response,446,3778705,0.0-20.0,39229,List2B,black,woman,,,,,,,,
41829,,,survey-text,447,3821537,0.0-21.0,39229,List2B,black,woman,,,,,"{""Q0"":""63"",""Q1"":""English"",""Q2"":""English"",""Q3"":""United States"",""Q4"":""African-AAmerican"",""Q5"":""Female""}",,,demographics
12417,,,survey-likert,448,3833959,0.0-22.0,39229,List2B,black,woman,,,,,"{""Q0"":4}",,,likert_ESS
13466,,,survey-likert,449,3847453,0.0-23.0,39229,List2B,black,woman,,,,,"{""Q0"":4}",,,likert_NSSAL_Q1
7461,,,survey-likert,450,3854946,0.0-24.0,39229,List2B,black,woman,,,,,"{""Q0"":4}",,,likert_NSSAL_Q2
6054,,,survey-likert,451,3861036,0.0-25.0,39229,List2B,black,woman,,,,,"{""Q0"":4}",,,likert_CGRS_Q1
4226,,,survey-likert,452,3865299,0.0-26.0,39229,List2B,black,woman,,,,,"{""Q0"":4}",,,likert_CGRS_Q2
4920,,,survey-likert,453,3870252,0.0-27.0,39229,List2B,black,woman,,,,,"{""Q0"":4}",,,likert_CGRS_Q3
27044,,,survey-text,454,3897329,0.0-28.0,39229,List2B,black,woman,,,,,"{""Q0"":""ccc""}",,,worker_id
13083,,,external-html,455,3910984,0.0-29.0,39229,List2B,black,woman,debrief.html,,,,,,,
