rt,stimulus,button_pressed,trial_type,trial_index,time_elapsed,internal_node_id,subject,list,ppt_race,ppt_gender,url,first_guess,correct,key_press,responses,image_type,phrase_type,test_part
5323,Welcome to the experiment. Press Continue to begin.,0,html-button-response,0,5327,0.0-0.0,39958,List1B,white,man,,,,,,,,
5476,,,external-html,1,13641,0.0-1.0,39958,List1B,white,man,consent.html,,,,,,,
1257,"<p>On the next page, you will see portraits of 8 people and their names.</p><p>Your first task is to take a few minutes to memorise the names of these people.</p><p>You will have to recall their names during the rest of the experiment, so it is</p><p>essential that you try to memorise these people and their names as best as you can.</p><br><p><strong>You will then be tested on your memory of these names and portraits.</strong></p><br><p>The experiment will start after you have completed this memory test.</p><br><p>Ready?</p>",0,html-button-response,2,14901,0.0-2.0,39958,List1B,white,man,,,,,,,,
45261,"<img src='img/portrait_matrix_list1.jpg' style='width:900px;height:500px;''></img><p>If you have memorised all the portraits and names and are ready to start, press Continue.</p><p><strong>Please note: Your memory of these faces will be tested 4 times during this experiment.</strong></p>",0,html-button-response,3,61171,0.0-3.0-0.0,39958,List1B,white,man,,,,,,,,
3952,"<img src=""portrait/BM2.jpg""style=""height:400px;""></img>",5,html-button-response,4,66129,0.0-3.0-1.0,39958,List1B,white,man,,TRUE,5,,,,,
null,CORRECT,,html-keyboard-response,5,67671,0.0-3.0-2.0-0.0,39958,List1B,white,man,,,,null,,,,
4283,"<img src=""portrait/WW2.jpg""style=""height:400px;""></img>",3,html-button-response,6,71957,0.0-3.0-4.0,39958,List1B,white,man,,TRUE,3,,,,,
null,CORRECT,,html-keyboard-response,7,73489,0.0-3.0-5.0-0.0,39958,List1B,white,man,,,,null,,,,
8500,"<img src=""portrait/WM2.jpg""style=""height:400px;""></img>",7,html-button-response,8,81993,0.0-3.0-7.0,39958,List1B,white,man,,TRUE,7,,,,,
null,CORRECT,,html-keyboard-response,9,83508,0.0-3.0-8.0-0.0,39958,List1B,white,man,,,,null,,,,
3980,"<img src=""portrait/WM1.jpg""style=""height:400px;""></img>",6,html-button-response,10,87493,0.0-3.0-10.0,39958,List1B,white,man,,TRUE,6,,,,,
null,CORRECT,,html-keyboard-response,11,89018,0.0-3.0-11.0-0.0,39958,List1B,white,man,,,,null,,,,
2770,"<img src=""portrait/BW2.jpg""style=""height:400px;""></img>",0,html-button-response,12,91789,0.0-3.0-13.0,39958,List1B,white,man,,TRUE,2,,,,,
7051,"<img src=""portrait/BW2.jpg""style=""height:400px;""></img>",2,html-button-response,13,99860,0.0-3.0-15.0-0.0,39958,List1B,white,man,,FALSE,2,,,,,
null,CORRECT,,html-keyboard-response,14,101399,0.0-3.0-15.0-1.0-0.0,39958,List1B,white,man,,,,null,,,,
4159,"<img src=""portrait/WW1.jpg""style=""height:400px;""></img>",1,html-button-response,15,105561,0.0-3.0-16.0,39958,List1B,white,man,,TRUE,1,,,,,
null,CORRECT,,html-keyboard-response,16,107089,0.0-3.0-17.0-0.0,39958,List1B,white,man,,,,null,,,,
4486,"<img src=""portrait/BW1.jpg""style=""height:400px;""></img>",0,html-button-response,17,111577,0.0-3.0-19.0,39958,List1B,white,man,,TRUE,0,,,,,
null,CORRECT,,html-keyboard-response,18,113109,0.0-3.0-20.0-0.0,39958,List1B,white,man,,,,null,,,,
4263,"<img src=""portrait/BM1.jpg""style=""height:400px;""></img>",4,html-button-response,19,117377,0.0-3.0-22.0,39958,List1B,white,man,,TRUE,4,,,,,
26,CORRECT,,html-keyboard-response,20,118888,0.0-3.0-23.0-0.0,39958,List1B,white,man,,,,182,,,,
1849,<p>You got 7 out of 8 right first time. Press Continue.</p>,0,html-button-response,21,120737,0.0-3.0-25.0,39958,List1B,white,man,,,,,,,,
2396,"As you did not score 100%, the memory game will repeat. Press Continue.",0,html-button-response,22,124145,0.0-3.0-26.0-0.0,39958,List1B,white,man,,,,,,,,
3018,"<img src='img/portrait_matrix_list1.jpg' style='width:900px;height:500px;''></img><p>If you have memorised all the portraits and names and are ready to start, press Continue.</p><p><strong>Please note: Your memory of these faces will be tested 4 times during this experiment.</strong></p>",0,html-button-response,23,128172,0.0-3.1-0.1,39958,List1B,white,man,,,,,,,,
3083,"<img src=""portrait/BM2.jpg""style=""height:400px;""></img>",5,html-button-response,24,132273,0.0-3.1-1.1,39958,List1B,white,man,,TRUE,5,,,,,
null,CORRECT,,html-keyboard-response,25,133798,0.0-3.1-2.1-0.1,39958,List1B,white,man,,,,null,,,,
3441,"<img src=""portrait/WW2.jpg""style=""height:400px;""></img>",3,html-button-response,26,137241,0.0-3.1-4.1,39958,List1B,white,man,,TRUE,3,,,,,
null,CORRECT,,html-keyboard-response,27,138779,0.0-3.1-5.1-0.1,39958,List1B,white,man,,,,null,,,,
8517,"<img src=""portrait/WM2.jpg""style=""height:400px;""></img>",7,html-button-response,28,147299,0.0-3.1-7.1,39958,List1B,white,man,,TRUE,7,,,,,
null,CORRECT,,html-keyboard-response,29,148839,0.0-3.1-8.1-0.1,39958,List1B,white,man,,,,null,,,,
2125,"<img src=""portrait/WM1.jpg""style=""height:400px;""></img>",6,html-button-response,30,150965,0.0-3.1-10.1,39958,List1B,white,man,,TRUE,6,,,,,
null,CORRECT,,html-keyboard-response,31,152499,0.0-3.1-11.1-0.1,39958,List1B,white,man,,,,null,,,,
3787,"<img src=""portrait/BW2.jpg""style=""height:400px;""></img>",2,html-button-response,32,156290,0.0-3.1-13.1,39958,List1B,white,man,,TRUE,2,,,,,
null,CORRECT,,html-keyboard-response,33,157830,0.0-3.1-14.1-0.1,39958,List1B,white,man,,,,null,,,,
3746,"<img src=""portrait/WW1.jpg""style=""height:400px;""></img>",1,html-button-response,34,161577,0.0-3.1-16.1,39958,List1B,white,man,,TRUE,1,,,,,
null,CORRECT,,html-keyboard-response,35,163108,0.0-3.1-17.1-0.1,39958,List1B,white,man,,,,null,,,,
3318,"<img src=""portrait/BW1.jpg""style=""height:400px;""></img>",0,html-button-response,36,166429,0.0-3.1-19.1,39958,List1B,white,man,,TRUE,0,,,,,
null,CORRECT,,html-keyboard-response,37,167969,0.0-3.1-20.1-0.1,39958,List1B,white,man,,,,null,,,,
3867,"<img src=""portrait/BM1.jpg""style=""height:400px;""></img>",4,html-button-response,38,171837,0.0-3.1-22.1,39958,List1B,white,man,,TRUE,4,,,,,
null,CORRECT,,html-keyboard-response,39,173359,0.0-3.1-23.1-0.1,39958,List1B,white,man,,,,null,,,,
1460,<p>You got 8 out of 8 right first time. Press Continue.</p>,0,html-button-response,40,174820,0.0-3.1-25.1,39958,List1B,white,man,,,,,,,,
21060,"<p>In this experiment, you will view photographs of the people from the memory game interacting.</p><p>By using the <strong>exact</strong> phrase given <i>after</i> the photograph appears and recalling the correct names of the people in the photographs, form a sentence describing the interaction. You do not need to capitalise names.</p><p>Type your answer in the space provided. Please complete every sentence before moving onto the next trial.</p><p>You will only have a few seconds to memorise each given photograph and phrase before you can respond, so try your best to focus.</p><p>An example is given below. Press 'Continue' when you are ready.</p><img src='img/speaking_example.jpg' style='width:800px;height:460px;''></img>",0,html-button-response,41,196900,0.0-4.0,39958,List1B,white,man,,,,,,,,
2252,"<p>Before the experiment starts, you will watch two example trials. Press 'Continue'.</p>",0,html-button-response,42,200173,0.0-5.0,39958,List1B,white,man,,,,,,,,
null,<img src='img/meet_eg.gif' style='height:400px;''></img>,,html-keyboard-response,43,203189,0.0-6.0,39958,List1B,white,man,,,,null,,,,
null,<p>is meeting</p>,,html-keyboard-response,44,205199,0.0-7.0,39958,List1B,white,man,,,,null,,,,
3121,<p><b>Answer:</b> kate is meeting beth</p>,0,html-button-response,45,208321,0.0-8.0,39958,List1B,white,man,,,,,,,,
null,<img src='img/look_eg.gif' style='height:400px;''></img>,,html-keyboard-response,46,211329,0.0-9.0,39958,List1B,white,man,,,,null,,,,
null,<p>are looking at each other</p>,,html-keyboard-response,47,213349,0.0-10.0,39958,List1B,white,man,,,,null,,,,
2260,<p><b>Answer:</b> luke and dave are looking at each other</p>,0,html-button-response,48,215609,0.0-11.0,39958,List1B,white,man,,,,,,,,
8706,"<p>Ready to start the experiment?</p><br><p><strong>Remember to describe the picture using a full sentence,</strong></p><p><strong>that combines the names of the people with the <i>exact</i> phrase given.</strong></p><p><strong>To receive full payment you must do this correctly.</strong></p><p><strong> You do not need to capitalise names or use punctuation.</strong></p><br><p>Press 'Continue' to begin.</p>",0,html-button-response,49,225325,0.0-12.0,39958,List1B,white,man,,,,,,,,
null,"<div style=""font-size:60px;"">+</div>",,html-keyboard-response,50,226849,0.0-13.0-0.0,39958,List1B,white,man,,,,null,,,,
null,"<img src=""stim_listB/talk5.gif""style=""height:400px;""></stim_listB>",,html-keyboard-response,51,228859,0.0-13.0-1.0,39958,List1B,white,man,,,,null,,,,
null,is talking to,,html-keyboard-response,52,230865,0.0-13.0-2.0,39958,List1B,white,man,,,,null,,,,
8043,,,survey-text,53,238910,0.0-13.0-3.0,39958,List1B,white,man,,,,,"{""Q0"":""fred is talking to dave""}","<img src=""stim_listB/talk5.gif""style=""height:400px;""></stim_listB>",is talking to,
null,"<div style=""font-size:60px;"">+</div>",,html-keyboard-response,54,239430,0.0-13.0-0.1,39958,List1B,white,man,,,,null,,,,
null,"<img src=""stim_listB/argue2.gif""style=""height:400px;""></stim_listB>",,html-keyboard-response,55,241449,0.0-13.0-1.1,39958,List1B,white,man,,,,null,,,,
null,are arguing with each other,,html-keyboard-response,56,243469,0.0-13.0-2.1,39958,List1B,white,man,,,,null,,,,
13714,,,survey-text,57,257185,0.0-13.0-3.1,39958,List1B,white,man,,,,,"{""Q0"":""fred and kate are arguing with each other""}","<img src=""stim_listB/argue2.gif""style=""height:400px;""></stim_listB>",are arguing with each other,
null,"<div style=""font-size:60px;"">+</div>",,html-keyboard-response,58,257688,0.0-13.0-0.2,39958,List1B,white,man,,,,null,,,,
null,"<img src=""stim_listB/marry4.gif""style=""height:400px;""></stim_listB>",,html-keyboard-response,59,259709,0.0-13.0-1.2,39958,List1B,white,man,,,,null,,,,
null,are marrying each other,,html-keyboard-response,60,261730,0.0-13.0-2.2,39958,List1B,white,man,,,,null,,,,
19668,,,survey-text,61,281399,0.0-13.0-3.2,39958,List1B,white,man,,,,,"{""Q0"":""luke and jane are marrying each other""}","<img src=""stim_listB/marry4.gif""style=""height:400px;""></stim_listB>",are marrying each other,
null,"<div style=""font-size:60px;"">+</div>",,html-keyboard-response,62,281919,0.0-13.0-0.3,39958,List1B,white,man,,,,null,,,,
null,"<img src=""stim_listB/talk3.gif""style=""height:400px;""></stim_listB>",,html-keyboard-response,63,283930,0.0-13.0-1.3,39958,List1B,white,man,,,,null,,,,
null,is talking to,,html-keyboard-response,64,285939,0.0-13.0-2.3,39958,List1B,white,man,,,,null,,,,
9161,,,survey-text,65,295100,0.0-13.0-3.3,39958,List1B,white,man,,,,,"{""Q0"":""luke is talking to jane""}","<img src=""stim_listB/talk3.gif""style=""height:400px;""></stim_listB>",is talking to,
null,"<div style=""font-size:60px;"">+</div>",,html-keyboard-response,66,295619,0.0-13.0-0.4,39958,List1B,white,man,,,,null,,,,
null,"<img src=""stim_listB/argue6.gif""style=""height:400px;""></stim_listB>",,html-keyboard-response,67,297639,0.0-13.0-1.4,39958,List1B,white,man,,,,null,,,,
null,are arguing with each other,,html-keyboard-response,68,299659,0.0-13.0-2.4,39958,List1B,white,man,,,,null,,,,
12565,,,survey-text,69,312225,0.0-13.0-3.4,39958,List1B,white,man,,,,,"{""Q0"":""fred and dave are arguing with each other""}","<img src=""stim_listB/argue6.gif""style=""height:400px;""></stim_listB>",are arguing with each other,
null,"<div style=""font-size:60px;"">+</div>",,html-keyboard-response,70,312738,0.0-13.0-0.5,39958,List1B,white,man,,,,null,,,,
null,"<img src=""stim_listB/marry1.gif""style=""height:400px;""></stim_listB>",,html-keyboard-response,71,314748,0.0-13.0-1.5,39958,List1B,white,man,,,,null,,,,
null,is marrying,,html-keyboard-response,72,316768,0.0-13.0-2.5,39958,List1B,white,man,,,,null,,,,
14999,,,survey-text,73,331769,0.0-13.0-3.5,39958,List1B,white,man,,,,,"{""Q0"":""mike is marrying beth""}","<img src=""stim_listB/marry1.gif""style=""height:400px;""></stim_listB>",is marrying,
null,"<div style=""font-size:60px;"">+</div>",,html-keyboard-response,74,332289,0.0-13.0-0.6,39958,List1B,white,man,,,,null,,,,
null,"<img src=""stim_listB/shout5.gif""style=""height:400px;""></stim_listB>",,html-keyboard-response,75,334306,0.0-13.0-1.6,39958,List1B,white,man,,,,null,,,,
null,is shouting at,,html-keyboard-response,76,336309,0.0-13.0-2.6,39958,List1B,white,man,,,,null,,,,
9444,,,survey-text,77,345754,0.0-13.0-3.6,39958,List1B,white,man,,,,,"{""Q0"":""luke is shouting at fred""}","<img src=""stim_listB/shout5.gif""style=""height:400px;""></stim_listB>",is shouting at,
null,"<div style=""font-size:60px;"">+</div>",,html-keyboard-response,78,346270,0.0-13.0-0.7,39958,List1B,white,man,,,,null,,,,
null,"<img src=""stim_listB/marry7.gif""style=""height:400px;""></stim_listB>",,html-keyboard-response,79,348279,0.0-13.0-1.7,39958,List1B,white,man,,,,null,,,,
null,is marrying,,html-keyboard-response,80,350298,0.0-13.0-2.7,39958,List1B,white,man,,,,null,,,,
10594,,,survey-text,81,360893,0.0-13.0-3.7,39958,List1B,white,man,,,,,"{""Q0"":""ruth is marrying kate""}","<img src=""stim_listB/marry7.gif""style=""height:400px;""></stim_listB>",is marrying,
null,"<div style=""font-size:60px;"">+</div>",,html-keyboard-response,82,361410,0.0-13.0-0.8,39958,List1B,white,man,,,,null,,,,
null,"<img src=""stim_listB/play5.gif""style=""height:400px;""></stim_listB>",,html-keyboard-response,83,363418,0.0-13.0-1.8,39958,List1B,white,man,,,,null,,,,
null,is playing with,,html-keyboard-response,84,365439,0.0-13.0-2.8,39958,List1B,white,man,,,,null,,,,
14324,,,survey-text,85,379766,0.0-13.0-3.8,39958,List1B,white,man,,,,,"{""Q0"":""dave is playing with mike""}","<img src=""stim_listB/play5.gif""style=""height:400px;""></stim_listB>",is playing with,
null,"<div style=""font-size:60px;"">+</div>",,html-keyboard-response,86,380276,0.0-13.0-0.9,39958,List1B,white,man,,,,null,,,,
null,"<img src=""stim_listB/shout2.gif""style=""height:400px;""></stim_listB>",,html-keyboard-response,87,382288,0.0-13.0-1.9,39958,List1B,white,man,,,,null,,,,
null,are shouting at each other,,html-keyboard-response,88,384298,0.0-13.0-2.9,39958,List1B,white,man,,,,null,,,,
13541,,,survey-text,89,397841,0.0-13.0-3.9,39958,List1B,white,man,,,,,"{""Q0"":""kate and mike are shouting at each other""}","<img src=""stim_listB/shout2.gif""style=""height:400px;""></stim_listB>",are shouting at each other,
null,"<div style=""font-size:60px;"">+</div>",,html-keyboard-response,90,398361,0.0-13.0-0.10,39958,List1B,white,man,,,,null,,,,
null,"<img src=""stim_listB/play6.gif""style=""height:400px;""></stim_listB>",,html-keyboard-response,91,400365,0.0-13.0-1.10,39958,List1B,white,man,,,,null,,,,
null,are playing with each other,,html-keyboard-response,92,402379,0.0-13.0-2.10,39958,List1B,white,man,,,,null,,,,
13560,,,survey-text,93,415940,0.0-13.0-3.10,39958,List1B,white,man,,,,,"{""Q0"":""fred and luke are playing with each other""}","<img src=""stim_listB/play6.gif""style=""height:400px;""></stim_listB>",are playing with each other,
null,"<div style=""font-size:60px;"">+</div>",,html-keyboard-response,94,416448,0.0-13.0-0.11,39958,List1B,white,man,,,,null,,,,
null,"<img src=""stim_listB/dance7.gif""style=""height:400px;""></stim_listB>",,html-keyboard-response,95,418459,0.0-13.0-1.11,39958,List1B,white,man,,,,null,,,,
null,is dancing with,,html-keyboard-response,96,420479,0.0-13.0-2.11,39958,List1B,white,man,,,,null,,,,
13291,,,survey-text,97,433772,0.0-13.0-3.11,39958,List1B,white,man,,,,,"{""Q0"":""jane is dancing with beth""}","<img src=""stim_listB/dance7.gif""style=""height:400px;""></stim_listB>",is dancing with,
null,"<div style=""font-size:60px;"">+</div>",,html-keyboard-response,98,434289,0.0-13.0-0.12,39958,List1B,white,man,,,,null,,,,
null,"<img src=""stim_listB/flirt7.gif""style=""height:400px;""></stim_listB>",,html-keyboard-response,99,436299,0.0-13.0-1.12,39958,List1B,white,man,,,,null,,,,
null,is flirting with,,html-keyboard-response,100,438317,0.0-13.0-2.12,39958,List1B,white,man,,,,null,,,,
13037,,,survey-text,101,451358,0.0-13.0-3.12,39958,List1B,white,man,,,,,"{""Q0"":""jane is flirting with beth""}","<img src=""stim_listB/flirt7.gif""style=""height:400px;""></stim_listB>",is flirting with,
null,"<div style=""font-size:60px;"">+</div>",,html-keyboard-response,102,451869,0.0-13.0-0.13,39958,List1B,white,man,,,,null,,,,
null,"<img src=""stim_listB/touch4.gif""style=""height:400px;""></stim_listB>",,html-keyboard-response,103,453878,0.0-13.0-1.13,39958,List1B,white,man,,,,null,,,,
null,are touching each other,,html-keyboard-response,104,455881,0.0-13.0-2.13,39958,List1B,white,man,,,,null,,,,
20704,,,survey-text,105,476585,0.0-13.0-3.13,39958,List1B,white,man,,,,,"{""Q0"":""luke and ruth are touching each other""}","<img src=""stim_listB/touch4.gif""style=""height:400px;""></stim_listB>",are touching each other,
null,"<div style=""font-size:60px;"">+</div>",,html-keyboard-response,106,477099,0.0-13.0-0.14,39958,List1B,white,man,,,,null,,,,
null,"<img src=""stim_listB/fight3.gif""style=""height:400px;""></stim_listB>",,html-keyboard-response,107,479118,0.0-13.0-1.14,39958,List1B,white,man,,,,null,,,,
null,is fighting,,html-keyboard-response,108,481138,0.0-13.0-2.14,39958,List1B,white,man,,,,null,,,,
16858,,,survey-text,109,497997,0.0-13.0-3.14,39958,List1B,white,man,,,,,"{""Q0"":""dave and dave are fighting each other""}","<img src=""stim_listB/fight3.gif""style=""height:400px;""></stim_listB>",is fighting,
null,"<div style=""font-size:60px;"">+</div>",,html-keyboard-response,110,498510,0.0-13.0-0.15,39958,List1B,white,man,,,,null,,,,
null,"<img src=""stim_listB/kiss3.gif""style=""height:400px;""></stim_listB>",,html-keyboard-response,111,500513,0.0-13.0-1.15,39958,List1B,white,man,,,,null,,,,
null,is kissing,,html-keyboard-response,112,502529,0.0-13.0-2.15,39958,List1B,white,man,,,,null,,,,
7855,,,survey-text,113,510385,0.0-13.0-3.15,39958,List1B,white,man,,,,,"{""Q0"":""ruth is kissing luke""}","<img src=""stim_listB/kiss3.gif""style=""height:400px;""></stim_listB>",is kissing,
null,"<div style=""font-size:60px;"">+</div>",,html-keyboard-response,114,510900,0.0-13.0-0.16,39958,List1B,white,man,,,,null,,,,
null,"<img src=""stim_listB/dance1.gif""style=""height:400px;""></stim_listB>",,html-keyboard-response,115,512919,0.0-13.0-1.16,39958,List1B,white,man,,,,null,,,,
null,is dancing with,,html-keyboard-response,116,514919,0.0-13.0-2.16,39958,List1B,white,man,,,,null,,,,
7989,,,survey-text,117,522910,0.0-13.0-3.16,39958,List1B,white,man,,,,,"{""Q0"":""fred is dancing with kate""}","<img src=""stim_listB/dance1.gif""style=""height:400px;""></stim_listB>",is dancing with,
null,"<div style=""font-size:60px;"">+</div>",,html-keyboard-response,118,523413,0.0-13.0-0.17,39958,List1B,white,man,,,,null,,,,
null,"<img src=""stim_listB/talk4.gif""style=""height:400px;""></stim_listB>",,html-keyboard-response,119,525428,0.0-13.0-1.17,39958,List1B,white,man,,,,null,,,,
null,are talking to each other,,html-keyboard-response,120,527450,0.0-13.0-2.17,39958,List1B,white,man,,,,null,,,,
8693,,,survey-text,121,536145,0.0-13.0-3.17,39958,List1B,white,man,,,,,"{""Q0"":""dave is talking to ruth""}","<img src=""stim_listB/talk4.gif""style=""height:400px;""></stim_listB>",are talking to each other,
null,"<div style=""font-size:60px;"">+</div>",,html-keyboard-response,122,536659,0.0-13.0-0.18,39958,List1B,white,man,,,,null,,,,
null,"<img src=""stim_listB/shout3.gif""style=""height:400px;""></stim_listB>",,html-keyboard-response,123,538679,0.0-13.0-1.18,39958,List1B,white,man,,,,null,,,,
null,is shouting at,,html-keyboard-response,124,540699,0.0-13.0-2.18,39958,List1B,white,man,,,,null,,,,
15033,,,survey-text,125,555733,0.0-13.0-3.18,39958,List1B,white,man,,,,,"{""Q0"":""ruth is shouting at luke""}","<img src=""stim_listB/shout3.gif""style=""height:400px;""></stim_listB>",is shouting at,
null,"<div style=""font-size:60px;"">+</div>",,html-keyboard-response,126,556245,0.0-13.0-0.19,39958,List1B,white,man,,,,null,,,,
null,"<img src=""stim_listB/marry8.gif""style=""height:400px;""></stim_listB>",,html-keyboard-response,127,558258,0.0-13.0-1.19,39958,List1B,white,man,,,,null,,,,
null,are marrying each other,,html-keyboard-response,128,560270,0.0-13.0-2.19,39958,List1B,white,man,,,,null,,,,
12830,,,survey-text,129,573101,0.0-13.0-3.19,39958,List1B,white,man,,,,,"{""Q0"":""beth and jane are marrying each other""}","<img src=""stim_listB/marry8.gif""style=""height:400px;""></stim_listB>",are marrying each other,
12107,"<img src='img/portrait_matrix_list1.jpg' style='width:900px;height:500px;''></img><p>If you have memorised all the portraits and names and are ready to start, press Continue.</p><p><strong>Please note: Your memory of these faces will be tested 4 times during this experiment.</strong></p>",0,html-button-response,130,585209,0.0-14.0-0.0,39958,List1B,white,man,,,,,,,,
2394,"<img src=""portrait/WM1.jpg""style=""height:400px;""></img>",6,html-button-response,131,588621,0.0-14.0-1.0,39958,List1B,white,man,,TRUE,6,,,,,
null,CORRECT,,html-keyboard-response,132,590149,0.0-14.0-2.0-0.0,39958,List1B,white,man,,,,null,,,,
1966,"<img src=""portrait/BM2.jpg""style=""height:400px;""></img>",5,html-button-response,133,592116,0.0-14.0-4.0,39958,List1B,white,man,,TRUE,5,,,,,
null,CORRECT,,html-keyboard-response,134,593639,0.0-14.0-5.0-0.0,39958,List1B,white,man,,,,null,,,,
4843,"<img src=""portrait/WM2.jpg""style=""height:400px;""></img>",7,html-button-response,135,598485,0.0-14.0-7.0,39958,List1B,white,man,,TRUE,7,,,,,
null,CORRECT,,html-keyboard-response,136,600019,0.0-14.0-8.0-0.0,39958,List1B,white,man,,,,null,,,,
1851,"<img src=""portrait/BM1.jpg""style=""height:400px;""></img>",4,html-button-response,137,601874,0.0-14.0-10.0,39958,List1B,white,man,,TRUE,4,,,,,
null,CORRECT,,html-keyboard-response,138,603399,0.0-14.0-11.0-0.0,39958,List1B,white,man,,,,null,,,,
1700,"<img src=""portrait/BW2.jpg""style=""height:400px;""></img>",2,html-button-response,139,605101,0.0-14.0-13.0,39958,List1B,white,man,,TRUE,2,,,,,
null,CORRECT,,html-keyboard-response,140,606639,0.0-14.0-14.0-0.0,39958,List1B,white,man,,,,null,,,,
1580,"<img src=""portrait/WW2.jpg""style=""height:400px;""></img>",3,html-button-response,141,608220,0.0-14.0-16.0,39958,List1B,white,man,,TRUE,3,,,,,
null,CORRECT,,html-keyboard-response,142,609759,0.0-14.0-17.0-0.0,39958,List1B,white,man,,,,null,,,,
5325,"<img src=""portrait/BW1.jpg""style=""height:400px;""></img>",0,html-button-response,143,615085,0.0-14.0-19.0,39958,List1B,white,man,,TRUE,0,,,,,
null,CORRECT,,html-keyboard-response,144,616620,0.0-14.0-20.0-0.0,39958,List1B,white,man,,,,null,,,,
2971,"<img src=""portrait/WW1.jpg""style=""height:400px;""></img>",1,html-button-response,145,619593,0.0-14.0-22.0,39958,List1B,white,man,,TRUE,1,,,,,
null,CORRECT,,html-keyboard-response,146,621118,0.0-14.0-23.0-0.0,39958,List1B,white,man,,,,null,,,,
5048,<p>You got 8 out of 8 right first time. Press Continue.</p>,0,html-button-response,147,626170,0.0-14.0-25.0,39958,List1B,white,man,,,,,,,,
null,"<div style=""font-size:60px;"">+</div>",,html-keyboard-response,148,627696,0.0-15.0-0.0,39958,List1B,white,man,,,,null,,,,
null,"<img src=""stim_listB/kiss1.gif""style=""height:400px;""></stim_listB>",,html-keyboard-response,149,629699,0.0-15.0-1.0,39958,List1B,white,man,,,,null,,,,
null,is kissing,,html-keyboard-response,150,631719,0.0-15.0-2.0,39958,List1B,white,man,,,,null,,,,
7157,,,survey-text,151,638878,0.0-15.0-3.0,39958,List1B,white,man,,,,,"{""Q0"":""fred is kissing beth""}","<img src=""stim_listB/kiss1.gif""style=""height:400px;""></stim_listB>",is kissing,
null,"<div style=""font-size:60px;"">+</div>",,html-keyboard-response,152,639389,0.0-15.0-0.1,39958,List1B,white,man,,,,null,,,,
null,"<img src=""stim_listB/touch2.gif""style=""height:400px;""></stim_listB>",,html-keyboard-response,153,641409,0.0-15.0-1.1,39958,List1B,white,man,,,,null,,,,
null,are touching each other,,html-keyboard-response,154,643429,0.0-15.0-2.1,39958,List1B,white,man,,,,null,,,,
16787,,,survey-text,155,660217,0.0-15.0-3.1,39958,List1B,white,man,,,,,"{""Q0"":""fread and beth are touching each other""}","<img src=""stim_listB/touch2.gif""style=""height:400px;""></stim_listB>",are touching each other,
null,"<div style=""font-size:60px;"">+</div>",,html-keyboard-response,156,660719,0.0-15.0-0.2,39958,List1B,white,man,,,,null,,,,
null,"<img src=""stim_listB/kiss7.gif""style=""height:400px;""></stim_listB>",,html-keyboard-response,157,662738,0.0-15.0-1.2,39958,List1B,white,man,,,,null,,,,
null,is kissing,,html-keyboard-response,158,664754,0.0-15.0-2.2,39958,List1B,white,man,,,,null,,,,
12877,,,survey-text,159,677632,0.0-15.0-3.2,39958,List1B,white,man,,,,,"{""Q0"":""ruth is kissing beth""}","<img src=""stim_listB/kiss7.gif""style=""height:400px;""></stim_listB>",is kissing,
null,"<div style=""font-size:60px;"">+</div>",,html-keyboard-response,160,678149,0.0-15.0-0.3,39958,List1B,white,man,,,,null,,,,
null,"<img src=""stim_listB/flirt5.gif""style=""height:400px;""></stim_listB>",,html-keyboard-response,161,680169,0.0-15.0-1.3,39958,List1B,white,man,,,,null,,,,
null,is flirting with,,html-keyboard-response,162,682181,0.0-15.0-2.3,39958,List1B,white,man,,,,null,,,,
8894,,,survey-text,163,691077,0.0-15.0-3.3,39958,List1B,white,man,,,,,"{""Q0"":""fred is flirting with dave""}","<img src=""stim_listB/flirt5.gif""style=""height:400px;""></stim_listB>",is flirting with,
null,"<div style=""font-size:60px;"">+</div>",,html-keyboard-response,164,691588,0.0-15.0-0.4,39958,List1B,white,man,,,,null,,,,
null,"<img src=""stim_listB/play1.gif""style=""height:400px;""></stim_listB>",,html-keyboard-response,165,693608,0.0-15.0-1.4,39958,List1B,white,man,,,,null,,,,
null,is playing with,,html-keyboard-response,166,695614,0.0-15.0-2.4,39958,List1B,white,man,,,,null,,,,
11686,,,survey-text,167,707301,0.0-15.0-3.4,39958,List1B,white,man,,,,,"{""Q0"":""kate is playing with mike""}","<img src=""stim_listB/play1.gif""style=""height:400px;""></stim_listB>",is playing with,
null,"<div style=""font-size:60px;"">+</div>",,html-keyboard-response,168,707808,0.0-15.0-0.5,39958,List1B,white,man,,,,null,,,,
null,"<img src=""stim_listB/flirt2.gif""style=""height:400px;""></stim_listB>",,html-keyboard-response,169,709829,0.0-15.0-1.5,39958,List1B,white,man,,,,null,,,,
null,are flirting with each other,,html-keyboard-response,170,711848,0.0-15.0-2.5,39958,List1B,white,man,,,,null,,,,
10380,,,survey-text,171,722229,0.0-15.0-3.5,39958,List1B,white,man,,,,,"{""Q0"":""mike and ruth are flirting with each other""}","<img src=""stim_listB/flirt2.gif""style=""height:400px;""></stim_listB>",are flirting with each other,
null,"<div style=""font-size:60px;"">+</div>",,html-keyboard-response,172,722738,0.0-15.0-0.6,39958,List1B,white,man,,,,null,,,,
null,"<img src=""stim_listB/marry6.gif""style=""height:400px;""></stim_listB>",,html-keyboard-response,173,724748,0.0-15.0-1.6,39958,List1B,white,man,,,,null,,,,
null,are marrying each other,,html-keyboard-response,174,726749,0.0-15.0-2.6,39958,List1B,white,man,,,,null,,,,
9967,,,survey-text,175,736717,0.0-15.0-3.6,39958,List1B,white,man,,,,,"{""Q0"":""fred and dave are marrying each other""}","<img src=""stim_listB/marry6.gif""style=""height:400px;""></stim_listB>",are marrying each other,
null,"<div style=""font-size:60px;"">+</div>",,html-keyboard-response,176,737218,0.0-15.0-0.7,39958,List1B,white,man,,,,null,,,,
null,"<img src=""stim_listB/shout1.gif""style=""height:400px;""></stim_listB>",,html-keyboard-response,177,739239,0.0-15.0-1.7,39958,List1B,white,man,,,,null,,,,
null,is shouting at,,html-keyboard-response,178,741259,0.0-15.0-2.7,39958,List1B,white,man,,,,null,,,,
8749,,,survey-text,179,750009,0.0-15.0-3.7,39958,List1B,white,man,,,,,"{""Q0"":""fred is shouting at beth""}","<img src=""stim_listB/shout1.gif""style=""height:400px;""></stim_listB>",is shouting at,
null,"<div style=""font-size:60px;"">+</div>",,html-keyboard-response,180,750528,0.0-15.0-0.8,39958,List1B,white,man,,,,null,,,,
null,"<img src=""stim_listB/flirt4.gif""style=""height:400px;""></stim_listB>",,html-keyboard-response,181,752539,0.0-15.0-1.8,39958,List1B,white,man,,,,null,,,,
null,are flirting with each other,,html-keyboard-response,182,754549,0.0-15.0-2.8,39958,List1B,white,man,,,,null,,,,
15647,,,survey-text,183,770198,0.0-15.0-3.8,39958,List1B,white,man,,,,,"{""Q0"":""dave and ruth are flirting with each other""}","<img src=""stim_listB/flirt4.gif""style=""height:400px;""></stim_listB>",are flirting with each other,
null,"<div style=""font-size:60px;"">+</div>",,html-keyboard-response,184,770718,0.0-15.0-0.9,39958,List1B,white,man,,,,null,,,,
null,"<img src=""stim_listB/marry5.gif""style=""height:400px;""></stim_listB>",,html-keyboard-response,185,772729,0.0-15.0-1.9,39958,List1B,white,man,,,,null,,,,
null,is marrying,,html-keyboard-response,186,774735,0.0-15.0-2.9,39958,List1B,white,man,,,,null,,,,
6564,,,survey-text,187,781300,0.0-15.0-3.9,39958,List1B,white,man,,,,,"{""Q0"":""luke is marrying mike""}","<img src=""stim_listB/marry5.gif""style=""height:400px;""></stim_listB>",is marrying,
null,"<div style=""font-size:60px;"">+</div>",,html-keyboard-response,188,781819,0.0-15.0-0.10,39958,List1B,white,man,,,,null,,,,
null,"<img src=""stim_listB/talk7.gif""style=""height:400px;""></stim_listB>",,html-keyboard-response,189,783839,0.0-15.0-1.10,39958,List1B,white,man,,,,null,,,,
null,is talking to,,html-keyboard-response,190,785860,0.0-15.0-2.10,39958,List1B,white,man,,,,null,,,,
12134,,,survey-text,191,797998,0.0-15.0-3.10,39958,List1B,white,man,,,,,"{""Q0"":""jane is talking to beth""}","<img src=""stim_listB/talk7.gif""style=""height:400px;""></stim_listB>",is talking to,
null,"<div style=""font-size:60px;"">+</div>",,html-keyboard-response,192,798509,0.0-15.0-0.11,39958,List1B,white,man,,,,null,,,,
null,"<img src=""stim_listB/touch7.gif""style=""height:400px;""></stim_listB>",,html-keyboard-response,193,800529,0.0-15.0-1.11,39958,List1B,white,man,,,,null,,,,
null,is touching,,html-keyboard-response,194,802539,0.0-15.0-2.11,39958,List1B,white,man,,,,null,,,,
7721,,,survey-text,195,810261,0.0-15.0-3.11,39958,List1B,white,man,,,,,"{""Q0"":""jane is touching kate""}","<img src=""stim_listB/touch7.gif""style=""height:400px;""></stim_listB>",is touching,
null,"<div style=""font-size:60px;"">+</div>",,html-keyboard-response,196,810778,0.0-15.0-0.12,39958,List1B,white,man,,,,null,,,,
null,"<img src=""stim_listB/fight6.gif""style=""height:400px;""></stim_listB>",,html-keyboard-response,197,812789,0.0-15.0-1.12,39958,List1B,white,man,,,,null,,,,
null,are fighting each other,,html-keyboard-response,198,814809,0.0-15.0-2.12,39958,List1B,white,man,,,,null,,,,
13868,,,survey-text,199,828677,0.0-15.0-3.12,39958,List1B,white,man,,,,,"{""Q0"":""fred and luke are fighting each oher""}","<img src=""stim_listB/fight6.gif""style=""height:400px;""></stim_listB>",are fighting each other,
null,"<div style=""font-size:60px;"">+</div>",,html-keyboard-response,200,829179,0.0-15.0-0.13,39958,List1B,white,man,,,,null,,,,
null,"<img src=""stim_listB/fight1.gif""style=""height:400px;""></stim_listB>",,html-keyboard-response,201,831199,0.0-15.0-1.13,39958,List1B,white,man,,,,null,,,,
null,is fighting,,html-keyboard-response,202,833219,0.0-15.0-2.13,39958,List1B,white,man,,,,null,,,,
7497,,,survey-text,203,840717,0.0-15.0-3.13,39958,List1B,white,man,,,,,"{""Q0"":""kate is fighting mike""}","<img src=""stim_listB/fight1.gif""style=""height:400px;""></stim_listB>",is fighting,
null,"<div style=""font-size:60px;"">+</div>",,html-keyboard-response,204,841234,0.0-15.0-0.14,39958,List1B,white,man,,,,null,,,,
null,"<img src=""stim_listB/touch6.gif""style=""height:400px;""></stim_listB>",,html-keyboard-response,205,843239,0.0-15.0-1.14,39958,List1B,white,man,,,,null,,,,
null,are touching each other,,html-keyboard-response,206,845248,0.0-15.0-2.14,39958,List1B,white,man,,,,null,,,,
11516,,,survey-text,207,856766,0.0-15.0-3.14,39958,List1B,white,man,,,,,"{""Q0"":""fred and luke are touching each other""}","<img src=""stim_listB/touch6.gif""style=""height:400px;""></stim_listB>",are touching each other,
null,"<div style=""font-size:60px;"">+</div>",,html-keyboard-response,208,857279,0.0-15.0-0.15,39958,List1B,white,man,,,,null,,,,
null,"<img src=""stim_listB/kiss6.gif""style=""height:400px;""></stim_listB>",,html-keyboard-response,209,859298,0.0-15.0-1.15,39958,List1B,white,man,,,,null,,,,
null,are kissing each other,,html-keyboard-response,210,861308,0.0-15.0-2.15,39958,List1B,white,man,,,,null,,,,
9816,,,survey-text,211,871125,0.0-15.0-3.15,39958,List1B,white,man,,,,,"{""Q0"":""mike and dave are kissing each other""}","<img src=""stim_listB/kiss6.gif""style=""height:400px;""></stim_listB>",are kissing each other,
null,"<div style=""font-size:60px;"">+</div>",,html-keyboard-response,212,871640,0.0-15.0-0.16,39958,List1B,white,man,,,,null,,,,
null,"<img src=""stim_listB/touch3.gif""style=""height:400px;""></stim_listB>",,html-keyboard-response,213,873659,0.0-15.0-1.16,39958,List1B,white,man,,,,null,,,,
null,is touching,,html-keyboard-response,214,875679,0.0-15.0-2.16,39958,List1B,white,man,,,,null,,,,
10236,,,survey-text,215,885917,0.0-15.0-3.16,39958,List1B,white,man,,,,,"{""Q0"":""jane and dave are touching""}","<img src=""stim_listB/touch3.gif""style=""height:400px;""></stim_listB>",is touching,
null,"<div style=""font-size:60px;"">+</div>",,html-keyboard-response,216,886428,0.0-15.0-0.17,39958,List1B,white,man,,,,null,,,,
null,"<img src=""stim_listB/fight4.gif""style=""height:400px;""></stim_listB>",,html-keyboard-response,217,888448,0.0-15.0-1.17,39958,List1B,white,man,,,,null,,,,
null,are fighting each other,,html-keyboard-response,218,890459,0.0-15.0-2.17,39958,List1B,white,man,,,,null,,,,
10609,,,survey-text,219,901069,0.0-15.0-3.17,39958,List1B,white,man,,,,,"{""Q0"":""ruth and luke are fighting each other""}","<img src=""stim_listB/fight4.gif""style=""height:400px;""></stim_listB>",are fighting each other,
null,"<div style=""font-size:60px;"">+</div>",,html-keyboard-response,220,901589,0.0-15.0-0.18,39958,List1B,white,man,,,,null,,,,
null,"<img src=""stim_listB/shout6.gif""style=""height:400px;""></stim_listB>",,html-keyboard-response,221,903599,0.0-15.0-1.18,39958,List1B,white,man,,,,null,,,,
null,are shouting at each other,,html-keyboard-response,222,905609,0.0-15.0-2.18,39958,List1B,white,man,,,,null,,,,
9865,,,survey-text,223,915474,0.0-15.0-3.18,39958,List1B,white,man,,,,,"{""Q0"":""dave and mike are fighting each other""}","<img src=""stim_listB/shout6.gif""style=""height:400px;""></stim_listB>",are shouting at each other,
null,"<div style=""font-size:60px;"">+</div>",,html-keyboard-response,224,915989,0.0-15.0-0.19,39958,List1B,white,man,,,,null,,,,
null,"<img src=""stim_listB/flirt6.gif""style=""height:400px;""></stim_listB>",,html-keyboard-response,225,918009,0.0-15.0-1.19,39958,List1B,white,man,,,,null,,,,
null,are flirting with each other,,html-keyboard-response,226,920028,0.0-15.0-2.19,39958,List1B,white,man,,,,null,,,,
11587,,,survey-text,227,931617,0.0-15.0-3.19,39958,List1B,white,man,,,,,"{""Q0"":""mike and luke are flirting with each other""}","<img src=""stim_listB/flirt6.gif""style=""height:400px;""></stim_listB>",are flirting with each other,
2991,"<img src='img/portrait_matrix_list1.jpg' style='width:900px;height:500px;''></img><p>If you have memorised all the portraits and names and are ready to start, press Continue.</p><p><strong>Please note: Your memory of these faces will be tested 4 times during this experiment.</strong></p>",0,html-button-response,228,934609,0.0-16.0-0.0,39958,List1B,white,man,,,,,,,,
3246,"<img src=""portrait/BW2.jpg""style=""height:400px;""></img>",0,html-button-response,229,938878,0.0-16.0-1.0,39958,List1B,white,man,,TRUE,2,,,,,
2572,"<img src=""portrait/BW2.jpg""style=""height:400px;""></img>",2,html-button-response,230,942465,0.0-16.0-3.0-0.0,39958,List1B,white,man,,FALSE,2,,,,,
null,CORRECT,,html-keyboard-response,231,943970,0.0-16.0-3.0-1.0-0.0,39958,List1B,white,man,,,,null,,,,
1822,"<img src=""portrait/BM1.jpg""style=""height:400px;""></img>",4,html-button-response,232,945793,0.0-16.0-4.0,39958,List1B,white,man,,TRUE,4,,,,,
null,CORRECT,,html-keyboard-response,233,947328,0.0-16.0-5.0-0.0,39958,List1B,white,man,,,,null,,,,
1796,"<img src=""portrait/BM2.jpg""style=""height:400px;""></img>",5,html-button-response,234,949126,0.0-16.0-7.0,39958,List1B,white,man,,TRUE,5,,,,,
null,CORRECT,,html-keyboard-response,235,950648,0.0-16.0-8.0-0.0,39958,List1B,white,man,,,,null,,,,
1600,"<img src=""portrait/BW1.jpg""style=""height:400px;""></img>",1,html-button-response,236,952250,0.0-16.0-10.0,39958,List1B,white,man,,TRUE,0,,,,,
2241,"<img src=""portrait/BW1.jpg""style=""height:400px;""></img>",0,html-button-response,237,955513,0.0-16.0-12.0-0.0,39958,List1B,white,man,,FALSE,0,,,,,
null,CORRECT,,html-keyboard-response,238,957048,0.0-16.0-12.0-1.0-0.0,39958,List1B,white,man,,,,null,,,,
1893,"<img src=""portrait/WW2.jpg""style=""height:400px;""></img>",3,html-button-response,239,958945,0.0-16.0-13.0,39958,List1B,white,man,,TRUE,3,,,,,
null,CORRECT,,html-keyboard-response,240,960469,0.0-16.0-14.0-0.0,39958,List1B,white,man,,,,null,,,,
1530,"<img src=""portrait/WW1.jpg""style=""height:400px;""></img>",1,html-button-response,241,962001,0.0-16.0-16.0,39958,List1B,white,man,,TRUE,1,,,,,
null,CORRECT,,html-keyboard-response,242,963538,0.0-16.0-17.0-0.0,39958,List1B,white,man,,,,null,,,,
1760,"<img src=""portrait/WM2.jpg""style=""height:400px;""></img>",7,html-button-response,243,965300,0.0-16.0-19.0,39958,List1B,white,man,,TRUE,7,,,,,
null,CORRECT,,html-keyboard-response,244,966839,0.0-16.0-20.0-0.0,39958,List1B,white,man,,,,null,,,,
2001,"<img src=""portrait/WM1.jpg""style=""height:400px;""></img>",6,html-button-response,245,968841,0.0-16.0-22.0,39958,List1B,white,man,,TRUE,6,,,,,
null,CORRECT,,html-keyboard-response,246,970367,0.0-16.0-23.0-0.0,39958,List1B,white,man,,,,null,,,,
1674,<p>You got 6 out of 8 right first time. Press Continue.</p>,0,html-button-response,247,972045,0.0-16.0-25.0,39958,List1B,white,man,,,,,,,,
1453,"As you did not score 100%, the memory game will repeat. Press Continue.",0,html-button-response,248,974513,0.0-16.0-26.0-0.0,39958,List1B,white,man,,,,,,,,
1311,"<img src='img/portrait_matrix_list1.jpg' style='width:900px;height:500px;''></img><p>If you have memorised all the portraits and names and are ready to start, press Continue.</p><p><strong>Please note: Your memory of these faces will be tested 4 times during this experiment.</strong></p>",0,html-button-response,249,976834,0.0-16.1-0.1,39958,List1B,white,man,,,,,,,,
2753,"<img src=""portrait/BW2.jpg""style=""height:400px;""></img>",2,html-button-response,250,980605,0.0-16.1-1.1,39958,List1B,white,man,,TRUE,2,,,,,
null,CORRECT,,html-keyboard-response,251,982138,0.0-16.1-2.1-0.1,39958,List1B,white,man,,,,null,,,,
1411,"<img src=""portrait/BM1.jpg""style=""height:400px;""></img>",4,html-button-response,252,983553,0.0-16.1-4.1,39958,List1B,white,man,,TRUE,4,,,,,
null,CORRECT,,html-keyboard-response,253,985089,0.0-16.1-5.1-0.1,39958,List1B,white,man,,,,null,,,,
2073,"<img src=""portrait/BM2.jpg""style=""height:400px;""></img>",5,html-button-response,254,987165,0.0-16.1-7.1,39958,List1B,white,man,,TRUE,5,,,,,
null,CORRECT,,html-keyboard-response,255,988699,0.0-16.1-8.1-0.1,39958,List1B,white,man,,,,null,,,,
2489,"<img src=""portrait/BW1.jpg""style=""height:400px;""></img>",0,html-button-response,256,991190,0.0-16.1-10.1,39958,List1B,white,man,,TRUE,0,,,,,
null,CORRECT,,html-keyboard-response,257,992719,0.0-16.1-11.1-0.1,39958,List1B,white,man,,,,null,,,,
1498,"<img src=""portrait/WW2.jpg""style=""height:400px;""></img>",3,html-button-response,258,994221,0.0-16.1-13.1,39958,List1B,white,man,,TRUE,3,,,,,
null,CORRECT,,html-keyboard-response,259,995748,0.0-16.1-14.1-0.1,39958,List1B,white,man,,,,null,,,,
1286,"<img src=""portrait/WW1.jpg""style=""height:400px;""></img>",1,html-button-response,260,997037,0.0-16.1-16.1,39958,List1B,white,man,,TRUE,1,,,,,
null,CORRECT,,html-keyboard-response,261,998569,0.0-16.1-17.1-0.1,39958,List1B,white,man,,,,null,,,,
1359,"<img src=""portrait/WM2.jpg""style=""height:400px;""></img>",7,html-button-response,262,999929,0.0-16.1-19.1,39958,List1B,white,man,,TRUE,7,,,,,
null,CORRECT,,html-keyboard-response,263,1001469,0.0-16.1-20.1-0.1,39958,List1B,white,man,,,,null,,,,
1052,"<img src=""portrait/WM1.jpg""style=""height:400px;""></img>",6,html-button-response,264,1002521,0.0-16.1-22.1,39958,List1B,white,man,,TRUE,6,,,,,
null,CORRECT,,html-keyboard-response,265,1004059,0.0-16.1-23.1-0.1,39958,List1B,white,man,,,,null,,,,
1160,<p>You got 8 out of 8 right first time. Press Continue.</p>,0,html-button-response,266,1005221,0.0-16.1-25.1,39958,List1B,white,man,,,,,,,,
null,"<div style=""font-size:60px;"">+</div>",,html-keyboard-response,267,1006758,0.0-17.0-0.0,39958,List1B,white,man,,,,null,,,,
null,"<img src=""stim_listB/kiss4.gif""style=""height:400px;""></stim_listB>",,html-keyboard-response,268,1008779,0.0-17.0-1.0,39958,List1B,white,man,,,,null,,,,
null,are kissing each other,,html-keyboard-response,269,1010798,0.0-17.0-2.0,39958,List1B,white,man,,,,null,,,,
8801,,,survey-text,270,1019600,0.0-17.0-3.0,39958,List1B,white,man,,,,,"{""Q0"":""dave is kissing jane""}","<img src=""stim_listB/kiss4.gif""style=""height:400px;""></stim_listB>",are kissing each other,
null,"<div style=""font-size:60px;"">+</div>",,html-keyboard-response,271,1020108,0.0-17.0-0.1,39958,List1B,white,man,,,,null,,,,
null,"<img src=""stim_listB/touch5.gif""style=""height:400px;""></stim_listB>",,html-keyboard-response,272,1022119,0.0-17.0-1.1,39958,List1B,white,man,,,,null,,,,
null,is touching,,html-keyboard-response,273,1024138,0.0-17.0-2.1,39958,List1B,white,man,,,,null,,,,
6756,,,survey-text,274,1030897,0.0-17.0-3.1,39958,List1B,white,man,,,,,"{""Q0"":""mike is touching dave""}","<img src=""stim_listB/touch5.gif""style=""height:400px;""></stim_listB>",is touching,
null,"<div style=""font-size:60px;"">+</div>",,html-keyboard-response,275,1031419,0.0-17.0-0.2,39958,List1B,white,man,,,,null,,,,
null,"<img src=""stim_listB/argue4.gif""style=""height:400px;""></stim_listB>",,html-keyboard-response,276,1033429,0.0-17.0-1.2,39958,List1B,white,man,,,,null,,,,
null,are arguing with each other,,html-keyboard-response,277,1035449,0.0-17.0-2.2,39958,List1B,white,man,,,,null,,,,
12499,,,survey-text,278,1047949,0.0-17.0-3.2,39958,List1B,white,man,,,,,"{""Q0"":""luke and jane are arguing with each other""}","<img src=""stim_listB/argue4.gif""style=""height:400px;""></stim_listB>",are arguing with each other,
null,"<div style=""font-size:60px;"">+</div>",,html-keyboard-response,279,1048459,0.0-17.0-0.3,39958,List1B,white,man,,,,null,,,,
null,"<img src=""stim_listB/dance8.gif""style=""height:400px;""></stim_listB>",,html-keyboard-response,280,1050469,0.0-17.0-1.3,39958,List1B,white,man,,,,null,,,,
null,are dancing with each other,,html-keyboard-response,281,1052488,0.0-17.0-2.3,39958,List1B,white,man,,,,null,,,,
14717,,,survey-text,282,1067206,0.0-17.0-3.3,39958,List1B,white,man,,,,,"{""Q0"":""kate and ruth are dancing with each other""}","<img src=""stim_listB/dance8.gif""style=""height:400px;""></stim_listB>",are dancing with each other,
null,"<div style=""font-size:60px;"">+</div>",,html-keyboard-response,283,1067719,0.0-17.0-0.4,39958,List1B,white,man,,,,null,,,,
null,"<img src=""stim_listB/fight8.gif""style=""height:400px;""></stim_listB>",,html-keyboard-response,284,1069729,0.0-17.0-1.4,39958,List1B,white,man,,,,null,,,,
null,are fighting each other,,html-keyboard-response,285,1071740,0.0-17.0-2.4,39958,List1B,white,man,,,,null,,,,
10432,,,survey-text,286,1082173,0.0-17.0-3.4,39958,List1B,white,man,,,,,"{""Q0"":""ruth and beth are fighting each other""}","<img src=""stim_listB/fight8.gif""style=""height:400px;""></stim_listB>",are fighting each other,
null,"<div style=""font-size:60px;"">+</div>",,html-keyboard-response,287,1082689,0.0-17.0-0.5,39958,List1B,white,man,,,,null,,,,
null,"<img src=""stim_listB/marry2.gif""style=""height:400px;""></stim_listB>",,html-keyboard-response,288,1084709,0.0-17.0-1.5,39958,List1B,white,man,,,,null,,,,
null,are marrying each other,,html-keyboard-response,289,1086720,0.0-17.0-2.5,39958,List1B,white,man,,,,null,,,,
11333,,,survey-text,290,1098053,0.0-17.0-3.5,39958,List1B,white,man,,,,,"{""Q0"":""fred and kate are marrying each other""}","<img src=""stim_listB/marry2.gif""style=""height:400px;""></stim_listB>",are marrying each other,
null,"<div style=""font-size:60px;"">+</div>",,html-keyboard-response,291,1098568,0.0-17.0-0.6,39958,List1B,white,man,,,,null,,,,
null,"<img src=""stim_listB/flirt3.gif""style=""height:400px;""></stim_listB>",,html-keyboard-response,292,1100589,0.0-17.0-1.6,39958,List1B,white,man,,,,null,,,,
null,is flirting with,,html-keyboard-response,293,1102599,0.0-17.0-2.6,39958,List1B,white,man,,,,null,,,,
7694,,,survey-text,294,1110293,0.0-17.0-3.6,39958,List1B,white,man,,,,,"{""Q0"":""luke is flirting with jane""}","<img src=""stim_listB/flirt3.gif""style=""height:400px;""></stim_listB>",is flirting with,
null,"<div style=""font-size:60px;"">+</div>",,html-keyboard-response,295,1110808,0.0-17.0-0.7,39958,List1B,white,man,,,,null,,,,
null,"<img src=""stim_listB/shout7.gif""style=""height:400px;""></stim_listB>",,html-keyboard-response,296,1112819,0.0-17.0-1.7,39958,List1B,white,man,,,,null,,,,
null,is shouting at,,html-keyboard-response,297,1114840,0.0-17.0-2.7,39958,List1B,white,man,,,,null,,,,
12600,,,survey-text,298,1127440,0.0-17.0-3.7,39958,List1B,white,man,,,,,"{""Q0"":""ruth is shouting at beth""}","<img src=""stim_listB/shout7.gif""style=""height:400px;""></stim_listB>",is shouting at,
null,"<div style=""font-size:60px;"">+</div>",,html-keyboard-response,299,1127960,0.0-17.0-0.8,39958,List1B,white,man,,,,null,,,,
null,"<img src=""stim_listB/kiss2.gif""style=""height:400px;""></stim_listB>",,html-keyboard-response,300,1129978,0.0-17.0-1.8,39958,List1B,white,man,,,,null,,,,
null,are kissing each other,,html-keyboard-response,301,1132000,0.0-17.0-2.8,39958,List1B,white,man,,,,null,,,,
12012,,,survey-text,302,1144013,0.0-17.0-3.8,39958,List1B,white,man,,,,,"{""Q0"":""mike and kate are kissing each other""}","<img src=""stim_listB/kiss2.gif""style=""height:400px;""></stim_listB>",are kissing each other,
null,"<div style=""font-size:60px;"">+</div>",,html-keyboard-response,303,1144516,0.0-17.0-0.9,39958,List1B,white,man,,,,null,,,,
null,"<img src=""stim_listB/touch8.gif""style=""height:400px;""></stim_listB>",,html-keyboard-response,304,1146530,0.0-17.0-1.9,39958,List1B,white,man,,,,null,,,,
null,are touching each other,,html-keyboard-response,305,1148532,0.0-17.0-2.9,39958,List1B,white,man,,,,null,,,,
11756,,,survey-text,306,1160289,0.0-17.0-3.9,39958,List1B,white,man,,,,,"{""Q0"":""beth and ruth are touching each other""}","<img src=""stim_listB/touch8.gif""style=""height:400px;""></stim_listB>",are touching each other,
null,"<div style=""font-size:60px;"">+</div>",,html-keyboard-response,307,1160799,0.0-17.0-0.10,39958,List1B,white,man,,,,null,,,,
null,"<img src=""stim_listB/talk8.gif""style=""height:400px;""></stim_listB>",,html-keyboard-response,308,1162819,0.0-17.0-1.10,39958,List1B,white,man,,,,null,,,,
null,are talking to each other,,html-keyboard-response,309,1164830,0.0-17.0-2.10,39958,List1B,white,man,,,,null,,,,
17554,,,survey-text,310,1182385,0.0-17.0-3.10,39958,List1B,white,man,,,,,"{""Q0"":""kate and ruth are touching each other""}","<img src=""stim_listB/talk8.gif""style=""height:400px;""></stim_listB>",are talking to each other,
null,"<div style=""font-size:60px;"">+</div>",,html-keyboard-response,311,1182909,0.0-17.0-0.11,39958,List1B,white,man,,,,null,,,,
null,"<img src=""stim_listB/talk1.gif""style=""height:400px;""></stim_listB>",,html-keyboard-response,312,1184919,0.0-17.0-1.11,39958,List1B,white,man,,,,null,,,,
null,is talking to,,html-keyboard-response,313,1186939,0.0-17.0-2.11,39958,List1B,white,man,,,,null,,,,
7086,,,survey-text,314,1194026,0.0-17.0-3.11,39958,List1B,white,man,,,,,"{""Q0"":""fred is talking to kate""}","<img src=""stim_listB/talk1.gif""style=""height:400px;""></stim_listB>",is talking to,
null,"<div style=""font-size:60px;"">+</div>",,html-keyboard-response,315,1194530,0.0-17.0-0.12,39958,List1B,white,man,,,,null,,,,
null,"<img src=""stim_listB/play2.gif""style=""height:400px;""></stim_listB>",,html-keyboard-response,316,1196539,0.0-17.0-1.12,39958,List1B,white,man,,,,null,,,,
null,are playing with each other,,html-keyboard-response,317,1198559,0.0-17.0-2.12,39958,List1B,white,man,,,,null,,,,
11393,,,survey-text,318,1209953,0.0-17.0-3.12,39958,List1B,white,man,,,,,"{""Q0"":""fed and beth are playing with each other""}","<img src=""stim_listB/play2.gif""style=""height:400px;""></stim_listB>",are playing with each other,
null,"<div style=""font-size:60px;"">+</div>",,html-keyboard-response,319,1210470,0.0-17.0-0.13,39958,List1B,white,man,,,,null,,,,
null,"<img src=""stim_listB/dance6.gif""style=""height:400px;""></stim_listB>",,html-keyboard-response,320,1212478,0.0-17.0-1.13,39958,List1B,white,man,,,,null,,,,
null,are dancing with each other,,html-keyboard-response,321,1214490,0.0-17.0-2.13,39958,List1B,white,man,,,,null,,,,
10835,,,survey-text,322,1225325,0.0-17.0-3.13,39958,List1B,white,man,,,,,"{""Q0"":""mike and luke are dancing with each other""}","<img src=""stim_listB/dance6.gif""style=""height:400px;""></stim_listB>",are dancing with each other,
null,"<div style=""font-size:60px;"">+</div>",,html-keyboard-response,323,1225829,0.0-17.0-0.14,39958,List1B,white,man,,,,null,,,,
null,"<img src=""stim_listB/argue5.gif""style=""height:400px;""></stim_listB>",,html-keyboard-response,324,1227849,0.0-17.0-1.14,39958,List1B,white,man,,,,null,,,,
null,is arguing with,,html-keyboard-response,325,1229869,0.0-17.0-2.14,39958,List1B,white,man,,,,null,,,,
10723,,,survey-text,326,1240594,0.0-17.0-3.14,39958,List1B,white,man,,,,,"{""Q0"":""mike is arguing with luke""}","<img src=""stim_listB/argue5.gif""style=""height:400px;""></stim_listB>",is arguing with,
null,"<div style=""font-size:60px;"">+</div>",,html-keyboard-response,327,1241099,0.0-17.0-0.15,39958,List1B,white,man,,,,null,,,,
null,"<img src=""stim_listB/fight2.gif""style=""height:400px;""></stim_listB>",,html-keyboard-response,328,1243109,0.0-17.0-1.15,39958,List1B,white,man,,,,null,,,,
null,are fighting each other,,html-keyboard-response,329,1245110,0.0-17.0-2.15,39958,List1B,white,man,,,,null,,,,
11647,,,survey-text,330,1256757,0.0-17.0-3.15,39958,List1B,white,man,,,,,"{""Q0"":""fred and beth are fighting with each other""}","<img src=""stim_listB/fight2.gif""style=""height:400px;""></stim_listB>",are fighting each other,
null,"<div style=""font-size:60px;"">+</div>",,html-keyboard-response,331,1257259,0.0-17.0-0.16,39958,List1B,white,man,,,,null,,,,
null,"<img src=""stim_listB/flirt1.gif""style=""height:400px;""></stim_listB>",,html-keyboard-response,332,1259279,0.0-17.0-1.16,39958,List1B,white,man,,,,null,,,,
null,is flirting with,,html-keyboard-response,333,1261298,0.0-17.0-2.16,39958,List1B,white,man,,,,null,,,,
13041,,,survey-text,334,1274341,0.0-17.0-3.16,39958,List1B,white,man,,,,,"{""Q0"":""fred is flirting with kate""}","<img src=""stim_listB/flirt1.gif""style=""height:400px;""></stim_listB>",is flirting with,
null,"<div style=""font-size:60px;"">+</div>",,html-keyboard-response,335,1274848,0.0-17.0-0.17,39958,List1B,white,man,,,,null,,,,
null,"<img src=""stim_listB/argue7.gif""style=""height:400px;""></stim_listB>",,html-keyboard-response,336,1276869,0.0-17.0-1.17,39958,List1B,white,man,,,,null,,,,
null,is arguing with,,html-keyboard-response,337,1278889,0.0-17.0-2.17,39958,List1B,white,man,,,,null,,,,
9099,,,survey-text,338,1287990,0.0-17.0-3.17,39958,List1B,white,man,,,,,"{""Q0"":""kate is arguing with ruth""}","<img src=""stim_listB/argue7.gif""style=""height:400px;""></stim_listB>",is arguing with,
null,"<div style=""font-size:60px;"">+</div>",,html-keyboard-response,339,1288508,0.0-17.0-0.18,39958,List1B,white,man,,,,null,,,,
null,"<img src=""stim_listB/dance5.gif""style=""height:400px;""></stim_listB>",,html-keyboard-response,340,1290529,0.0-17.0-1.18,39958,List1B,white,man,,,,null,,,,
null,is dancing with,,html-keyboard-response,341,1292549,0.0-17.0-2.18,39958,List1B,white,man,,,,null,,,,
8190,,,survey-text,342,1300741,0.0-17.0-3.18,39958,List1B,white,man,,,,,"{""Q0"":""fred is dancing with dave""}","<img src=""stim_listB/dance5.gif""style=""height:400px;""></stim_listB>",is dancing with,
null,"<div style=""font-size:60px;"">+</div>",,html-keyboard-response,343,1301249,0.0-17.0-0.19,39958,List1B,white,man,,,,null,,,,
null,"<img src=""stim_listB/touch1.gif""style=""height:400px;""></stim_listB>",,html-keyboard-response,344,1303259,0.0-17.0-1.19,39958,List1B,white,man,,,,null,,,,
null,is touching,,html-keyboard-response,345,1305269,0.0-17.0-2.19,39958,List1B,white,man,,,,null,,,,
14203,,,survey-text,346,1319473,0.0-17.0-3.19,39958,List1B,white,man,,,,,"{""Q0"":""kate is touching mike""}","<img src=""stim_listB/touch1.gif""style=""height:400px;""></stim_listB>",is touching,
1702,"<img src='img/portrait_matrix_list1.jpg' style='width:900px;height:500px;''></img><p>If you have memorised all the portraits and names and are ready to start, press Continue.</p><p><strong>Please note: Your memory of these faces will be tested 4 times during this experiment.</strong></p>",0,html-button-response,347,1321177,0.0-18.0-0.0,39958,List1B,white,man,,,,,,,,
1238,"<img src=""portrait/WM2.jpg""style=""height:400px;""></img>",7,html-button-response,348,1323421,0.0-18.0-1.0,39958,List1B,white,man,,TRUE,7,,,,,
null,CORRECT,,html-keyboard-response,349,1324960,0.0-18.0-2.0-0.0,39958,List1B,white,man,,,,null,,,,
1704,"<img src=""portrait/WW2.jpg""style=""height:400px;""></img>",3,html-button-response,350,1326665,0.0-18.0-4.0,39958,List1B,white,man,,TRUE,3,,,,,
null,CORRECT,,html-keyboard-response,351,1328200,0.0-18.0-5.0-0.0,39958,List1B,white,man,,,,null,,,,
1576,"<img src=""portrait/BW2.jpg""style=""height:400px;""></img>",2,html-button-response,352,1329777,0.0-18.0-7.0,39958,List1B,white,man,,TRUE,2,,,,,
null,CORRECT,,html-keyboard-response,353,1331300,0.0-18.0-8.0-0.0,39958,List1B,white,man,,,,null,,,,
1397,"<img src=""portrait/WW1.jpg""style=""height:400px;""></img>",1,html-button-response,354,1332698,0.0-18.0-10.0,39958,List1B,white,man,,TRUE,1,,,,,
null,CORRECT,,html-keyboard-response,355,1334219,0.0-18.0-11.0-0.0,39958,List1B,white,man,,,,null,,,,
1913,"<img src=""portrait/BM1.jpg""style=""height:400px;""></img>",4,html-button-response,356,1336134,0.0-18.0-13.0,39958,List1B,white,man,,TRUE,4,,,,,
null,CORRECT,,html-keyboard-response,357,1337667,0.0-18.0-14.0-0.0,39958,List1B,white,man,,,,null,,,,
1608,"<img src=""portrait/WM1.jpg""style=""height:400px;""></img>",6,html-button-response,358,1339277,0.0-18.0-16.0,39958,List1B,white,man,,TRUE,6,,,,,
null,CORRECT,,html-keyboard-response,359,1340798,0.0-18.0-17.0-0.0,39958,List1B,white,man,,,,null,,,,
4208,"<img src=""portrait/BW1.jpg""style=""height:400px;""></img>",0,html-button-response,360,1345009,0.0-18.0-19.0,39958,List1B,white,man,,TRUE,0,,,,,
null,CORRECT,,html-keyboard-response,361,1346549,0.0-18.0-20.0-0.0,39958,List1B,white,man,,,,null,,,,
1653,"<img src=""portrait/BM2.jpg""style=""height:400px;""></img>",5,html-button-response,362,1348206,0.0-18.0-22.0,39958,List1B,white,man,,TRUE,5,,,,,
null,CORRECT,,html-keyboard-response,363,1349708,0.0-18.0-23.0-0.0,39958,List1B,white,man,,,,null,,,,
1335,<p>You got 8 out of 8 right first time. Press Continue.</p>,0,html-button-response,364,1351045,0.0-18.0-25.0,39958,List1B,white,man,,,,,,,,
null,"<div style=""font-size:60px;"">+</div>",,html-keyboard-response,365,1352578,0.0-19.0-0.0,39958,List1B,white,man,,,,null,,,,
null,"<img src=""stim_listB/shout8.gif""style=""height:400px;""></stim_listB>",,html-keyboard-response,366,1354599,0.0-19.0-1.0,39958,List1B,white,man,,,,null,,,,
null,are shouting at each other,,html-keyboard-response,367,1356616,0.0-19.0-2.0,39958,List1B,white,man,,,,null,,,,
14236,,,survey-text,368,1370853,0.0-19.0-3.0,39958,List1B,white,man,,,,,"{""Q0"":""mike and jane are shouting at each other""}","<img src=""stim_listB/shout8.gif""style=""height:400px;""></stim_listB>",are shouting at each other,
null,"<div style=""font-size:60px;"">+</div>",,html-keyboard-response,369,1371359,0.0-19.0-0.1,39958,List1B,white,man,,,,null,,,,
null,"<img src=""stim_listB/play3.gif""style=""height:400px;""></stim_listB>",,html-keyboard-response,370,1373379,0.0-19.0-1.1,39958,List1B,white,man,,,,null,,,,
null,is playing with,,html-keyboard-response,371,1375400,0.0-19.0-2.1,39958,List1B,white,man,,,,null,,,,
6476,,,survey-text,372,1381878,0.0-19.0-3.1,39958,List1B,white,man,,,,,"{""Q0"":""jane is playing with dave""}","<img src=""stim_listB/play3.gif""style=""height:400px;""></stim_listB>",is playing with,
null,"<div style=""font-size:60px;"">+</div>",,html-keyboard-response,373,1382389,0.0-19.0-0.2,39958,List1B,white,man,,,,null,,,,
null,"<img src=""stim_listB/argue3.gif""style=""height:400px;""></stim_listB>",,html-keyboard-response,374,1384409,0.0-19.0-1.2,39958,List1B,white,man,,,,null,,,,
null,is arguing with,,html-keyboard-response,375,1386429,0.0-19.0-2.2,39958,List1B,white,man,,,,null,,,,
12298,,,survey-text,376,1398730,0.0-19.0-3.2,39958,List1B,white,man,,,,,"{""Q0"":""ruth is arguing with dave""}","<img src=""stim_listB/argue3.gif""style=""height:400px;""></stim_listB>",is arguing with,
null,"<div style=""font-size:60px;"">+</div>",,html-keyboard-response,377,1399250,0.0-19.0-0.3,39958,List1B,white,man,,,,null,,,,
null,"<img src=""stim_listB/flirt8.gif""style=""height:400px;""></stim_listB>",,html-keyboard-response,378,1401269,0.0-19.0-1.3,39958,List1B,white,man,,,,null,,,,
null,are flirting with each other,,html-keyboard-response,379,1403280,0.0-19.0-2.3,39958,List1B,white,man,,,,null,,,,
12287,,,survey-text,380,1415569,0.0-19.0-3.3,39958,List1B,white,man,,,,,"{""Q0"":""kate and ruth are flirting with each other""}","<img src=""stim_listB/flirt8.gif""style=""height:400px;""></stim_listB>",are flirting with each other,
null,"<div style=""font-size:60px;"">+</div>",,html-keyboard-response,381,1416079,0.0-19.0-0.4,39958,List1B,white,man,,,,null,,,,
null,"<img src=""stim_listB/play7.gif""style=""height:400px;""></stim_listB>",,html-keyboard-response,382,1418100,0.0-19.0-1.4,39958,List1B,white,man,,,,null,,,,
null,is playing with,,html-keyboard-response,383,1420119,0.0-19.0-2.4,39958,List1B,white,man,,,,null,,,,
13341,,,survey-text,384,1433461,0.0-19.0-3.4,39958,List1B,white,man,,,,,"{""Q0"":""kate is playing with jane""}","<img src=""stim_listB/play7.gif""style=""height:400px;""></stim_listB>",is playing with,
null,"<div style=""font-size:60px;"">+</div>",,html-keyboard-response,385,1433979,0.0-19.0-0.5,39958,List1B,white,man,,,,null,,,,
null,"<img src=""stim_listB/play8.gif""style=""height:400px;""></stim_listB>",,html-keyboard-response,386,1435999,0.0-19.0-1.5,39958,List1B,white,man,,,,null,,,,
null,are playing with each other,,html-keyboard-response,387,1438010,0.0-19.0-2.5,39958,List1B,white,man,,,,null,,,,
10534,,,survey-text,388,1448546,0.0-19.0-3.5,39958,List1B,white,man,,,,,"{""Q0"":""beth and ruth are playing with each other""}","<img src=""stim_listB/play8.gif""style=""height:400px;""></stim_listB>",are playing with each other,
null,"<div style=""font-size:60px;"">+</div>",,html-keyboard-response,389,1449060,0.0-19.0-0.6,39958,List1B,white,man,,,,null,,,,
null,"<img src=""stim_listB/dance4.gif""style=""height:400px;""></stim_listB>",,html-keyboard-response,390,1451079,0.0-19.0-1.6,39958,List1B,white,man,,,,null,,,,
null,are dancing with each other,,html-keyboard-response,391,1453100,0.0-19.0-2.6,39958,List1B,white,man,,,,null,,,,
15426,,,survey-text,392,1468526,0.0-19.0-3.6,39958,List1B,white,man,,,,,"{""Q0"":""dave and ruth are dancing with each other""}","<img src=""stim_listB/dance4.gif""style=""height:400px;""></stim_listB>",are dancing with each other,
null,"<div style=""font-size:60px;"">+</div>",,html-keyboard-response,393,1469030,0.0-19.0-0.7,39958,List1B,white,man,,,,null,,,,
null,"<img src=""stim_listB/kiss8.gif""style=""height:400px;""></stim_listB>",,html-keyboard-response,394,1471049,0.0-19.0-1.7,39958,List1B,white,man,,,,null,,,,
null,are kissing each other,,html-keyboard-response,395,1473059,0.0-19.0-2.7,39958,List1B,white,man,,,,null,,,,
18719,,,survey-text,396,1491780,0.0-19.0-3.7,39958,List1B,white,man,,,,,"{""Q0"":""kate and jane are kissing each other""}","<img src=""stim_listB/kiss8.gif""style=""height:400px;""></stim_listB>",are kissing each other,
null,"<div style=""font-size:60px;"">+</div>",,html-keyboard-response,397,1492296,0.0-19.0-0.8,39958,List1B,white,man,,,,null,,,,
null,"<img src=""stim_listB/fight5.gif""style=""height:400px;""></stim_listB>",,html-keyboard-response,398,1494299,0.0-19.0-1.8,39958,List1B,white,man,,,,null,,,,
null,is fighting,,html-keyboard-response,399,1496300,0.0-19.0-2.8,39958,List1B,white,man,,,,null,,,,
9785,,,survey-text,400,1506085,0.0-19.0-3.8,39958,List1B,white,man,,,,,"{""Q0"":""mike is fighting dave""}","<img src=""stim_listB/fight5.gif""style=""height:400px;""></stim_listB>",is fighting,
null,"<div style=""font-size:60px;"">+</div>",,html-keyboard-response,401,1506600,0.0-19.0-0.9,39958,List1B,white,man,,,,null,,,,
null,"<img src=""stim_listB/kiss5.gif""style=""height:400px;""></stim_listB>",,html-keyboard-response,402,1508608,0.0-19.0-1.9,39958,List1B,white,man,,,,null,,,,
null,is kissing,,html-keyboard-response,403,1510616,0.0-19.0-2.9,39958,List1B,white,man,,,,null,,,,
7396,,,survey-text,404,1518013,0.0-19.0-3.9,39958,List1B,white,man,,,,,"{""Q0"":""fred is kissing luke""}","<img src=""stim_listB/kiss5.gif""style=""height:400px;""></stim_listB>",is kissing,
null,"<div style=""font-size:60px;"">+</div>",,html-keyboard-response,405,1518528,0.0-19.0-0.10,39958,List1B,white,man,,,,null,,,,
null,"<img src=""stim_listB/marry3.gif""style=""height:400px;""></stim_listB>",,html-keyboard-response,406,1520540,0.0-19.0-1.10,39958,List1B,white,man,,,,null,,,,
null,is marrying,,html-keyboard-response,407,1522550,0.0-19.0-2.10,39958,List1B,white,man,,,,null,,,,
6626,,,survey-text,408,1529177,0.0-19.0-3.10,39958,List1B,white,man,,,,,"{""Q0"":""dave is marrying ruth""}","<img src=""stim_listB/marry3.gif""style=""height:400px;""></stim_listB>",is marrying,
null,"<div style=""font-size:60px;"">+</div>",,html-keyboard-response,409,1529690,0.0-19.0-0.11,39958,List1B,white,man,,,,null,,,,
null,"<img src=""stim_listB/shout4.gif""style=""height:400px;""></stim_listB>",,html-keyboard-response,410,1531709,0.0-19.0-1.11,39958,List1B,white,man,,,,null,,,,
null,are shouting at each other,,html-keyboard-response,411,1533717,0.0-19.0-2.11,39958,List1B,white,man,,,,null,,,,
12183,,,survey-text,412,1545901,0.0-19.0-3.11,39958,List1B,white,man,,,,,"{""Q0"":""dave and jane are shouting at each other""}","<img src=""stim_listB/shout4.gif""style=""height:400px;""></stim_listB>",are shouting at each other,
null,"<div style=""font-size:60px;"">+</div>",,html-keyboard-response,413,1546409,0.0-19.0-0.12,39958,List1B,white,man,,,,null,,,,
null,"<img src=""stim_listB/argue8.gif""style=""height:400px;""></stim_listB>",,html-keyboard-response,414,1548424,0.0-19.0-1.12,39958,List1B,white,man,,,,null,,,,
null,are arguing with each other,,html-keyboard-response,415,1550439,0.0-19.0-2.12,39958,List1B,white,man,,,,null,,,,
17820,,,survey-text,416,1568261,0.0-19.0-3.12,39958,List1B,white,man,,,,,"{""Q0"":""beth and jane are arguing with each other""}","<img src=""stim_listB/argue8.gif""style=""height:400px;""></stim_listB>",are arguing with each other,
null,"<div style=""font-size:60px;"">+</div>",,html-keyboard-response,417,1568770,0.0-19.0-0.13,39958,List1B,white,man,,,,null,,,,
null,"<img src=""stim_listB/play4.gif""style=""height:400px;""></stim_listB>",,html-keyboard-response,418,1570790,0.0-19.0-1.13,39958,List1B,white,man,,,,null,,,,
null,are playing with each other,,html-keyboard-response,419,1572799,0.0-19.0-2.13,39958,List1B,white,man,,,,null,,,,
14752,,,survey-text,420,1587553,0.0-19.0-3.13,39958,List1B,white,man,,,,,"{""Q0"":""luke and ruth are playing with each other""}","<img src=""stim_listB/play4.gif""style=""height:400px;""></stim_listB>",are playing with each other,
null,"<div style=""font-size:60px;"">+</div>",,html-keyboard-response,421,1588059,0.0-19.0-0.14,39958,List1B,white,man,,,,null,,,,
null,"<img src=""stim_listB/dance3.gif""style=""height:400px;""></stim_listB>",,html-keyboard-response,422,1590069,0.0-19.0-1.14,39958,List1B,white,man,,,,null,,,,
null,is dancing with,,html-keyboard-response,423,1592079,0.0-19.0-2.14,39958,List1B,white,man,,,,null,,,,
7621,,,survey-text,424,1599701,0.0-19.0-3.14,39958,List1B,white,man,,,,,"{""Q0"":""luke is dancing with jane""}","<img src=""stim_listB/dance3.gif""style=""height:400px;""></stim_listB>",is dancing with,
null,"<div style=""font-size:60px;"">+</div>",,html-keyboard-response,425,1600210,0.0-19.0-0.15,39958,List1B,white,man,,,,null,,,,
null,"<img src=""stim_listB/argue1.gif""style=""height:400px;""></stim_listB>",,html-keyboard-response,426,1602218,0.0-19.0-1.15,39958,List1B,white,man,,,,null,,,,
null,is arguing with,,html-keyboard-response,427,1604228,0.0-19.0-2.15,39958,List1B,white,man,,,,null,,,,
8916,,,survey-text,428,1613146,0.0-19.0-3.15,39958,List1B,white,man,,,,,"{""Q0"":""beth is arguing with mike""}","<img src=""stim_listB/argue1.gif""style=""height:400px;""></stim_listB>",is arguing with,
null,"<div style=""font-size:60px;"">+</div>",,html-keyboard-response,429,1613650,0.0-19.0-0.16,39958,List1B,white,man,,,,null,,,,
null,"<img src=""stim_listB/talk2.gif""style=""height:400px;""></stim_listB>",,html-keyboard-response,430,1615670,0.0-19.0-1.16,39958,List1B,white,man,,,,null,,,,
null,are talking to each other,,html-keyboard-response,431,1617689,0.0-19.0-2.16,39958,List1B,white,man,,,,null,,,,
13276,,,survey-text,432,1630966,0.0-19.0-3.16,39958,List1B,white,man,,,,,"{""Q0"":""beth and mike are talking with each other""}","<img src=""stim_listB/talk2.gif""style=""height:400px;""></stim_listB>",are talking to each other,
null,"<div style=""font-size:60px;"">+</div>",,html-keyboard-response,433,1631479,0.0-19.0-0.17,39958,List1B,white,man,,,,null,,,,
null,"<img src=""stim_listB/dance2.gif""style=""height:400px;""></stim_listB>",,html-keyboard-response,434,1633500,0.0-19.0-1.17,39958,List1B,white,man,,,,null,,,,
null,are dancing with each other,,html-keyboard-response,435,1635517,0.0-19.0-2.17,39958,List1B,white,man,,,,null,,,,
11612,,,survey-text,436,1647130,0.0-19.0-3.17,39958,List1B,white,man,,,,,"{""Q0"":""beth and mike are dancing with each other""}","<img src=""stim_listB/dance2.gif""style=""height:400px;""></stim_listB>",are dancing with each other,
null,"<div style=""font-size:60px;"">+</div>",,html-keyboard-response,437,1647649,0.0-19.0-0.18,39958,List1B,white,man,,,,null,,,,
null,"<img src=""stim_listB/fight7.gif""style=""height:400px;""></stim_listB>",,html-keyboard-response,438,1649669,0.0-19.0-1.18,39958,List1B,white,man,,,,null,,,,
null,is fighting,,html-keyboard-response,439,1651678,0.0-19.0-2.18,39958,List1B,white,man,,,,null,,,,
8250,,,survey-text,440,1659929,0.0-19.0-3.18,39958,List1B,white,man,,,,,"{""Q0"":""jane is fighting kate""}","<img src=""stim_listB/fight7.gif""style=""height:400px;""></stim_listB>",is fighting,
null,"<div style=""font-size:60px;"">+</div>",,html-keyboard-response,441,1660450,0.0-19.0-0.19,39958,List1B,white,man,,,,null,,,,
null,"<img src=""stim_listB/talk6.gif""style=""height:400px;""></stim_listB>",,html-keyboard-response,442,1662469,0.0-19.0-1.19,39958,List1B,white,man,,,,null,,,,
null,are talking to each other,,html-keyboard-response,443,1664489,0.0-19.0-2.19,39958,List1B,white,man,,,,null,,,,
11999,,,survey-text,444,1676489,0.0-19.0-3.19,39958,List1B,white,man,,,,,"{""Q0"":""mike and luke are talking to each other""}","<img src=""stim_listB/talk6.gif""style=""height:400px;""></stim_listB>",are talking to each other,
2239,<p>Thank you for completing that task.</p><p>The final part of this session is a short questionnaire.</p><p>Press Continue.</p>,0,html-button-response,445,1678730,0.0-20.0,39958,List1B,white,man,,,,,,,,
22171,,,survey-text,446,1701914,0.0-21.0,39958,List1B,white,man,,,,,"{""Q0"":""48"",""Q1"":""English"",""Q2"":""English"",""Q3"":""UK"",""Q4"":""White"",""Q5"":""Male""}",,,demographics
5714,,,survey-likert,447,1707633,0.0-22.0,39958,List1B,white,man,,,,,"{""Q0"":3}",,,likert_ESS
8746,,,survey-likert,448,1716384,0.0-23.0,39958,List1B,white,man,,,,,"{""Q0"":4}",,,likert_NSSAL_Q1
3429,,,survey-likert,449,1719814,0.0-24.0,39958,List1B,white,man,,,,,"{""Q0"":4}",,,likert_NSSAL_Q2
3601,,,survey-likert,450,1723420,0.0-25.0,39958,List1B,white,man,,,,,"{""Q0"":4}",,,likert_CGRS_Q1
3959,,,survey-likert,451,1727382,0.0-26.0,39958,List1B,white,man,,,,,"{""Q0"":4}",,,likert_CGRS_Q2
2290,,,survey-likert,452,1729674,0.0-27.0,39958,List1B,white,man,,,,,"{""Q0"":4}",,,likert_CGRS_Q3
8953,,,survey-text,453,1738630,0.0-28.0,39958,List1B,white,man,,,,,"{""Q0"":""ccc""}",,,worker_id
35343,,,external-html,454,1774626,0.0-29.0,39958,List1B,white,man,debrief.html,,,,,,,
