rt,stimulus,button_pressed,trial_type,trial_index,time_elapsed,internal_node_id,subject,list,ppt_race,ppt_gender,url,first_guess,correct,key_press,responses,image_type,phrase_type,test_part
3753,Welcome to the experiment. Press Continue to begin.,0,html-button-response,0,3773,0.0-0.0,4048,List2A,black,woman,,,,,,,,
38451,,,external-html,1,43420,0.0-1.0,4048,List2A,black,woman,consent.html,,,,,,,
12185,"<p>On the next page, you will see portraits of 8 people and their names.</p><p>Your first task is to take a few minutes to memorise the names of these people.</p><p>You will have to recall their names during the rest of the experiment, so it is</p><p>essential that you try to memorise these people and their names as best as you can.</p><br><p><strong>You will then be tested on your memory of these names and portraits.</strong></p><br><p>The experiment will start after you have completed this memory test.</p><br><p>Ready?</p>",0,html-button-response,2,55617,0.0-2.0,4048,List2A,black,woman,,,,,,,,
94089,"<img src='img/portrait_matrix_list2.jpg' style='width:900px;height:500px;''></img><p>If you have memorised all the portraits and names and are ready to start, press Continue.</p><p><strong>Please note: Your memory of these faces will be tested 4 times during this experiment.</strong></p>",0,html-button-response,3,150717,0.0-3.0-0.0,4048,List2A,black,woman,,,,,,,,
8939,"<img src=""portrait/BW1.jpg""style=""height:400px;""></img>",0,html-button-response,4,160664,0.0-3.0-1.0,4048,List2A,black,woman,,TRUE,0,,,,,
null,CORRECT,,html-keyboard-response,5,162177,0.0-3.0-2.0-0.0,4048,List2A,black,woman,,,,null,,,,
5207,"<img src=""portrait/WW2.jpg""style=""height:400px;""></img>",2,html-button-response,6,167392,0.0-3.0-4.0,4048,List2A,black,woman,,TRUE,3,,,,,
8448,"<img src=""portrait/WW2.jpg""style=""height:400px;""></img>",3,html-button-response,7,176852,0.0-3.0-6.0-0.0,4048,List2A,black,woman,,FALSE,3,,,,,
null,CORRECT,,html-keyboard-response,8,178360,0.0-3.0-6.0-1.0-0.0,4048,List2A,black,woman,,,,null,,,,
3185,"<img src=""portrait/BM1.jpg""style=""height:400px;""></img>",7,html-button-response,9,181553,0.0-3.0-7.0,4048,List2A,black,woman,,TRUE,4,,,,,
4551,"<img src=""portrait/BM1.jpg""style=""height:400px;""></img>",4,html-button-response,10,187115,0.0-3.0-9.0-0.0,4048,List2A,black,woman,,FALSE,4,,,,,
null,CORRECT,,html-keyboard-response,11,188623,0.0-3.0-9.0-1.0-0.0,4048,List2A,black,woman,,,,null,,,,
3944,"<img src=""portrait/BM2.jpg""style=""height:400px;""></img>",5,html-button-response,12,192575,0.0-3.0-10.0,4048,List2A,black,woman,,TRUE,5,,,,,
null,CORRECT,,html-keyboard-response,13,194082,0.0-3.0-11.0-0.0,4048,List2A,black,woman,,,,null,,,,
8967,"<img src=""portrait/BW2.jpg""style=""height:400px;""></img>",1,html-button-response,14,203056,0.0-3.0-13.0,4048,List2A,black,woman,,TRUE,2,,,,,
2968,"<img src=""portrait/BW2.jpg""style=""height:400px;""></img>",2,html-button-response,15,207034,0.0-3.0-15.0-0.0,4048,List2A,black,woman,,FALSE,2,,,,,
null,CORRECT,,html-keyboard-response,16,208542,0.0-3.0-15.0-1.0-0.0,4048,List2A,black,woman,,,,null,,,,
15406,"<img src=""portrait/WM1.jpg""style=""height:400px;""></img>",5,html-button-response,17,223956,0.0-3.0-16.0,4048,List2A,black,woman,,TRUE,6,,,,,
2576,"<img src=""portrait/WM1.jpg""style=""height:400px;""></img>",6,html-button-response,18,227544,0.0-3.0-18.0-0.0,4048,List2A,black,woman,,FALSE,6,,,,,
null,CORRECT,,html-keyboard-response,19,229051,0.0-3.0-18.0-1.0-0.0,4048,List2A,black,woman,,,,null,,,,
4436,"<img src=""portrait/WM2.jpg""style=""height:400px;""></img>",5,html-button-response,20,233495,0.0-3.0-19.0,4048,List2A,black,woman,,TRUE,7,,,,,
1980,"<img src=""portrait/WM2.jpg""style=""height:400px;""></img>",7,html-button-response,21,236484,0.0-3.0-21.0-0.0,4048,List2A,black,woman,,FALSE,7,,,,,
null,CORRECT,,html-keyboard-response,22,237989,0.0-3.0-21.0-1.0-0.0,4048,List2A,black,woman,,,,null,,,,
5099,"<img src=""portrait/WW1.jpg""style=""height:400px;""></img>",1,html-button-response,23,243096,0.0-3.0-22.0,4048,List2A,black,woman,,TRUE,1,,,,,
null,CORRECT,,html-keyboard-response,24,244602,0.0-3.0-23.0-0.0,4048,List2A,black,woman,,,,null,,,,
2454,<p>You got 3 out of 8 right first time. Press Continue.</p>,0,html-button-response,25,247064,0.0-3.0-25.0,4048,List2A,black,woman,,,,,,,,
4590,"As you did not score 100%, the memory game will repeat. Press Continue.",0,html-button-response,26,252661,0.0-3.0-26.0-0.0,4048,List2A,black,woman,,,,,,,,
152991,"<img src='img/portrait_matrix_list2.jpg' style='width:900px;height:500px;''></img><p>If you have memorised all the portraits and names and are ready to start, press Continue.</p><p><strong>Please note: Your memory of these faces will be tested 4 times during this experiment.</strong></p>",0,html-button-response,27,406666,0.0-3.1-0.1,4048,List2A,black,woman,,,,,,,,
7730,"<img src=""portrait/BW1.jpg""style=""height:400px;""></img>",0,html-button-response,28,415406,0.0-3.1-1.1,4048,List2A,black,woman,,TRUE,0,,,,,
null,CORRECT,,html-keyboard-response,29,416913,0.0-3.1-2.1-0.1,4048,List2A,black,woman,,,,null,,,,
5752,"<img src=""portrait/WW2.jpg""style=""height:400px;""></img>",3,html-button-response,30,422674,0.0-3.1-4.1,4048,List2A,black,woman,,TRUE,3,,,,,
null,CORRECT,,html-keyboard-response,31,424180,0.0-3.1-5.1-0.1,4048,List2A,black,woman,,,,null,,,,
7933,"<img src=""portrait/BM1.jpg""style=""height:400px;""></img>",4,html-button-response,32,432121,0.0-3.1-7.1,4048,List2A,black,woman,,TRUE,4,,,,,
null,CORRECT,,html-keyboard-response,33,433627,0.0-3.1-8.1-0.1,4048,List2A,black,woman,,,,null,,,,
7467,"<img src=""portrait/BM2.jpg""style=""height:400px;""></img>",5,html-button-response,34,441101,0.0-3.1-10.1,4048,List2A,black,woman,,TRUE,5,,,,,
null,CORRECT,,html-keyboard-response,35,442608,0.0-3.1-11.1-0.1,4048,List2A,black,woman,,,,null,,,,
9781,"<img src=""portrait/BW2.jpg""style=""height:400px;""></img>",2,html-button-response,36,452397,0.0-3.1-13.1,4048,List2A,black,woman,,TRUE,2,,,,,
null,CORRECT,,html-keyboard-response,37,453903,0.0-3.1-14.1-0.1,4048,List2A,black,woman,,,,null,,,,
13066,"<img src=""portrait/WM1.jpg""style=""height:400px;""></img>",6,html-button-response,38,466977,0.0-3.1-16.1,4048,List2A,black,woman,,TRUE,6,,,,,
null,CORRECT,,html-keyboard-response,39,468483,0.0-3.1-17.1-0.1,4048,List2A,black,woman,,,,null,,,,
5394,"<img src=""portrait/WM2.jpg""style=""height:400px;""></img>",7,html-button-response,40,473886,0.0-3.1-19.1,4048,List2A,black,woman,,TRUE,7,,,,,
null,CORRECT,,html-keyboard-response,41,475392,0.0-3.1-20.1-0.1,4048,List2A,black,woman,,,,null,,,,
6600,"<img src=""portrait/WW1.jpg""style=""height:400px;""></img>",1,html-button-response,42,482000,0.0-3.1-22.1,4048,List2A,black,woman,,TRUE,1,,,,,
null,CORRECT,,html-keyboard-response,43,483507,0.0-3.1-23.1-0.1,4048,List2A,black,woman,,,,null,,,,
3588,<p>You got 8 out of 8 right first time. Press Continue.</p>,0,html-button-response,44,487101,0.0-3.1-25.1,4048,List2A,black,woman,,,,,,,,
47840,"<p>In this experiment, you will view photographs of the people from the memory game interacting.</p><p>By using the <strong>exact</strong> phrase given <i>after</i> the photograph appears and recalling the correct names of the people in the photographs, form a sentence describing the interaction. You do not need to capitalise names.</p><p>Type your answer in the space provided. Please complete every sentence before moving onto the next trial.</p><p>You will only have a few seconds to memorise each given photograph and phrase before you can respond, so try your best to focus.</p><p>An example is given below. Press 'Continue' when you are ready.</p><img src='img/speaking_example.jpg' style='width:800px;height:460px;''></img>",0,html-button-response,45,535951,0.0-4.0,4048,List2A,black,woman,,,,,,,,
3821,"<p>Before the experiment starts, you will watch two example trials. Press 'Continue'.</p>",0,html-button-response,46,540780,0.0-5.0,4048,List2A,black,woman,,,,,,,,
null,<img src='img/meet_eg.gif' style='height:400px;''></img>,,html-keyboard-response,47,543790,0.0-6.0,4048,List2A,black,woman,,,,null,,,,
null,<p>is meeting</p>,,html-keyboard-response,48,545794,0.0-7.0,4048,List2A,black,woman,,,,null,,,,
4990,<p><b>Answer:</b> jane is meeting ruth</p>,0,html-button-response,49,550788,0.0-8.0,4048,List2A,black,woman,,,,,,,,
null,<img src='img/look_eg.gif' style='height:400px;''></img>,,html-keyboard-response,50,553796,0.0-9.0,4048,List2A,black,woman,,,,null,,,,
null,<p>are looking at each other</p>,,html-keyboard-response,51,555801,0.0-10.0,4048,List2A,black,woman,,,,null,,,,
12909,<p><b>Answer:</b> fred and mike are looking at each other</p>,0,html-button-response,52,568715,0.0-11.0,4048,List2A,black,woman,,,,,,,,
21075,"<p>Ready to start the experiment?</p><br><p><strong>Remember to describe the picture using a full sentence,</strong></p><p><strong>that combines the names of the people with the <i>exact</i> phrase given.</strong></p><p><strong>To receive full payment you must do this correctly.</strong></p><p><strong> You do not need to capitalise names or use punctuation.</strong></p><br><p>Press 'Continue' to begin.</p>",0,html-button-response,53,590796,0.0-12.0,4048,List2A,black,woman,,,,,,,,
null,"<div style=""font-size:60px;"">+</div>",,html-keyboard-response,54,592303,0.0-13.0-0.0,4048,List2A,black,woman,,,,null,,,,
null,"<img src=""stim_listA/argue5.gif""style=""height:400px;""></stim_listA>",,html-keyboard-response,55,594311,0.0-13.0-1.0,4048,List2A,black,woman,,,,null,,,,
null,is arguing with,,html-keyboard-response,56,596326,0.0-13.0-2.0,4048,List2A,black,woman,,,,null,,,,
24821,,,survey-text,57,621154,0.0-13.0-3.0,4048,List2A,black,woman,,,,,"{""Q0"":""Fred is arguing with Dave""}","<img src=""stim_listA/argue5.gif""style=""height:400px;""></stim_listA>",is arguing with,
null,"<div style=""font-size:60px;"">+</div>",,html-keyboard-response,58,621661,0.0-13.0-0.1,4048,List2A,black,woman,,,,null,,,,
null,"<img src=""stim_listA/flirt3.gif""style=""height:400px;""></stim_listA>",,html-keyboard-response,59,623667,0.0-13.0-1.1,4048,List2A,black,woman,,,,null,,,,
null,is flirting with,,html-keyboard-response,60,625672,0.0-13.0-2.1,4048,List2A,black,woman,,,,null,,,,
39868,,,survey-text,61,665548,0.0-13.0-3.1,4048,List2A,black,woman,,,,,"{""Q0"":""Fred is talking to jane""}","<img src=""stim_listA/flirt3.gif""style=""height:400px;""></stim_listA>",is flirting with,
null,"<div style=""font-size:60px;"">+</div>",,html-keyboard-response,62,666052,0.0-13.0-0.2,4048,List2A,black,woman,,,,null,,,,
null,"<img src=""stim_listA/touch6.gif""style=""height:400px;""></stim_listA>",,html-keyboard-response,63,668059,0.0-13.0-1.2,4048,List2A,black,woman,,,,null,,,,
null,are touching each other,,html-keyboard-response,64,670063,0.0-13.0-2.2,4048,List2A,black,woman,,,,null,,,,
59083,,,survey-text,65,729154,0.0-13.0-3.2,4048,List2A,black,woman,,,,,"{""Q0"":""Fred is arguing with Luke""}","<img src=""stim_listA/touch6.gif""style=""height:400px;""></stim_listA>",are touching each other,
null,"<div style=""font-size:60px;"">+</div>",,html-keyboard-response,66,729661,0.0-13.0-0.3,4048,List2A,black,woman,,,,null,,,,
null,"<img src=""stim_listA/dance2.gif""style=""height:400px;""></stim_listA>",,html-keyboard-response,67,731667,0.0-13.0-1.3,4048,List2A,black,woman,,,,null,,,,
null,are dancing with each other,,html-keyboard-response,68,733671,0.0-13.0-2.3,4048,List2A,black,woman,,,,null,,,,
46324,,,survey-text,69,780002,0.0-13.0-3.3,4048,List2A,black,woman,,,,,"{""Q0"":""Dave and Jane are dancing with each other""}","<img src=""stim_listA/dance2.gif""style=""height:400px;""></stim_listA>",are dancing with each other,
null,"<div style=""font-size:60px;"">+</div>",,html-keyboard-response,70,780506,0.0-13.0-0.4,4048,List2A,black,woman,,,,null,,,,
null,"<img src=""stim_listA/marry1.gif""style=""height:400px;""></stim_listA>",,html-keyboard-response,71,782513,0.0-13.0-1.4,4048,List2A,black,woman,,,,null,,,,
null,is marrying,,html-keyboard-response,72,784524,0.0-13.0-2.4,4048,List2A,black,woman,,,,null,,,,
68323,,,survey-text,73,852853,0.0-13.0-3.4,4048,List2A,black,woman,,,,,"{""Q0"":""Dave and Ruth are getting married""}","<img src=""stim_listA/marry1.gif""style=""height:400px;""></stim_listA>",is marrying,
null,"<div style=""font-size:60px;"">+</div>",,html-keyboard-response,74,853357,0.0-13.0-0.5,4048,List2A,black,woman,,,,null,,,,
null,"<img src=""stim_listA/flirt1.gif""style=""height:400px;""></stim_listA>",,html-keyboard-response,75,855364,0.0-13.0-1.5,4048,List2A,black,woman,,,,null,,,,
null,is flirting with,,html-keyboard-response,76,857368,0.0-13.0-2.5,4048,List2A,black,woman,,,,null,,,,
68189,,,survey-text,77,925564,0.0-13.0-3.5,4048,List2A,black,woman,,,,,"{""Q0"":""Luke is flirting with Jane""}","<img src=""stim_listA/flirt1.gif""style=""height:400px;""></stim_listA>",is flirting with,
null,"<div style=""font-size:60px;"">+</div>",,html-keyboard-response,78,926069,0.0-13.0-0.6,4048,List2A,black,woman,,,,null,,,,
null,"<img src=""stim_listA/kiss1.gif""style=""height:400px;""></stim_listA>",,html-keyboard-response,79,928076,0.0-13.0-1.6,4048,List2A,black,woman,,,,null,,,,
null,is kissing,,html-keyboard-response,80,930079,0.0-13.0-2.6,4048,List2A,black,woman,,,,null,,,,
39731,,,survey-text,81,969816,0.0-13.0-3.6,4048,List2A,black,woman,,,,,"{""Q0"":""Luke is kissing Ruth""}","<img src=""stim_listA/kiss1.gif""style=""height:400px;""></stim_listA>",is kissing,
null,"<div style=""font-size:60px;"">+</div>",,html-keyboard-response,82,970321,0.0-13.0-0.7,4048,List2A,black,woman,,,,null,,,,
null,"<img src=""stim_listA/shout6.gif""style=""height:400px;""></stim_listA>",,html-keyboard-response,83,972328,0.0-13.0-1.7,4048,List2A,black,woman,,,,null,,,,
null,are shouting at each other,,html-keyboard-response,84,974332,0.0-13.0-2.7,4048,List2A,black,woman,,,,null,,,,
53650,,,survey-text,85,1027987,0.0-13.0-3.7,4048,List2A,black,woman,,,,,"{""Q0"":""Mike and Dave are shouting at each other""}","<img src=""stim_listA/shout6.gif""style=""height:400px;""></stim_listA>",are shouting at each other,
null,"<div style=""font-size:60px;"">+</div>",,html-keyboard-response,86,1028492,0.0-13.0-0.8,4048,List2A,black,woman,,,,null,,,,
null,"<img src=""stim_listA/fight1.gif""style=""height:400px;""></stim_listA>",,html-keyboard-response,87,1030498,0.0-13.0-1.8,4048,List2A,black,woman,,,,null,,,,
null,is fighting,,html-keyboard-response,88,1032503,0.0-13.0-2.8,4048,List2A,black,woman,,,,null,,,,
48862,,,survey-text,89,1081371,0.0-13.0-3.8,4048,List2A,black,woman,,,,,"{""Q0"":""Jane and Dave are fighting each other""}","<img src=""stim_listA/fight1.gif""style=""height:400px;""></stim_listA>",is fighting,
null,"<div style=""font-size:60px;"">+</div>",,html-keyboard-response,90,1081877,0.0-13.0-0.9,4048,List2A,black,woman,,,,null,,,,
null,"<img src=""stim_listA/play8.gif""style=""height:400px;""></stim_listA>",,html-keyboard-response,91,1083883,0.0-13.0-1.9,4048,List2A,black,woman,,,,null,,,,
null,are playing with each other,,html-keyboard-response,92,1085887,0.0-13.0-2.9,4048,List2A,black,woman,,,,null,,,,
48399,,,survey-text,93,1134293,0.0-13.0-3.9,4048,List2A,black,woman,,,,,"{""Q0"":""Beth and Ruth are talking to each other""}","<img src=""stim_listA/play8.gif""style=""height:400px;""></stim_listA>",are playing with each other,
null,"<div style=""font-size:60px;"">+</div>",,html-keyboard-response,94,1134799,0.0-13.0-0.10,4048,List2A,black,woman,,,,null,,,,
null,"<img src=""stim_listA/marry4.gif""style=""height:400px;""></stim_listA>",,html-keyboard-response,95,1136806,0.0-13.0-1.10,4048,List2A,black,woman,,,,null,,,,
null,are marrying each other,,html-keyboard-response,96,1138810,0.0-13.0-2.10,4048,List2A,black,woman,,,,null,,,,
62625,,,survey-text,97,1201441,0.0-13.0-3.10,4048,List2A,black,woman,,,,,"{""Q0"":""Beth and Dave are getting married""}","<img src=""stim_listA/marry4.gif""style=""height:400px;""></stim_listA>",are marrying each other,
null,"<div style=""font-size:60px;"">+</div>",,html-keyboard-response,98,1201946,0.0-13.0-0.11,4048,List2A,black,woman,,,,null,,,,
null,"<img src=""stim_listA/talk7.gif""style=""height:400px;""></stim_listA>",,html-keyboard-response,99,1203953,0.0-13.0-1.11,4048,List2A,black,woman,,,,null,,,,
null,is talking to,,html-keyboard-response,100,1205956,0.0-13.0-2.11,4048,List2A,black,woman,,,,null,,,,
27768,,,survey-text,101,1233729,0.0-13.0-3.11,4048,List2A,black,woman,,,,,"{""Q0"":""Jane and Ruth are talking to each other""}","<img src=""stim_listA/talk7.gif""style=""height:400px;""></stim_listA>",is talking to,
null,"<div style=""font-size:60px;"">+</div>",,html-keyboard-response,102,1234234,0.0-13.0-0.12,4048,List2A,black,woman,,,,null,,,,
null,"<img src=""stim_listA/shout2.gif""style=""height:400px;""></stim_listA>",,html-keyboard-response,103,1236240,0.0-13.0-1.12,4048,List2A,black,woman,,,,null,,,,
null,are shouting at each other,,html-keyboard-response,104,1238244,0.0-13.0-2.12,4048,List2A,black,woman,,,,null,,,,
33389,,,survey-text,105,1271639,0.0-13.0-3.12,4048,List2A,black,woman,,,,,"{""Q0"":""Jane and Dave are shouting at each other""}","<img src=""stim_listA/shout2.gif""style=""height:400px;""></stim_listA>",are shouting at each other,
null,"<div style=""font-size:60px;"">+</div>",,html-keyboard-response,106,1272144,0.0-13.0-0.13,4048,List2A,black,woman,,,,null,,,,
null,"<img src=""stim_listA/flirt5.gif""style=""height:400px;""></stim_listA>",,html-keyboard-response,107,1274150,0.0-13.0-1.13,4048,List2A,black,woman,,,,null,,,,
null,is flirting with,,html-keyboard-response,108,1276155,0.0-13.0-2.13,4048,List2A,black,woman,,,,null,,,,
37286,,,survey-text,109,1313447,0.0-13.0-3.13,4048,List2A,black,woman,,,,,"{""Q0"":""Mike is flirting with Luke""}","<img src=""stim_listA/flirt5.gif""style=""height:400px;""></stim_listA>",is flirting with,
null,"<div style=""font-size:60px;"">+</div>",,html-keyboard-response,110,1313952,0.0-13.0-0.14,4048,List2A,black,woman,,,,null,,,,
null,"<img src=""stim_listA/marry2.gif""style=""height:400px;""></stim_listA>",,html-keyboard-response,111,1315958,0.0-13.0-1.14,4048,List2A,black,woman,,,,null,,,,
null,are marrying each other,,html-keyboard-response,112,1317962,0.0-13.0-2.14,4048,List2A,black,woman,,,,null,,,,
55682,,,survey-text,113,1373650,0.0-13.0-3.14,4048,List2A,black,woman,,,,,"{""Q0"":""Jane and Luke are marrying each other""}","<img src=""stim_listA/marry2.gif""style=""height:400px;""></stim_listA>",are marrying each other,
null,"<div style=""font-size:60px;"">+</div>",,html-keyboard-response,114,1374156,0.0-13.0-0.15,4048,List2A,black,woman,,,,null,,,,
null,"<img src=""stim_listA/play4.gif""style=""height:400px;""></stim_listA>",,html-keyboard-response,115,1376163,0.0-13.0-1.15,4048,List2A,black,woman,,,,null,,,,
null,are playing with each other,,html-keyboard-response,116,1378167,0.0-13.0-2.15,4048,List2A,black,woman,,,,null,,,,
27387,,,survey-text,117,1405559,0.0-13.0-3.15,4048,List2A,black,woman,,,,,"{""Q0"":""Beth and Fred are playing with each other""}","<img src=""stim_listA/play4.gif""style=""height:400px;""></stim_listA>",are playing with each other,
null,"<div style=""font-size:60px;"">+</div>",,html-keyboard-response,118,1406064,0.0-13.0-0.16,4048,List2A,black,woman,,,,null,,,,
null,"<img src=""stim_listA/touch1.gif""style=""height:400px;""></stim_listA>",,html-keyboard-response,119,1408071,0.0-13.0-1.16,4048,List2A,black,woman,,,,null,,,,
null,is touching,,html-keyboard-response,120,1410076,0.0-13.0-2.16,4048,List2A,black,woman,,,,null,,,,
40628,,,survey-text,121,1450709,0.0-13.0-3.16,4048,List2A,black,woman,,,,,"{""Q0"":""Jane and Dave are playing with each other""}","<img src=""stim_listA/touch1.gif""style=""height:400px;""></stim_listA>",is touching,
null,"<div style=""font-size:60px;"">+</div>",,html-keyboard-response,122,1451213,0.0-13.0-0.17,4048,List2A,black,woman,,,,null,,,,
null,"<img src=""stim_listA/kiss8.gif""style=""height:400px;""></stim_listA>",,html-keyboard-response,123,1453220,0.0-13.0-1.17,4048,List2A,black,woman,,,,null,,,,
null,are kissing each other,,html-keyboard-response,124,1455229,0.0-13.0-2.17,4048,List2A,black,woman,,,,null,,,,
37262,,,survey-text,125,1492498,0.0-13.0-3.17,4048,List2A,black,woman,,,,,"{""Q0"":""Jane and Kate are kissing each other""}","<img src=""stim_listA/kiss8.gif""style=""height:400px;""></stim_listA>",are kissing each other,
null,"<div style=""font-size:60px;"">+</div>",,html-keyboard-response,126,1493003,0.0-13.0-0.18,4048,List2A,black,woman,,,,null,,,,
null,"<img src=""stim_listA/argue1.gif""style=""height:400px;""></stim_listA>",,html-keyboard-response,127,1495010,0.0-13.0-1.18,4048,List2A,black,woman,,,,null,,,,
null,is arguing with,,html-keyboard-response,128,1497013,0.0-13.0-2.18,4048,List2A,black,woman,,,,null,,,,
33355,,,survey-text,129,1530374,0.0-13.0-3.18,4048,List2A,black,woman,,,,,"{""Q0"":""Ruth and Dave are arguing with each other""}","<img src=""stim_listA/argue1.gif""style=""height:400px;""></stim_listA>",is arguing with,
null,"<div style=""font-size:60px;"">+</div>",,html-keyboard-response,130,1530881,0.0-13.0-0.19,4048,List2A,black,woman,,,,null,,,,
null,"<img src=""stim_listA/play7.gif""style=""height:400px;""></stim_listA>",,html-keyboard-response,131,1532887,0.0-13.0-1.19,4048,List2A,black,woman,,,,null,,,,
null,is playing with,,html-keyboard-response,132,1534892,0.0-13.0-2.19,4048,List2A,black,woman,,,,null,,,,
33836,,,survey-text,133,1568734,0.0-13.0-3.19,4048,List2A,black,woman,,,,,"{""Q0"":""Jane and Kate are playing with each other""}","<img src=""stim_listA/play7.gif""style=""height:400px;""></stim_listA>",is playing with,
34424,"<img src='img/portrait_matrix_list2.jpg' style='width:900px;height:500px;''></img><p>If you have memorised all the portraits and names and are ready to start, press Continue.</p><p><strong>Please note: Your memory of these faces will be tested 4 times during this experiment.</strong></p>",0,html-button-response,134,1603166,0.0-14.0-0.0,4048,List2A,black,woman,,,,,,,,
7552,"<img src=""portrait/BW1.jpg""style=""height:400px;""></img>",0,html-button-response,135,1611730,0.0-14.0-1.0,4048,List2A,black,woman,,TRUE,0,,,,,
null,CORRECT,,html-keyboard-response,136,1613236,0.0-14.0-2.0-0.0,4048,List2A,black,woman,,,,null,,,,
6813,"<img src=""portrait/WW1.jpg""style=""height:400px;""></img>",1,html-button-response,137,1620058,0.0-14.0-4.0,4048,List2A,black,woman,,TRUE,1,,,,,
null,CORRECT,,html-keyboard-response,138,1621566,0.0-14.0-5.0-0.0,4048,List2A,black,woman,,,,null,,,,
4528,"<img src=""portrait/BM1.jpg""style=""height:400px;""></img>",4,html-button-response,139,1626102,0.0-14.0-7.0,4048,List2A,black,woman,,TRUE,4,,,,,
null,CORRECT,,html-keyboard-response,140,1627609,0.0-14.0-8.0-0.0,4048,List2A,black,woman,,,,null,,,,
3529,"<img src=""portrait/WW2.jpg""style=""height:400px;""></img>",3,html-button-response,141,1631146,0.0-14.0-10.0,4048,List2A,black,woman,,TRUE,3,,,,,
null,CORRECT,,html-keyboard-response,142,1632654,0.0-14.0-11.0-0.0,4048,List2A,black,woman,,,,null,,,,
5578,"<img src=""portrait/WM1.jpg""style=""height:400px;""></img>",6,html-button-response,143,1638240,0.0-14.0-13.0,4048,List2A,black,woman,,TRUE,6,,,,,
null,CORRECT,,html-keyboard-response,144,1639748,0.0-14.0-14.0-0.0,4048,List2A,black,woman,,,,null,,,,
9049,"<img src=""portrait/WM2.jpg""style=""height:400px;""></img>",7,html-button-response,145,1648805,0.0-14.0-16.0,4048,List2A,black,woman,,TRUE,7,,,,,
null,CORRECT,,html-keyboard-response,146,1650314,0.0-14.0-17.0-0.0,4048,List2A,black,woman,,,,null,,,,
12741,"<img src=""portrait/BW2.jpg""style=""height:400px;""></img>",2,html-button-response,147,1663064,0.0-14.0-19.0,4048,List2A,black,woman,,TRUE,2,,,,,
null,CORRECT,,html-keyboard-response,148,1664570,0.0-14.0-20.0-0.0,4048,List2A,black,woman,,,,null,,,,
4263,"<img src=""portrait/BM2.jpg""style=""height:400px;""></img>",5,html-button-response,149,1668844,0.0-14.0-22.0,4048,List2A,black,woman,,TRUE,5,,,,,
null,CORRECT,,html-keyboard-response,150,1670349,0.0-14.0-23.0-0.0,4048,List2A,black,woman,,,,null,,,,
2759,<p>You got 8 out of 8 right first time. Press Continue.</p>,0,html-button-response,151,1673114,0.0-14.0-25.0,4048,List2A,black,woman,,,,,,,,
null,"<div style=""font-size:60px;"">+</div>",,html-keyboard-response,152,1674621,0.0-15.0-0.0,4048,List2A,black,woman,,,,null,,,,
null,"<img src=""stim_listA/play3.gif""style=""height:400px;""></stim_listA>",,html-keyboard-response,153,1676629,0.0-15.0-1.0,4048,List2A,black,woman,,,,null,,,,
null,is playing with,,html-keyboard-response,154,1678634,0.0-15.0-2.0,4048,List2A,black,woman,,,,null,,,,
34629,,,survey-text,155,1713269,0.0-15.0-3.0,4048,List2A,black,woman,,,,,"{""Q0"":""Kate and Mike are playing with each other""}","<img src=""stim_listA/play3.gif""style=""height:400px;""></stim_listA>",is playing with,
null,"<div style=""font-size:60px;"">+</div>",,html-keyboard-response,156,1713773,0.0-15.0-0.1,4048,List2A,black,woman,,,,null,,,,
null,"<img src=""stim_listA/dance4.gif""style=""height:400px;""></stim_listA>",,html-keyboard-response,157,1715780,0.0-15.0-1.1,4048,List2A,black,woman,,,,null,,,,
null,are dancing with each other,,html-keyboard-response,158,1717790,0.0-15.0-2.1,4048,List2A,black,woman,,,,null,,,,
27019,,,survey-text,159,1744817,0.0-15.0-3.1,4048,List2A,black,woman,,,,,"{""Q0"":""Beth and Mike are dancing""}","<img src=""stim_listA/dance4.gif""style=""height:400px;""></stim_listA>",are dancing with each other,
null,"<div style=""font-size:60px;"">+</div>",,html-keyboard-response,160,1745323,0.0-15.0-0.2,4048,List2A,black,woman,,,,null,,,,
null,"<img src=""stim_listA/argue4.gif""style=""height:400px;""></stim_listA>",,html-keyboard-response,161,1747330,0.0-15.0-1.2,4048,List2A,black,woman,,,,null,,,,
null,are arguing with each other,,html-keyboard-response,162,1749334,0.0-15.0-2.2,4048,List2A,black,woman,,,,null,,,,
44007,,,survey-text,163,1793347,0.0-15.0-3.2,4048,List2A,black,woman,,,,,"{""Q0"":""Fred and Kate are arguing""}","<img src=""stim_listA/argue4.gif""style=""height:400px;""></stim_listA>",are arguing with each other,
null,"<div style=""font-size:60px;"">+</div>",,html-keyboard-response,164,1793853,0.0-15.0-0.3,4048,List2A,black,woman,,,,null,,,,
null,"<img src=""stim_listA/shout8.gif""style=""height:400px;""></stim_listA>",,html-keyboard-response,165,1795860,0.0-15.0-1.3,4048,List2A,black,woman,,,,null,,,,
null,are shouting at each other,,html-keyboard-response,166,1797864,0.0-15.0-2.3,4048,List2A,black,woman,,,,null,,,,
27005,,,survey-text,167,1824879,0.0-15.0-3.3,4048,List2A,black,woman,,,,,"{""Q0"":""Jane and Kate are shouting at each other""}","<img src=""stim_listA/shout8.gif""style=""height:400px;""></stim_listA>",are shouting at each other,
null,"<div style=""font-size:60px;"">+</div>",,html-keyboard-response,168,1825385,0.0-15.0-0.4,4048,List2A,black,woman,,,,null,,,,
null,"<img src=""stim_listA/dance3.gif""style=""height:400px;""></stim_listA>",,html-keyboard-response,169,1827391,0.0-15.0-1.4,4048,List2A,black,woman,,,,null,,,,
null,is dancing with,,html-keyboard-response,170,1829396,0.0-15.0-2.4,4048,List2A,black,woman,,,,null,,,,
40102,,,survey-text,171,1869505,0.0-15.0-3.4,4048,List2A,black,woman,,,,,"{""Q0"":""Fred is dancing with Kate""}","<img src=""stim_listA/dance3.gif""style=""height:400px;""></stim_listA>",is dancing with,
null,"<div style=""font-size:60px;"">+</div>",,html-keyboard-response,172,1870010,0.0-15.0-0.5,4048,List2A,black,woman,,,,null,,,,
null,"<img src=""stim_listA/shout4.gif""style=""height:400px;""></stim_listA>",,html-keyboard-response,173,1872017,0.0-15.0-1.5,4048,List2A,black,woman,,,,null,,,,
null,are shouting at each other,,html-keyboard-response,174,1874021,0.0-15.0-2.5,4048,List2A,black,woman,,,,null,,,,
42717,,,survey-text,175,1916746,0.0-15.0-3.5,4048,List2A,black,woman,,,,,"{""Q0"":""Mike and Kate are shouting at each other""}","<img src=""stim_listA/shout4.gif""style=""height:400px;""></stim_listA>",are shouting at each other,
null,"<div style=""font-size:60px;"">+</div>",,html-keyboard-response,176,1917252,0.0-15.0-0.6,4048,List2A,black,woman,,,,null,,,,
null,"<img src=""stim_listA/shout5.gif""style=""height:400px;""></stim_listA>",,html-keyboard-response,177,1919259,0.0-15.0-1.6,4048,List2A,black,woman,,,,null,,,,
null,is shouting at,,html-keyboard-response,178,1921263,0.0-15.0-2.6,4048,List2A,black,woman,,,,null,,,,
31671,,,survey-text,179,1952941,0.0-15.0-3.6,4048,List2A,black,woman,,,,,"{""Q0"":""Fred is shouting at Luke""}","<img src=""stim_listA/shout5.gif""style=""height:400px;""></stim_listA>",is shouting at,
null,"<div style=""font-size:60px;"">+</div>",,html-keyboard-response,180,1953446,0.0-15.0-0.7,4048,List2A,black,woman,,,,null,,,,
null,"<img src=""stim_listA/argue8.gif""style=""height:400px;""></stim_listA>",,html-keyboard-response,181,1955453,0.0-15.0-1.7,4048,List2A,black,woman,,,,null,,,,
null,are arguing with each other,,html-keyboard-response,182,1957457,0.0-15.0-2.7,4048,List2A,black,woman,,,,null,,,,
37911,,,survey-text,183,1995374,0.0-15.0-3.7,4048,List2A,black,woman,,,,,"{""Q0"":""Ruth and Kate are arguing with each other""}","<img src=""stim_listA/argue8.gif""style=""height:400px;""></stim_listA>",are arguing with each other,
null,"<div style=""font-size:60px;"">+</div>",,html-keyboard-response,184,1995879,0.0-15.0-0.8,4048,List2A,black,woman,,,,null,,,,
null,"<img src=""stim_listA/talk6.gif""style=""height:400px;""></stim_listA>",,html-keyboard-response,185,1997886,0.0-15.0-1.8,4048,List2A,black,woman,,,,null,,,,
null,are talking to each other,,html-keyboard-response,186,1999890,0.0-15.0-2.8,4048,List2A,black,woman,,,,null,,,,
31122,,,survey-text,187,2031018,0.0-15.0-3.8,4048,List2A,black,woman,,,,,"{""Q0"":""Fred and Dave are talking to each other""}","<img src=""stim_listA/talk6.gif""style=""height:400px;""></stim_listA>",are talking to each other,
null,"<div style=""font-size:60px;"">+</div>",,html-keyboard-response,188,2031524,0.0-15.0-0.9,4048,List2A,black,woman,,,,null,,,,
null,"<img src=""stim_listA/shout7.gif""style=""height:400px;""></stim_listA>",,html-keyboard-response,189,2033530,0.0-15.0-1.9,4048,List2A,black,woman,,,,null,,,,
null,is shouting at,,html-keyboard-response,190,2035535,0.0-15.0-2.9,4048,List2A,black,woman,,,,null,,,,
39389,,,survey-text,191,2074929,0.0-15.0-3.9,4048,List2A,black,woman,,,,,"{""Q0"":""Beth is shouting at Ruth""}","<img src=""stim_listA/shout7.gif""style=""height:400px;""></stim_listA>",is shouting at,
null,"<div style=""font-size:60px;"">+</div>",,html-keyboard-response,192,2075434,0.0-15.0-0.10,4048,List2A,black,woman,,,,null,,,,
null,"<img src=""stim_listA/marry3.gif""style=""height:400px;""></stim_listA>",,html-keyboard-response,193,2077441,0.0-15.0-1.10,4048,List2A,black,woman,,,,null,,,,
null,is marrying,,html-keyboard-response,194,2079445,0.0-15.0-2.10,4048,List2A,black,woman,,,,null,,,,
27602,,,survey-text,195,2107055,0.0-15.0-3.10,4048,List2A,black,woman,,,,,"{""Q0"":""Mike is marrying Beth""}","<img src=""stim_listA/marry3.gif""style=""height:400px;""></stim_listA>",is marrying,
null,"<div style=""font-size:60px;"">+</div>",,html-keyboard-response,196,2107560,0.0-15.0-0.11,4048,List2A,black,woman,,,,null,,,,
null,"<img src=""stim_listA/kiss4.gif""style=""height:400px;""></stim_listA>",,html-keyboard-response,197,2109567,0.0-15.0-1.11,4048,List2A,black,woman,,,,null,,,,
null,are kissing each other,,html-keyboard-response,198,2111571,0.0-15.0-2.11,4048,List2A,black,woman,,,,null,,,,
40356,,,survey-text,199,2151934,0.0-15.0-3.11,4048,List2A,black,woman,,,,,"{""Q0"":""Mike and Kate are kissing each other""}","<img src=""stim_listA/kiss4.gif""style=""height:400px;""></stim_listA>",are kissing each other,
null,"<div style=""font-size:60px;"">+</div>",,html-keyboard-response,200,2152439,0.0-15.0-0.12,4048,List2A,black,woman,,,,null,,,,
null,"<img src=""stim_listA/touch3.gif""style=""height:400px;""></stim_listA>",,html-keyboard-response,201,2154446,0.0-15.0-1.12,4048,List2A,black,woman,,,,null,,,,
null,is touching,,html-keyboard-response,202,2156450,0.0-15.0-2.12,4048,List2A,black,woman,,,,null,,,,
30060,,,survey-text,203,2186516,0.0-15.0-3.12,4048,List2A,black,woman,,,,,"{""Q0"":""Kate is touching Mike""}","<img src=""stim_listA/touch3.gif""style=""height:400px;""></stim_listA>",is touching,
null,"<div style=""font-size:60px;"">+</div>",,html-keyboard-response,204,2187025,0.0-15.0-0.13,4048,List2A,black,woman,,,,null,,,,
null,"<img src=""stim_listA/flirt2.gif""style=""height:400px;""></stim_listA>",,html-keyboard-response,205,2189032,0.0-15.0-1.13,4048,List2A,black,woman,,,,null,,,,
null,are flirting with each other,,html-keyboard-response,206,2191036,0.0-15.0-2.13,4048,List2A,black,woman,,,,null,,,,
26400,,,survey-text,207,2217442,0.0-15.0-3.13,4048,List2A,black,woman,,,,,"{""Q0"":""Dave and Ruth are flirting""}","<img src=""stim_listA/flirt2.gif""style=""height:400px;""></stim_listA>",are flirting with each other,
null,"<div style=""font-size:60px;"">+</div>",,html-keyboard-response,208,2217947,0.0-15.0-0.14,4048,List2A,black,woman,,,,null,,,,
null,"<img src=""stim_listA/flirt4.gif""style=""height:400px;""></stim_listA>",,html-keyboard-response,209,2219955,0.0-15.0-1.14,4048,List2A,black,woman,,,,null,,,,
null,are flirting with each other,,html-keyboard-response,210,2221959,0.0-15.0-2.14,4048,List2A,black,woman,,,,null,,,,
32260,,,survey-text,211,2254227,0.0-15.0-3.14,4048,List2A,black,woman,,,,,"{""Q0"":""Mike and Beth are flirting with each other""}","<img src=""stim_listA/flirt4.gif""style=""height:400px;""></stim_listA>",are flirting with each other,
null,"<div style=""font-size:60px;"">+</div>",,html-keyboard-response,212,2254731,0.0-15.0-0.15,4048,List2A,black,woman,,,,null,,,,
null,"<img src=""stim_listA/flirt7.gif""style=""height:400px;""></stim_listA>",,html-keyboard-response,213,2256738,0.0-15.0-1.15,4048,List2A,black,woman,,,,null,,,,
null,is flirting with,,html-keyboard-response,214,2258742,0.0-15.0-2.15,4048,List2A,black,woman,,,,null,,,,
36402,,,survey-text,215,2295150,0.0-15.0-3.15,4048,List2A,black,woman,,,,,"{""Q0"":""Kate is flirting with Ruth""}","<img src=""stim_listA/flirt7.gif""style=""height:400px;""></stim_listA>",is flirting with,
null,"<div style=""font-size:60px;"">+</div>",,html-keyboard-response,216,2295655,0.0-15.0-0.16,4048,List2A,black,woman,,,,null,,,,
null,"<img src=""stim_listA/touch5.gif""style=""height:400px;""></stim_listA>",,html-keyboard-response,217,2297661,0.0-15.0-1.16,4048,List2A,black,woman,,,,null,,,,
null,is touching,,html-keyboard-response,218,2299666,0.0-15.0-2.16,4048,List2A,black,woman,,,,null,,,,
22680,,,survey-text,219,2322352,0.0-15.0-3.16,4048,List2A,black,woman,,,,,"{""Q0"":""Mike is touching Dave""}","<img src=""stim_listA/touch5.gif""style=""height:400px;""></stim_listA>",is touching,
null,"<div style=""font-size:60px;"">+</div>",,html-keyboard-response,220,2322859,0.0-15.0-0.17,4048,List2A,black,woman,,,,null,,,,
null,"<img src=""stim_listA/fight7.gif""style=""height:400px;""></stim_listA>",,html-keyboard-response,221,2324866,0.0-15.0-1.17,4048,List2A,black,woman,,,,null,,,,
null,is fighting,,html-keyboard-response,222,2326870,0.0-15.0-2.17,4048,List2A,black,woman,,,,null,,,,
29334,,,survey-text,223,2356209,0.0-15.0-3.17,4048,List2A,black,woman,,,,,"{""Q0"":""Kate is fighting Jane""}","<img src=""stim_listA/fight7.gif""style=""height:400px;""></stim_listA>",is fighting,
null,"<div style=""font-size:60px;"">+</div>",,html-keyboard-response,224,2356715,0.0-15.0-0.18,4048,List2A,black,woman,,,,null,,,,
null,"<img src=""stim_listA/touch4.gif""style=""height:400px;""></stim_listA>",,html-keyboard-response,225,2358722,0.0-15.0-1.18,4048,List2A,black,woman,,,,null,,,,
null,are touching each other,,html-keyboard-response,226,2360726,0.0-15.0-2.18,4048,List2A,black,woman,,,,null,,,,
26267,,,survey-text,227,2387000,0.0-15.0-3.18,4048,List2A,black,woman,,,,,"{""Q0"":""Beth is touching Fred""}","<img src=""stim_listA/touch4.gif""style=""height:400px;""></stim_listA>",are touching each other,
null,"<div style=""font-size:60px;"">+</div>",,html-keyboard-response,228,2387505,0.0-15.0-0.19,4048,List2A,black,woman,,,,null,,,,
null,"<img src=""stim_listA/marry8.gif""style=""height:400px;""></stim_listA>",,html-keyboard-response,229,2389512,0.0-15.0-1.19,4048,List2A,black,woman,,,,null,,,,
null,are marrying each other,,html-keyboard-response,230,2391517,0.0-15.0-2.19,4048,List2A,black,woman,,,,null,,,,
50679,,,survey-text,231,2442202,0.0-15.0-3.19,4048,List2A,black,woman,,,,,"{""Q0"":""Ruth and Kate are marrying each other""}","<img src=""stim_listA/marry8.gif""style=""height:400px;""></stim_listA>",are marrying each other,
34080,"<img src='img/portrait_matrix_list2.jpg' style='width:900px;height:500px;''></img><p>If you have memorised all the portraits and names and are ready to start, press Continue.</p><p><strong>Please note: Your memory of these faces will be tested 4 times during this experiment.</strong></p>",0,html-button-response,232,2476291,0.0-16.0-0.0,4048,List2A,black,woman,,,,,,,,
7338,"<img src=""portrait/WM2.jpg""style=""height:400px;""></img>",7,html-button-response,233,2484642,0.0-16.0-1.0,4048,List2A,black,woman,,TRUE,7,,,,,
null,CORRECT,,html-keyboard-response,234,2486146,0.0-16.0-2.0-0.0,4048,List2A,black,woman,,,,null,,,,
7407,"<img src=""portrait/BW2.jpg""style=""height:400px;""></img>",2,html-button-response,235,2493560,0.0-16.0-4.0,4048,List2A,black,woman,,TRUE,2,,,,,
null,CORRECT,,html-keyboard-response,236,2495066,0.0-16.0-5.0-0.0,4048,List2A,black,woman,,,,null,,,,
1992,"<img src=""portrait/BM1.jpg""style=""height:400px;""></img>",4,html-button-response,237,2497068,0.0-16.0-7.0,4048,List2A,black,woman,,TRUE,4,,,,,
null,CORRECT,,html-keyboard-response,238,2498574,0.0-16.0-8.0-0.0,4048,List2A,black,woman,,,,null,,,,
3100,"<img src=""portrait/BM2.jpg""style=""height:400px;""></img>",5,html-button-response,239,2501687,0.0-16.0-10.0,4048,List2A,black,woman,,TRUE,5,,,,,
null,CORRECT,,html-keyboard-response,240,2503194,0.0-16.0-11.0-0.0,4048,List2A,black,woman,,,,null,,,,
3587,"<img src=""portrait/BW1.jpg""style=""height:400px;""></img>",0,html-button-response,241,2506789,0.0-16.0-13.0,4048,List2A,black,woman,,TRUE,0,,,,,
null,CORRECT,,html-keyboard-response,242,2508296,0.0-16.0-14.0-0.0,4048,List2A,black,woman,,,,null,,,,
2317,"<img src=""portrait/WW2.jpg""style=""height:400px;""></img>",3,html-button-response,243,2510621,0.0-16.0-16.0,4048,List2A,black,woman,,TRUE,3,,,,,
null,CORRECT,,html-keyboard-response,244,2512129,0.0-16.0-17.0-0.0,4048,List2A,black,woman,,,,null,,,,
10087,"<img src=""portrait/WM1.jpg""style=""height:400px;""></img>",6,html-button-response,245,2522224,0.0-16.0-19.0,4048,List2A,black,woman,,TRUE,6,,,,,
null,CORRECT,,html-keyboard-response,246,2523730,0.0-16.0-20.0-0.0,4048,List2A,black,woman,,,,null,,,,
6242,"<img src=""portrait/WW1.jpg""style=""height:400px;""></img>",1,html-button-response,247,2529979,0.0-16.0-22.0,4048,List2A,black,woman,,TRUE,1,,,,,
null,CORRECT,,html-keyboard-response,248,2531485,0.0-16.0-23.0-0.0,4048,List2A,black,woman,,,,null,,,,
1864,<p>You got 8 out of 8 right first time. Press Continue.</p>,0,html-button-response,249,2533357,0.0-16.0-25.0,4048,List2A,black,woman,,,,,,,,
null,"<div style=""font-size:60px;"">+</div>",,html-keyboard-response,250,2534865,0.0-17.0-0.0,4048,List2A,black,woman,,,,null,,,,
null,"<img src=""stim_listA/dance6.gif""style=""height:400px;""></stim_listA>",,html-keyboard-response,251,2536874,0.0-17.0-1.0,4048,List2A,black,woman,,,,null,,,,
null,are dancing with each other,,html-keyboard-response,252,2538887,0.0-17.0-2.0,4048,List2A,black,woman,,,,null,,,,
25372,,,survey-text,253,2564266,0.0-17.0-3.0,4048,List2A,black,woman,,,,,"{""Q0"":""Dave and Fred are dancing with each other""}","<img src=""stim_listA/dance6.gif""style=""height:400px;""></stim_listA>",are dancing with each other,
null,"<div style=""font-size:60px;"">+</div>",,html-keyboard-response,254,2564771,0.0-17.0-0.1,4048,List2A,black,woman,,,,null,,,,
null,"<img src=""stim_listA/argue6.gif""style=""height:400px;""></stim_listA>",,html-keyboard-response,255,2566779,0.0-17.0-1.1,4048,List2A,black,woman,,,,null,,,,
null,are arguing with each other,,html-keyboard-response,256,2568783,0.0-17.0-2.1,4048,List2A,black,woman,,,,null,,,,
39984,,,survey-text,257,2608772,0.0-17.0-3.1,4048,List2A,black,woman,,,,,"{""Q0"":""Mike and Luke are arguing with each other""}","<img src=""stim_listA/argue6.gif""style=""height:400px;""></stim_listA>",are arguing with each other,
null,"<div style=""font-size:60px;"">+</div>",,html-keyboard-response,258,2609278,0.0-17.0-0.2,4048,List2A,black,woman,,,,null,,,,
null,"<img src=""stim_listA/touch7.gif""style=""height:400px;""></stim_listA>",,html-keyboard-response,259,2611285,0.0-17.0-1.2,4048,List2A,black,woman,,,,null,,,,
null,is touching,,html-keyboard-response,260,2613289,0.0-17.0-2.2,4048,List2A,black,woman,,,,null,,,,
111415,,,survey-text,261,2724710,0.0-17.0-3.2,4048,List2A,black,woman,,,,,"{""Q0"":""Kate is touching Jane""}","<img src=""stim_listA/touch7.gif""style=""height:400px;""></stim_listA>",is touching,
null,"<div style=""font-size:60px;"">+</div>",,html-keyboard-response,262,2725215,0.0-17.0-0.3,4048,List2A,black,woman,,,,null,,,,
null,"<img src=""stim_listA/shout1.gif""style=""height:400px;""></stim_listA>",,html-keyboard-response,263,2727222,0.0-17.0-1.3,4048,List2A,black,woman,,,,null,,,,
null,is shouting at,,html-keyboard-response,264,2729226,0.0-17.0-2.3,4048,List2A,black,woman,,,,null,,,,
25270,,,survey-text,265,2754502,0.0-17.0-3.3,4048,List2A,black,woman,,,,,"{""Q0"":""Ruth is shouting at Luke""}","<img src=""stim_listA/shout1.gif""style=""height:400px;""></stim_listA>",is shouting at,
null,"<div style=""font-size:60px;"">+</div>",,html-keyboard-response,266,2755007,0.0-17.0-0.4,4048,List2A,black,woman,,,,null,,,,
null,"<img src=""stim_listA/flirt6.gif""style=""height:400px;""></stim_listA>",,html-keyboard-response,267,2757014,0.0-17.0-1.4,4048,List2A,black,woman,,,,null,,,,
null,are flirting with each other,,html-keyboard-response,268,2759018,0.0-17.0-2.4,4048,List2A,black,woman,,,,null,,,,
25052,,,survey-text,269,2784076,0.0-17.0-3.4,4048,List2A,black,woman,,,,,"{""Q0"":""Dave and Fred are flirting with each other""}","<img src=""stim_listA/flirt6.gif""style=""height:400px;""></stim_listA>",are flirting with each other,
null,"<div style=""font-size:60px;"">+</div>",,html-keyboard-response,270,2784581,0.0-17.0-0.5,4048,List2A,black,woman,,,,null,,,,
null,"<img src=""stim_listA/kiss5.gif""style=""height:400px;""></stim_listA>",,html-keyboard-response,271,2786588,0.0-17.0-1.5,4048,List2A,black,woman,,,,null,,,,
null,is kissing,,html-keyboard-response,272,2788593,0.0-17.0-2.5,4048,List2A,black,woman,,,,null,,,,
22159,,,survey-text,273,2810759,0.0-17.0-3.5,4048,List2A,black,woman,,,,,"{""Q0"":""Fred is kissing Luke""}","<img src=""stim_listA/kiss5.gif""style=""height:400px;""></stim_listA>",is kissing,
null,"<div style=""font-size:60px;"">+</div>",,html-keyboard-response,274,2811264,0.0-17.0-0.6,4048,List2A,black,woman,,,,null,,,,
null,"<img src=""stim_listA/fight2.gif""style=""height:400px;""></stim_listA>",,html-keyboard-response,275,2813271,0.0-17.0-1.6,4048,List2A,black,woman,,,,null,,,,
null,are fighting each other,,html-keyboard-response,276,2815275,0.0-17.0-2.6,4048,List2A,black,woman,,,,null,,,,
32015,,,survey-text,277,2847295,0.0-17.0-3.6,4048,List2A,black,woman,,,,,"{""Q0"":""Ruth and Luke are fighting each other""}","<img src=""stim_listA/fight2.gif""style=""height:400px;""></stim_listA>",are fighting each other,
null,"<div style=""font-size:60px;"">+</div>",,html-keyboard-response,278,2847801,0.0-17.0-0.7,4048,List2A,black,woman,,,,null,,,,
null,"<img src=""stim_listA/talk8.gif""style=""height:400px;""></stim_listA>",,html-keyboard-response,279,2849809,0.0-17.0-1.7,4048,List2A,black,woman,,,,null,,,,
null,are talking to each other,,html-keyboard-response,280,2851813,0.0-17.0-2.7,4048,List2A,black,woman,,,,null,,,,
29821,,,survey-text,281,2881641,0.0-17.0-3.7,4048,List2A,black,woman,,,,,"{""Q0"":""Beth and Jane are talking to each other""}","<img src=""stim_listA/talk8.gif""style=""height:400px;""></stim_listA>",are talking to each other,
null,"<div style=""font-size:60px;"">+</div>",,html-keyboard-response,282,2882146,0.0-17.0-0.8,4048,List2A,black,woman,,,,null,,,,
null,"<img src=""stim_listA/talk2.gif""style=""height:400px;""></stim_listA>",,html-keyboard-response,283,2884153,0.0-17.0-1.8,4048,List2A,black,woman,,,,null,,,,
null,are talking to each other,,html-keyboard-response,284,2886157,0.0-17.0-2.8,4048,List2A,black,woman,,,,null,,,,
35361,,,survey-text,285,2921523,0.0-17.0-3.8,4048,List2A,black,woman,,,,,"{""Q0"":""Ruth and Dave are talking to each other""}","<img src=""stim_listA/talk2.gif""style=""height:400px;""></stim_listA>",are talking to each other,
null,"<div style=""font-size:60px;"">+</div>",,html-keyboard-response,286,2922030,0.0-17.0-0.9,4048,List2A,black,woman,,,,null,,,,
null,"<img src=""stim_listA/kiss3.gif""style=""height:400px;""></stim_listA>",,html-keyboard-response,287,2924038,0.0-17.0-1.9,4048,List2A,black,woman,,,,null,,,,
null,is kissing,,html-keyboard-response,288,2926042,0.0-17.0-2.9,4048,List2A,black,woman,,,,null,,,,
33492,,,survey-text,289,2959540,0.0-17.0-3.9,4048,List2A,black,woman,,,,,"{""Q0"":""Beth is kissing Fred""}","<img src=""stim_listA/kiss3.gif""style=""height:400px;""></stim_listA>",is kissing,
null,"<div style=""font-size:60px;"">+</div>",,html-keyboard-response,290,2960046,0.0-17.0-0.10,4048,List2A,black,woman,,,,null,,,,
null,"<img src=""stim_listA/argue2.gif""style=""height:400px;""></stim_listA>",,html-keyboard-response,291,2962055,0.0-17.0-1.10,4048,List2A,black,woman,,,,null,,,,
null,are arguing with each other,,html-keyboard-response,292,2964060,0.0-17.0-2.10,4048,List2A,black,woman,,,,null,,,,
35113,,,survey-text,293,2999182,0.0-17.0-3.10,4048,List2A,black,woman,,,,,"{""Q0"":""Jane and Luke are arguing with each other""}","<img src=""stim_listA/argue2.gif""style=""height:400px;""></stim_listA>",are arguing with each other,
null,"<div style=""font-size:60px;"">+</div>",,html-keyboard-response,294,2999689,0.0-17.0-0.11,4048,List2A,black,woman,,,,null,,,,
null,"<img src=""stim_listA/argue3.gif""style=""height:400px;""></stim_listA>",,html-keyboard-response,295,3001696,0.0-17.0-1.11,4048,List2A,black,woman,,,,null,,,,
null,is arguing with,,html-keyboard-response,296,3003701,0.0-17.0-2.11,4048,List2A,black,woman,,,,null,,,,
32663,,,survey-text,297,3036370,0.0-17.0-3.11,4048,List2A,black,woman,,,,,"{""Q0"":""Beth is arguing with Mike""}","<img src=""stim_listA/argue3.gif""style=""height:400px;""></stim_listA>",is arguing with,
null,"<div style=""font-size:60px;"">+</div>",,html-keyboard-response,298,3036876,0.0-17.0-0.12,4048,List2A,black,woman,,,,null,,,,
null,"<img src=""stim_listA/touch2.gif""style=""height:400px;""></stim_listA>",,html-keyboard-response,299,3038883,0.0-17.0-1.12,4048,List2A,black,woman,,,,null,,,,
null,are touching each other,,html-keyboard-response,300,3040888,0.0-17.0-2.12,4048,List2A,black,woman,,,,null,,,,
21800,,,survey-text,301,3062694,0.0-17.0-3.12,4048,List2A,black,woman,,,,,"{""Q0"":""Luke is touching Ruth""}","<img src=""stim_listA/touch2.gif""style=""height:400px;""></stim_listA>",are touching each other,
null,"<div style=""font-size:60px;"">+</div>",,html-keyboard-response,302,3063200,0.0-17.0-0.13,4048,List2A,black,woman,,,,null,,,,
null,"<img src=""stim_listA/fight3.gif""style=""height:400px;""></stim_listA>",,html-keyboard-response,303,3065207,0.0-17.0-1.13,4048,List2A,black,woman,,,,null,,,,
null,is fighting,,html-keyboard-response,304,3067211,0.0-17.0-2.13,4048,List2A,black,woman,,,,null,,,,
24317,,,survey-text,305,3091534,0.0-17.0-3.13,4048,List2A,black,woman,,,,,"{""Q0"":""Kate is fighting Mike""}","<img src=""stim_listA/fight3.gif""style=""height:400px;""></stim_listA>",is fighting,
null,"<div style=""font-size:60px;"">+</div>",,html-keyboard-response,306,3092039,0.0-17.0-0.14,4048,List2A,black,woman,,,,null,,,,
null,"<img src=""stim_listA/flirt8.gif""style=""height:400px;""></stim_listA>",,html-keyboard-response,307,3094046,0.0-17.0-1.14,4048,List2A,black,woman,,,,null,,,,
null,are flirting with each other,,html-keyboard-response,308,3096057,0.0-17.0-2.14,4048,List2A,black,woman,,,,null,,,,
43100,,,survey-text,309,3139163,0.0-17.0-3.14,4048,List2A,black,woman,,,,,"{""Q0"":""Kate and Jane are flirting with each other""}","<img src=""stim_listA/flirt8.gif""style=""height:400px;""></stim_listA>",are flirting with each other,
null,"<div style=""font-size:60px;"">+</div>",,html-keyboard-response,310,3139668,0.0-17.0-0.15,4048,List2A,black,woman,,,,null,,,,
null,"<img src=""stim_listA/talk1.gif""style=""height:400px;""></stim_listA>",,html-keyboard-response,311,3141675,0.0-17.0-1.15,4048,List2A,black,woman,,,,null,,,,
null,is talking to,,html-keyboard-response,312,3143679,0.0-17.0-2.15,4048,List2A,black,woman,,,,null,,,,
32922,,,survey-text,313,3176607,0.0-17.0-3.15,4048,List2A,black,woman,,,,,"{""Q0"":""Jane is talking to Luke""}","<img src=""stim_listA/talk1.gif""style=""height:400px;""></stim_listA>",is talking to,
null,"<div style=""font-size:60px;"">+</div>",,html-keyboard-response,314,3177111,0.0-17.0-0.16,4048,List2A,black,woman,,,,null,,,,
null,"<img src=""stim_listA/touch8.gif""style=""height:400px;""></stim_listA>",,html-keyboard-response,315,3179118,0.0-17.0-1.16,4048,List2A,black,woman,,,,null,,,,
null,are touching each other,,html-keyboard-response,316,3181123,0.0-17.0-2.16,4048,List2A,black,woman,,,,null,,,,
34188,,,survey-text,317,3215318,0.0-17.0-3.16,4048,List2A,black,woman,,,,,"{""Q0"":""Beth and Ruth are touching each other""}","<img src=""stim_listA/touch8.gif""style=""height:400px;""></stim_listA>",are touching each other,
null,"<div style=""font-size:60px;"">+</div>",,html-keyboard-response,318,3215823,0.0-17.0-0.17,4048,List2A,black,woman,,,,null,,,,
null,"<img src=""stim_listA/fight4.gif""style=""height:400px;""></stim_listA>",,html-keyboard-response,319,3217831,0.0-17.0-1.17,4048,List2A,black,woman,,,,null,,,,
null,are fighting each other,,html-keyboard-response,320,3219835,0.0-17.0-2.17,4048,List2A,black,woman,,,,null,,,,
43839,,,survey-text,321,3263680,0.0-17.0-3.17,4048,List2A,black,woman,,,,,"{""Q0"":""Beth and Fred are fighting each y""}","<img src=""stim_listA/fight4.gif""style=""height:400px;""></stim_listA>",are fighting each other,
null,"<div style=""font-size:60px;"">+</div>",,html-keyboard-response,322,3264185,0.0-17.0-0.18,4048,List2A,black,woman,,,,null,,,,
null,"<img src=""stim_listA/talk4.gif""style=""height:400px;""></stim_listA>",,html-keyboard-response,323,3266193,0.0-17.0-1.18,4048,List2A,black,woman,,,,null,,,,
null,are talking to each other,,html-keyboard-response,324,3268198,0.0-17.0-2.18,4048,List2A,black,woman,,,,null,,,,
25358,,,survey-text,325,3293562,0.0-17.0-3.18,4048,List2A,black,woman,,,,,"{""Q0"":""Mike and Beth are talking to each other""}","<img src=""stim_listA/talk4.gif""style=""height:400px;""></stim_listA>",are talking to each other,
null,"<div style=""font-size:60px;"">+</div>",,html-keyboard-response,326,3294068,0.0-17.0-0.19,4048,List2A,black,woman,,,,null,,,,
null,"<img src=""stim_listA/shout3.gif""style=""height:400px;""></stim_listA>",,html-keyboard-response,327,3296075,0.0-17.0-1.19,4048,List2A,black,woman,,,,null,,,,
null,is shouting at,,html-keyboard-response,328,3298079,0.0-17.0-2.19,4048,List2A,black,woman,,,,null,,,,
29482,,,survey-text,329,3327567,0.0-17.0-3.19,4048,List2A,black,woman,,,,,"{""Q0"":""Beth is shouting at Fred""}","<img src=""stim_listA/shout3.gif""style=""height:400px;""></stim_listA>",is shouting at,
9994,"<img src='img/portrait_matrix_list2.jpg' style='width:900px;height:500px;''></img><p>If you have memorised all the portraits and names and are ready to start, press Continue.</p><p><strong>Please note: Your memory of these faces will be tested 4 times during this experiment.</strong></p>",0,html-button-response,330,3337568,0.0-18.0-0.0,4048,List2A,black,woman,,,,,,,,
2781,"<img src=""portrait/WW2.jpg""style=""height:400px;""></img>",3,html-button-response,331,3341359,0.0-18.0-1.0,4048,List2A,black,woman,,TRUE,3,,,,,
null,CORRECT,,html-keyboard-response,332,3342868,0.0-18.0-2.0-0.0,4048,List2A,black,woman,,,,null,,,,
3569,"<img src=""portrait/WM2.jpg""style=""height:400px;""></img>",7,html-button-response,333,3346446,0.0-18.0-4.0,4048,List2A,black,woman,,TRUE,7,,,,,
null,CORRECT,,html-keyboard-response,334,3347950,0.0-18.0-5.0-0.0,4048,List2A,black,woman,,,,null,,,,
4080,"<img src=""portrait/BM2.jpg""style=""height:400px;""></img>",5,html-button-response,335,3352039,0.0-18.0-7.0,4048,List2A,black,woman,,TRUE,5,,,,,
null,CORRECT,,html-keyboard-response,336,3353546,0.0-18.0-8.0-0.0,4048,List2A,black,woman,,,,null,,,,
2285,"<img src=""portrait/BM1.jpg""style=""height:400px;""></img>",4,html-button-response,337,3355840,0.0-18.0-10.0,4048,List2A,black,woman,,TRUE,4,,,,,
null,CORRECT,,html-keyboard-response,338,3357345,0.0-18.0-11.0-0.0,4048,List2A,black,woman,,,,null,,,,
3912,"<img src=""portrait/BW2.jpg""style=""height:400px;""></img>",2,html-button-response,339,3361268,0.0-18.0-13.0,4048,List2A,black,woman,,TRUE,2,,,,,
null,CORRECT,,html-keyboard-response,340,3362774,0.0-18.0-14.0-0.0,4048,List2A,black,woman,,,,null,,,,
2724,"<img src=""portrait/BW1.jpg""style=""height:400px;""></img>",0,html-button-response,341,3365507,0.0-18.0-16.0,4048,List2A,black,woman,,TRUE,0,,,,,
null,CORRECT,,html-keyboard-response,342,3367015,0.0-18.0-17.0-0.0,4048,List2A,black,woman,,,,null,,,,
4904,"<img src=""portrait/WW1.jpg""style=""height:400px;""></img>",1,html-button-response,343,3371927,0.0-18.0-19.0,4048,List2A,black,woman,,TRUE,1,,,,,
null,CORRECT,,html-keyboard-response,344,3373434,0.0-18.0-20.0-0.0,4048,List2A,black,woman,,,,null,,,,
6910,"<img src=""portrait/WM1.jpg""style=""height:400px;""></img>",6,html-button-response,345,3380352,0.0-18.0-22.0,4048,List2A,black,woman,,TRUE,6,,,,,
null,CORRECT,,html-keyboard-response,346,3381862,0.0-18.0-23.0-0.0,4048,List2A,black,woman,,,,null,,,,
2887,<p>You got 8 out of 8 right first time. Press Continue.</p>,0,html-button-response,347,3384756,0.0-18.0-25.0,4048,List2A,black,woman,,,,,,,,
null,"<div style=""font-size:60px;"">+</div>",,html-keyboard-response,348,3386266,0.0-19.0-0.0,4048,List2A,black,woman,,,,null,,,,
null,"<img src=""stim_listA/marry7.gif""style=""height:400px;""></stim_listA>",,html-keyboard-response,349,3388273,0.0-19.0-1.0,4048,List2A,black,woman,,,,null,,,,
null,is marrying,,html-keyboard-response,350,3390277,0.0-19.0-2.0,4048,List2A,black,woman,,,,null,,,,
28181,,,survey-text,351,3418464,0.0-19.0-3.0,4048,List2A,black,woman,,,,,"{""Q0"":""Beth is marrying Jane""}","<img src=""stim_listA/marry7.gif""style=""height:400px;""></stim_listA>",is marrying,
null,"<div style=""font-size:60px;"">+</div>",,html-keyboard-response,352,3418969,0.0-19.0-0.1,4048,List2A,black,woman,,,,null,,,,
null,"<img src=""stim_listA/play2.gif""style=""height:400px;""></stim_listA>",,html-keyboard-response,353,3420976,0.0-19.0-1.1,4048,List2A,black,woman,,,,null,,,,
null,are playing with each other,,html-keyboard-response,354,3422980,0.0-19.0-2.1,4048,List2A,black,woman,,,,null,,,,
26728,,,survey-text,355,3449715,0.0-19.0-3.1,4048,List2A,black,woman,,,,,"{""Q0"":""Luke and Ruth are playing with each other""}","<img src=""stim_listA/play2.gif""style=""height:400px;""></stim_listA>",are playing with each other,
null,"<div style=""font-size:60px;"">+</div>",,html-keyboard-response,356,3450220,0.0-19.0-0.2,4048,List2A,black,woman,,,,null,,,,
null,"<img src=""stim_listA/dance8.gif""style=""height:400px;""></stim_listA>",,html-keyboard-response,357,3452228,0.0-19.0-1.2,4048,List2A,black,woman,,,,null,,,,
null,are dancing with each other,,html-keyboard-response,358,3454237,0.0-19.0-2.2,4048,List2A,black,woman,,,,null,,,,
30839,,,survey-text,359,3485082,0.0-19.0-3.2,4048,List2A,black,woman,,,,,"{""Q0"":""Beth and Jane are dancing with each other""}","<img src=""stim_listA/dance8.gif""style=""height:400px;""></stim_listA>",are dancing with each other,
null,"<div style=""font-size:60px;"">+</div>",,html-keyboard-response,360,3485588,0.0-19.0-0.3,4048,List2A,black,woman,,,,null,,,,
null,"<img src=""stim_listA/play1.gif""style=""height:400px;""></stim_listA>",,html-keyboard-response,361,3487595,0.0-19.0-1.3,4048,List2A,black,woman,,,,null,,,,
null,is playing with,,html-keyboard-response,362,3489600,0.0-19.0-2.3,4048,List2A,black,woman,,,,null,,,,
26181,,,survey-text,363,3515787,0.0-19.0-3.3,4048,List2A,black,woman,,,,,"{""Q0"":""Dave is playing with Jane""}","<img src=""stim_listA/play1.gif""style=""height:400px;""></stim_listA>",is playing with,
null,"<div style=""font-size:60px;"">+</div>",,html-keyboard-response,364,3516293,0.0-19.0-0.4,4048,List2A,black,woman,,,,null,,,,
null,"<img src=""stim_listA/talk5.gif""style=""height:400px;""></stim_listA>",,html-keyboard-response,365,3518300,0.0-19.0-1.4,4048,List2A,black,woman,,,,null,,,,
null,is talking to,,html-keyboard-response,366,3520305,0.0-19.0-2.4,4048,List2A,black,woman,,,,null,,,,
19185,,,survey-text,367,3539500,0.0-19.0-3.4,4048,List2A,black,woman,,,,,"{""Q0"":""Mike is talking to Luke""}","<img src=""stim_listA/talk5.gif""style=""height:400px;""></stim_listA>",is talking to,
null,"<div style=""font-size:60px;"">+</div>",,html-keyboard-response,368,3540006,0.0-19.0-0.5,4048,List2A,black,woman,,,,null,,,,
null,"<img src=""stim_listA/fight8.gif""style=""height:400px;""></stim_listA>",,html-keyboard-response,369,3542014,0.0-19.0-1.5,4048,List2A,black,woman,,,,null,,,,
null,are fighting each other,,html-keyboard-response,370,3544023,0.0-19.0-2.5,4048,List2A,black,woman,,,,null,,,,
39614,,,survey-text,371,3583646,0.0-19.0-3.5,4048,List2A,black,woman,,,,,"{""Q0"":""Beth and Ruth are fighting each other""}","<img src=""stim_listA/fight8.gif""style=""height:400px;""></stim_listA>",are fighting each other,
null,"<div style=""font-size:60px;"">+</div>",,html-keyboard-response,372,3584153,0.0-19.0-0.6,4048,List2A,black,woman,,,,null,,,,
null,"<img src=""stim_listA/marry6.gif""style=""height:400px;""></stim_listA>",,html-keyboard-response,373,3586160,0.0-19.0-1.6,4048,List2A,black,woman,,,,null,,,,
null,are marrying each other,,html-keyboard-response,374,3588164,0.0-19.0-2.6,4048,List2A,black,woman,,,,null,,,,
34427,,,survey-text,375,3622597,0.0-19.0-3.6,4048,List2A,black,woman,,,,,"{""Q0"":""Luke and Mike are marrying each other""}","<img src=""stim_listA/marry6.gif""style=""height:400px;""></stim_listA>",are marrying each other,
null,"<div style=""font-size:60px;"">+</div>",,html-keyboard-response,376,3623103,0.0-19.0-0.7,4048,List2A,black,woman,,,,null,,,,
null,"<img src=""stim_listA/dance1.gif""style=""height:400px;""></stim_listA>",,html-keyboard-response,377,3625110,0.0-19.0-1.7,4048,List2A,black,woman,,,,null,,,,
null,is dancing with,,html-keyboard-response,378,3627114,0.0-19.0-2.7,4048,List2A,black,woman,,,,null,,,,
40112,,,survey-text,379,3667234,0.0-19.0-3.7,4048,List2A,black,woman,,,,,"{""Q0"":""Jane is dancing with  Luke""}","<img src=""stim_listA/dance1.gif""style=""height:400px;""></stim_listA>",is dancing with,
null,"<div style=""font-size:60px;"">+</div>",,html-keyboard-response,380,3667741,0.0-19.0-0.8,4048,List2A,black,woman,,,,null,,,,
null,"<img src=""stim_listA/play6.gif""style=""height:400px;""></stim_listA>",,html-keyboard-response,381,3669748,0.0-19.0-1.8,4048,List2A,black,woman,,,,null,,,,
null,are playing with each other,,html-keyboard-response,382,3671752,0.0-19.0-2.8,4048,List2A,black,woman,,,,null,,,,
120047,,,survey-text,383,3791809,0.0-19.0-3.8,4048,List2A,black,woman,,,,,"{""Q0"":""Luke and Fred are playing with each other""}","<img src=""stim_listA/play6.gif""style=""height:400px;""></stim_listA>",are playing with each other,
null,"<div style=""font-size:60px;"">+</div>",,html-keyboard-response,384,3792314,0.0-19.0-0.9,4048,List2A,black,woman,,,,null,,,,
null,"<img src=""stim_listA/fight6.gif""style=""height:400px;""></stim_listA>",,html-keyboard-response,385,3794321,0.0-19.0-1.9,4048,List2A,black,woman,,,,null,,,,
null,are fighting each other,,html-keyboard-response,386,3796326,0.0-19.0-2.9,4048,List2A,black,woman,,,,null,,,,
24562,,,survey-text,387,3820894,0.0-19.0-3.9,4048,List2A,black,woman,,,,,"{""Q0"":""Luke and Fred are fighting each other""}","<img src=""stim_listA/fight6.gif""style=""height:400px;""></stim_listA>",are fighting each other,
null,"<div style=""font-size:60px;"">+</div>",,html-keyboard-response,388,3821399,0.0-19.0-0.10,4048,List2A,black,woman,,,,null,,,,
null,"<img src=""stim_listA/kiss2.gif""style=""height:400px;""></stim_listA>",,html-keyboard-response,389,3823407,0.0-19.0-1.10,4048,List2A,black,woman,,,,null,,,,
null,are kissing each other,,html-keyboard-response,390,3825412,0.0-19.0-2.10,4048,List2A,black,woman,,,,null,,,,
25453,,,survey-text,391,3850871,0.0-19.0-3.10,4048,List2A,black,woman,,,,,"{""Q0"":""Dave and jane are kissing each other""}","<img src=""stim_listA/kiss2.gif""style=""height:400px;""></stim_listA>",are kissing each other,
null,"<div style=""font-size:60px;"">+</div>",,html-keyboard-response,392,3851377,0.0-19.0-0.11,4048,List2A,black,woman,,,,null,,,,
null,"<img src=""stim_listA/play5.gif""style=""height:400px;""></stim_listA>",,html-keyboard-response,393,3853386,0.0-19.0-1.11,4048,List2A,black,woman,,,,null,,,,
null,is playing with,,html-keyboard-response,394,3855391,0.0-19.0-2.11,4048,List2A,black,woman,,,,null,,,,
19313,,,survey-text,395,3874710,0.0-19.0-3.11,4048,List2A,black,woman,,,,,"{""Q0"":""Mike is playing with Dave""}","<img src=""stim_listA/play5.gif""style=""height:400px;""></stim_listA>",is playing with,
null,"<div style=""font-size:60px;"">+</div>",,html-keyboard-response,396,3875215,0.0-19.0-0.12,4048,List2A,black,woman,,,,null,,,,
null,"<img src=""stim_listA/marry5.gif""style=""height:400px;""></stim_listA>",,html-keyboard-response,397,3877223,0.0-19.0-1.12,4048,List2A,black,woman,,,,null,,,,
null,is marrying,,html-keyboard-response,398,3879230,0.0-19.0-2.12,4048,List2A,black,woman,,,,null,,,,
20722,,,survey-text,399,3899959,0.0-19.0-3.12,4048,List2A,black,woman,,,,,"{""Q0"":""Dave is marrying Fred""}","<img src=""stim_listA/marry5.gif""style=""height:400px;""></stim_listA>",is marrying,
null,"<div style=""font-size:60px;"">+</div>",,html-keyboard-response,400,3900465,0.0-19.0-0.13,4048,List2A,black,woman,,,,null,,,,
null,"<img src=""stim_listA/dance7.gif""style=""height:400px;""></stim_listA>",,html-keyboard-response,401,3902473,0.0-19.0-1.13,4048,List2A,black,woman,,,,null,,,,
null,is dancing with,,html-keyboard-response,402,3904479,0.0-19.0-2.13,4048,List2A,black,woman,,,,null,,,,
22240,,,survey-text,403,3926727,0.0-19.0-3.13,4048,List2A,black,woman,,,,,"{""Q0"":""Ruth is dancing with Kate""}","<img src=""stim_listA/dance7.gif""style=""height:400px;""></stim_listA>",is dancing with,
null,"<div style=""font-size:60px;"">+</div>",,html-keyboard-response,404,3927233,0.0-19.0-0.14,4048,List2A,black,woman,,,,null,,,,
null,"<img src=""stim_listA/kiss7.gif""style=""height:400px;""></stim_listA>",,html-keyboard-response,405,3929240,0.0-19.0-1.14,4048,List2A,black,woman,,,,null,,,,
null,is kissing,,html-keyboard-response,406,3931245,0.0-19.0-2.14,4048,List2A,black,woman,,,,null,,,,
20701,,,survey-text,407,3951952,0.0-19.0-3.14,4048,List2A,black,woman,,,,,"{""Q0"":""Beth is kissing Ruth""}","<img src=""stim_listA/kiss7.gif""style=""height:400px;""></stim_listA>",is kissing,
null,"<div style=""font-size:60px;"">+</div>",,html-keyboard-response,408,3952457,0.0-19.0-0.15,4048,List2A,black,woman,,,,null,,,,
null,"<img src=""stim_listA/dance5.gif""style=""height:400px;""></stim_listA>",,html-keyboard-response,409,3954464,0.0-19.0-1.15,4048,List2A,black,woman,,,,null,,,,
null,is dancing with,,html-keyboard-response,410,3956469,0.0-19.0-2.15,4048,List2A,black,woman,,,,null,,,,
15935,,,survey-text,411,3972410,0.0-19.0-3.15,4048,List2A,black,woman,,,,,"{""Q0"":""Luke is dancing with Mike""}","<img src=""stim_listA/dance5.gif""style=""height:400px;""></stim_listA>",is dancing with,
null,"<div style=""font-size:60px;"">+</div>",,html-keyboard-response,412,3972916,0.0-19.0-0.16,4048,List2A,black,woman,,,,null,,,,
null,"<img src=""stim_listA/fight5.gif""style=""height:400px;""></stim_listA>",,html-keyboard-response,413,3974923,0.0-19.0-1.16,4048,List2A,black,woman,,,,null,,,,
null,is fighting,,html-keyboard-response,414,3976932,0.0-19.0-2.16,4048,List2A,black,woman,,,,null,,,,
14765,,,survey-text,415,3991704,0.0-19.0-3.16,4048,List2A,black,woman,,,,,"{""Q0"":""Mike is fighting Dave""}","<img src=""stim_listA/fight5.gif""style=""height:400px;""></stim_listA>",is fighting,
null,"<div style=""font-size:60px;"">+</div>",,html-keyboard-response,416,3992210,0.0-19.0-0.17,4048,List2A,black,woman,,,,null,,,,
null,"<img src=""stim_listA/argue7.gif""style=""height:400px;""></stim_listA>",,html-keyboard-response,417,3994217,0.0-19.0-1.17,4048,List2A,black,woman,,,,null,,,,
null,is arguing with,,html-keyboard-response,418,3996222,0.0-19.0-2.17,4048,List2A,black,woman,,,,null,,,,
17030,,,survey-text,419,4013260,0.0-19.0-3.17,4048,List2A,black,woman,,,,,"{""Q0"":""Beth is arguing with jane""}","<img src=""stim_listA/argue7.gif""style=""height:400px;""></stim_listA>",is arguing with,
null,"<div style=""font-size:60px;"">+</div>",,html-keyboard-response,420,4013768,0.0-19.0-0.18,4048,List2A,black,woman,,,,null,,,,
null,"<img src=""stim_listA/kiss6.gif""style=""height:400px;""></stim_listA>",,html-keyboard-response,421,4015775,0.0-19.0-1.18,4048,List2A,black,woman,,,,null,,,,
null,are kissing each other,,html-keyboard-response,422,4017782,0.0-19.0-2.18,4048,List2A,black,woman,,,,null,,,,
25225,,,survey-text,423,4043013,0.0-19.0-3.18,4048,List2A,black,woman,,,,,"{""Q0"":""Mike and Dave are kissing each other""}","<img src=""stim_listA/kiss6.gif""style=""height:400px;""></stim_listA>",are kissing each other,
null,"<div style=""font-size:60px;"">+</div>",,html-keyboard-response,424,4043519,0.0-19.0-0.19,4048,List2A,black,woman,,,,null,,,,
null,"<img src=""stim_listA/talk3.gif""style=""height:400px;""></stim_listA>",,html-keyboard-response,425,4045526,0.0-19.0-1.19,4048,List2A,black,woman,,,,null,,,,
null,is talking to,,html-keyboard-response,426,4047530,0.0-19.0-2.19,4048,List2A,black,woman,,,,null,,,,
20282,,,survey-text,427,4067819,0.0-19.0-3.19,4048,List2A,black,woman,,,,,"{""Q0"":""Kate is talking to Fred""}","<img src=""stim_listA/talk3.gif""style=""height:400px;""></stim_listA>",is talking to,
2519,<p>Thank you for completing that task.</p><p>The final part of this session is a short questionnaire.</p><p>Press Continue.</p>,0,html-button-response,428,4070344,0.0-20.0,4048,List2A,black,woman,,,,,,,,
45261,,,survey-text,429,4116617,0.0-21.0,4048,List2A,black,woman,,,,,"{""Q0"":""42"",""Q1"":""English"",""Q2"":""English"",""Q3"":""England"",""Q4"":""African"",""Q5"":""Female""}",,,demographics
28377,,,survey-likert,430,4145009,0.0-22.0,4048,List2A,black,woman,,,,,"{""Q0"":2}",,,likert_ESS
29603,,,survey-likert,431,4174626,0.0-23.0,4048,List2A,black,woman,,,,,"{""Q0"":5}",,,likert_NSSAL_Q1
6818,,,survey-likert,432,4181457,0.0-24.0,4048,List2A,black,woman,,,,,"{""Q0"":5}",,,likert_NSSAL_Q2
9277,,,survey-likert,433,4190746,0.0-25.0,4048,List2A,black,woman,,,,,"{""Q0"":3}",,,likert_CGRS_Q1
4053,,,survey-likert,434,4194810,0.0-26.0,4048,List2A,black,woman,,,,,"{""Q0"":2}",,,likert_CGRS_Q2
3552,,,survey-likert,435,4198374,0.0-27.0,4048,List2A,black,woman,,,,,"{""Q0"":2}",,,likert_CGRS_Q3
7969,,,survey-text,436,4206355,0.0-28.0,4048,List2A,black,woman,,,,,"{""Q0"":""ccc""}",,,worker_id
31994,,,external-html,437,4238580,0.0-29.0,4048,List2A,black,woman,debrief.html,,,,,,,
