rt,stimulus,button_pressed,trial_type,trial_index,time_elapsed,internal_node_id,subject,list,ppt_race,ppt_gender,url,first_guess,correct,key_press,responses,image_type,phrase_type,test_part
7139,Welcome to the experiment. Press Continue to begin.,0,html-button-response,0,7144,0.0-0.0,40553,List2A,black,man,,,,,,,,
5882,,,external-html,1,14034,0.0-1.0,40553,List2A,black,man,consent.html,,,,,,,
5405,"<p>On the next page, you will see portraits of 8 people and their names.</p><p>Your first task is to take a few minutes to memorise the names of these people.</p><p>You will have to recall their names during the rest of the experiment, so it is</p><p>essential that you try to memorise these people and their names as best as you can.</p><br><p><strong>You will then be tested on your memory of these names and portraits.</strong></p><br><p>The experiment will start after you have completed this memory test.</p><br><p>Ready?</p>",0,html-button-response,2,19441,0.0-2.0,40553,List2A,black,man,,,,,,,,
1778,"<img src='img/portrait_matrix_list2.jpg' style='width:900px;height:500px;''></img><p>If you have memorised all the portraits and names and are ready to start, press Continue.</p><p><strong>Please note: Your memory of these faces will be tested 4 times during this experiment.</strong></p>",0,html-button-response,3,22222,0.0-3.0-0.0,40553,List2A,black,man,,,,,,,,
3763,"<img src=""portrait/BW2.jpg""style=""height:400px;""></img>",2,html-button-response,4,26988,0.0-3.0-1.0,40553,List2A,black,man,,TRUE,2,,,,,
null,CORRECT,,html-keyboard-response,5,28493,0.0-3.0-2.0-0.0,40553,List2A,black,man,,,,null,,,,
3604,"<img src=""portrait/WM2.jpg""style=""height:400px;""></img>",7,html-button-response,6,32098,0.0-3.0-4.0,40553,List2A,black,man,,TRUE,7,,,,,
null,CORRECT,,html-keyboard-response,7,33602,0.0-3.0-5.0-0.0,40553,List2A,black,man,,,,null,,,,
2259,"<img src=""portrait/BM1.jpg""style=""height:400px;""></img>",4,html-button-response,8,35863,0.0-3.0-7.0,40553,List2A,black,man,,TRUE,4,,,,,
null,CORRECT,,html-keyboard-response,9,37365,0.0-3.0-8.0-0.0,40553,List2A,black,man,,,,null,,,,
3277,"<img src=""portrait/WM1.jpg""style=""height:400px;""></img>",6,html-button-response,10,40643,0.0-3.0-10.0,40553,List2A,black,man,,TRUE,6,,,,,
null,CORRECT,,html-keyboard-response,11,42146,0.0-3.0-11.0-0.0,40553,List2A,black,man,,,,null,,,,
4331,"<img src=""portrait/BM2.jpg""style=""height:400px;""></img>",5,html-button-response,12,46478,0.0-3.0-13.0,40553,List2A,black,man,,TRUE,5,,,,,
null,CORRECT,,html-keyboard-response,13,47980,0.0-3.0-14.0-0.0,40553,List2A,black,man,,,,null,,,,
2825,"<img src=""portrait/WW1.jpg""style=""height:400px;""></img>",1,html-button-response,14,50806,0.0-3.0-16.0,40553,List2A,black,man,,TRUE,1,,,,,
null,CORRECT,,html-keyboard-response,15,52310,0.0-3.0-17.0-0.0,40553,List2A,black,man,,,,null,,,,
5662,"<img src=""portrait/BW1.jpg""style=""height:400px;""></img>",0,html-button-response,16,57973,0.0-3.0-19.0,40553,List2A,black,man,,TRUE,0,,,,,
null,CORRECT,,html-keyboard-response,17,59476,0.0-3.0-20.0-0.0,40553,List2A,black,man,,,,null,,,,
3323,"<img src=""portrait/WW2.jpg""style=""height:400px;""></img>",3,html-button-response,18,62800,0.0-3.0-22.0,40553,List2A,black,man,,TRUE,3,,,,,
null,CORRECT,,html-keyboard-response,19,64303,0.0-3.0-23.0-0.0,40553,List2A,black,man,,,,null,,,,
1616,<p>You got 8 out of 8 right first time. Press Continue.</p>,0,html-button-response,20,65920,0.0-3.0-25.0,40553,List2A,black,man,,,,,,,,
50789,"<p>In this experiment, you will view photographs of the people from the memory game interacting.</p><p>By using the <strong>exact</strong> phrase given <i>after</i> the photograph appears and recalling the correct names of the people in the photographs, form a sentence describing the interaction. You do not need to capitalise names.</p><p>Type your answer in the space provided. Please complete every sentence before moving onto the next trial.</p><p>You will only have a few seconds to memorise each given photograph and phrase before you can respond, so try your best to focus.</p><p>An example is given below. Press 'Continue' when you are ready.</p><img src='img/speaking_example.jpg' style='width:800px;height:460px;''></img>",0,html-button-response,21,117712,0.0-4.0,40553,List2A,black,man,,,,,,,,
1145,"<p>Before the experiment starts, you will watch two example trials. Press 'Continue'.</p>",0,html-button-response,22,119859,0.0-5.0,40553,List2A,black,man,,,,,,,,
null,<img src='img/meet_eg.gif' style='height:400px;''></img>,,html-keyboard-response,23,122863,0.0-6.0,40553,List2A,black,man,,,,null,,,,
null,<p>is meeting</p>,,html-keyboard-response,24,124864,0.0-7.0,40553,List2A,black,man,,,,null,,,,
1511,<p><b>Answer:</b> jane is meeting ruth</p>,0,html-button-response,25,126377,0.0-8.0,40553,List2A,black,man,,,,,,,,
null,<img src='img/look_eg.gif' style='height:400px;''></img>,,html-keyboard-response,26,129379,0.0-9.0,40553,List2A,black,man,,,,null,,,,
null,<p>are looking at each other</p>,,html-keyboard-response,27,131385,0.0-10.0,40553,List2A,black,man,,,,null,,,,
996,<p><b>Answer:</b> fred and mike are looking at each other</p>,0,html-button-response,28,132383,0.0-11.0,40553,List2A,black,man,,,,,,,,
1821,"<p>Ready to start the experiment?</p><br><p><strong>Remember to describe the picture using a full sentence,</strong></p><p><strong>that combines the names of the people with the <i>exact</i> phrase given.</strong></p><p><strong>To receive full payment you must do this correctly.</strong></p><p><strong> You do not need to capitalise names or use punctuation.</strong></p><br><p>Press 'Continue' to begin.</p>",0,html-button-response,29,135207,0.0-12.0,40553,List2A,black,man,,,,,,,,
null,"<div style=""font-size:60px;"">+</div>",,html-keyboard-response,30,136710,0.0-13.0-0.0,40553,List2A,black,man,,,,null,,,,
null,"<img src=""stim_listA/talk7.gif""style=""height:400px;""></stim_listA>",,html-keyboard-response,31,138712,0.0-13.0-1.0,40553,List2A,black,man,,,,null,,,,
null,is talking to,,html-keyboard-response,32,140713,0.0-13.0-2.0,40553,List2A,black,man,,,,null,,,,
11291,,,survey-text,33,152006,0.0-13.0-3.0,40553,List2A,black,man,,,,,"{""Q0"":""Kate is talking to Jane""}","<img src=""stim_listA/talk7.gif""style=""height:400px;""></stim_listA>",is talking to,
null,"<div style=""font-size:60px;"">+</div>",,html-keyboard-response,34,152507,0.0-13.0-0.1,40553,List2A,black,man,,,,null,,,,
null,"<img src=""stim_listA/fight3.gif""style=""height:400px;""></stim_listA>",,html-keyboard-response,35,154509,0.0-13.0-1.1,40553,List2A,black,man,,,,null,,,,
null,is fighting,,html-keyboard-response,36,156512,0.0-13.0-2.1,40553,List2A,black,man,,,,null,,,,
48505,,,survey-text,37,205017,0.0-13.0-3.1,40553,List2A,black,man,,,,,"{""Q0"":""Kate is fighting Mike ""}","<img src=""stim_listA/fight3.gif""style=""height:400px;""></stim_listA>",is fighting,
null,"<div style=""font-size:60px;"">+</div>",,html-keyboard-response,38,205519,0.0-13.0-0.2,40553,List2A,black,man,,,,null,,,,
null,"<img src=""stim_listA/play1.gif""style=""height:400px;""></stim_listA>",,html-keyboard-response,39,207521,0.0-13.0-1.2,40553,List2A,black,man,,,,null,,,,
null,is playing with,,html-keyboard-response,40,209522,0.0-13.0-2.2,40553,List2A,black,man,,,,null,,,,
16563,,,survey-text,41,226085,0.0-13.0-3.2,40553,List2A,black,man,,,,,"{""Q0"":""Jane is playing with Dave""}","<img src=""stim_listA/play1.gif""style=""height:400px;""></stim_listA>",is playing with,
null,"<div style=""font-size:60px;"">+</div>",,html-keyboard-response,42,226586,0.0-13.0-0.3,40553,List2A,black,man,,,,null,,,,
null,"<img src=""stim_listA/flirt1.gif""style=""height:400px;""></stim_listA>",,html-keyboard-response,43,228589,0.0-13.0-1.3,40553,List2A,black,man,,,,null,,,,
null,is flirting with,,html-keyboard-response,44,230590,0.0-13.0-2.3,40553,List2A,black,man,,,,null,,,,
10483,,,survey-text,45,241074,0.0-13.0-3.3,40553,List2A,black,man,,,,,"{""Q0"":""Jane is flirting with Luke""}","<img src=""stim_listA/flirt1.gif""style=""height:400px;""></stim_listA>",is flirting with,
null,"<div style=""font-size:60px;"">+</div>",,html-keyboard-response,46,241575,0.0-13.0-0.4,40553,List2A,black,man,,,,null,,,,
null,"<img src=""stim_listA/play2.gif""style=""height:400px;""></stim_listA>",,html-keyboard-response,47,243577,0.0-13.0-1.4,40553,List2A,black,man,,,,null,,,,
null,are playing with each other,,html-keyboard-response,48,245579,0.0-13.0-2.4,40553,List2A,black,man,,,,null,,,,
13649,,,survey-text,49,259229,0.0-13.0-3.4,40553,List2A,black,man,,,,,"{""Q0"":""Luke and Ruth are playing with each other""}","<img src=""stim_listA/play2.gif""style=""height:400px;""></stim_listA>",are playing with each other,
null,"<div style=""font-size:60px;"">+</div>",,html-keyboard-response,50,259732,0.0-13.0-0.5,40553,List2A,black,man,,,,null,,,,
null,"<img src=""stim_listA/marry6.gif""style=""height:400px;""></stim_listA>",,html-keyboard-response,51,261735,0.0-13.0-1.5,40553,List2A,black,man,,,,null,,,,
null,are marrying each other,,html-keyboard-response,52,263737,0.0-13.0-2.5,40553,List2A,black,man,,,,null,,,,
14813,,,survey-text,53,278550,0.0-13.0-3.5,40553,List2A,black,man,,,,,"{""Q0"":""Luke and Mike are marrying each other""}","<img src=""stim_listA/marry6.gif""style=""height:400px;""></stim_listA>",are marrying each other,
null,"<div style=""font-size:60px;"">+</div>",,html-keyboard-response,54,279052,0.0-13.0-0.6,40553,List2A,black,man,,,,null,,,,
null,"<img src=""stim_listA/shout1.gif""style=""height:400px;""></stim_listA>",,html-keyboard-response,55,281054,0.0-13.0-1.6,40553,List2A,black,man,,,,null,,,,
null,is shouting at,,html-keyboard-response,56,283055,0.0-13.0-2.6,40553,List2A,black,man,,,,null,,,,
9595,,,survey-text,57,292652,0.0-13.0-3.6,40553,List2A,black,man,,,,,"{""Q0"":""Ruth is shouting at Luke""}","<img src=""stim_listA/shout1.gif""style=""height:400px;""></stim_listA>",is shouting at,
null,"<div style=""font-size:60px;"">+</div>",,html-keyboard-response,58,293153,0.0-13.0-0.7,40553,List2A,black,man,,,,null,,,,
null,"<img src=""stim_listA/kiss4.gif""style=""height:400px;""></stim_listA>",,html-keyboard-response,59,295154,0.0-13.0-1.7,40553,List2A,black,man,,,,null,,,,
null,are kissing each other,,html-keyboard-response,60,297156,0.0-13.0-2.7,40553,List2A,black,man,,,,null,,,,
8762,,,survey-text,61,305918,0.0-13.0-3.7,40553,List2A,black,man,,,,,"{""Q0"":""Kate and Mike are kissing each other""}","<img src=""stim_listA/kiss4.gif""style=""height:400px;""></stim_listA>",are kissing each other,
null,"<div style=""font-size:60px;"">+</div>",,html-keyboard-response,62,306421,0.0-13.0-0.8,40553,List2A,black,man,,,,null,,,,
null,"<img src=""stim_listA/marry7.gif""style=""height:400px;""></stim_listA>",,html-keyboard-response,63,308423,0.0-13.0-1.8,40553,List2A,black,man,,,,null,,,,
null,is marrying,,html-keyboard-response,64,310426,0.0-13.0-2.8,40553,List2A,black,man,,,,null,,,,
20704,,,survey-text,65,331130,0.0-13.0-3.8,40553,List2A,black,man,,,,,"{""Q0"":""Beth and Jane are marrying each other""}","<img src=""stim_listA/marry7.gif""style=""height:400px;""></stim_listA>",is marrying,
null,"<div style=""font-size:60px;"">+</div>",,html-keyboard-response,66,331634,0.0-13.0-0.9,40553,List2A,black,man,,,,null,,,,
null,"<img src=""stim_listA/talk8.gif""style=""height:400px;""></stim_listA>",,html-keyboard-response,67,333637,0.0-13.0-1.9,40553,List2A,black,man,,,,null,,,,
null,are talking to each other,,html-keyboard-response,68,335640,0.0-13.0-2.9,40553,List2A,black,man,,,,null,,,,
14378,,,survey-text,69,350019,0.0-13.0-3.9,40553,List2A,black,man,,,,,"{""Q0"":""Jane and Beth are talking to each other""}","<img src=""stim_listA/talk8.gif""style=""height:400px;""></stim_listA>",are talking to each other,
null,"<div style=""font-size:60px;"">+</div>",,html-keyboard-response,70,350520,0.0-13.0-0.10,40553,List2A,black,man,,,,null,,,,
null,"<img src=""stim_listA/kiss1.gif""style=""height:400px;""></stim_listA>",,html-keyboard-response,71,352523,0.0-13.0-1.10,40553,List2A,black,man,,,,null,,,,
null,is kissing,,html-keyboard-response,72,354524,0.0-13.0-2.10,40553,List2A,black,man,,,,null,,,,
10440,,,survey-text,73,364966,0.0-13.0-3.10,40553,List2A,black,man,,,,,"{""Q0"":""Mike is kissing Ruth""}","<img src=""stim_listA/kiss1.gif""style=""height:400px;""></stim_listA>",is kissing,
null,"<div style=""font-size:60px;"">+</div>",,html-keyboard-response,74,365468,0.0-13.0-0.11,40553,List2A,black,man,,,,null,,,,
null,"<img src=""stim_listA/kiss3.gif""style=""height:400px;""></stim_listA>",,html-keyboard-response,75,367471,0.0-13.0-1.11,40553,List2A,black,man,,,,null,,,,
null,is kissing,,html-keyboard-response,76,369472,0.0-13.0-2.11,40553,List2A,black,man,,,,null,,,,
10369,,,survey-text,77,379843,0.0-13.0-3.11,40553,List2A,black,man,,,,,"{""Q0"":""Fred is kissing Beth""}","<img src=""stim_listA/kiss3.gif""style=""height:400px;""></stim_listA>",is kissing,
null,"<div style=""font-size:60px;"">+</div>",,html-keyboard-response,78,380344,0.0-13.0-0.12,40553,List2A,black,man,,,,null,,,,
null,"<img src=""stim_listA/kiss5.gif""style=""height:400px;""></stim_listA>",,html-keyboard-response,79,382346,0.0-13.0-1.12,40553,List2A,black,man,,,,null,,,,
null,is kissing,,html-keyboard-response,80,384348,0.0-13.0-2.12,40553,List2A,black,man,,,,null,,,,
12494,,,survey-text,81,396842,0.0-13.0-3.12,40553,List2A,black,man,,,,,"{""Q0"":""Fred is kissing Luke""}","<img src=""stim_listA/kiss5.gif""style=""height:400px;""></stim_listA>",is kissing,
null,"<div style=""font-size:60px;"">+</div>",,html-keyboard-response,82,397343,0.0-13.0-0.13,40553,List2A,black,man,,,,null,,,,
null,"<img src=""stim_listA/flirt4.gif""style=""height:400px;""></stim_listA>",,html-keyboard-response,83,399345,0.0-13.0-1.13,40553,List2A,black,man,,,,null,,,,
null,are flirting with each other,,html-keyboard-response,84,401346,0.0-13.0-2.13,40553,List2A,black,man,,,,null,,,,
10780,,,survey-text,85,412126,0.0-13.0-3.13,40553,List2A,black,man,,,,,"{""Q0"":""Beth and Mike are flirting with each other""}","<img src=""stim_listA/flirt4.gif""style=""height:400px;""></stim_listA>",are flirting with each other,
null,"<div style=""font-size:60px;"">+</div>",,html-keyboard-response,86,412628,0.0-13.0-0.14,40553,List2A,black,man,,,,null,,,,
null,"<img src=""stim_listA/talk3.gif""style=""height:400px;""></stim_listA>",,html-keyboard-response,87,414630,0.0-13.0-1.14,40553,List2A,black,man,,,,null,,,,
null,is talking to,,html-keyboard-response,88,416632,0.0-13.0-2.14,40553,List2A,black,man,,,,null,,,,
6623,,,survey-text,89,423256,0.0-13.0-3.14,40553,List2A,black,man,,,,,"{""Q0"":""Fred is talking to Kate""}","<img src=""stim_listA/talk3.gif""style=""height:400px;""></stim_listA>",is talking to,
null,"<div style=""font-size:60px;"">+</div>",,html-keyboard-response,90,423758,0.0-13.0-0.15,40553,List2A,black,man,,,,null,,,,
null,"<img src=""stim_listA/play8.gif""style=""height:400px;""></stim_listA>",,html-keyboard-response,91,425760,0.0-13.0-1.15,40553,List2A,black,man,,,,null,,,,
null,are playing with each other,,html-keyboard-response,92,427764,0.0-13.0-2.15,40553,List2A,black,man,,,,null,,,,
13112,,,survey-text,93,440877,0.0-13.0-3.15,40553,List2A,black,man,,,,,"{""Q0"":""Kate and Ruth are playing with each other""}","<img src=""stim_listA/play8.gif""style=""height:400px;""></stim_listA>",are playing with each other,
null,"<div style=""font-size:60px;"">+</div>",,html-keyboard-response,94,441379,0.0-13.0-0.16,40553,List2A,black,man,,,,null,,,,
null,"<img src=""stim_listA/marry5.gif""style=""height:400px;""></stim_listA>",,html-keyboard-response,95,443381,0.0-13.0-1.16,40553,List2A,black,man,,,,null,,,,
null,is marrying,,html-keyboard-response,96,445382,0.0-13.0-2.16,40553,List2A,black,man,,,,null,,,,
20343,,,survey-text,97,465727,0.0-13.0-3.16,40553,List2A,black,man,,,,,"{""Q0"":""Dave and Fred are marrying each other""}","<img src=""stim_listA/marry5.gif""style=""height:400px;""></stim_listA>",is marrying,
null,"<div style=""font-size:60px;"">+</div>",,html-keyboard-response,98,466229,0.0-13.0-0.17,40553,List2A,black,man,,,,null,,,,
null,"<img src=""stim_listA/fight8.gif""style=""height:400px;""></stim_listA>",,html-keyboard-response,99,468232,0.0-13.0-1.17,40553,List2A,black,man,,,,null,,,,
null,are fighting each other,,html-keyboard-response,100,470233,0.0-13.0-2.17,40553,List2A,black,man,,,,null,,,,
10671,,,survey-text,101,480904,0.0-13.0-3.17,40553,List2A,black,man,,,,,"{""Q0"":""Ruth and Beth are fighting each other""}","<img src=""stim_listA/fight8.gif""style=""height:400px;""></stim_listA>",are fighting each other,
null,"<div style=""font-size:60px;"">+</div>",,html-keyboard-response,102,481408,0.0-13.0-0.18,40553,List2A,black,man,,,,null,,,,
null,"<img src=""stim_listA/fight2.gif""style=""height:400px;""></stim_listA>",,html-keyboard-response,103,483409,0.0-13.0-1.18,40553,List2A,black,man,,,,null,,,,
null,are fighting each other,,html-keyboard-response,104,485410,0.0-13.0-2.18,40553,List2A,black,man,,,,null,,,,
16117,,,survey-text,105,501529,0.0-13.0-3.18,40553,List2A,black,man,,,,,"{""Q0"":""Ruth and Luke are fighting each other""}","<img src=""stim_listA/fight2.gif""style=""height:400px;""></stim_listA>",are fighting each other,
null,"<div style=""font-size:60px;"">+</div>",,html-keyboard-response,106,502031,0.0-13.0-0.19,40553,List2A,black,man,,,,null,,,,
null,"<img src=""stim_listA/touch5.gif""style=""height:400px;""></stim_listA>",,html-keyboard-response,107,504033,0.0-13.0-1.19,40553,List2A,black,man,,,,null,,,,
null,is touching,,html-keyboard-response,108,506035,0.0-13.0-2.19,40553,List2A,black,man,,,,null,,,,
15367,,,survey-text,109,521402,0.0-13.0-3.19,40553,List2A,black,man,,,,,"{""Q0"":""Dave is touching Kate""}","<img src=""stim_listA/touch5.gif""style=""height:400px;""></stim_listA>",is touching,
11080,"<img src='img/portrait_matrix_list2.jpg' style='width:900px;height:500px;''></img><p>If you have memorised all the portraits and names and are ready to start, press Continue.</p><p><strong>Please note: Your memory of these faces will be tested 4 times during this experiment.</strong></p>",0,html-button-response,110,532484,0.0-14.0-0.0,40553,List2A,black,man,,,,,,,,
6111,"<img src=""portrait/WM1.jpg""style=""height:400px;""></img>",6,html-button-response,111,539598,0.0-14.0-1.0,40553,List2A,black,man,,TRUE,6,,,,,
null,CORRECT,,html-keyboard-response,112,541101,0.0-14.0-2.0-0.0,40553,List2A,black,man,,,,null,,,,
2421,"<img src=""portrait/WW2.jpg""style=""height:400px;""></img>",3,html-button-response,113,543524,0.0-14.0-4.0,40553,List2A,black,man,,TRUE,3,,,,,
null,CORRECT,,html-keyboard-response,114,545028,0.0-14.0-5.0-0.0,40553,List2A,black,man,,,,null,,,,
2850,"<img src=""portrait/BW1.jpg""style=""height:400px;""></img>",0,html-button-response,115,547880,0.0-14.0-7.0,40553,List2A,black,man,,TRUE,0,,,,,
null,CORRECT,,html-keyboard-response,116,549384,0.0-14.0-8.0-0.0,40553,List2A,black,man,,,,null,,,,
3173,"<img src=""portrait/BW2.jpg""style=""height:400px;""></img>",2,html-button-response,117,552557,0.0-14.0-10.0,40553,List2A,black,man,,TRUE,2,,,,,
null,CORRECT,,html-keyboard-response,118,554060,0.0-14.0-11.0-0.0,40553,List2A,black,man,,,,null,,,,
2506,"<img src=""portrait/WM2.jpg""style=""height:400px;""></img>",7,html-button-response,119,556568,0.0-14.0-13.0,40553,List2A,black,man,,TRUE,7,,,,,
null,CORRECT,,html-keyboard-response,120,558071,0.0-14.0-14.0-0.0,40553,List2A,black,man,,,,null,,,,
1734,"<img src=""portrait/BM1.jpg""style=""height:400px;""></img>",4,html-button-response,121,559806,0.0-14.0-16.0,40553,List2A,black,man,,TRUE,4,,,,,
null,CORRECT,,html-keyboard-response,122,561310,0.0-14.0-17.0-0.0,40553,List2A,black,man,,,,null,,,,
2275,"<img src=""portrait/BM2.jpg""style=""height:400px;""></img>",5,html-button-response,123,563587,0.0-14.0-19.0,40553,List2A,black,man,,TRUE,5,,,,,
null,CORRECT,,html-keyboard-response,124,565089,0.0-14.0-20.0-0.0,40553,List2A,black,man,,,,null,,,,
2586,"<img src=""portrait/WW1.jpg""style=""height:400px;""></img>",1,html-button-response,125,567677,0.0-14.0-22.0,40553,List2A,black,man,,TRUE,1,,,,,
null,CORRECT,,html-keyboard-response,126,569181,0.0-14.0-23.0-0.0,40553,List2A,black,man,,,,null,,,,
1687,<p>You got 8 out of 8 right first time. Press Continue.</p>,0,html-button-response,127,570870,0.0-14.0-25.0,40553,List2A,black,man,,,,,,,,
null,"<div style=""font-size:60px;"">+</div>",,html-keyboard-response,128,572374,0.0-15.0-0.0,40553,List2A,black,man,,,,null,,,,
null,"<img src=""stim_listA/argue7.gif""style=""height:400px;""></stim_listA>",,html-keyboard-response,129,574376,0.0-15.0-1.0,40553,List2A,black,man,,,,null,,,,
null,is arguing with,,html-keyboard-response,130,576378,0.0-15.0-2.0,40553,List2A,black,man,,,,null,,,,
7426,,,survey-text,131,583804,0.0-15.0-3.0,40553,List2A,black,man,,,,,"{""Q0"":""Jane is arguing with Beth""}","<img src=""stim_listA/argue7.gif""style=""height:400px;""></stim_listA>",is arguing with,
null,"<div style=""font-size:60px;"">+</div>",,html-keyboard-response,132,584307,0.0-15.0-0.1,40553,List2A,black,man,,,,null,,,,
null,"<img src=""stim_listA/argue2.gif""style=""height:400px;""></stim_listA>",,html-keyboard-response,133,586308,0.0-15.0-1.1,40553,List2A,black,man,,,,null,,,,
null,are arguing with each other,,html-keyboard-response,134,588923,0.0-15.0-2.1,40553,List2A,black,man,,,,null,,,,
39139,,,survey-text,135,628063,0.0-15.0-3.1,40553,List2A,black,man,,,,,"{""Q0"":""Jane and Luke are arguing with each other""}","<img src=""stim_listA/argue2.gif""style=""height:400px;""></stim_listA>",are arguing with each other,
null,"<div style=""font-size:60px;"">+</div>",,html-keyboard-response,136,628564,0.0-15.0-0.2,40553,List2A,black,man,,,,null,,,,
null,"<img src=""stim_listA/touch8.gif""style=""height:400px;""></stim_listA>",,html-keyboard-response,137,630566,0.0-15.0-1.2,40553,List2A,black,man,,,,null,,,,
null,are touching each other,,html-keyboard-response,138,632568,0.0-15.0-2.2,40553,List2A,black,man,,,,null,,,,
8935,,,survey-text,139,641503,0.0-15.0-3.2,40553,List2A,black,man,,,,,"{""Q0"":""Beth and Ruth are touching each other""}","<img src=""stim_listA/touch8.gif""style=""height:400px;""></stim_listA>",are touching each other,
null,"<div style=""font-size:60px;"">+</div>",,html-keyboard-response,140,642005,0.0-15.0-0.3,40553,List2A,black,man,,,,null,,,,
null,"<img src=""stim_listA/dance4.gif""style=""height:400px;""></stim_listA>",,html-keyboard-response,141,644008,0.0-15.0-1.3,40553,List2A,black,man,,,,null,,,,
null,are dancing with each other,,html-keyboard-response,142,646011,0.0-15.0-2.3,40553,List2A,black,man,,,,null,,,,
26419,,,survey-text,143,672431,0.0-15.0-3.3,40553,List2A,black,man,,,,,"{""Q0"":""Beth and Mike are dancing with each other""}","<img src=""stim_listA/dance4.gif""style=""height:400px;""></stim_listA>",are dancing with each other,
null,"<div style=""font-size:60px;"">+</div>",,html-keyboard-response,144,672932,0.0-15.0-0.4,40553,List2A,black,man,,,,null,,,,
null,"<img src=""stim_listA/touch2.gif""style=""height:400px;""></stim_listA>",,html-keyboard-response,145,674934,0.0-15.0-1.4,40553,List2A,black,man,,,,null,,,,
null,are touching each other,,html-keyboard-response,146,676936,0.0-15.0-2.4,40553,List2A,black,man,,,,null,,,,
11543,,,survey-text,147,688479,0.0-15.0-3.4,40553,List2A,black,man,,,,,"{""Q0"":""Ruth and Luke are touching each other""}","<img src=""stim_listA/touch2.gif""style=""height:400px;""></stim_listA>",are touching each other,
null,"<div style=""font-size:60px;"">+</div>",,html-keyboard-response,148,688980,0.0-15.0-0.5,40553,List2A,black,man,,,,null,,,,
null,"<img src=""stim_listA/shout4.gif""style=""height:400px;""></stim_listA>",,html-keyboard-response,149,690982,0.0-15.0-1.5,40553,List2A,black,man,,,,null,,,,
null,are shouting at each other,,html-keyboard-response,150,692983,0.0-15.0-2.5,40553,List2A,black,man,,,,null,,,,
11087,,,survey-text,151,704071,0.0-15.0-3.5,40553,List2A,black,man,,,,,"{""Q0"":""Mike and Kate are shouting at each other""}","<img src=""stim_listA/shout4.gif""style=""height:400px;""></stim_listA>",are shouting at each other,
null,"<div style=""font-size:60px;"">+</div>",,html-keyboard-response,152,704573,0.0-15.0-0.6,40553,List2A,black,man,,,,null,,,,
null,"<img src=""stim_listA/shout7.gif""style=""height:400px;""></stim_listA>",,html-keyboard-response,153,706574,0.0-15.0-1.6,40553,List2A,black,man,,,,null,,,,
null,is shouting at,,html-keyboard-response,154,708576,0.0-15.0-2.6,40553,List2A,black,man,,,,null,,,,
8089,,,survey-text,155,716667,0.0-15.0-3.6,40553,List2A,black,man,,,,,"{""Q0"":""Beth is shouting at Ruth""}","<img src=""stim_listA/shout7.gif""style=""height:400px;""></stim_listA>",is shouting at,
null,"<div style=""font-size:60px;"">+</div>",,html-keyboard-response,156,717168,0.0-15.0-0.7,40553,List2A,black,man,,,,null,,,,
null,"<img src=""stim_listA/argue6.gif""style=""height:400px;""></stim_listA>",,html-keyboard-response,157,719169,0.0-15.0-1.7,40553,List2A,black,man,,,,null,,,,
null,are arguing with each other,,html-keyboard-response,158,721171,0.0-15.0-2.7,40553,List2A,black,man,,,,null,,,,
115349,,,survey-text,159,836521,0.0-15.0-3.7,40553,List2A,black,man,,,,,"{""Q0"":""Mike is arguing with Luke""}","<img src=""stim_listA/argue6.gif""style=""height:400px;""></stim_listA>",are arguing with each other,
null,"<div style=""font-size:60px;"">+</div>",,html-keyboard-response,160,837022,0.0-15.0-0.8,40553,List2A,black,man,,,,null,,,,
null,"<img src=""stim_listA/dance6.gif""style=""height:400px;""></stim_listA>",,html-keyboard-response,161,839024,0.0-15.0-1.8,40553,List2A,black,man,,,,null,,,,
null,are dancing with each other,,html-keyboard-response,162,841025,0.0-15.0-2.8,40553,List2A,black,man,,,,null,,,,
11739,,,survey-text,163,852766,0.0-15.0-3.8,40553,List2A,black,man,,,,,"{""Q0"":""Fred and Dave are dancing with each other""}","<img src=""stim_listA/dance6.gif""style=""height:400px;""></stim_listA>",are dancing with each other,
null,"<div style=""font-size:60px;"">+</div>",,html-keyboard-response,164,853267,0.0-15.0-0.9,40553,List2A,black,man,,,,null,,,,
null,"<img src=""stim_listA/argue5.gif""style=""height:400px;""></stim_listA>",,html-keyboard-response,165,855270,0.0-15.0-1.9,40553,List2A,black,man,,,,null,,,,
null,is arguing with,,html-keyboard-response,166,857273,0.0-15.0-2.9,40553,List2A,black,man,,,,null,,,,
10166,,,survey-text,167,867439,0.0-15.0-3.9,40553,List2A,black,man,,,,,"{""Q0"":""Fred is arguing with Dave""}","<img src=""stim_listA/argue5.gif""style=""height:400px;""></stim_listA>",is arguing with,
null,"<div style=""font-size:60px;"">+</div>",,html-keyboard-response,168,867942,0.0-15.0-0.10,40553,List2A,black,man,,,,null,,,,
null,"<img src=""stim_listA/shout3.gif""style=""height:400px;""></stim_listA>",,html-keyboard-response,169,869945,0.0-15.0-1.10,40553,List2A,black,man,,,,null,,,,
null,is shouting at,,html-keyboard-response,170,871946,0.0-15.0-2.10,40553,List2A,black,man,,,,null,,,,
5511,,,survey-text,171,877458,0.0-15.0-3.10,40553,List2A,black,man,,,,,"{""Q0"":""Fred is shouting at Beth""}","<img src=""stim_listA/shout3.gif""style=""height:400px;""></stim_listA>",is shouting at,
null,"<div style=""font-size:60px;"">+</div>",,html-keyboard-response,172,877961,0.0-15.0-0.11,40553,List2A,black,man,,,,null,,,,
null,"<img src=""stim_listA/talk5.gif""style=""height:400px;""></stim_listA>",,html-keyboard-response,173,879963,0.0-15.0-1.11,40553,List2A,black,man,,,,null,,,,
null,is talking to,,html-keyboard-response,174,881965,0.0-15.0-2.11,40553,List2A,black,man,,,,null,,,,
5733,,,survey-text,175,887699,0.0-15.0-3.11,40553,List2A,black,man,,,,,"{""Q0"":""Mike is talking to Luke""}","<img src=""stim_listA/talk5.gif""style=""height:400px;""></stim_listA>",is talking to,
null,"<div style=""font-size:60px;"">+</div>",,html-keyboard-response,176,888201,0.0-15.0-0.12,40553,List2A,black,man,,,,null,,,,
null,"<img src=""stim_listA/marry3.gif""style=""height:400px;""></stim_listA>",,html-keyboard-response,177,890204,0.0-15.0-1.12,40553,List2A,black,man,,,,null,,,,
null,is marrying,,html-keyboard-response,178,892205,0.0-15.0-2.12,40553,List2A,black,man,,,,null,,,,
6677,,,survey-text,179,898883,0.0-15.0-3.12,40553,List2A,black,man,,,,,"{""Q0"":""Mike is marrying Beth""}","<img src=""stim_listA/marry3.gif""style=""height:400px;""></stim_listA>",is marrying,
null,"<div style=""font-size:60px;"">+</div>",,html-keyboard-response,180,899384,0.0-15.0-0.13,40553,List2A,black,man,,,,null,,,,
null,"<img src=""stim_listA/marry4.gif""style=""height:400px;""></stim_listA>",,html-keyboard-response,181,901386,0.0-15.0-1.13,40553,List2A,black,man,,,,null,,,,
null,are marrying each other,,html-keyboard-response,182,903388,0.0-15.0-2.13,40553,List2A,black,man,,,,null,,,,
6676,,,survey-text,183,910065,0.0-15.0-3.13,40553,List2A,black,man,,,,,"{""Q0"":""Fred and Kate are marrying each other""}","<img src=""stim_listA/marry4.gif""style=""height:400px;""></stim_listA>",are marrying each other,
null,"<div style=""font-size:60px;"">+</div>",,html-keyboard-response,184,910566,0.0-15.0-0.14,40553,List2A,black,man,,,,null,,,,
null,"<img src=""stim_listA/flirt8.gif""style=""height:400px;""></stim_listA>",,html-keyboard-response,185,912568,0.0-15.0-1.14,40553,List2A,black,man,,,,null,,,,
null,are flirting with each other,,html-keyboard-response,186,914570,0.0-15.0-2.14,40553,List2A,black,man,,,,null,,,,
8471,,,survey-text,187,923042,0.0-15.0-3.14,40553,List2A,black,man,,,,,"{""Q0"":""Jane and Beth are flirting with each other""}","<img src=""stim_listA/flirt8.gif""style=""height:400px;""></stim_listA>",are flirting with each other,
null,"<div style=""font-size:60px;"">+</div>",,html-keyboard-response,188,923543,0.0-15.0-0.15,40553,List2A,black,man,,,,null,,,,
null,"<img src=""stim_listA/dance5.gif""style=""height:400px;""></stim_listA>",,html-keyboard-response,189,925546,0.0-15.0-1.15,40553,List2A,black,man,,,,null,,,,
null,is dancing with,,html-keyboard-response,190,927547,0.0-15.0-2.15,40553,List2A,black,man,,,,null,,,,
5803,,,survey-text,191,933351,0.0-15.0-3.15,40553,List2A,black,man,,,,,"{""Q0"":""Mike is dancing with Luke""}","<img src=""stim_listA/dance5.gif""style=""height:400px;""></stim_listA>",is dancing with,
null,"<div style=""font-size:60px;"">+</div>",,html-keyboard-response,192,933853,0.0-15.0-0.16,40553,List2A,black,man,,,,null,,,,
null,"<img src=""stim_listA/marry8.gif""style=""height:400px;""></stim_listA>",,html-keyboard-response,193,935856,0.0-15.0-1.16,40553,List2A,black,man,,,,null,,,,
null,are marrying each other,,html-keyboard-response,194,937857,0.0-15.0-2.16,40553,List2A,black,man,,,,null,,,,
16747,,,survey-text,195,954605,0.0-15.0-3.16,40553,List2A,black,man,,,,,"{""Q0"":""Kate and Ruth are marrying each other""}","<img src=""stim_listA/marry8.gif""style=""height:400px;""></stim_listA>",are marrying each other,
null,"<div style=""font-size:60px;"">+</div>",,html-keyboard-response,196,955107,0.0-15.0-0.17,40553,List2A,black,man,,,,null,,,,
null,"<img src=""stim_listA/flirt3.gif""style=""height:400px;""></stim_listA>",,html-keyboard-response,197,957109,0.0-15.0-1.17,40553,List2A,black,man,,,,null,,,,
null,is flirting with,,html-keyboard-response,198,959111,0.0-15.0-2.17,40553,List2A,black,man,,,,null,,,,
6392,,,survey-text,199,965503,0.0-15.0-3.17,40553,List2A,black,man,,,,,"{""Q0"":""Fred is flirting with Kate""}","<img src=""stim_listA/flirt3.gif""style=""height:400px;""></stim_listA>",is flirting with,
null,"<div style=""font-size:60px;"">+</div>",,html-keyboard-response,200,966005,0.0-15.0-0.18,40553,List2A,black,man,,,,null,,,,
null,"<img src=""stim_listA/play5.gif""style=""height:400px;""></stim_listA>",,html-keyboard-response,201,968007,0.0-15.0-1.18,40553,List2A,black,man,,,,null,,,,
null,is playing with,,html-keyboard-response,202,970010,0.0-15.0-2.18,40553,List2A,black,man,,,,null,,,,
10031,,,survey-text,203,980041,0.0-15.0-3.18,40553,List2A,black,man,,,,,"{""Q0"":""Dave is playing with Mike""}","<img src=""stim_listA/play5.gif""style=""height:400px;""></stim_listA>",is playing with,
null,"<div style=""font-size:60px;"">+</div>",,html-keyboard-response,204,980543,0.0-15.0-0.19,40553,List2A,black,man,,,,null,,,,
null,"<img src=""stim_listA/shout5.gif""style=""height:400px;""></stim_listA>",,html-keyboard-response,205,982545,0.0-15.0-1.19,40553,List2A,black,man,,,,null,,,,
null,is shouting at,,html-keyboard-response,206,984546,0.0-15.0-2.19,40553,List2A,black,man,,,,null,,,,
14856,,,survey-text,207,999403,0.0-15.0-3.19,40553,List2A,black,man,,,,,"{""Q0"":""Fred is shouting at Luke""}","<img src=""stim_listA/shout5.gif""style=""height:400px;""></stim_listA>",is shouting at,
1560,"<img src='img/portrait_matrix_list2.jpg' style='width:900px;height:500px;''></img><p>If you have memorised all the portraits and names and are ready to start, press Continue.</p><p><strong>Please note: Your memory of these faces will be tested 4 times during this experiment.</strong></p>",0,html-button-response,208,1000965,0.0-16.0-0.0,40553,List2A,black,man,,,,,,,,
3492,"<img src=""portrait/BM2.jpg""style=""height:400px;""></img>",5,html-button-response,209,1005461,0.0-16.0-1.0,40553,List2A,black,man,,TRUE,5,,,,,
null,CORRECT,,html-keyboard-response,210,1006965,0.0-16.0-2.0-0.0,40553,List2A,black,man,,,,null,,,,
4571,"<img src=""portrait/WM1.jpg""style=""height:400px;""></img>",6,html-button-response,211,1011538,0.0-16.0-4.0,40553,List2A,black,man,,TRUE,6,,,,,
null,CORRECT,,html-keyboard-response,212,1013042,0.0-16.0-5.0-0.0,40553,List2A,black,man,,,,null,,,,
4264,"<img src=""portrait/BW2.jpg""style=""height:400px;""></img>",2,html-button-response,213,1017308,0.0-16.0-7.0,40553,List2A,black,man,,TRUE,2,,,,,
null,CORRECT,,html-keyboard-response,214,1018810,0.0-16.0-8.0-0.0,40553,List2A,black,man,,,,null,,,,
3752,"<img src=""portrait/BM1.jpg""style=""height:400px;""></img>",4,html-button-response,215,1022563,0.0-16.0-10.0,40553,List2A,black,man,,TRUE,4,,,,,
null,CORRECT,,html-keyboard-response,216,1024067,0.0-16.0-11.0-0.0,40553,List2A,black,man,,,,null,,,,
2969,"<img src=""portrait/WW1.jpg""style=""height:400px;""></img>",1,html-button-response,217,1027038,0.0-16.0-13.0,40553,List2A,black,man,,TRUE,1,,,,,
null,CORRECT,,html-keyboard-response,218,1028543,0.0-16.0-14.0-0.0,40553,List2A,black,man,,,,null,,,,
2477,"<img src=""portrait/WW2.jpg""style=""height:400px;""></img>",3,html-button-response,219,1031021,0.0-16.0-16.0,40553,List2A,black,man,,TRUE,3,,,,,
null,CORRECT,,html-keyboard-response,220,1032522,0.0-16.0-17.0-0.0,40553,List2A,black,man,,,,null,,,,
2229,"<img src=""portrait/WM2.jpg""style=""height:400px;""></img>",7,html-button-response,221,1034753,0.0-16.0-19.0,40553,List2A,black,man,,TRUE,7,,,,,
null,CORRECT,,html-keyboard-response,222,1036258,0.0-16.0-20.0-0.0,40553,List2A,black,man,,,,null,,,,
5977,"<img src=""portrait/BW1.jpg""style=""height:400px;""></img>",0,html-button-response,223,1042236,0.0-16.0-22.0,40553,List2A,black,man,,TRUE,0,,,,,
null,CORRECT,,html-keyboard-response,224,1043739,0.0-16.0-23.0-0.0,40553,List2A,black,man,,,,null,,,,
3306,<p>You got 8 out of 8 right first time. Press Continue.</p>,0,html-button-response,225,1047047,0.0-16.0-25.0,40553,List2A,black,man,,,,,,,,
null,"<div style=""font-size:60px;"">+</div>",,html-keyboard-response,226,1048550,0.0-17.0-0.0,40553,List2A,black,man,,,,null,,,,
null,"<img src=""stim_listA/kiss2.gif""style=""height:400px;""></stim_listA>",,html-keyboard-response,227,1050553,0.0-17.0-1.0,40553,List2A,black,man,,,,null,,,,
null,are kissing each other,,html-keyboard-response,228,1052555,0.0-17.0-2.0,40553,List2A,black,man,,,,null,,,,
10617,,,survey-text,229,1063173,0.0-17.0-3.0,40553,List2A,black,man,,,,,"{""Q0"":""Jane and Dave are kissing""}","<img src=""stim_listA/kiss2.gif""style=""height:400px;""></stim_listA>",are kissing each other,
null,"<div style=""font-size:60px;"">+</div>",,html-keyboard-response,230,1063675,0.0-17.0-0.1,40553,List2A,black,man,,,,null,,,,
null,"<img src=""stim_listA/talk4.gif""style=""height:400px;""></stim_listA>",,html-keyboard-response,231,1065677,0.0-17.0-1.1,40553,List2A,black,man,,,,null,,,,
null,are talking to each other,,html-keyboard-response,232,1067678,0.0-17.0-2.1,40553,List2A,black,man,,,,null,,,,
25417,,,survey-text,233,1093096,0.0-17.0-3.1,40553,List2A,black,man,,,,,"{""Q0"":""Kate and Mike are talking to each other""}","<img src=""stim_listA/talk4.gif""style=""height:400px;""></stim_listA>",are talking to each other,
null,"<div style=""font-size:60px;"">+</div>",,html-keyboard-response,234,1093598,0.0-17.0-0.2,40553,List2A,black,man,,,,null,,,,
null,"<img src=""stim_listA/talk6.gif""style=""height:400px;""></stim_listA>",,html-keyboard-response,235,1095601,0.0-17.0-1.2,40553,List2A,black,man,,,,null,,,,
null,are talking to each other,,html-keyboard-response,236,1097603,0.0-17.0-2.2,40553,List2A,black,man,,,,null,,,,
7964,,,survey-text,237,1105569,0.0-17.0-3.2,40553,List2A,black,man,,,,,"{""Q0"":""Fred and Dave are talking to each other""}","<img src=""stim_listA/talk6.gif""style=""height:400px;""></stim_listA>",are talking to each other,
null,"<div style=""font-size:60px;"">+</div>",,html-keyboard-response,238,1106070,0.0-17.0-0.3,40553,List2A,black,man,,,,null,,,,
null,"<img src=""stim_listA/argue1.gif""style=""height:400px;""></stim_listA>",,html-keyboard-response,239,1108072,0.0-17.0-1.3,40553,List2A,black,man,,,,null,,,,
null,is arguing with,,html-keyboard-response,240,1110074,0.0-17.0-2.3,40553,List2A,black,man,,,,null,,,,
7099,,,survey-text,241,1117174,0.0-17.0-3.3,40553,List2A,black,man,,,,,"{""Q0"":""Dave is arguing with Ruth""}","<img src=""stim_listA/argue1.gif""style=""height:400px;""></stim_listA>",is arguing with,
null,"<div style=""font-size:60px;"">+</div>",,html-keyboard-response,242,1117675,0.0-17.0-0.4,40553,List2A,black,man,,,,null,,,,
null,"<img src=""stim_listA/touch1.gif""style=""height:400px;""></stim_listA>",,html-keyboard-response,243,1119676,0.0-17.0-1.4,40553,List2A,black,man,,,,null,,,,
null,is touching,,html-keyboard-response,244,1121678,0.0-17.0-2.4,40553,List2A,black,man,,,,null,,,,
14264,,,survey-text,245,1135944,0.0-17.0-3.4,40553,List2A,black,man,,,,,"{""Q0"":""Dave is touching Jane""}","<img src=""stim_listA/touch1.gif""style=""height:400px;""></stim_listA>",is touching,
null,"<div style=""font-size:60px;"">+</div>",,html-keyboard-response,246,1136447,0.0-17.0-0.5,40553,List2A,black,man,,,,null,,,,
null,"<img src=""stim_listA/touch4.gif""style=""height:400px;""></stim_listA>",,html-keyboard-response,247,1138449,0.0-17.0-1.5,40553,List2A,black,man,,,,null,,,,
null,are touching each other,,html-keyboard-response,248,1140451,0.0-17.0-2.5,40553,List2A,black,man,,,,null,,,,
8258,,,survey-text,249,1148710,0.0-17.0-3.5,40553,List2A,black,man,,,,,"{""Q0"":""Fred and Beth are touching each other""}","<img src=""stim_listA/touch4.gif""style=""height:400px;""></stim_listA>",are touching each other,
null,"<div style=""font-size:60px;"">+</div>",,html-keyboard-response,250,1149211,0.0-17.0-0.6,40553,List2A,black,man,,,,null,,,,
null,"<img src=""stim_listA/fight7.gif""style=""height:400px;""></stim_listA>",,html-keyboard-response,251,1151213,0.0-17.0-1.6,40553,List2A,black,man,,,,null,,,,
null,is fighting,,html-keyboard-response,252,1153215,0.0-17.0-2.6,40553,List2A,black,man,,,,null,,,,
9960,,,survey-text,253,1163176,0.0-17.0-3.6,40553,List2A,black,man,,,,,"{""Q0"":""Kate is fighting Jane""}","<img src=""stim_listA/fight7.gif""style=""height:400px;""></stim_listA>",is fighting,
null,"<div style=""font-size:60px;"">+</div>",,html-keyboard-response,254,1163677,0.0-17.0-0.7,40553,List2A,black,man,,,,null,,,,
null,"<img src=""stim_listA/dance3.gif""style=""height:400px;""></stim_listA>",,html-keyboard-response,255,1165680,0.0-17.0-1.7,40553,List2A,black,man,,,,null,,,,
null,is dancing with,,html-keyboard-response,256,1167681,0.0-17.0-2.7,40553,List2A,black,man,,,,null,,,,
25067,,,survey-text,257,1192749,0.0-17.0-3.7,40553,List2A,black,man,,,,,"{""Q0"":""Fred is dancing with Kate""}","<img src=""stim_listA/dance3.gif""style=""height:400px;""></stim_listA>",is dancing with,
null,"<div style=""font-size:60px;"">+</div>",,html-keyboard-response,258,1193252,0.0-17.0-0.8,40553,List2A,black,man,,,,null,,,,
null,"<img src=""stim_listA/fight6.gif""style=""height:400px;""></stim_listA>",,html-keyboard-response,259,1195254,0.0-17.0-1.8,40553,List2A,black,man,,,,null,,,,
null,are fighting each other,,html-keyboard-response,260,1197256,0.0-17.0-2.8,40553,List2A,black,man,,,,null,,,,
7248,,,survey-text,261,1204505,0.0-17.0-3.8,40553,List2A,black,man,,,,,"{""Q0"":""Fred and Luke are fighting each other""}","<img src=""stim_listA/fight6.gif""style=""height:400px;""></stim_listA>",are fighting each other,
null,"<div style=""font-size:60px;"">+</div>",,html-keyboard-response,262,1205006,0.0-17.0-0.9,40553,List2A,black,man,,,,null,,,,
null,"<img src=""stim_listA/play7.gif""style=""height:400px;""></stim_listA>",,html-keyboard-response,263,1207008,0.0-17.0-1.9,40553,List2A,black,man,,,,null,,,,
null,is playing with,,html-keyboard-response,264,1209009,0.0-17.0-2.9,40553,List2A,black,man,,,,null,,,,
6332,,,survey-text,265,1215343,0.0-17.0-3.9,40553,List2A,black,man,,,,,"{""Q0"":""Kate is playing with Jane""}","<img src=""stim_listA/play7.gif""style=""height:400px;""></stim_listA>",is playing with,
null,"<div style=""font-size:60px;"">+</div>",,html-keyboard-response,266,1215845,0.0-17.0-0.10,40553,List2A,black,man,,,,null,,,,
null,"<img src=""stim_listA/touch6.gif""style=""height:400px;""></stim_listA>",,html-keyboard-response,267,1217847,0.0-17.0-1.10,40553,List2A,black,man,,,,null,,,,
null,are touching each other,,html-keyboard-response,268,1219849,0.0-17.0-2.10,40553,List2A,black,man,,,,null,,,,
9088,,,survey-text,269,1228938,0.0-17.0-3.10,40553,List2A,black,man,,,,,"{""Q0"":""Fred and Luke are touching each other""}","<img src=""stim_listA/touch6.gif""style=""height:400px;""></stim_listA>",are touching each other,
null,"<div style=""font-size:60px;"">+</div>",,html-keyboard-response,270,1229439,0.0-17.0-0.11,40553,List2A,black,man,,,,null,,,,
null,"<img src=""stim_listA/fight1.gif""style=""height:400px;""></stim_listA>",,html-keyboard-response,271,1231441,0.0-17.0-1.11,40553,List2A,black,man,,,,null,,,,
null,is fighting,,html-keyboard-response,272,1233442,0.0-17.0-2.11,40553,List2A,black,man,,,,null,,,,
18759,,,survey-text,273,1252203,0.0-17.0-3.11,40553,List2A,black,man,,,,,"{""Q0"":""Dave is fighting Jane""}","<img src=""stim_listA/fight1.gif""style=""height:400px;""></stim_listA>",is fighting,
null,"<div style=""font-size:60px;"">+</div>",,html-keyboard-response,274,1252705,0.0-17.0-0.12,40553,List2A,black,man,,,,null,,,,
null,"<img src=""stim_listA/fight5.gif""style=""height:400px;""></stim_listA>",,html-keyboard-response,275,1254707,0.0-17.0-1.12,40553,List2A,black,man,,,,null,,,,
null,is fighting,,html-keyboard-response,276,1256708,0.0-17.0-2.12,40553,List2A,black,man,,,,null,,,,
6349,,,survey-text,277,1263057,0.0-17.0-3.12,40553,List2A,black,man,,,,,"{""Q0"":""Dave is fighting like""}","<img src=""stim_listA/fight5.gif""style=""height:400px;""></stim_listA>",is fighting,
null,"<div style=""font-size:60px;"">+</div>",,html-keyboard-response,278,1263559,0.0-17.0-0.13,40553,List2A,black,man,,,,null,,,,
null,"<img src=""stim_listA/dance1.gif""style=""height:400px;""></stim_listA>",,html-keyboard-response,279,1265562,0.0-17.0-1.13,40553,List2A,black,man,,,,null,,,,
null,is dancing with,,html-keyboard-response,280,1267564,0.0-17.0-2.13,40553,List2A,black,man,,,,null,,,,
6082,,,survey-text,281,1273648,0.0-17.0-3.13,40553,List2A,black,man,,,,,"{""Q0"":""Luke is dancing with Jane""}","<img src=""stim_listA/dance1.gif""style=""height:400px;""></stim_listA>",is dancing with,
null,"<div style=""font-size:60px;"">+</div>",,html-keyboard-response,282,1274149,0.0-17.0-0.14,40553,List2A,black,man,,,,null,,,,
null,"<img src=""stim_listA/play6.gif""style=""height:400px;""></stim_listA>",,html-keyboard-response,283,1276154,0.0-17.0-1.14,40553,List2A,black,man,,,,null,,,,
null,are playing with each other,,html-keyboard-response,284,1278156,0.0-17.0-2.14,40553,List2A,black,man,,,,null,,,,
8109,,,survey-text,285,1286266,0.0-17.0-3.14,40553,List2A,black,man,,,,,"{""Q0"":""Luke and Fred are playing with each other""}","<img src=""stim_listA/play6.gif""style=""height:400px;""></stim_listA>",are playing with each other,
null,"<div style=""font-size:60px;"">+</div>",,html-keyboard-response,286,1286767,0.0-17.0-0.15,40553,List2A,black,man,,,,null,,,,
null,"<img src=""stim_listA/flirt2.gif""style=""height:400px;""></stim_listA>",,html-keyboard-response,287,1288769,0.0-17.0-1.15,40553,List2A,black,man,,,,null,,,,
null,are flirting with each other,,html-keyboard-response,288,1290771,0.0-17.0-2.15,40553,List2A,black,man,,,,null,,,,
9673,,,survey-text,289,1300446,0.0-17.0-3.15,40553,List2A,black,man,,,,,"{""Q0"":""Dave and Ruth are flirting with each other""}","<img src=""stim_listA/flirt2.gif""style=""height:400px;""></stim_listA>",are flirting with each other,
null,"<div style=""font-size:60px;"">+</div>",,html-keyboard-response,290,1300948,0.0-17.0-0.16,40553,List2A,black,man,,,,null,,,,
null,"<img src=""stim_listA/dance7.gif""style=""height:400px;""></stim_listA>",,html-keyboard-response,291,1302950,0.0-17.0-1.16,40553,List2A,black,man,,,,null,,,,
null,is dancing with,,html-keyboard-response,292,1304951,0.0-17.0-2.16,40553,List2A,black,man,,,,null,,,,
8001,,,survey-text,293,1312953,0.0-17.0-3.16,40553,List2A,black,man,,,,,"{""Q0"":""Ruth is dancing with Kate""}","<img src=""stim_listA/dance7.gif""style=""height:400px;""></stim_listA>",is dancing with,
null,"<div style=""font-size:60px;"">+</div>",,html-keyboard-response,294,1313454,0.0-17.0-0.17,40553,List2A,black,man,,,,null,,,,
null,"<img src=""stim_listA/touch7.gif""style=""height:400px;""></stim_listA>",,html-keyboard-response,295,1315457,0.0-17.0-1.17,40553,List2A,black,man,,,,null,,,,
null,is touching,,html-keyboard-response,296,1317458,0.0-17.0-2.17,40553,List2A,black,man,,,,null,,,,
6530,,,survey-text,297,1323989,0.0-17.0-3.17,40553,List2A,black,man,,,,,"{""Q0"":""Kate is touching Jane""}","<img src=""stim_listA/touch7.gif""style=""height:400px;""></stim_listA>",is touching,
null,"<div style=""font-size:60px;"">+</div>",,html-keyboard-response,298,1324491,0.0-17.0-0.18,40553,List2A,black,man,,,,null,,,,
null,"<img src=""stim_listA/kiss6.gif""style=""height:400px;""></stim_listA>",,html-keyboard-response,299,1326493,0.0-17.0-1.18,40553,List2A,black,man,,,,null,,,,
null,are kissing each other,,html-keyboard-response,300,1328495,0.0-17.0-2.18,40553,List2A,black,man,,,,null,,,,
7184,,,survey-text,301,1335680,0.0-17.0-3.18,40553,List2A,black,man,,,,,"{""Q0"":""Dave and Mike are kissing each other""}","<img src=""stim_listA/kiss6.gif""style=""height:400px;""></stim_listA>",are kissing each other,
null,"<div style=""font-size:60px;"">+</div>",,html-keyboard-response,302,1336181,0.0-17.0-0.19,40553,List2A,black,man,,,,null,,,,
null,"<img src=""stim_listA/marry1.gif""style=""height:400px;""></stim_listA>",,html-keyboard-response,303,1338184,0.0-17.0-1.19,40553,List2A,black,man,,,,null,,,,
null,is marrying,,html-keyboard-response,304,1340185,0.0-17.0-2.19,40553,List2A,black,man,,,,null,,,,
8949,,,survey-text,305,1349136,0.0-17.0-3.19,40553,List2A,black,man,,,,,"{""Q0"":""Dave is marrying Ruth""}","<img src=""stim_listA/marry1.gif""style=""height:400px;""></stim_listA>",is marrying,
3199,"<img src='img/portrait_matrix_list2.jpg' style='width:900px;height:500px;''></img><p>If you have memorised all the portraits and names and are ready to start, press Continue.</p><p><strong>Please note: Your memory of these faces will be tested 4 times during this experiment.</strong></p>",0,html-button-response,306,1352335,0.0-18.0-0.0,40553,List2A,black,man,,,,,,,,
1933,"<img src=""portrait/WM2.jpg""style=""height:400px;""></img>",7,html-button-response,307,1355272,0.0-18.0-1.0,40553,List2A,black,man,,TRUE,7,,,,,
null,CORRECT,,html-keyboard-response,308,1356774,0.0-18.0-2.0-0.0,40553,List2A,black,man,,,,null,,,,
2485,"<img src=""portrait/BM1.jpg""style=""height:400px;""></img>",4,html-button-response,309,1359261,0.0-18.0-4.0,40553,List2A,black,man,,TRUE,4,,,,,
null,CORRECT,,html-keyboard-response,310,1360765,0.0-18.0-5.0-0.0,40553,List2A,black,man,,,,null,,,,
3547,"<img src=""portrait/WW1.jpg""style=""height:400px;""></img>",1,html-button-response,311,1364312,0.0-18.0-7.0,40553,List2A,black,man,,TRUE,1,,,,,
null,CORRECT,,html-keyboard-response,312,1365816,0.0-18.0-8.0-0.0,40553,List2A,black,man,,,,null,,,,
2690,"<img src=""portrait/WM1.jpg""style=""height:400px;""></img>",6,html-button-response,313,1368507,0.0-18.0-10.0,40553,List2A,black,man,,TRUE,6,,,,,
null,CORRECT,,html-keyboard-response,314,1370010,0.0-18.0-11.0-0.0,40553,List2A,black,man,,,,null,,,,
3435,"<img src=""portrait/BW1.jpg""style=""height:400px;""></img>",0,html-button-response,315,1373446,0.0-18.0-13.0,40553,List2A,black,man,,TRUE,0,,,,,
null,CORRECT,,html-keyboard-response,316,1374948,0.0-18.0-14.0-0.0,40553,List2A,black,man,,,,null,,,,
3373,"<img src=""portrait/BM2.jpg""style=""height:400px;""></img>",5,html-button-response,317,1378324,0.0-18.0-16.0,40553,List2A,black,man,,TRUE,5,,,,,
null,CORRECT,,html-keyboard-response,318,1379827,0.0-18.0-17.0-0.0,40553,List2A,black,man,,,,null,,,,
3426,"<img src=""portrait/BW2.jpg""style=""height:400px;""></img>",2,html-button-response,319,1383254,0.0-18.0-19.0,40553,List2A,black,man,,TRUE,2,,,,,
null,CORRECT,,html-keyboard-response,320,1384757,0.0-18.0-20.0-0.0,40553,List2A,black,man,,,,null,,,,
3003,"<img src=""portrait/WW2.jpg""style=""height:400px;""></img>",3,html-button-response,321,1387760,0.0-18.0-22.0,40553,List2A,black,man,,TRUE,3,,,,,
null,CORRECT,,html-keyboard-response,322,1389264,0.0-18.0-23.0-0.0,40553,List2A,black,man,,,,null,,,,
1532,<p>You got 8 out of 8 right first time. Press Continue.</p>,0,html-button-response,323,1390797,0.0-18.0-25.0,40553,List2A,black,man,,,,,,,,
null,"<div style=""font-size:60px;"">+</div>",,html-keyboard-response,324,1392302,0.0-19.0-0.0,40553,List2A,black,man,,,,null,,,,
null,"<img src=""stim_listA/argue8.gif""style=""height:400px;""></stim_listA>",,html-keyboard-response,325,1394305,0.0-19.0-1.0,40553,List2A,black,man,,,,null,,,,
null,are arguing with each other,,html-keyboard-response,326,1396306,0.0-19.0-2.0,40553,List2A,black,man,,,,null,,,,
19176,,,survey-text,327,1415482,0.0-19.0-3.0,40553,List2A,black,man,,,,,"{""Q0"":""Kate and Ruth are arguing with each other""}","<img src=""stim_listA/argue8.gif""style=""height:400px;""></stim_listA>",are arguing with each other,
null,"<div style=""font-size:60px;"">+</div>",,html-keyboard-response,328,1415984,0.0-19.0-0.1,40553,List2A,black,man,,,,null,,,,
null,"<img src=""stim_listA/dance8.gif""style=""height:400px;""></stim_listA>",,html-keyboard-response,329,1417985,0.0-19.0-1.1,40553,List2A,black,man,,,,null,,,,
null,are dancing with each other,,html-keyboard-response,330,1419986,0.0-19.0-2.1,40553,List2A,black,man,,,,null,,,,
54032,,,survey-text,331,1474019,0.0-19.0-3.1,40553,List2A,black,man,,,,,"{""Q0"":""Kate is dancing with Jane""}","<img src=""stim_listA/dance8.gif""style=""height:400px;""></stim_listA>",are dancing with each other,
null,"<div style=""font-size:60px;"">+</div>",,html-keyboard-response,332,1474520,0.0-19.0-0.2,40553,List2A,black,man,,,,null,,,,
null,"<img src=""stim_listA/flirt6.gif""style=""height:400px;""></stim_listA>",,html-keyboard-response,333,1476522,0.0-19.0-1.2,40553,List2A,black,man,,,,null,,,,
null,are flirting with each other,,html-keyboard-response,334,1478524,0.0-19.0-2.2,40553,List2A,black,man,,,,null,,,,
11067,,,survey-text,335,1489591,0.0-19.0-3.2,40553,List2A,black,man,,,,,"{""Q0"":""Fred and Dave are flirting with each other""}","<img src=""stim_listA/flirt6.gif""style=""height:400px;""></stim_listA>",are flirting with each other,
null,"<div style=""font-size:60px;"">+</div>",,html-keyboard-response,336,1490093,0.0-19.0-0.3,40553,List2A,black,man,,,,null,,,,
null,"<img src=""stim_listA/flirt5.gif""style=""height:400px;""></stim_listA>",,html-keyboard-response,337,1492096,0.0-19.0-1.3,40553,List2A,black,man,,,,null,,,,
null,is flirting with,,html-keyboard-response,338,1494097,0.0-19.0-2.3,40553,List2A,black,man,,,,null,,,,
2009,,,survey-text,339,1496108,0.0-19.0-3.3,40553,List2A,black,man,,,,,"{""Q0"":""""}","<img src=""stim_listA/flirt5.gif""style=""height:400px;""></stim_listA>",is flirting with,
null,"<div style=""font-size:60px;"">+</div>",,html-keyboard-response,340,1496610,0.0-19.0-0.4,40553,List2A,black,man,,,,null,,,,
null,"<img src=""stim_listA/flirt7.gif""style=""height:400px;""></stim_listA>",,html-keyboard-response,341,1498612,0.0-19.0-1.4,40553,List2A,black,man,,,,null,,,,
null,is flirting with,,html-keyboard-response,342,1500614,0.0-19.0-2.4,40553,List2A,black,man,,,,null,,,,
19738,,,survey-text,343,1520354,0.0-19.0-3.4,40553,List2A,black,man,,,,,"{""Q0"":""Ruth is flirting with Beth""}","<img src=""stim_listA/flirt7.gif""style=""height:400px;""></stim_listA>",is flirting with,
null,"<div style=""font-size:60px;"">+</div>",,html-keyboard-response,344,1520857,0.0-19.0-0.5,40553,List2A,black,man,,,,null,,,,
null,"<img src=""stim_listA/shout6.gif""style=""height:400px;""></stim_listA>",,html-keyboard-response,345,1522859,0.0-19.0-1.5,40553,List2A,black,man,,,,null,,,,
null,are shouting at each other,,html-keyboard-response,346,1524860,0.0-19.0-2.5,40553,List2A,black,man,,,,null,,,,
8274,,,survey-text,347,1533135,0.0-19.0-3.5,40553,List2A,black,man,,,,,"{""Q0"":""Dave and Mike are shouting at each other""}","<img src=""stim_listA/shout6.gif""style=""height:400px;""></stim_listA>",are shouting at each other,
null,"<div style=""font-size:60px;"">+</div>",,html-keyboard-response,348,1533636,0.0-19.0-0.6,40553,List2A,black,man,,,,null,,,,
null,"<img src=""stim_listA/fight4.gif""style=""height:400px;""></stim_listA>",,html-keyboard-response,349,1535638,0.0-19.0-1.6,40553,List2A,black,man,,,,null,,,,
null,are fighting each other,,html-keyboard-response,350,1537639,0.0-19.0-2.6,40553,List2A,black,man,,,,null,,,,
6578,,,survey-text,351,1544219,0.0-19.0-3.6,40553,List2A,black,man,,,,,"{""Q0"":""Fred and Beth are fighting each other""}","<img src=""stim_listA/fight4.gif""style=""height:400px;""></stim_listA>",are fighting each other,
null,"<div style=""font-size:60px;"">+</div>",,html-keyboard-response,352,1544720,0.0-19.0-0.7,40553,List2A,black,man,,,,null,,,,
null,"<img src=""stim_listA/argue4.gif""style=""height:400px;""></stim_listA>",,html-keyboard-response,353,1546722,0.0-19.0-1.7,40553,List2A,black,man,,,,null,,,,
null,are arguing with each other,,html-keyboard-response,354,1548724,0.0-19.0-2.7,40553,List2A,black,man,,,,null,,,,
7557,,,survey-text,355,1556282,0.0-19.0-3.7,40553,List2A,black,man,,,,,"{""Q0"":""Fred and Kate are arguing with each other""}","<img src=""stim_listA/argue4.gif""style=""height:400px;""></stim_listA>",are arguing with each other,
null,"<div style=""font-size:60px;"">+</div>",,html-keyboard-response,356,1556784,0.0-19.0-0.8,40553,List2A,black,man,,,,null,,,,
null,"<img src=""stim_listA/play3.gif""style=""height:400px;""></stim_listA>",,html-keyboard-response,357,1558787,0.0-19.0-1.8,40553,List2A,black,man,,,,null,,,,
null,is playing with,,html-keyboard-response,358,1560788,0.0-19.0-2.8,40553,List2A,black,man,,,,null,,,,
6104,,,survey-text,359,1566893,0.0-19.0-3.8,40553,List2A,black,man,,,,,"{""Q0"":""Kate is playing with Mike""}","<img src=""stim_listA/play3.gif""style=""height:400px;""></stim_listA>",is playing with,
null,"<div style=""font-size:60px;"">+</div>",,html-keyboard-response,360,1567395,0.0-19.0-0.9,40553,List2A,black,man,,,,null,,,,
null,"<img src=""stim_listA/shout8.gif""style=""height:400px;""></stim_listA>",,html-keyboard-response,361,1569398,0.0-19.0-1.9,40553,List2A,black,man,,,,null,,,,
null,are shouting at each other,,html-keyboard-response,362,1571400,0.0-19.0-2.9,40553,List2A,black,man,,,,null,,,,
13663,,,survey-text,363,1585063,0.0-19.0-3.9,40553,List2A,black,man,,,,,"{""Q0"":""Kate and Jane are shouting at each other""}","<img src=""stim_listA/shout8.gif""style=""height:400px;""></stim_listA>",are shouting at each other,
null,"<div style=""font-size:60px;"">+</div>",,html-keyboard-response,364,1585565,0.0-19.0-0.10,40553,List2A,black,man,,,,null,,,,
null,"<img src=""stim_listA/argue3.gif""style=""height:400px;""></stim_listA>",,html-keyboard-response,365,1587567,0.0-19.0-1.10,40553,List2A,black,man,,,,null,,,,
null,is arguing with,,html-keyboard-response,366,1589568,0.0-19.0-2.10,40553,List2A,black,man,,,,null,,,,
15260,,,survey-text,367,1604829,0.0-19.0-3.10,40553,List2A,black,man,,,,,"{""Q0"":""Mike is arguing with Beth""}","<img src=""stim_listA/argue3.gif""style=""height:400px;""></stim_listA>",is arguing with,
null,"<div style=""font-size:60px;"">+</div>",,html-keyboard-response,368,1605331,0.0-19.0-0.11,40553,List2A,black,man,,,,null,,,,
null,"<img src=""stim_listA/talk2.gif""style=""height:400px;""></stim_listA>",,html-keyboard-response,369,1607333,0.0-19.0-1.11,40553,List2A,black,man,,,,null,,,,
null,are talking to each other,,html-keyboard-response,370,1609335,0.0-19.0-2.11,40553,List2A,black,man,,,,null,,,,
8546,,,survey-text,371,1617882,0.0-19.0-3.11,40553,List2A,black,man,,,,,"{""Q0"":""Dave and Ruth are talking to each other""}","<img src=""stim_listA/talk2.gif""style=""height:400px;""></stim_listA>",are talking to each other,
null,"<div style=""font-size:60px;"">+</div>",,html-keyboard-response,372,1618385,0.0-19.0-0.12,40553,List2A,black,man,,,,null,,,,
null,"<img src=""stim_listA/marry2.gif""style=""height:400px;""></stim_listA>",,html-keyboard-response,373,1620388,0.0-19.0-1.12,40553,List2A,black,man,,,,null,,,,
null,are marrying each other,,html-keyboard-response,374,1622389,0.0-19.0-2.12,40553,List2A,black,man,,,,null,,,,
43492,,,survey-text,375,1665883,0.0-19.0-3.12,40553,List2A,black,man,,,,,"{""Q0"":""Luke and Jane are marrying each other""}","<img src=""stim_listA/marry2.gif""style=""height:400px;""></stim_listA>",are marrying each other,
null,"<div style=""font-size:60px;"">+</div>",,html-keyboard-response,376,1666385,0.0-19.0-0.13,40553,List2A,black,man,,,,null,,,,
null,"<img src=""stim_listA/play4.gif""style=""height:400px;""></stim_listA>",,html-keyboard-response,377,1668388,0.0-19.0-1.13,40553,List2A,black,man,,,,null,,,,
null,are playing with each other,,html-keyboard-response,378,1670389,0.0-19.0-2.13,40553,List2A,black,man,,,,null,,,,
7174,,,survey-text,379,1677565,0.0-19.0-3.13,40553,List2A,black,man,,,,,"{""Q0"":""Fred and Beth are playing with each other""}","<img src=""stim_listA/play4.gif""style=""height:400px;""></stim_listA>",are playing with each other,
null,"<div style=""font-size:60px;"">+</div>",,html-keyboard-response,380,1678067,0.0-19.0-0.14,40553,List2A,black,man,,,,null,,,,
null,"<img src=""stim_listA/kiss8.gif""style=""height:400px;""></stim_listA>",,html-keyboard-response,381,1680070,0.0-19.0-1.14,40553,List2A,black,man,,,,null,,,,
null,are kissing each other,,html-keyboard-response,382,1682071,0.0-19.0-2.14,40553,List2A,black,man,,,,null,,,,
16138,,,survey-text,383,1698210,0.0-19.0-3.14,40553,List2A,black,man,,,,,"{""Q0"":""Kate and Jane are kissing each other""}","<img src=""stim_listA/kiss8.gif""style=""height:400px;""></stim_listA>",are kissing each other,
null,"<div style=""font-size:60px;"">+</div>",,html-keyboard-response,384,1698711,0.0-19.0-0.15,40553,List2A,black,man,,,,null,,,,
null,"<img src=""stim_listA/kiss7.gif""style=""height:400px;""></stim_listA>",,html-keyboard-response,385,1700713,0.0-19.0-1.15,40553,List2A,black,man,,,,null,,,,
null,is kissing,,html-keyboard-response,386,1702714,0.0-19.0-2.15,40553,List2A,black,man,,,,null,,,,
12893,,,survey-text,387,1715608,0.0-19.0-3.15,40553,List2A,black,man,,,,,"{""Q0"":""Beth is kissing Ruth""}","<img src=""stim_listA/kiss7.gif""style=""height:400px;""></stim_listA>",is kissing,
null,"<div style=""font-size:60px;"">+</div>",,html-keyboard-response,388,1716109,0.0-19.0-0.16,40553,List2A,black,man,,,,null,,,,
null,"<img src=""stim_listA/talk1.gif""style=""height:400px;""></stim_listA>",,html-keyboard-response,389,1718110,0.0-19.0-1.16,40553,List2A,black,man,,,,null,,,,
null,is talking to,,html-keyboard-response,390,1720112,0.0-19.0-2.16,40553,List2A,black,man,,,,null,,,,
10576,,,survey-text,391,1730689,0.0-19.0-3.16,40553,List2A,black,man,,,,,"{""Q0"":""Jane is talking to Luke""}","<img src=""stim_listA/talk1.gif""style=""height:400px;""></stim_listA>",is talking to,
null,"<div style=""font-size:60px;"">+</div>",,html-keyboard-response,392,1731191,0.0-19.0-0.17,40553,List2A,black,man,,,,null,,,,
null,"<img src=""stim_listA/touch3.gif""style=""height:400px;""></stim_listA>",,html-keyboard-response,393,1733193,0.0-19.0-1.17,40553,List2A,black,man,,,,null,,,,
null,is touching,,html-keyboard-response,394,1735194,0.0-19.0-2.17,40553,List2A,black,man,,,,null,,,,
5960,,,survey-text,395,1741155,0.0-19.0-3.17,40553,List2A,black,man,,,,,"{""Q0"":""Kate is touching Mike""}","<img src=""stim_listA/touch3.gif""style=""height:400px;""></stim_listA>",is touching,
null,"<div style=""font-size:60px;"">+</div>",,html-keyboard-response,396,1741656,0.0-19.0-0.18,40553,List2A,black,man,,,,null,,,,
null,"<img src=""stim_listA/dance2.gif""style=""height:400px;""></stim_listA>",,html-keyboard-response,397,1743659,0.0-19.0-1.18,40553,List2A,black,man,,,,null,,,,
null,are dancing with each other,,html-keyboard-response,398,1745660,0.0-19.0-2.18,40553,List2A,black,man,,,,null,,,,
8470,,,survey-text,399,1754131,0.0-19.0-3.18,40553,List2A,black,man,,,,,"{""Q0"":""Ruth and Dave are dancing with each other""}","<img src=""stim_listA/dance2.gif""style=""height:400px;""></stim_listA>",are dancing with each other,
null,"<div style=""font-size:60px;"">+</div>",,html-keyboard-response,400,1754632,0.0-19.0-0.19,40553,List2A,black,man,,,,null,,,,
null,"<img src=""stim_listA/shout2.gif""style=""height:400px;""></stim_listA>",,html-keyboard-response,401,1756634,0.0-19.0-1.19,40553,List2A,black,man,,,,null,,,,
null,are shouting at each other,,html-keyboard-response,402,1758635,0.0-19.0-2.19,40553,List2A,black,man,,,,null,,,,
12222,,,survey-text,403,1770858,0.0-19.0-3.19,40553,List2A,black,man,,,,,"{""Q0"":""Dave and Jane are shouting at each other""}","<img src=""stim_listA/shout2.gif""style=""height:400px;""></stim_listA>",are shouting at each other,
2004,<p>Thank you for completing that task.</p><p>The final part of this session is a short questionnaire.</p><p>Press Continue.</p>,0,html-button-response,404,1772863,0.0-20.0,40553,List2A,black,man,,,,,,,,
28986,,,survey-text,405,1802853,0.0-21.0,40553,List2A,black,man,,,,,"{""Q0"":""40"",""Q1"":""English"",""Q2"":""English"",""Q3"":""USA"",""Q4"":""black"",""Q5"":""male""}",,,demographics
8475,,,survey-likert,406,1811330,0.0-22.0,40553,List2A,black,man,,,,,"{""Q0"":4}",,,likert_ESS
4426,,,survey-likert,407,1815759,0.0-23.0,40553,List2A,black,man,,,,,"{""Q0"":4}",,,likert_NSSAL_Q1
2865,,,survey-likert,408,1818626,0.0-24.0,40553,List2A,black,man,,,,,"{""Q0"":4}",,,likert_NSSAL_Q2
3376,,,survey-likert,409,1822004,0.0-25.0,40553,List2A,black,man,,,,,"{""Q0"":4}",,,likert_CGRS_Q1
3414,,,survey-likert,410,1825421,0.0-26.0,40553,List2A,black,man,,,,,"{""Q0"":4}",,,likert_CGRS_Q2
2748,,,survey-likert,411,1828171,0.0-27.0,40553,List2A,black,man,,,,,"{""Q0"":4}",,,likert_CGRS_Q3
10567,,,survey-text,412,1838740,0.0-28.0,40553,List2A,black,man,,,,,"{""Q0"":""ccc""}",,,worker_id
8141,,,external-html,413,1847881,0.0-29.0,40553,List2A,black,man,debrief.html,,,,,,,
