rt,stimulus,button_pressed,trial_type,trial_index,time_elapsed,internal_node_id,subject,list,ppt_race,ppt_gender,url,first_guess,correct,key_press,responses,image_type,phrase_type,test_part
1032,Welcome to the experiment. Press Continue to begin.,0,html-button-response,0,1040,0.0-0.0,41320,List1A,white,woman,,,,,,,,
37884,,,external-html,1,39969,0.0-1.0,41320,List1A,white,woman,consent.html,,,,,,,
2626,"<p>On the next page, you will see portraits of 8 people and their names.</p><p>Your first task is to take a few minutes to memorise the names of these people.</p><p>You will have to recall their names during the rest of the experiment, so it is</p><p>essential that you try to memorise these people and their names as best as you can.</p><br><p><strong>You will then be tested on your memory of these names and portraits.</strong></p><br><p>The experiment will start after you have completed this memory test.</p><br><p>Ready?</p>",0,html-button-response,2,42600,0.0-2.0,41320,List1A,white,woman,,,,,,,,
55920,"<img src='img/portrait_matrix_list1.jpg' style='width:900px;height:500px;''></img><p>If you have memorised all the portraits and names and are ready to start, press Continue.</p><p><strong>Please note: Your memory of these faces will be tested 4 times during this experiment.</strong></p>",0,html-button-response,3,99529,0.0-3.0-0.0,41320,List1A,white,woman,,,,,,,,
2664,"<img src=""portrait/BM2.jpg""style=""height:400px;""></img>",5,html-button-response,4,103198,0.0-3.0-1.0,41320,List1A,white,woman,,TRUE,5,,,,,
null,CORRECT,,html-keyboard-response,5,104707,0.0-3.0-2.0-0.0,41320,List1A,white,woman,,,,null,,,,
2303,"<img src=""portrait/BW1.jpg""style=""height:400px;""></img>",0,html-button-response,6,107014,0.0-3.0-4.0,41320,List1A,white,woman,,TRUE,0,,,,,
null,CORRECT,,html-keyboard-response,7,108522,0.0-3.0-5.0-0.0,41320,List1A,white,woman,,,,null,,,,
1641,"<img src=""portrait/BM1.jpg""style=""height:400px;""></img>",4,html-button-response,8,110166,0.0-3.0-7.0,41320,List1A,white,woman,,TRUE,4,,,,,
null,CORRECT,,html-keyboard-response,9,111671,0.0-3.0-8.0-0.0,41320,List1A,white,woman,,,,null,,,,
1774,"<img src=""portrait/BW2.jpg""style=""height:400px;""></img>",2,html-button-response,10,113449,0.0-3.0-10.0,41320,List1A,white,woman,,TRUE,2,,,,,
null,CORRECT,,html-keyboard-response,11,114953,0.0-3.0-11.0-0.0,41320,List1A,white,woman,,,,null,,,,
2353,"<img src=""portrait/WM2.jpg""style=""height:400px;""></img>",7,html-button-response,12,117310,0.0-3.0-13.0,41320,List1A,white,woman,,TRUE,7,,,,,
null,CORRECT,,html-keyboard-response,13,118814,0.0-3.0-14.0-0.0,41320,List1A,white,woman,,,,null,,,,
3503,"<img src=""portrait/WM1.jpg""style=""height:400px;""></img>",6,html-button-response,14,122321,0.0-3.0-16.0,41320,List1A,white,woman,,TRUE,6,,,,,
null,CORRECT,,html-keyboard-response,15,123824,0.0-3.0-17.0-0.0,41320,List1A,white,woman,,,,null,,,,
5515,"<img src=""portrait/WW1.jpg""style=""height:400px;""></img>",1,html-button-response,16,129342,0.0-3.0-19.0,41320,List1A,white,woman,,TRUE,1,,,,,
null,CORRECT,,html-keyboard-response,17,130846,0.0-3.0-20.0-0.0,41320,List1A,white,woman,,,,null,,,,
1755,"<img src=""portrait/WW2.jpg""style=""height:400px;""></img>",3,html-button-response,18,132606,0.0-3.0-22.0,41320,List1A,white,woman,,TRUE,3,,,,,
null,CORRECT,,html-keyboard-response,19,134109,0.0-3.0-23.0-0.0,41320,List1A,white,woman,,,,null,,,,
1707,<p>You got 8 out of 8 right first time. Press Continue.</p>,0,html-button-response,20,135820,0.0-3.0-25.0,41320,List1A,white,woman,,,,,,,,
30856,"<p>In this experiment, you will view photographs of the people from the memory game interacting.</p><p>By using the <strong>exact</strong> phrase given <i>after</i> the photograph appears and recalling the correct names of the people in the photographs, form a sentence describing the interaction. You do not need to capitalise names.</p><p>Type your answer in the space provided. Please complete every sentence before moving onto the next trial.</p><p>You will only have a few seconds to memorise each given photograph and phrase before you can respond, so try your best to focus.</p><p>An example is given below. Press 'Continue' when you are ready.</p><img src='img/speaking_example.jpg' style='width:800px;height:460px;''></img>",0,html-button-response,21,167684,0.0-4.0,41320,List1A,white,woman,,,,,,,,
1981,"<p>Before the experiment starts, you will watch two example trials. Press 'Continue'.</p>",0,html-button-response,22,170667,0.0-5.0,41320,List1A,white,woman,,,,,,,,
null,<img src='img/meet_eg.gif' style='height:400px;''></img>,,html-keyboard-response,23,173674,0.0-6.0,41320,List1A,white,woman,,,,null,,,,
null,<p>is meeting</p>,,html-keyboard-response,24,175677,0.0-7.0,41320,List1A,white,woman,,,,null,,,,
6315,<p><b>Answer:</b> kate is meeting beth</p>,0,html-button-response,25,181995,0.0-8.0,41320,List1A,white,woman,,,,,,,,
null,<img src='img/look_eg.gif' style='height:400px;''></img>,,html-keyboard-response,26,184999,0.0-9.0,41320,List1A,white,woman,,,,null,,,,
null,<p>are looking at each other</p>,,html-keyboard-response,27,187002,0.0-10.0,41320,List1A,white,woman,,,,null,,,,
2506,<p><b>Answer:</b> luke and dave are looking at each other</p>,0,html-button-response,28,189511,0.0-11.0,41320,List1A,white,woman,,,,,,,,
6577,"<p>Ready to start the experiment?</p><br><p><strong>Remember to describe the picture using a full sentence,</strong></p><p><strong>that combines the names of the people with the <i>exact</i> phrase given.</strong></p><p><strong>To receive full payment you must do this correctly.</strong></p><p><strong> You do not need to capitalise names or use punctuation.</strong></p><br><p>Press 'Continue' to begin.</p>",0,html-button-response,29,197092,0.0-12.0,41320,List1A,white,woman,,,,,,,,
null,"<div style=""font-size:60px;"">+</div>",,html-keyboard-response,30,198596,0.0-13.0-0.0,41320,List1A,white,woman,,,,null,,,,
null,"<img src=""stim_listA/argue4.gif""style=""height:400px;""></stim_listA>",,html-keyboard-response,31,200601,0.0-13.0-1.0,41320,List1A,white,woman,,,,null,,,,
null,are arguing with each other,,html-keyboard-response,32,202605,0.0-13.0-2.0,41320,List1A,white,woman,,,,null,,,,
10836,,,survey-text,33,213447,0.0-13.0-3.0,41320,List1A,white,woman,,,,,"{""Q0"":""jane and luke are arguing with each other""}","<img src=""stim_listA/argue4.gif""style=""height:400px;""></stim_listA>",are arguing with each other,
null,"<div style=""font-size:60px;"">+</div>",,html-keyboard-response,34,213953,0.0-13.0-0.1,41320,List1A,white,woman,,,,null,,,,
null,"<img src=""stim_listA/argue1.gif""style=""height:400px;""></stim_listA>",,html-keyboard-response,35,215955,0.0-13.0-1.1,41320,List1A,white,woman,,,,null,,,,
null,is arguing with,,html-keyboard-response,36,217958,0.0-13.0-2.1,41320,List1A,white,woman,,,,null,,,,
6886,,,survey-text,37,224846,0.0-13.0-3.1,41320,List1A,white,woman,,,,,"{""Q0"":""Mike is arguing with Beth""}","<img src=""stim_listA/argue1.gif""style=""height:400px;""></stim_listA>",is arguing with,
null,"<div style=""font-size:60px;"">+</div>",,html-keyboard-response,38,225351,0.0-13.0-0.2,41320,List1A,white,woman,,,,null,,,,
null,"<img src=""stim_listA/touch2.gif""style=""height:400px;""></stim_listA>",,html-keyboard-response,39,227354,0.0-13.0-1.2,41320,List1A,white,woman,,,,null,,,,
null,are touching each other,,html-keyboard-response,40,229356,0.0-13.0-2.2,41320,List1A,white,woman,,,,null,,,,
10102,,,survey-text,41,239461,0.0-13.0-3.2,41320,List1A,white,woman,,,,,"{""Q0"":""Beth and Fred are touching each other""}","<img src=""stim_listA/touch2.gif""style=""height:400px;""></stim_listA>",are touching each other,
null,"<div style=""font-size:60px;"">+</div>",,html-keyboard-response,42,239963,0.0-13.0-0.3,41320,List1A,white,woman,,,,null,,,,
null,"<img src=""stim_listA/dance4.gif""style=""height:400px;""></stim_listA>",,html-keyboard-response,43,241967,0.0-13.0-1.3,41320,List1A,white,woman,,,,null,,,,
null,are dancing with each other,,html-keyboard-response,44,243970,0.0-13.0-2.3,41320,List1A,white,woman,,,,null,,,,
13115,,,survey-text,45,257088,0.0-13.0-3.3,41320,List1A,white,woman,,,,,"{""Q0"":""Mike and Jane are dancing with each other""}","<img src=""stim_listA/dance4.gif""style=""height:400px;""></stim_listA>",are dancing with each other,
null,"<div style=""font-size:60px;"">+</div>",,html-keyboard-response,46,257592,0.0-13.0-0.4,41320,List1A,white,woman,,,,null,,,,
null,"<img src=""stim_listA/touch6.gif""style=""height:400px;""></stim_listA>",,html-keyboard-response,47,259597,0.0-13.0-1.4,41320,List1A,white,woman,,,,null,,,,
null,are touching each other,,html-keyboard-response,48,261603,0.0-13.0-2.4,41320,List1A,white,woman,,,,null,,,,
9473,,,survey-text,49,271079,0.0-13.0-3.4,41320,List1A,white,woman,,,,,"{""Q0"":""Luke and Fred are touching each other""}","<img src=""stim_listA/touch6.gif""style=""height:400px;""></stim_listA>",are touching each other,
null,"<div style=""font-size:60px;"">+</div>",,html-keyboard-response,50,271582,0.0-13.0-0.5,41320,List1A,white,woman,,,,null,,,,
null,"<img src=""stim_listA/flirt7.gif""style=""height:400px;""></stim_listA>",,html-keyboard-response,51,273588,0.0-13.0-1.5,41320,List1A,white,woman,,,,null,,,,
null,is flirting with,,html-keyboard-response,52,275590,0.0-13.0-2.5,41320,List1A,white,woman,,,,null,,,,
7333,,,survey-text,53,282925,0.0-13.0-3.5,41320,List1A,white,woman,,,,,"{""Q0"":""Jane is flirting with Beth""}","<img src=""stim_listA/flirt7.gif""style=""height:400px;""></stim_listA>",is flirting with,
null,"<div style=""font-size:60px;"">+</div>",,html-keyboard-response,54,283428,0.0-13.0-0.6,41320,List1A,white,woman,,,,null,,,,
null,"<img src=""stim_listA/kiss4.gif""style=""height:400px;""></stim_listA>",,html-keyboard-response,55,285433,0.0-13.0-1.6,41320,List1A,white,woman,,,,null,,,,
null,are kissing each other,,html-keyboard-response,56,287436,0.0-13.0-2.6,41320,List1A,white,woman,,,,null,,,,
9336,,,survey-text,57,296775,0.0-13.0-3.6,41320,List1A,white,woman,,,,,"{""Q0"":""Jane and Mike are kissing each other""}","<img src=""stim_listA/kiss4.gif""style=""height:400px;""></stim_listA>",are kissing each other,
null,"<div style=""font-size:60px;"">+</div>",,html-keyboard-response,58,297277,0.0-13.0-0.7,41320,List1A,white,woman,,,,null,,,,
null,"<img src=""stim_listA/marry8.gif""style=""height:400px;""></stim_listA>",,html-keyboard-response,59,299281,0.0-13.0-1.7,41320,List1A,white,woman,,,,null,,,,
null,are marrying each other,,html-keyboard-response,60,301283,0.0-13.0-2.7,41320,List1A,white,woman,,,,null,,,,
7055,,,survey-text,61,308341,0.0-13.0-3.7,41320,List1A,white,woman,,,,,"{""Q0"":""Jane and Beth are marrying each other""}","<img src=""stim_listA/marry8.gif""style=""height:400px;""></stim_listA>",are marrying each other,
null,"<div style=""font-size:60px;"">+</div>",,html-keyboard-response,62,308844,0.0-13.0-0.8,41320,List1A,white,woman,,,,null,,,,
null,"<img src=""stim_listA/fight4.gif""style=""height:400px;""></stim_listA>",,html-keyboard-response,63,310848,0.0-13.0-1.8,41320,List1A,white,woman,,,,null,,,,
null,are fighting each other,,html-keyboard-response,64,312851,0.0-13.0-2.8,41320,List1A,white,woman,,,,null,,,,
15520,,,survey-text,65,328374,0.0-13.0-3.8,41320,List1A,white,woman,,,,,"{""Q0"":""Ruth and Luke are fighting with each other""}","<img src=""stim_listA/fight4.gif""style=""height:400px;""></stim_listA>",are fighting each other,
null,"<div style=""font-size:60px;"">+</div>",,html-keyboard-response,66,328883,0.0-13.0-0.9,41320,List1A,white,woman,,,,null,,,,
null,"<img src=""stim_listA/kiss1.gif""style=""height:400px;""></stim_listA>",,html-keyboard-response,67,330887,0.0-13.0-1.9,41320,List1A,white,woman,,,,null,,,,
null,is kissing,,html-keyboard-response,68,332889,0.0-13.0-2.9,41320,List1A,white,woman,,,,null,,,,
5386,,,survey-text,69,338277,0.0-13.0-3.9,41320,List1A,white,woman,,,,,"{""Q0"":""Fred is kissing Beth""}","<img src=""stim_listA/kiss1.gif""style=""height:400px;""></stim_listA>",is kissing,
null,"<div style=""font-size:60px;"">+</div>",,html-keyboard-response,70,338779,0.0-13.0-0.10,41320,List1A,white,woman,,,,null,,,,
null,"<img src=""stim_listA/talk2.gif""style=""height:400px;""></stim_listA>",,html-keyboard-response,71,340783,0.0-13.0-1.10,41320,List1A,white,woman,,,,null,,,,
null,are talking to each other,,html-keyboard-response,72,342785,0.0-13.0-2.10,41320,List1A,white,woman,,,,null,,,,
7827,,,survey-text,73,350614,0.0-13.0-3.10,41320,List1A,white,woman,,,,,"{""Q0"":""Mike and Beth are talking to each other""}","<img src=""stim_listA/talk2.gif""style=""height:400px;""></stim_listA>",are talking to each other,
null,"<div style=""font-size:60px;"">+</div>",,html-keyboard-response,74,351117,0.0-13.0-0.11,41320,List1A,white,woman,,,,null,,,,
null,"<img src=""stim_listA/touch1.gif""style=""height:400px;""></stim_listA>",,html-keyboard-response,75,353120,0.0-13.0-1.11,41320,List1A,white,woman,,,,null,,,,
null,is touching,,html-keyboard-response,76,355122,0.0-13.0-2.11,41320,List1A,white,woman,,,,null,,,,
6448,,,survey-text,77,361573,0.0-13.0-3.11,41320,List1A,white,woman,,,,,"{""Q0"":""Mike is touching Kate""}","<img src=""stim_listA/touch1.gif""style=""height:400px;""></stim_listA>",is touching,
null,"<div style=""font-size:60px;"">+</div>",,html-keyboard-response,78,362078,0.0-13.0-0.12,41320,List1A,white,woman,,,,null,,,,
null,"<img src=""stim_listA/shout6.gif""style=""height:400px;""></stim_listA>",,html-keyboard-response,79,364082,0.0-13.0-1.12,41320,List1A,white,woman,,,,null,,,,
null,are shouting at each other,,html-keyboard-response,80,366086,0.0-13.0-2.12,41320,List1A,white,woman,,,,null,,,,
14868,,,survey-text,81,380955,0.0-13.0-3.12,41320,List1A,white,woman,,,,,"{""Q0"":""Mike and Dave are fighting""}","<img src=""stim_listA/shout6.gif""style=""height:400px;""></stim_listA>",are shouting at each other,
null,"<div style=""font-size:60px;"">+</div>",,html-keyboard-response,82,381460,0.0-13.0-0.13,41320,List1A,white,woman,,,,null,,,,
null,"<img src=""stim_listA/talk5.gif""style=""height:400px;""></stim_listA>",,html-keyboard-response,83,383464,0.0-13.0-1.13,41320,List1A,white,woman,,,,null,,,,
null,is talking to,,html-keyboard-response,84,385467,0.0-13.0-2.13,41320,List1A,white,woman,,,,null,,,,
10356,,,survey-text,85,395826,0.0-13.0-3.13,41320,List1A,white,woman,,,,,"{""Q0"":""Fred is talking to Dave""}","<img src=""stim_listA/talk5.gif""style=""height:400px;""></stim_listA>",is talking to,
null,"<div style=""font-size:60px;"">+</div>",,html-keyboard-response,86,396328,0.0-13.0-0.14,41320,List1A,white,woman,,,,null,,,,
null,"<img src=""stim_listA/argue3.gif""style=""height:400px;""></stim_listA>",,html-keyboard-response,87,398332,0.0-13.0-1.14,41320,List1A,white,woman,,,,null,,,,
null,is arguing with,,html-keyboard-response,88,400335,0.0-13.0-2.14,41320,List1A,white,woman,,,,null,,,,
9048,,,survey-text,89,409385,0.0-13.0-3.14,41320,List1A,white,woman,,,,,"{""Q0"":""Dave is arguing with Ruth""}","<img src=""stim_listA/argue3.gif""style=""height:400px;""></stim_listA>",is arguing with,
null,"<div style=""font-size:60px;"">+</div>",,html-keyboard-response,90,409889,0.0-13.0-0.15,41320,List1A,white,woman,,,,null,,,,
null,"<img src=""stim_listA/fight2.gif""style=""height:400px;""></stim_listA>",,html-keyboard-response,91,411895,0.0-13.0-1.15,41320,List1A,white,woman,,,,null,,,,
null,are fighting each other,,html-keyboard-response,92,413898,0.0-13.0-2.15,41320,List1A,white,woman,,,,null,,,,
8239,,,survey-text,93,422142,0.0-13.0-3.15,41320,List1A,white,woman,,,,,"{""Q0"":""Beth and Fred are fighting with each other""}","<img src=""stim_listA/fight2.gif""style=""height:400px;""></stim_listA>",are fighting each other,
null,"<div style=""font-size:60px;"">+</div>",,html-keyboard-response,94,422646,0.0-13.0-0.16,41320,List1A,white,woman,,,,null,,,,
null,"<img src=""stim_listA/argue5.gif""style=""height:400px;""></stim_listA>",,html-keyboard-response,95,424650,0.0-13.0-1.16,41320,List1A,white,woman,,,,null,,,,
null,is arguing with,,html-keyboard-response,96,426652,0.0-13.0-2.16,41320,List1A,white,woman,,,,null,,,,
6362,,,survey-text,97,433018,0.0-13.0-3.16,41320,List1A,white,woman,,,,,"{""Q0"":""Mike is arguing with Luke""}","<img src=""stim_listA/argue5.gif""style=""height:400px;""></stim_listA>",is arguing with,
null,"<div style=""font-size:60px;"">+</div>",,html-keyboard-response,98,433522,0.0-13.0-0.17,41320,List1A,white,woman,,,,null,,,,
null,"<img src=""stim_listA/argue2.gif""style=""height:400px;""></stim_listA>",,html-keyboard-response,99,435527,0.0-13.0-1.17,41320,List1A,white,woman,,,,null,,,,
null,are arguing with each other,,html-keyboard-response,100,437530,0.0-13.0-2.17,41320,List1A,white,woman,,,,null,,,,
8620,,,survey-text,101,446152,0.0-13.0-3.17,41320,List1A,white,woman,,,,,"{""Q0"":""Kate and Fred are arguing with each other""}","<img src=""stim_listA/argue2.gif""style=""height:400px;""></stim_listA>",are arguing with each other,
null,"<div style=""font-size:60px;"">+</div>",,html-keyboard-response,102,446654,0.0-13.0-0.18,41320,List1A,white,woman,,,,null,,,,
null,"<img src=""stim_listA/touch4.gif""style=""height:400px;""></stim_listA>",,html-keyboard-response,103,448658,0.0-13.0-1.18,41320,List1A,white,woman,,,,null,,,,
null,are touching each other,,html-keyboard-response,104,450661,0.0-13.0-2.18,41320,List1A,white,woman,,,,null,,,,
7090,,,survey-text,105,457753,0.0-13.0-3.18,41320,List1A,white,woman,,,,,"{""Q0"":""Ruth and Luke are touching each other""}","<img src=""stim_listA/touch4.gif""style=""height:400px;""></stim_listA>",are touching each other,
null,"<div style=""font-size:60px;"">+</div>",,html-keyboard-response,106,458257,0.0-13.0-0.19,41320,List1A,white,woman,,,,null,,,,
null,"<img src=""stim_listA/argue7.gif""style=""height:400px;""></stim_listA>",,html-keyboard-response,107,460262,0.0-13.0-1.19,41320,List1A,white,woman,,,,null,,,,
null,is arguing with,,html-keyboard-response,108,462267,0.0-13.0-2.19,41320,List1A,white,woman,,,,null,,,,
7253,,,survey-text,109,469523,0.0-13.0-3.19,41320,List1A,white,woman,,,,,"{""Q0"":""Kate is arguing with Ruth""}","<img src=""stim_listA/argue7.gif""style=""height:400px;""></stim_listA>",is arguing with,
8945,"<img src='img/portrait_matrix_list1.jpg' style='width:900px;height:500px;''></img><p>If you have memorised all the portraits and names and are ready to start, press Continue.</p><p><strong>Please note: Your memory of these faces will be tested 4 times during this experiment.</strong></p>",0,html-button-response,110,478472,0.0-14.0-0.0,41320,List1A,white,woman,,,,,,,,
1990,"<img src=""portrait/WW2.jpg""style=""height:400px;""></img>",3,html-button-response,111,481468,0.0-14.0-1.0,41320,List1A,white,woman,,TRUE,3,,,,,
null,CORRECT,,html-keyboard-response,112,482972,0.0-14.0-2.0-0.0,41320,List1A,white,woman,,,,null,,,,
2544,"<img src=""portrait/BM2.jpg""style=""height:400px;""></img>",5,html-button-response,113,485520,0.0-14.0-4.0,41320,List1A,white,woman,,TRUE,5,,,,,
null,CORRECT,,html-keyboard-response,114,487024,0.0-14.0-5.0-0.0,41320,List1A,white,woman,,,,null,,,,
4057,"<img src=""portrait/WM2.jpg""style=""height:400px;""></img>",7,html-button-response,115,491085,0.0-14.0-7.0,41320,List1A,white,woman,,TRUE,7,,,,,
null,CORRECT,,html-keyboard-response,116,492589,0.0-14.0-8.0-0.0,41320,List1A,white,woman,,,,null,,,,
2178,"<img src=""portrait/WW1.jpg""style=""height:400px;""></img>",1,html-button-response,117,494771,0.0-14.0-10.0,41320,List1A,white,woman,,TRUE,1,,,,,
null,CORRECT,,html-keyboard-response,118,496276,0.0-14.0-11.0-0.0,41320,List1A,white,woman,,,,null,,,,
1535,"<img src=""portrait/BM1.jpg""style=""height:400px;""></img>",4,html-button-response,119,497814,0.0-14.0-13.0,41320,List1A,white,woman,,TRUE,4,,,,,
null,CORRECT,,html-keyboard-response,120,499318,0.0-14.0-14.0-0.0,41320,List1A,white,woman,,,,null,,,,
2088,"<img src=""portrait/BW1.jpg""style=""height:400px;""></img>",0,html-button-response,121,501410,0.0-14.0-16.0,41320,List1A,white,woman,,TRUE,0,,,,,
null,CORRECT,,html-keyboard-response,122,502914,0.0-14.0-17.0-0.0,41320,List1A,white,woman,,,,null,,,,
1829,"<img src=""portrait/BW2.jpg""style=""height:400px;""></img>",2,html-button-response,123,504746,0.0-14.0-19.0,41320,List1A,white,woman,,TRUE,2,,,,,
null,CORRECT,,html-keyboard-response,124,506250,0.0-14.0-20.0-0.0,41320,List1A,white,woman,,,,null,,,,
2180,"<img src=""portrait/WM1.jpg""style=""height:400px;""></img>",6,html-button-response,125,508433,0.0-14.0-22.0,41320,List1A,white,woman,,TRUE,6,,,,,
null,CORRECT,,html-keyboard-response,126,509939,0.0-14.0-23.0-0.0,41320,List1A,white,woman,,,,null,,,,
1679,<p>You got 8 out of 8 right first time. Press Continue.</p>,0,html-button-response,127,511620,0.0-14.0-25.0,41320,List1A,white,woman,,,,,,,,
null,"<div style=""font-size:60px;"">+</div>",,html-keyboard-response,128,513123,0.0-15.0-0.0,41320,List1A,white,woman,,,,null,,,,
null,"<img src=""stim_listA/flirt2.gif""style=""height:400px;""></stim_listA>",,html-keyboard-response,129,515129,0.0-15.0-1.0,41320,List1A,white,woman,,,,null,,,,
null,are flirting with each other,,html-keyboard-response,130,517132,0.0-15.0-2.0,41320,List1A,white,woman,,,,null,,,,
7534,,,survey-text,131,524668,0.0-15.0-3.0,41320,List1A,white,woman,,,,,"{""Q0"":""Beth and Luke are flirting with each other""}","<img src=""stim_listA/flirt2.gif""style=""height:400px;""></stim_listA>",are flirting with each other,
null,"<div style=""font-size:60px;"">+</div>",,html-keyboard-response,132,525172,0.0-15.0-0.1,41320,List1A,white,woman,,,,null,,,,
null,"<img src=""stim_listA/play3.gif""style=""height:400px;""></stim_listA>",,html-keyboard-response,133,527177,0.0-15.0-1.1,41320,List1A,white,woman,,,,null,,,,
null,is playing with,,html-keyboard-response,134,529181,0.0-15.0-2.1,41320,List1A,white,woman,,,,null,,,,
6926,,,survey-text,135,536110,0.0-15.0-3.1,41320,List1A,white,woman,,,,,"{""Q0"":""Dave is playing with Jane""}","<img src=""stim_listA/play3.gif""style=""height:400px;""></stim_listA>",is playing with,
null,"<div style=""font-size:60px;"">+</div>",,html-keyboard-response,136,536612,0.0-15.0-0.2,41320,List1A,white,woman,,,,null,,,,
null,"<img src=""stim_listA/shout4.gif""style=""height:400px;""></stim_listA>",,html-keyboard-response,137,538615,0.0-15.0-1.2,41320,List1A,white,woman,,,,null,,,,
null,are shouting at each other,,html-keyboard-response,138,540617,0.0-15.0-2.2,41320,List1A,white,woman,,,,null,,,,
10900,,,survey-text,139,551519,0.0-15.0-3.2,41320,List1A,white,woman,,,,,"{""Q0"":""Jane and Dave are shouting at each other""}","<img src=""stim_listA/shout4.gif""style=""height:400px;""></stim_listA>",are shouting at each other,
null,"<div style=""font-size:60px;"">+</div>",,html-keyboard-response,140,552022,0.0-15.0-0.3,41320,List1A,white,woman,,,,null,,,,
null,"<img src=""stim_listA/fight8.gif""style=""height:400px;""></stim_listA>",,html-keyboard-response,141,554029,0.0-15.0-1.3,41320,List1A,white,woman,,,,null,,,,
null,are fighting each other,,html-keyboard-response,142,556032,0.0-15.0-2.3,41320,List1A,white,woman,,,,null,,,,
8290,,,survey-text,143,564326,0.0-15.0-3.3,41320,List1A,white,woman,,,,,"{""Q0"":""Ruth and Beth are fighting each other""}","<img src=""stim_listA/fight8.gif""style=""height:400px;""></stim_listA>",are fighting each other,
null,"<div style=""font-size:60px;"">+</div>",,html-keyboard-response,144,564828,0.0-15.0-0.4,41320,List1A,white,woman,,,,null,,,,
null,"<img src=""stim_listA/marry5.gif""style=""height:400px;""></stim_listA>",,html-keyboard-response,145,566833,0.0-15.0-1.4,41320,List1A,white,woman,,,,null,,,,
null,is marrying,,html-keyboard-response,146,568836,0.0-15.0-2.4,41320,List1A,white,woman,,,,null,,,,
8567,,,survey-text,147,577405,0.0-15.0-3.4,41320,List1A,white,woman,,,,,"{""Q0"":""Mike is marrying Luke""}","<img src=""stim_listA/marry5.gif""style=""height:400px;""></stim_listA>",is marrying,
null,"<div style=""font-size:60px;"">+</div>",,html-keyboard-response,148,577908,0.0-15.0-0.5,41320,List1A,white,woman,,,,null,,,,
null,"<img src=""stim_listA/argue8.gif""style=""height:400px;""></stim_listA>",,html-keyboard-response,149,579912,0.0-15.0-1.5,41320,List1A,white,woman,,,,null,,,,
null,are arguing with each other,,html-keyboard-response,150,581913,0.0-15.0-2.5,41320,List1A,white,woman,,,,null,,,,
7767,,,survey-text,151,589683,0.0-15.0-3.5,41320,List1A,white,woman,,,,,"{""Q0"":""Jane and Beth are arguing with each other""}","<img src=""stim_listA/argue8.gif""style=""height:400px;""></stim_listA>",are arguing with each other,
null,"<div style=""font-size:60px;"">+</div>",,html-keyboard-response,152,590186,0.0-15.0-0.6,41320,List1A,white,woman,,,,null,,,,
null,"<img src=""stim_listA/flirt3.gif""style=""height:400px;""></stim_listA>",,html-keyboard-response,153,592190,0.0-15.0-1.6,41320,List1A,white,woman,,,,null,,,,
null,is flirting with,,html-keyboard-response,154,594193,0.0-15.0-2.6,41320,List1A,white,woman,,,,null,,,,
6348,,,survey-text,155,600544,0.0-15.0-3.6,41320,List1A,white,woman,,,,,"{""Q0"":""Luke is flirting with Jane""}","<img src=""stim_listA/flirt3.gif""style=""height:400px;""></stim_listA>",is flirting with,
null,"<div style=""font-size:60px;"">+</div>",,html-keyboard-response,156,601046,0.0-15.0-0.7,41320,List1A,white,woman,,,,null,,,,
null,"<img src=""stim_listA/shout7.gif""style=""height:400px;""></stim_listA>",,html-keyboard-response,157,603051,0.0-15.0-1.7,41320,List1A,white,woman,,,,null,,,,
null,is shouting at,,html-keyboard-response,158,605055,0.0-15.0-2.7,41320,List1A,white,woman,,,,null,,,,
5933,,,survey-text,159,610990,0.0-15.0-3.7,41320,List1A,white,woman,,,,,"{""Q0"":""Beth is shouting at Ruth""}","<img src=""stim_listA/shout7.gif""style=""height:400px;""></stim_listA>",is shouting at,
null,"<div style=""font-size:60px;"">+</div>",,html-keyboard-response,160,611492,0.0-15.0-0.8,41320,List1A,white,woman,,,,null,,,,
null,"<img src=""stim_listA/fight1.gif""style=""height:400px;""></stim_listA>",,html-keyboard-response,161,613496,0.0-15.0-1.8,41320,List1A,white,woman,,,,null,,,,
null,is fighting,,html-keyboard-response,162,615498,0.0-15.0-2.8,41320,List1A,white,woman,,,,null,,,,
5742,,,survey-text,163,621242,0.0-15.0-3.8,41320,List1A,white,woman,,,,,"{""Q0"":""Mike is fighting Kate""}","<img src=""stim_listA/fight1.gif""style=""height:400px;""></stim_listA>",is fighting,
null,"<div style=""font-size:60px;"">+</div>",,html-keyboard-response,164,621745,0.0-15.0-0.9,41320,List1A,white,woman,,,,null,,,,
null,"<img src=""stim_listA/kiss5.gif""style=""height:400px;""></stim_listA>",,html-keyboard-response,165,623750,0.0-15.0-1.9,41320,List1A,white,woman,,,,null,,,,
null,is kissing,,html-keyboard-response,166,625753,0.0-15.0-2.9,41320,List1A,white,woman,,,,null,,,,
6034,,,survey-text,167,631789,0.0-15.0-3.9,41320,List1A,white,woman,,,,,"{""Q0"":""Fred is kissing Luke""}","<img src=""stim_listA/kiss5.gif""style=""height:400px;""></stim_listA>",is kissing,
null,"<div style=""font-size:60px;"">+</div>",,html-keyboard-response,168,632292,0.0-15.0-0.10,41320,List1A,white,woman,,,,null,,,,
null,"<img src=""stim_listA/dance2.gif""style=""height:400px;""></stim_listA>",,html-keyboard-response,169,634297,0.0-15.0-1.10,41320,List1A,white,woman,,,,null,,,,
null,are dancing with each other,,html-keyboard-response,170,636299,0.0-15.0-2.10,41320,List1A,white,woman,,,,null,,,,
12035,,,survey-text,171,648336,0.0-15.0-3.10,41320,List1A,white,woman,,,,,"{""Q0"":""Beth and Mike are dancing with each other""}","<img src=""stim_listA/dance2.gif""style=""height:400px;""></stim_listA>",are dancing with each other,
null,"<div style=""font-size:60px;"">+</div>",,html-keyboard-response,172,648840,0.0-15.0-0.11,41320,List1A,white,woman,,,,null,,,,
null,"<img src=""stim_listA/fight6.gif""style=""height:400px;""></stim_listA>",,html-keyboard-response,173,650844,0.0-15.0-1.11,41320,List1A,white,woman,,,,null,,,,
null,are fighting each other,,html-keyboard-response,174,652846,0.0-15.0-2.11,41320,List1A,white,woman,,,,null,,,,
7286,,,survey-text,175,660135,0.0-15.0-3.11,41320,List1A,white,woman,,,,,"{""Q0"":""Luke and Fred are fighting each other""}","<img src=""stim_listA/fight6.gif""style=""height:400px;""></stim_listA>",are fighting each other,
null,"<div style=""font-size:60px;"">+</div>",,html-keyboard-response,176,660638,0.0-15.0-0.12,41320,List1A,white,woman,,,,null,,,,
null,"<img src=""stim_listA/play4.gif""style=""height:400px;""></stim_listA>",,html-keyboard-response,177,662642,0.0-15.0-1.12,41320,List1A,white,woman,,,,null,,,,
null,are playing with each other,,html-keyboard-response,178,664645,0.0-15.0-2.12,41320,List1A,white,woman,,,,null,,,,
7186,,,survey-text,179,671834,0.0-15.0-3.12,41320,List1A,white,woman,,,,,"{""Q0"":""Ruth and Luke are playing with each other""}","<img src=""stim_listA/play4.gif""style=""height:400px;""></stim_listA>",are playing with each other,
null,"<div style=""font-size:60px;"">+</div>",,html-keyboard-response,180,672337,0.0-15.0-0.13,41320,List1A,white,woman,,,,null,,,,
null,"<img src=""stim_listA/argue6.gif""style=""height:400px;""></stim_listA>",,html-keyboard-response,181,674340,0.0-15.0-1.13,41320,List1A,white,woman,,,,null,,,,
null,are arguing with each other,,html-keyboard-response,182,676343,0.0-15.0-2.13,41320,List1A,white,woman,,,,null,,,,
11727,,,survey-text,183,688072,0.0-15.0-3.13,41320,List1A,white,woman,,,,,"{""Q0"":""Dave and Fred are arguing with each other""}","<img src=""stim_listA/argue6.gif""style=""height:400px;""></stim_listA>",are arguing with each other,
null,"<div style=""font-size:60px;"">+</div>",,html-keyboard-response,184,688576,0.0-15.0-0.14,41320,List1A,white,woman,,,,null,,,,
null,"<img src=""stim_listA/shout3.gif""style=""height:400px;""></stim_listA>",,html-keyboard-response,185,690581,0.0-15.0-1.14,41320,List1A,white,woman,,,,null,,,,
null,is shouting at,,html-keyboard-response,186,692583,0.0-15.0-2.14,41320,List1A,white,woman,,,,null,,,,
5369,,,survey-text,187,697955,0.0-15.0-3.14,41320,List1A,white,woman,,,,,"{""Q0"":""Luke is shouting at Ruth""}","<img src=""stim_listA/shout3.gif""style=""height:400px;""></stim_listA>",is shouting at,
null,"<div style=""font-size:60px;"">+</div>",,html-keyboard-response,188,698458,0.0-15.0-0.15,41320,List1A,white,woman,,,,null,,,,
null,"<img src=""stim_listA/fight3.gif""style=""height:400px;""></stim_listA>",,html-keyboard-response,189,700462,0.0-15.0-1.15,41320,List1A,white,woman,,,,null,,,,
null,is fighting,,html-keyboard-response,190,702465,0.0-15.0-2.15,41320,List1A,white,woman,,,,null,,,,
7964,,,survey-text,191,710433,0.0-15.0-3.15,41320,List1A,white,woman,,,,,"{""Q0"":""Dave is fighting Jane""}","<img src=""stim_listA/fight3.gif""style=""height:400px;""></stim_listA>",is fighting,
null,"<div style=""font-size:60px;"">+</div>",,html-keyboard-response,192,710936,0.0-15.0-0.16,41320,List1A,white,woman,,,,null,,,,
null,"<img src=""stim_listA/shout1.gif""style=""height:400px;""></stim_listA>",,html-keyboard-response,193,712941,0.0-15.0-1.16,41320,List1A,white,woman,,,,null,,,,
null,is shouting at,,html-keyboard-response,194,714943,0.0-15.0-2.16,41320,List1A,white,woman,,,,null,,,,
4773,,,survey-text,195,719718,0.0-15.0-3.16,41320,List1A,white,woman,,,,,"{""Q0"":""Fred is shouting at Beth""}","<img src=""stim_listA/shout1.gif""style=""height:400px;""></stim_listA>",is shouting at,
null,"<div style=""font-size:60px;"">+</div>",,html-keyboard-response,196,720222,0.0-15.0-0.17,41320,List1A,white,woman,,,,null,,,,
null,"<img src=""stim_listA/play6.gif""style=""height:400px;""></stim_listA>",,html-keyboard-response,197,722226,0.0-15.0-1.17,41320,List1A,white,woman,,,,null,,,,
null,are playing with each other,,html-keyboard-response,198,724229,0.0-15.0-2.17,41320,List1A,white,woman,,,,null,,,,
11437,,,survey-text,199,735668,0.0-15.0-3.17,41320,List1A,white,woman,,,,,"{""Q0"":""Luke and Fred are playing with each other""}","<img src=""stim_listA/play6.gif""style=""height:400px;""></stim_listA>",are playing with each other,
null,"<div style=""font-size:60px;"">+</div>",,html-keyboard-response,200,736172,0.0-15.0-0.18,41320,List1A,white,woman,,,,null,,,,
null,"<img src=""stim_listA/touch3.gif""style=""height:400px;""></stim_listA>",,html-keyboard-response,201,738176,0.0-15.0-1.18,41320,List1A,white,woman,,,,null,,,,
null,is touching,,html-keyboard-response,202,740179,0.0-15.0-2.18,41320,List1A,white,woman,,,,null,,,,
5839,,,survey-text,203,746020,0.0-15.0-3.18,41320,List1A,white,woman,,,,,"{""Q0"":""Mike is touching Jane""}","<img src=""stim_listA/touch3.gif""style=""height:400px;""></stim_listA>",is touching,
null,"<div style=""font-size:60px;"">+</div>",,html-keyboard-response,204,746523,0.0-15.0-0.19,41320,List1A,white,woman,,,,null,,,,
null,"<img src=""stim_listA/dance8.gif""style=""height:400px;""></stim_listA>",,html-keyboard-response,205,748529,0.0-15.0-1.19,41320,List1A,white,woman,,,,null,,,,
null,are dancing with each other,,html-keyboard-response,206,750533,0.0-15.0-2.19,41320,List1A,white,woman,,,,null,,,,
12778,,,survey-text,207,763313,0.0-15.0-3.19,41320,List1A,white,woman,,,,,"{""Q0"":""Kate and Ruth are dancing with each other""}","<img src=""stim_listA/dance8.gif""style=""height:400px;""></stim_listA>",are dancing with each other,
3219,"<img src='img/portrait_matrix_list1.jpg' style='width:900px;height:500px;''></img><p>If you have memorised all the portraits and names and are ready to start, press Continue.</p><p><strong>Please note: Your memory of these faces will be tested 4 times during this experiment.</strong></p>",0,html-button-response,208,766535,0.0-16.0-0.0,41320,List1A,white,woman,,,,,,,,
2257,"<img src=""portrait/WM2.jpg""style=""height:400px;""></img>",7,html-button-response,209,769797,0.0-16.0-1.0,41320,List1A,white,woman,,TRUE,7,,,,,
null,CORRECT,,html-keyboard-response,210,771301,0.0-16.0-2.0-0.0,41320,List1A,white,woman,,,,null,,,,
1677,"<img src=""portrait/BW2.jpg""style=""height:400px;""></img>",2,html-button-response,211,772980,0.0-16.0-4.0,41320,List1A,white,woman,,TRUE,2,,,,,
null,CORRECT,,html-keyboard-response,212,774486,0.0-16.0-5.0-0.0,41320,List1A,white,woman,,,,null,,,,
5538,"<img src=""portrait/BW1.jpg""style=""height:400px;""></img>",0,html-button-response,213,780027,0.0-16.0-7.0,41320,List1A,white,woman,,TRUE,0,,,,,
null,CORRECT,,html-keyboard-response,214,781531,0.0-16.0-8.0-0.0,41320,List1A,white,woman,,,,null,,,,
2472,"<img src=""portrait/WW1.jpg""style=""height:400px;""></img>",1,html-button-response,215,784005,0.0-16.0-10.0,41320,List1A,white,woman,,TRUE,1,,,,,
null,CORRECT,,html-keyboard-response,216,785509,0.0-16.0-11.0-0.0,41320,List1A,white,woman,,,,null,,,,
2102,"<img src=""portrait/WM1.jpg""style=""height:400px;""></img>",6,html-button-response,217,787615,0.0-16.0-13.0,41320,List1A,white,woman,,TRUE,6,,,,,
null,CORRECT,,html-keyboard-response,218,789117,0.0-16.0-14.0-0.0,41320,List1A,white,woman,,,,null,,,,
2514,"<img src=""portrait/BM1.jpg""style=""height:400px;""></img>",4,html-button-response,219,791636,0.0-16.0-16.0,41320,List1A,white,woman,,TRUE,4,,,,,
null,CORRECT,,html-keyboard-response,220,793141,0.0-16.0-17.0-0.0,41320,List1A,white,woman,,,,null,,,,
2268,"<img src=""portrait/BM2.jpg""style=""height:400px;""></img>",5,html-button-response,221,795414,0.0-16.0-19.0,41320,List1A,white,woman,,TRUE,5,,,,,
null,CORRECT,,html-keyboard-response,222,796918,0.0-16.0-20.0-0.0,41320,List1A,white,woman,,,,null,,,,
1663,"<img src=""portrait/WW2.jpg""style=""height:400px;""></img>",3,html-button-response,223,798585,0.0-16.0-22.0,41320,List1A,white,woman,,TRUE,3,,,,,
null,CORRECT,,html-keyboard-response,224,800088,0.0-16.0-23.0-0.0,41320,List1A,white,woman,,,,null,,,,
1433,<p>You got 8 out of 8 right first time. Press Continue.</p>,0,html-button-response,225,801525,0.0-16.0-25.0,41320,List1A,white,woman,,,,,,,,
null,"<div style=""font-size:60px;"">+</div>",,html-keyboard-response,226,803031,0.0-17.0-0.0,41320,List1A,white,woman,,,,null,,,,
null,"<img src=""stim_listA/dance1.gif""style=""height:400px;""></stim_listA>",,html-keyboard-response,227,805035,0.0-17.0-1.0,41320,List1A,white,woman,,,,null,,,,
null,is dancing with,,html-keyboard-response,228,807037,0.0-17.0-2.0,41320,List1A,white,woman,,,,null,,,,
7874,,,survey-text,229,814914,0.0-17.0-3.0,41320,List1A,white,woman,,,,,"{""Q0"":""Fred is dancing with Kate""}","<img src=""stim_listA/dance1.gif""style=""height:400px;""></stim_listA>",is dancing with,
null,"<div style=""font-size:60px;"">+</div>",,html-keyboard-response,230,815418,0.0-17.0-0.1,41320,List1A,white,woman,,,,null,,,,
null,"<img src=""stim_listA/kiss3.gif""style=""height:400px;""></stim_listA>",,html-keyboard-response,231,817421,0.0-17.0-1.1,41320,List1A,white,woman,,,,null,,,,
null,is kissing,,html-keyboard-response,232,819424,0.0-17.0-2.1,41320,List1A,white,woman,,,,null,,,,
6132,,,survey-text,233,825558,0.0-17.0-3.1,41320,List1A,white,woman,,,,,"{""Q0"":""Luke is kissing Ruth""}","<img src=""stim_listA/kiss3.gif""style=""height:400px;""></stim_listA>",is kissing,
null,"<div style=""font-size:60px;"">+</div>",,html-keyboard-response,234,826063,0.0-17.0-0.2,41320,List1A,white,woman,,,,null,,,,
null,"<img src=""stim_listA/play5.gif""style=""height:400px;""></stim_listA>",,html-keyboard-response,235,828066,0.0-17.0-1.2,41320,List1A,white,woman,,,,null,,,,
null,is playing with,,html-keyboard-response,236,830069,0.0-17.0-2.2,41320,List1A,white,woman,,,,null,,,,
8180,,,survey-text,237,838253,0.0-17.0-3.2,41320,List1A,white,woman,,,,,"{""Q0"":""Mike is playing with Dave""}","<img src=""stim_listA/play5.gif""style=""height:400px;""></stim_listA>",is playing with,
null,"<div style=""font-size:60px;"">+</div>",,html-keyboard-response,238,838757,0.0-17.0-0.3,41320,List1A,white,woman,,,,null,,,,
null,"<img src=""stim_listA/play8.gif""style=""height:400px;""></stim_listA>",,html-keyboard-response,239,840762,0.0-17.0-1.3,41320,List1A,white,woman,,,,null,,,,
null,are playing with each other,,html-keyboard-response,240,842764,0.0-17.0-2.3,41320,List1A,white,woman,,,,null,,,,
9718,,,survey-text,241,852485,0.0-17.0-3.3,41320,List1A,white,woman,,,,,"{""Q0"":""Ruth and Beth are playing with each other""}","<img src=""stim_listA/play8.gif""style=""height:400px;""></stim_listA>",are playing with each other,
null,"<div style=""font-size:60px;"">+</div>",,html-keyboard-response,242,852987,0.0-17.0-0.4,41320,List1A,white,woman,,,,null,,,,
null,"<img src=""stim_listA/shout8.gif""style=""height:400px;""></stim_listA>",,html-keyboard-response,243,854992,0.0-17.0-1.4,41320,List1A,white,woman,,,,null,,,,
null,are shouting at each other,,html-keyboard-response,244,856994,0.0-17.0-2.4,41320,List1A,white,woman,,,,null,,,,
9173,,,survey-text,245,866169,0.0-17.0-3.4,41320,List1A,white,woman,,,,,"{""Q0"":""Jane and Kate are shouting at each other""}","<img src=""stim_listA/shout8.gif""style=""height:400px;""></stim_listA>",are shouting at each other,
null,"<div style=""font-size:60px;"">+</div>",,html-keyboard-response,246,866675,0.0-17.0-0.5,41320,List1A,white,woman,,,,null,,,,
null,"<img src=""stim_listA/dance6.gif""style=""height:400px;""></stim_listA>",,html-keyboard-response,247,868680,0.0-17.0-1.5,41320,List1A,white,woman,,,,null,,,,
null,are dancing with each other,,html-keyboard-response,248,870683,0.0-17.0-2.5,41320,List1A,white,woman,,,,null,,,,
8200,,,survey-text,249,878885,0.0-17.0-3.5,41320,List1A,white,woman,,,,,"{""Q0"":""Mike and Luke are dancing with each other""}","<img src=""stim_listA/dance6.gif""style=""height:400px;""></stim_listA>",are dancing with each other,
null,"<div style=""font-size:60px;"">+</div>",,html-keyboard-response,250,879388,0.0-17.0-0.6,41320,List1A,white,woman,,,,null,,,,
null,"<img src=""stim_listA/touch8.gif""style=""height:400px;""></stim_listA>",,html-keyboard-response,251,881392,0.0-17.0-1.6,41320,List1A,white,woman,,,,null,,,,
null,are touching each other,,html-keyboard-response,252,883395,0.0-17.0-2.6,41320,List1A,white,woman,,,,null,,,,
7288,,,survey-text,253,890685,0.0-17.0-3.6,41320,List1A,white,woman,,,,,"{""Q0"":""Ruth and Beth are touching each other""}","<img src=""stim_listA/touch8.gif""style=""height:400px;""></stim_listA>",are touching each other,
null,"<div style=""font-size:60px;"">+</div>",,html-keyboard-response,254,891188,0.0-17.0-0.7,41320,List1A,white,woman,,,,null,,,,
null,"<img src=""stim_listA/shout2.gif""style=""height:400px;""></stim_listA>",,html-keyboard-response,255,893192,0.0-17.0-1.7,41320,List1A,white,woman,,,,null,,,,
null,are shouting at each other,,html-keyboard-response,256,895196,0.0-17.0-2.7,41320,List1A,white,woman,,,,null,,,,
7230,,,survey-text,257,902428,0.0-17.0-3.7,41320,List1A,white,woman,,,,,"{""Q0"":""Kate and Mike are shouting at each other""}","<img src=""stim_listA/shout2.gif""style=""height:400px;""></stim_listA>",are shouting at each other,
null,"<div style=""font-size:60px;"">+</div>",,html-keyboard-response,258,902931,0.0-17.0-0.8,41320,List1A,white,woman,,,,null,,,,
null,"<img src=""stim_listA/fight7.gif""style=""height:400px;""></stim_listA>",,html-keyboard-response,259,904936,0.0-17.0-1.8,41320,List1A,white,woman,,,,null,,,,
null,is fighting,,html-keyboard-response,260,906939,0.0-17.0-2.8,41320,List1A,white,woman,,,,null,,,,
7086,,,survey-text,261,914027,0.0-17.0-3.8,41320,List1A,white,woman,,,,,"{""Q0"":""Kate is fighting Jane""}","<img src=""stim_listA/fight7.gif""style=""height:400px;""></stim_listA>",is fighting,
null,"<div style=""font-size:60px;"">+</div>",,html-keyboard-response,262,914530,0.0-17.0-0.9,41320,List1A,white,woman,,,,null,,,,
null,"<img src=""stim_listA/play1.gif""style=""height:400px;""></stim_listA>",,html-keyboard-response,263,916534,0.0-17.0-1.9,41320,List1A,white,woman,,,,null,,,,
null,is playing with,,html-keyboard-response,264,918537,0.0-17.0-2.9,41320,List1A,white,woman,,,,null,,,,
5218,,,survey-text,265,923758,0.0-17.0-3.9,41320,List1A,white,woman,,,,,"{""Q0"":""Mike is playing with Kate""}","<img src=""stim_listA/play1.gif""style=""height:400px;""></stim_listA>",is playing with,
null,"<div style=""font-size:60px;"">+</div>",,html-keyboard-response,266,924260,0.0-17.0-0.10,41320,List1A,white,woman,,,,null,,,,
null,"<img src=""stim_listA/shout5.gif""style=""height:400px;""></stim_listA>",,html-keyboard-response,267,926265,0.0-17.0-1.10,41320,List1A,white,woman,,,,null,,,,
null,is shouting at,,html-keyboard-response,268,928269,0.0-17.0-2.10,41320,List1A,white,woman,,,,null,,,,
5787,,,survey-text,269,934058,0.0-17.0-3.10,41320,List1A,white,woman,,,,,"{""Q0"":""Fred is shouting at Luke""}","<img src=""stim_listA/shout5.gif""style=""height:400px;""></stim_listA>",is shouting at,
null,"<div style=""font-size:60px;"">+</div>",,html-keyboard-response,270,934561,0.0-17.0-0.11,41320,List1A,white,woman,,,,null,,,,
null,"<img src=""stim_listA/flirt6.gif""style=""height:400px;""></stim_listA>",,html-keyboard-response,271,936565,0.0-17.0-1.11,41320,List1A,white,woman,,,,null,,,,
null,are flirting with each other,,html-keyboard-response,272,938568,0.0-17.0-2.11,41320,List1A,white,woman,,,,null,,,,
7303,,,survey-text,273,945873,0.0-17.0-3.11,41320,List1A,white,woman,,,,,"{""Q0"":""Luke and Mike are flirting with each other""}","<img src=""stim_listA/flirt6.gif""style=""height:400px;""></stim_listA>",are flirting with each other,
null,"<div style=""font-size:60px;"">+</div>",,html-keyboard-response,274,946375,0.0-17.0-0.12,41320,List1A,white,woman,,,,null,,,,
null,"<img src=""stim_listA/fight5.gif""style=""height:400px;""></stim_listA>",,html-keyboard-response,275,948378,0.0-17.0-1.12,41320,List1A,white,woman,,,,null,,,,
null,is fighting,,html-keyboard-response,276,950381,0.0-17.0-2.12,41320,List1A,white,woman,,,,null,,,,
4940,,,survey-text,277,955322,0.0-17.0-3.12,41320,List1A,white,woman,,,,,"{""Q0"":""Mike is fighting Dave""}","<img src=""stim_listA/fight5.gif""style=""height:400px;""></stim_listA>",is fighting,
null,"<div style=""font-size:60px;"">+</div>",,html-keyboard-response,278,955826,0.0-17.0-0.13,41320,List1A,white,woman,,,,null,,,,
null,"<img src=""stim_listA/flirt1.gif""style=""height:400px;""></stim_listA>",,html-keyboard-response,279,957829,0.0-17.0-1.13,41320,List1A,white,woman,,,,null,,,,
null,is flirting with,,html-keyboard-response,280,959832,0.0-17.0-2.13,41320,List1A,white,woman,,,,null,,,,
6503,,,survey-text,281,966338,0.0-17.0-3.13,41320,List1A,white,woman,,,,,"{""Q0"":""Fred is flirting with Kate""}","<img src=""stim_listA/flirt1.gif""style=""height:400px;""></stim_listA>",is flirting with,
null,"<div style=""font-size:60px;"">+</div>",,html-keyboard-response,282,966841,0.0-17.0-0.14,41320,List1A,white,woman,,,,null,,,,
null,"<img src=""stim_listA/talk3.gif""style=""height:400px;""></stim_listA>",,html-keyboard-response,283,968845,0.0-17.0-1.14,41320,List1A,white,woman,,,,null,,,,
null,is talking to,,html-keyboard-response,284,970848,0.0-17.0-2.14,41320,List1A,white,woman,,,,null,,,,
6366,,,survey-text,285,977216,0.0-17.0-3.14,41320,List1A,white,woman,,,,,"{""Q0"":""Luke is talking to jane""}","<img src=""stim_listA/talk3.gif""style=""height:400px;""></stim_listA>",is talking to,
null,"<div style=""font-size:60px;"">+</div>",,html-keyboard-response,286,977719,0.0-17.0-0.15,41320,List1A,white,woman,,,,null,,,,
null,"<img src=""stim_listA/dance5.gif""style=""height:400px;""></stim_listA>",,html-keyboard-response,287,979723,0.0-17.0-1.15,41320,List1A,white,woman,,,,null,,,,
null,is dancing with,,html-keyboard-response,288,981727,0.0-17.0-2.15,41320,List1A,white,woman,,,,null,,,,
7766,,,survey-text,289,989495,0.0-17.0-3.15,41320,List1A,white,woman,,,,,"{""Q0"":""Dave is dancing with Fred""}","<img src=""stim_listA/dance5.gif""style=""height:400px;""></stim_listA>",is dancing with,
null,"<div style=""font-size:60px;"">+</div>",,html-keyboard-response,290,989998,0.0-17.0-0.16,41320,List1A,white,woman,,,,null,,,,
null,"<img src=""stim_listA/talk6.gif""style=""height:400px;""></stim_listA>",,html-keyboard-response,291,992003,0.0-17.0-1.16,41320,List1A,white,woman,,,,null,,,,
null,are talking to each other,,html-keyboard-response,292,994005,0.0-17.0-2.16,41320,List1A,white,woman,,,,null,,,,
10503,,,survey-text,293,1004510,0.0-17.0-3.16,41320,List1A,white,woman,,,,,"{""Q0"":""Luke and Mike are talking to each other""}","<img src=""stim_listA/talk6.gif""style=""height:400px;""></stim_listA>",are talking to each other,
null,"<div style=""font-size:60px;"">+</div>",,html-keyboard-response,294,1005015,0.0-17.0-0.17,41320,List1A,white,woman,,,,null,,,,
null,"<img src=""stim_listA/kiss6.gif""style=""height:400px;""></stim_listA>",,html-keyboard-response,295,1007018,0.0-17.0-1.17,41320,List1A,white,woman,,,,null,,,,
null,are kissing each other,,html-keyboard-response,296,1009022,0.0-17.0-2.17,41320,List1A,white,woman,,,,null,,,,
6125,,,survey-text,297,1015149,0.0-17.0-3.17,41320,List1A,white,woman,,,,,"{""Q0"":""Dave and Mike are kissing each other""}","<img src=""stim_listA/kiss6.gif""style=""height:400px;""></stim_listA>",are kissing each other,
null,"<div style=""font-size:60px;"">+</div>",,html-keyboard-response,298,1015652,0.0-17.0-0.18,41320,List1A,white,woman,,,,null,,,,
null,"<img src=""stim_listA/dance7.gif""style=""height:400px;""></stim_listA>",,html-keyboard-response,299,1017656,0.0-17.0-1.18,41320,List1A,white,woman,,,,null,,,,
null,is dancing with,,html-keyboard-response,300,1019659,0.0-17.0-2.18,41320,List1A,white,woman,,,,null,,,,
6509,,,survey-text,301,1026170,0.0-17.0-3.18,41320,List1A,white,woman,,,,,"{""Q0"":""Jane is dancing with Beth""}","<img src=""stim_listA/dance7.gif""style=""height:400px;""></stim_listA>",is dancing with,
null,"<div style=""font-size:60px;"">+</div>",,html-keyboard-response,302,1026673,0.0-17.0-0.19,41320,List1A,white,woman,,,,null,,,,
null,"<img src=""stim_listA/flirt8.gif""style=""height:400px;""></stim_listA>",,html-keyboard-response,303,1028676,0.0-17.0-1.19,41320,List1A,white,woman,,,,null,,,,
null,are flirting with each other,,html-keyboard-response,304,1030680,0.0-17.0-2.19,41320,List1A,white,woman,,,,null,,,,
8435,,,survey-text,305,1039121,0.0-17.0-3.19,41320,List1A,white,woman,,,,,"{""Q0"":""Ruth and Kate are flirting with each other""}","<img src=""stim_listA/flirt8.gif""style=""height:400px;""></stim_listA>",are flirting with each other,
2261,"<img src='img/portrait_matrix_list1.jpg' style='width:900px;height:500px;''></img><p>If you have memorised all the portraits and names and are ready to start, press Continue.</p><p><strong>Please note: Your memory of these faces will be tested 4 times during this experiment.</strong></p>",0,html-button-response,306,1041388,0.0-18.0-0.0,41320,List1A,white,woman,,,,,,,,
5135,"<img src=""portrait/BM2.jpg""style=""height:400px;""></img>",5,html-button-response,307,1047528,0.0-18.0-1.0,41320,List1A,white,woman,,TRUE,5,,,,,
null,CORRECT,,html-keyboard-response,308,1049033,0.0-18.0-2.0-0.0,41320,List1A,white,woman,,,,null,,,,
2381,"<img src=""portrait/WW2.jpg""style=""height:400px;""></img>",3,html-button-response,309,1051418,0.0-18.0-4.0,41320,List1A,white,woman,,TRUE,3,,,,,
null,CORRECT,,html-keyboard-response,310,1052921,0.0-18.0-5.0-0.0,41320,List1A,white,woman,,,,null,,,,
2175,"<img src=""portrait/BM1.jpg""style=""height:400px;""></img>",4,html-button-response,311,1055100,0.0-18.0-7.0,41320,List1A,white,woman,,TRUE,4,,,,,
null,CORRECT,,html-keyboard-response,312,1056603,0.0-18.0-8.0-0.0,41320,List1A,white,woman,,,,null,,,,
1806,"<img src=""portrait/WW1.jpg""style=""height:400px;""></img>",1,html-button-response,313,1058413,0.0-18.0-10.0,41320,List1A,white,woman,,TRUE,1,,,,,
null,CORRECT,,html-keyboard-response,314,1059917,0.0-18.0-11.0-0.0,41320,List1A,white,woman,,,,null,,,,
4297,"<img src=""portrait/WM2.jpg""style=""height:400px;""></img>",7,html-button-response,315,1064218,0.0-18.0-13.0,41320,List1A,white,woman,,TRUE,7,,,,,
null,CORRECT,,html-keyboard-response,316,1065723,0.0-18.0-14.0-0.0,41320,List1A,white,woman,,,,null,,,,
2255,"<img src=""portrait/WM1.jpg""style=""height:400px;""></img>",6,html-button-response,317,1067984,0.0-18.0-16.0,41320,List1A,white,woman,,TRUE,6,,,,,
null,CORRECT,,html-keyboard-response,318,1069488,0.0-18.0-17.0-0.0,41320,List1A,white,woman,,,,null,,,,
2128,"<img src=""portrait/BW1.jpg""style=""height:400px;""></img>",0,html-button-response,319,1071619,0.0-18.0-19.0,41320,List1A,white,woman,,TRUE,0,,,,,
null,CORRECT,,html-keyboard-response,320,1073125,0.0-18.0-20.0-0.0,41320,List1A,white,woman,,,,null,,,,
1246,"<img src=""portrait/BW2.jpg""style=""height:400px;""></img>",2,html-button-response,321,1074375,0.0-18.0-22.0,41320,List1A,white,woman,,TRUE,2,,,,,
null,CORRECT,,html-keyboard-response,322,1075881,0.0-18.0-23.0-0.0,41320,List1A,white,woman,,,,null,,,,
1338,<p>You got 8 out of 8 right first time. Press Continue.</p>,0,html-button-response,323,1077223,0.0-18.0-25.0,41320,List1A,white,woman,,,,,,,,
null,"<div style=""font-size:60px;"">+</div>",,html-keyboard-response,324,1078728,0.0-19.0-0.0,41320,List1A,white,woman,,,,null,,,,
null,"<img src=""stim_listA/marry2.gif""style=""height:400px;""></stim_listA>",,html-keyboard-response,325,1080734,0.0-19.0-1.0,41320,List1A,white,woman,,,,null,,,,
null,are marrying each other,,html-keyboard-response,326,1082737,0.0-19.0-2.0,41320,List1A,white,woman,,,,null,,,,
8210,,,survey-text,327,1090950,0.0-19.0-3.0,41320,List1A,white,woman,,,,,"{""Q0"":""Kate and Fred are marrying each other""}","<img src=""stim_listA/marry2.gif""style=""height:400px;""></stim_listA>",are marrying each other,
null,"<div style=""font-size:60px;"">+</div>",,html-keyboard-response,328,1091455,0.0-19.0-0.1,41320,List1A,white,woman,,,,null,,,,
null,"<img src=""stim_listA/play2.gif""style=""height:400px;""></stim_listA>",,html-keyboard-response,329,1093461,0.0-19.0-1.1,41320,List1A,white,woman,,,,null,,,,
null,are playing with each other,,html-keyboard-response,330,1095464,0.0-19.0-2.1,41320,List1A,white,woman,,,,null,,,,
7362,,,survey-text,331,1102829,0.0-19.0-3.1,41320,List1A,white,woman,,,,,"{""Q0"":""Beth and Fred are playing with each other""}","<img src=""stim_listA/play2.gif""style=""height:400px;""></stim_listA>",are playing with each other,
null,"<div style=""font-size:60px;"">+</div>",,html-keyboard-response,332,1103332,0.0-19.0-0.2,41320,List1A,white,woman,,,,null,,,,
null,"<img src=""stim_listA/flirt4.gif""style=""height:400px;""></stim_listA>",,html-keyboard-response,333,1105336,0.0-19.0-1.2,41320,List1A,white,woman,,,,null,,,,
null,are flirting with each other,,html-keyboard-response,334,1107339,0.0-19.0-2.2,41320,List1A,white,woman,,,,null,,,,
8155,,,survey-text,335,1115496,0.0-19.0-3.2,41320,List1A,white,woman,,,,,"{""Q0"":""Ruth and Dave are flirting with each other""}","<img src=""stim_listA/flirt4.gif""style=""height:400px;""></stim_listA>",are flirting with each other,
null,"<div style=""font-size:60px;"">+</div>",,html-keyboard-response,336,1115999,0.0-19.0-0.3,41320,List1A,white,woman,,,,null,,,,
null,"<img src=""stim_listA/marry7.gif""style=""height:400px;""></stim_listA>",,html-keyboard-response,337,1118003,0.0-19.0-1.3,41320,List1A,white,woman,,,,null,,,,
null,is marrying,,html-keyboard-response,338,1120006,0.0-19.0-2.3,41320,List1A,white,woman,,,,null,,,,
5478,,,survey-text,339,1125487,0.0-19.0-3.3,41320,List1A,white,woman,,,,,"{""Q0"":""Kate is marrying Ruth""}","<img src=""stim_listA/marry7.gif""style=""height:400px;""></stim_listA>",is marrying,
null,"<div style=""font-size:60px;"">+</div>",,html-keyboard-response,340,1125991,0.0-19.0-0.4,41320,List1A,white,woman,,,,null,,,,
null,"<img src=""stim_listA/touch7.gif""style=""height:400px;""></stim_listA>",,html-keyboard-response,341,1127995,0.0-19.0-1.4,41320,List1A,white,woman,,,,null,,,,
null,is touching,,html-keyboard-response,342,1129999,0.0-19.0-2.4,41320,List1A,white,woman,,,,null,,,,
8793,,,survey-text,343,1138795,0.0-19.0-3.4,41320,List1A,white,woman,,,,,"{""Q0"":""Kate is touching Jane""}","<img src=""stim_listA/touch7.gif""style=""height:400px;""></stim_listA>",is touching,
null,"<div style=""font-size:60px;"">+</div>",,html-keyboard-response,344,1139299,0.0-19.0-0.5,41320,List1A,white,woman,,,,null,,,,
null,"<img src=""stim_listA/play7.gif""style=""height:400px;""></stim_listA>",,html-keyboard-response,345,1141302,0.0-19.0-1.5,41320,List1A,white,woman,,,,null,,,,
null,is playing with,,html-keyboard-response,346,1143305,0.0-19.0-2.5,41320,List1A,white,woman,,,,null,,,,
5942,,,survey-text,347,1149249,0.0-19.0-3.5,41320,List1A,white,woman,,,,,"{""Q0"":""Kate is playing with Jane""}","<img src=""stim_listA/play7.gif""style=""height:400px;""></stim_listA>",is playing with,
null,"<div style=""font-size:60px;"">+</div>",,html-keyboard-response,348,1149753,0.0-19.0-0.6,41320,List1A,white,woman,,,,null,,,,
null,"<img src=""stim_listA/kiss8.gif""style=""height:400px;""></stim_listA>",,html-keyboard-response,349,1151758,0.0-19.0-1.6,41320,List1A,white,woman,,,,null,,,,
null,are kissing each other,,html-keyboard-response,350,1153761,0.0-19.0-2.6,41320,List1A,white,woman,,,,null,,,,
6881,,,survey-text,351,1160644,0.0-19.0-3.6,41320,List1A,white,woman,,,,,"{""Q0"":""Kate and Jane are kissing each other""}","<img src=""stim_listA/kiss8.gif""style=""height:400px;""></stim_listA>",are kissing each other,
null,"<div style=""font-size:60px;"">+</div>",,html-keyboard-response,352,1161148,0.0-19.0-0.7,41320,List1A,white,woman,,,,null,,,,
null,"<img src=""stim_listA/kiss7.gif""style=""height:400px;""></stim_listA>",,html-keyboard-response,353,1163152,0.0-19.0-1.7,41320,List1A,white,woman,,,,null,,,,
null,is kissing,,html-keyboard-response,354,1165155,0.0-19.0-2.7,41320,List1A,white,woman,,,,null,,,,
5057,,,survey-text,355,1170215,0.0-19.0-3.7,41320,List1A,white,woman,,,,,"{""Q0"":""Ruth is kissing Beth""}","<img src=""stim_listA/kiss7.gif""style=""height:400px;""></stim_listA>",is kissing,
null,"<div style=""font-size:60px;"">+</div>",,html-keyboard-response,356,1170719,0.0-19.0-0.8,41320,List1A,white,woman,,,,null,,,,
null,"<img src=""stim_listA/marry3.gif""style=""height:400px;""></stim_listA>",,html-keyboard-response,357,1172725,0.0-19.0-1.8,41320,List1A,white,woman,,,,null,,,,
null,is marrying,,html-keyboard-response,358,1174727,0.0-19.0-2.8,41320,List1A,white,woman,,,,null,,,,
6063,,,survey-text,359,1180793,0.0-19.0-3.8,41320,List1A,white,woman,,,,,"{""Q0"":""Dave is marrying Ruth""}","<img src=""stim_listA/marry3.gif""style=""height:400px;""></stim_listA>",is marrying,
null,"<div style=""font-size:60px;"">+</div>",,html-keyboard-response,360,1181296,0.0-19.0-0.9,41320,List1A,white,woman,,,,null,,,,
null,"<img src=""stim_listA/talk1.gif""style=""height:400px;""></stim_listA>",,html-keyboard-response,361,1183300,0.0-19.0-1.9,41320,List1A,white,woman,,,,null,,,,
null,is talking to,,html-keyboard-response,362,1185303,0.0-19.0-2.9,41320,List1A,white,woman,,,,null,,,,
5654,,,survey-text,363,1190959,0.0-19.0-3.9,41320,List1A,white,woman,,,,,"{""Q0"":""Fred is talking to Kate""}","<img src=""stim_listA/talk1.gif""style=""height:400px;""></stim_listA>",is talking to,
null,"<div style=""font-size:60px;"">+</div>",,html-keyboard-response,364,1191462,0.0-19.0-0.10,41320,List1A,white,woman,,,,null,,,,
null,"<img src=""stim_listA/talk7.gif""style=""height:400px;""></stim_listA>",,html-keyboard-response,365,1193468,0.0-19.0-1.10,41320,List1A,white,woman,,,,null,,,,
null,is talking to,,html-keyboard-response,366,1195471,0.0-19.0-2.10,41320,List1A,white,woman,,,,null,,,,
5007,,,survey-text,367,1200481,0.0-19.0-3.10,41320,List1A,white,woman,,,,,"{""Q0"":""Beth is talking to Jane""}","<img src=""stim_listA/talk7.gif""style=""height:400px;""></stim_listA>",is talking to,
null,"<div style=""font-size:60px;"">+</div>",,html-keyboard-response,368,1200986,0.0-19.0-0.11,41320,List1A,white,woman,,,,null,,,,
null,"<img src=""stim_listA/talk4.gif""style=""height:400px;""></stim_listA>",,html-keyboard-response,369,1202990,0.0-19.0-1.11,41320,List1A,white,woman,,,,null,,,,
null,are talking to each other,,html-keyboard-response,370,1204993,0.0-19.0-2.11,41320,List1A,white,woman,,,,null,,,,
7768,,,survey-text,371,1212764,0.0-19.0-3.11,41320,List1A,white,woman,,,,,"{""Q0"":""Ruth and Dave are talking to each other""}","<img src=""stim_listA/talk4.gif""style=""height:400px;""></stim_listA>",are talking to each other,
null,"<div style=""font-size:60px;"">+</div>",,html-keyboard-response,372,1213266,0.0-19.0-0.12,41320,List1A,white,woman,,,,null,,,,
null,"<img src=""stim_listA/flirt5.gif""style=""height:400px;""></stim_listA>",,html-keyboard-response,373,1215271,0.0-19.0-1.12,41320,List1A,white,woman,,,,null,,,,
null,is flirting with,,html-keyboard-response,374,1217274,0.0-19.0-2.12,41320,List1A,white,woman,,,,null,,,,
6823,,,survey-text,375,1224099,0.0-19.0-3.12,41320,List1A,white,woman,,,,,"{""Q0"":""Fred is flirting with Dave""}","<img src=""stim_listA/flirt5.gif""style=""height:400px;""></stim_listA>",is flirting with,
null,"<div style=""font-size:60px;"">+</div>",,html-keyboard-response,376,1224602,0.0-19.0-0.13,41320,List1A,white,woman,,,,null,,,,
null,"<img src=""stim_listA/talk8.gif""style=""height:400px;""></stim_listA>",,html-keyboard-response,377,1226606,0.0-19.0-1.13,41320,List1A,white,woman,,,,null,,,,
null,are talking to each other,,html-keyboard-response,378,1228609,0.0-19.0-2.13,41320,List1A,white,woman,,,,null,,,,
8648,,,survey-text,379,1237259,0.0-19.0-3.13,41320,List1A,white,woman,,,,,"{""Q0"":""Ruth and Kate are talking to each other""}","<img src=""stim_listA/talk8.gif""style=""height:400px;""></stim_listA>",are talking to each other,
null,"<div style=""font-size:60px;"">+</div>",,html-keyboard-response,380,1237762,0.0-19.0-0.14,41320,List1A,white,woman,,,,null,,,,
null,"<img src=""stim_listA/marry1.gif""style=""height:400px;""></stim_listA>",,html-keyboard-response,381,1239766,0.0-19.0-1.14,41320,List1A,white,woman,,,,null,,,,
null,is marrying,,html-keyboard-response,382,1241769,0.0-19.0-2.14,41320,List1A,white,woman,,,,null,,,,
5113,,,survey-text,383,1246885,0.0-19.0-3.14,41320,List1A,white,woman,,,,,"{""Q0"":""Mike is marrying Beth""}","<img src=""stim_listA/marry1.gif""style=""height:400px;""></stim_listA>",is marrying,
null,"<div style=""font-size:60px;"">+</div>",,html-keyboard-response,384,1247389,0.0-19.0-0.15,41320,List1A,white,woman,,,,null,,,,
null,"<img src=""stim_listA/marry6.gif""style=""height:400px;""></stim_listA>",,html-keyboard-response,385,1249392,0.0-19.0-1.15,41320,List1A,white,woman,,,,null,,,,
null,are marrying each other,,html-keyboard-response,386,1251395,0.0-19.0-2.15,41320,List1A,white,woman,,,,null,,,,
7981,,,survey-text,387,1259379,0.0-19.0-3.15,41320,List1A,white,woman,,,,,"{""Q0"":""Dave and Fred are marrying each other""}","<img src=""stim_listA/marry6.gif""style=""height:400px;""></stim_listA>",are marrying each other,
null,"<div style=""font-size:60px;"">+</div>",,html-keyboard-response,388,1259883,0.0-19.0-0.16,41320,List1A,white,woman,,,,null,,,,
null,"<img src=""stim_listA/touch5.gif""style=""height:400px;""></stim_listA>",,html-keyboard-response,389,1261886,0.0-19.0-1.16,41320,List1A,white,woman,,,,null,,,,
null,is touching,,html-keyboard-response,390,1263890,0.0-19.0-2.16,41320,List1A,white,woman,,,,null,,,,
5316,,,survey-text,391,1269208,0.0-19.0-3.16,41320,List1A,white,woman,,,,,"{""Q0"":""Mike is touching Dave""}","<img src=""stim_listA/touch5.gif""style=""height:400px;""></stim_listA>",is touching,
null,"<div style=""font-size:60px;"">+</div>",,html-keyboard-response,392,1269713,0.0-19.0-0.17,41320,List1A,white,woman,,,,null,,,,
null,"<img src=""stim_listA/marry4.gif""style=""height:400px;""></stim_listA>",,html-keyboard-response,393,1271718,0.0-19.0-1.17,41320,List1A,white,woman,,,,null,,,,
null,are marrying each other,,html-keyboard-response,394,1273720,0.0-19.0-2.17,41320,List1A,white,woman,,,,null,,,,
9710,,,survey-text,395,1283433,0.0-19.0-3.17,41320,List1A,white,woman,,,,,"{""Q0"":""Jane and Luke are marrying each other""}","<img src=""stim_listA/marry4.gif""style=""height:400px;""></stim_listA>",are marrying each other,
null,"<div style=""font-size:60px;"">+</div>",,html-keyboard-response,396,1283938,0.0-19.0-0.18,41320,List1A,white,woman,,,,null,,,,
null,"<img src=""stim_listA/kiss2.gif""style=""height:400px;""></stim_listA>",,html-keyboard-response,397,1285943,0.0-19.0-1.18,41320,List1A,white,woman,,,,null,,,,
null,are kissing each other,,html-keyboard-response,398,1287946,0.0-19.0-2.18,41320,List1A,white,woman,,,,null,,,,
7803,,,survey-text,399,1295751,0.0-19.0-3.18,41320,List1A,white,woman,,,,,"{""Q0"":""Kate and Mike are kissing each other""}","<img src=""stim_listA/kiss2.gif""style=""height:400px;""></stim_listA>",are kissing each other,
null,"<div style=""font-size:60px;"">+</div>",,html-keyboard-response,400,1296254,0.0-19.0-0.19,41320,List1A,white,woman,,,,null,,,,
null,"<img src=""stim_listA/dance3.gif""style=""height:400px;""></stim_listA>",,html-keyboard-response,401,1298258,0.0-19.0-1.19,41320,List1A,white,woman,,,,null,,,,
null,is dancing with,,html-keyboard-response,402,1300260,0.0-19.0-2.19,41320,List1A,white,woman,,,,null,,,,
5865,,,survey-text,403,1306127,0.0-19.0-3.19,41320,List1A,white,woman,,,,,"{""Q0"":""Jane is dancing with Luke""}","<img src=""stim_listA/dance3.gif""style=""height:400px;""></stim_listA>",is dancing with,
1915,<p>Thank you for completing that task.</p><p>The final part of this session is a short questionnaire.</p><p>Press Continue.</p>,0,html-button-response,404,1308046,0.0-20.0,41320,List1A,white,woman,,,,,,,,
20435,,,survey-text,405,1329485,0.0-21.0,41320,List1A,white,woman,,,,,"{""Q0"":""22"",""Q1"":""English"",""Q2"":""English"",""Q3"":""England, UK"",""Q4"":""White British"",""Q5"":""Female""}",,,demographics
9276,,,survey-likert,406,1338771,0.0-22.0,41320,List1A,white,woman,,,,,"{""Q0"":4}",,,likert_ESS
5427,,,survey-likert,407,1344252,0.0-23.0,41320,List1A,white,woman,,,,,"{""Q0"":4}",,,likert_NSSAL_Q1
3440,,,survey-likert,408,1347746,0.0-24.0,41320,List1A,white,woman,,,,,"{""Q0"":4}",,,likert_NSSAL_Q2
4261,,,survey-likert,409,1352075,0.0-25.0,41320,List1A,white,woman,,,,,"{""Q0"":4}",,,likert_CGRS_Q1
3372,,,survey-likert,410,1355504,0.0-26.0,41320,List1A,white,woman,,,,,"{""Q0"":4}",,,likert_CGRS_Q2
2882,,,survey-likert,411,1358441,0.0-27.0,41320,List1A,white,woman,,,,,"{""Q0"":4}",,,likert_CGRS_Q3
3574,,,survey-text,412,1362073,0.0-28.0,41320,List1A,white,woman,,,,,"{""Q0"":""ccc""}",,,worker_id
29999,,,external-html,413,1392169,0.0-29.0,41320,List1A,white,woman,debrief.html,,,,,,,
