rt,stimulus,button_pressed,trial_type,trial_index,time_elapsed,internal_node_id,subject,list,ppt_race,ppt_gender,url,first_guess,correct,key_press,responses,image_type,phrase_type,test_part
14903,Welcome to the experiment. Press Continue to begin.,0,html-button-response,0,14907,0.0-0.0,414,List2A,white,woman,,,,,,,,
29431,,,external-html,1,45454,0.0-1.0,414,List2A,white,woman,consent.html,,,,,,,
54404,"<p>On the next page, you will see portraits of 8 people and their names.</p><p>Your first task is to take a few minutes to memorise the names of these people.</p><p>You will have to recall their names during the rest of the experiment, so it is</p><p>essential that you try to memorise these people and their names as best as you can.</p><br><p><strong>You will then be tested on your memory of these names and portraits.</strong></p><br><p>The experiment will start after you have completed this memory test.</p><br><p>Ready?</p>",0,html-button-response,2,99861,0.0-2.0,414,List2A,white,woman,,,,,,,,
113975,"<img src='img/portrait_matrix_list2.jpg' style='width:900px;height:500px;''></img><p>If you have memorised all the portraits and names and are ready to start, press Continue.</p><p><strong>Please note: Your memory of these faces will be tested 4 times during this experiment.</strong></p>",0,html-button-response,3,214844,0.0-3.0-0.0,414,List2A,white,woman,,,,,,,,
4883,"<img src=""portrait/WM2.jpg""style=""height:400px;""></img>",7,html-button-response,4,220733,0.0-3.0-1.0,414,List2A,white,woman,,TRUE,7,,,,,
null,CORRECT,,html-keyboard-response,5,222252,0.0-3.0-2.0-0.0,414,List2A,white,woman,,,,null,,,,
12325,"<img src=""portrait/BW1.jpg""style=""height:400px;""></img>",0,html-button-response,6,234580,0.0-3.0-4.0,414,List2A,white,woman,,TRUE,0,,,,,
null,CORRECT,,html-keyboard-response,7,236095,0.0-3.0-5.0-0.0,414,List2A,white,woman,,,,null,,,,
4819,"<img src=""portrait/BW2.jpg""style=""height:400px;""></img>",2,html-button-response,8,240916,0.0-3.0-7.0,414,List2A,white,woman,,TRUE,2,,,,,
null,CORRECT,,html-keyboard-response,9,242427,0.0-3.0-8.0-0.0,414,List2A,white,woman,,,,null,,,,
8487,"<img src=""portrait/WW2.jpg""style=""height:400px;""></img>",3,html-button-response,10,250915,0.0-3.0-10.0,414,List2A,white,woman,,TRUE,3,,,,,
null,CORRECT,,html-keyboard-response,11,252431,0.0-3.0-11.0-0.0,414,List2A,white,woman,,,,null,,,,
5337,"<img src=""portrait/BM1.jpg""style=""height:400px;""></img>",7,html-button-response,12,257771,0.0-3.0-13.0,414,List2A,white,woman,,TRUE,4,,,,,
2770,"<img src=""portrait/BM1.jpg""style=""height:400px;""></img>",7,html-button-response,13,261547,0.0-3.0-15.0-0.0,414,List2A,white,woman,,FALSE,4,,,,,
null,INCORRECT,,html-keyboard-response,14,263065,0.0-3.0-15.0-2.0-0.0,414,List2A,white,woman,,,,null,,,,
8656,"<img src=""portrait/WM1.jpg""style=""height:400px;""></img>",6,html-button-response,15,271723,0.0-3.0-16.0,414,List2A,white,woman,,TRUE,6,,,,,
null,CORRECT,,html-keyboard-response,16,273237,0.0-3.0-17.0-0.0,414,List2A,white,woman,,,,null,,,,
8283,"<img src=""portrait/BM2.jpg""style=""height:400px;""></img>",5,html-button-response,17,281523,0.0-3.0-19.0,414,List2A,white,woman,,TRUE,5,,,,,
null,CORRECT,,html-keyboard-response,18,283039,0.0-3.0-20.0-0.0,414,List2A,white,woman,,,,null,,,,
4657,"<img src=""portrait/WW1.jpg""style=""height:400px;""></img>",1,html-button-response,19,287699,0.0-3.0-22.0,414,List2A,white,woman,,TRUE,1,,,,,
null,CORRECT,,html-keyboard-response,20,289203,0.0-3.0-23.0-0.0,414,List2A,white,woman,,,,null,,,,
1462,<p>You got 7 out of 8 right first time. Press Continue.</p>,0,html-button-response,21,290667,0.0-3.0-25.0,414,List2A,white,woman,,,,,,,,
2239,"As you did not score 100%, the memory game will repeat. Press Continue.",0,html-button-response,22,293915,0.0-3.0-26.0-0.0,414,List2A,white,woman,,,,,,,,
20883,"<img src='img/portrait_matrix_list2.jpg' style='width:900px;height:500px;''></img><p>If you have memorised all the portraits and names and are ready to start, press Continue.</p><p><strong>Please note: Your memory of these faces will be tested 4 times during this experiment.</strong></p>",0,html-button-response,23,315802,0.0-3.1-0.1,414,List2A,white,woman,,,,,,,,
3175,"<img src=""portrait/WM2.jpg""style=""height:400px;""></img>",7,html-button-response,24,319986,0.0-3.1-1.1,414,List2A,white,woman,,TRUE,7,,,,,
null,CORRECT,,html-keyboard-response,25,321501,0.0-3.1-2.1-0.1,414,List2A,white,woman,,,,null,,,,
5163,"<img src=""portrait/BW1.jpg""style=""height:400px;""></img>",0,html-button-response,26,326666,0.0-3.1-4.1,414,List2A,white,woman,,TRUE,0,,,,,
null,CORRECT,,html-keyboard-response,27,328181,0.0-3.1-5.1-0.1,414,List2A,white,woman,,,,null,,,,
11811,"<img src=""portrait/BW2.jpg""style=""height:400px;""></img>",2,html-button-response,28,339994,0.0-3.1-7.1,414,List2A,white,woman,,TRUE,2,,,,,
null,CORRECT,,html-keyboard-response,29,341514,0.0-3.1-8.1-0.1,414,List2A,white,woman,,,,null,,,,
5894,"<img src=""portrait/WW2.jpg""style=""height:400px;""></img>",3,html-button-response,30,347410,0.0-3.1-10.1,414,List2A,white,woman,,TRUE,3,,,,,
null,CORRECT,,html-keyboard-response,31,348925,0.0-3.1-11.1-0.1,414,List2A,white,woman,,,,null,,,,
5812,"<img src=""portrait/BM1.jpg""style=""height:400px;""></img>",4,html-button-response,32,354739,0.0-3.1-13.1,414,List2A,white,woman,,TRUE,4,,,,,
null,CORRECT,,html-keyboard-response,33,356258,0.0-3.1-14.1-0.1,414,List2A,white,woman,,,,null,,,,
4349,"<img src=""portrait/WM1.jpg""style=""height:400px;""></img>",6,html-button-response,34,360610,0.0-3.1-16.1,414,List2A,white,woman,,TRUE,6,,,,,
null,CORRECT,,html-keyboard-response,35,362122,0.0-3.1-17.1-0.1,414,List2A,white,woman,,,,null,,,,
4255,"<img src=""portrait/BM2.jpg""style=""height:400px;""></img>",5,html-button-response,36,366378,0.0-3.1-19.1,414,List2A,white,woman,,TRUE,5,,,,,
null,CORRECT,,html-keyboard-response,37,367893,0.0-3.1-20.1-0.1,414,List2A,white,woman,,,,null,,,,
4851,"<img src=""portrait/WW1.jpg""style=""height:400px;""></img>",1,html-button-response,38,372745,0.0-3.1-22.1,414,List2A,white,woman,,TRUE,1,,,,,
null,CORRECT,,html-keyboard-response,39,374265,0.0-3.1-23.1-0.1,414,List2A,white,woman,,,,null,,,,
1358,<p>You got 8 out of 8 right first time. Press Continue.</p>,0,html-button-response,40,375625,0.0-3.1-25.1,414,List2A,white,woman,,,,,,,,
36939,"<p>In this experiment, you will view photographs of the people from the memory game interacting.</p><p>By using the <strong>exact</strong> phrase given <i>after</i> the photograph appears and recalling the correct names of the people in the photographs, form a sentence describing the interaction. You do not need to capitalise names.</p><p>Type your answer in the space provided. Please complete every sentence before moving onto the next trial.</p><p>You will only have a few seconds to memorise each given photograph and phrase before you can respond, so try your best to focus.</p><p>An example is given below. Press 'Continue' when you are ready.</p><img src='img/speaking_example.jpg' style='width:800px;height:460px;''></img>",0,html-button-response,41,413577,0.0-4.0,414,List2A,white,woman,,,,,,,,
1450,"<p>Before the experiment starts, you will watch two example trials. Press 'Continue'.</p>",0,html-button-response,42,416033,0.0-5.0,414,List2A,white,woman,,,,,,,,
null,<img src='img/meet_eg.gif' style='height:400px;''></img>,,html-keyboard-response,43,419044,0.0-6.0,414,List2A,white,woman,,,,null,,,,
null,<p>is meeting</p>,,html-keyboard-response,44,421045,0.0-7.0,414,List2A,white,woman,,,,null,,,,
7435,<p><b>Answer:</b> jane is meeting ruth</p>,0,html-button-response,45,428481,0.0-8.0,414,List2A,white,woman,,,,,,,,
null,<img src='img/look_eg.gif' style='height:400px;''></img>,,html-keyboard-response,46,431489,0.0-9.0,414,List2A,white,woman,,,,null,,,,
null,<p>are looking at each other</p>,,html-keyboard-response,47,433500,0.0-10.0,414,List2A,white,woman,,,,null,,,,
6829,<p><b>Answer:</b> fred and mike are looking at each other</p>,0,html-button-response,48,440329,0.0-11.0,414,List2A,white,woman,,,,,,,,
7886,"<p>Ready to start the experiment?</p><br><p><strong>Remember to describe the picture using a full sentence,</strong></p><p><strong>that combines the names of the people with the <i>exact</i> phrase given.</strong></p><p><strong>To receive full payment you must do this correctly.</strong></p><p><strong> You do not need to capitalise names or use punctuation.</strong></p><br><p>Press 'Continue' to begin.</p>",0,html-button-response,49,449216,0.0-12.0,414,List2A,white,woman,,,,,,,,
null,"<div style=""font-size:60px;"">+</div>",,html-keyboard-response,50,450729,0.0-13.0-0.0,414,List2A,white,woman,,,,null,,,,
null,"<img src=""stim_listA/flirt6.gif""style=""height:400px;""></stim_listA>",,html-keyboard-response,51,452731,0.0-13.0-1.0,414,List2A,white,woman,,,,null,,,,
null,are flirting with each other,,html-keyboard-response,52,454741,0.0-13.0-2.0,414,List2A,white,woman,,,,null,,,,
30185,,,survey-text,53,484928,0.0-13.0-3.0,414,List2A,white,woman,,,,,"{""Q0"":""fred and dave are flirting with each other""}","<img src=""stim_listA/flirt6.gif""style=""height:400px;""></stim_listA>",are flirting with each other,
null,"<div style=""font-size:60px;"">+</div>",,html-keyboard-response,54,485436,0.0-13.0-0.1,414,List2A,white,woman,,,,null,,,,
null,"<img src=""stim_listA/touch6.gif""style=""height:400px;""></stim_listA>",,html-keyboard-response,55,487438,0.0-13.0-1.1,414,List2A,white,woman,,,,null,,,,
null,are touching each other,,html-keyboard-response,56,489448,0.0-13.0-2.1,414,List2A,white,woman,,,,null,,,,
24510,,,survey-text,57,513960,0.0-13.0-3.1,414,List2A,white,woman,,,,,"{""Q0"":""Luke and Dave are touching each other""}","<img src=""stim_listA/touch6.gif""style=""height:400px;""></stim_listA>",are touching each other,
null,"<div style=""font-size:60px;"">+</div>",,html-keyboard-response,58,514470,0.0-13.0-0.2,414,List2A,white,woman,,,,null,,,,
null,"<img src=""stim_listA/dance4.gif""style=""height:400px;""></stim_listA>",,html-keyboard-response,59,516473,0.0-13.0-1.2,414,List2A,white,woman,,,,null,,,,
null,are dancing with each other,,html-keyboard-response,60,518483,0.0-13.0-2.2,414,List2A,white,woman,,,,null,,,,
77651,,,survey-text,61,596134,0.0-13.0-3.2,414,List2A,white,woman,,,,,"{""Q0"":""Mike an Kate are dancing with each other""}","<img src=""stim_listA/dance4.gif""style=""height:400px;""></stim_listA>",are dancing with each other,
null,"<div style=""font-size:60px;"">+</div>",,html-keyboard-response,62,596639,0.0-13.0-0.3,414,List2A,white,woman,,,,null,,,,
null,"<img src=""stim_listA/play2.gif""style=""height:400px;""></stim_listA>",,html-keyboard-response,63,598640,0.0-13.0-1.3,414,List2A,white,woman,,,,null,,,,
null,are playing with each other,,html-keyboard-response,64,600651,0.0-13.0-2.3,414,List2A,white,woman,,,,null,,,,
39578,,,survey-text,65,640230,0.0-13.0-3.3,414,List2A,white,woman,,,,,"{""Q0"":""Ruth and Luke are playing with each other""}","<img src=""stim_listA/play2.gif""style=""height:400px;""></stim_listA>",are playing with each other,
null,"<div style=""font-size:60px;"">+</div>",,html-keyboard-response,66,640737,0.0-13.0-0.4,414,List2A,white,woman,,,,null,,,,
null,"<img src=""stim_listA/shout8.gif""style=""height:400px;""></stim_listA>",,html-keyboard-response,67,642740,0.0-13.0-1.4,414,List2A,white,woman,,,,null,,,,
null,are shouting at each other,,html-keyboard-response,68,644750,0.0-13.0-2.4,414,List2A,white,woman,,,,null,,,,
52590,,,survey-text,69,697340,0.0-13.0-3.4,414,List2A,white,woman,,,,,"{""Q0"":"" Jane and Ruth are shouting at each other ""}","<img src=""stim_listA/shout8.gif""style=""height:400px;""></stim_listA>",are shouting at each other,
null,"<div style=""font-size:60px;"">+</div>",,html-keyboard-response,70,697845,0.0-13.0-0.5,414,List2A,white,woman,,,,null,,,,
null,"<img src=""stim_listA/shout3.gif""style=""height:400px;""></stim_listA>",,html-keyboard-response,71,699847,0.0-13.0-1.5,414,List2A,white,woman,,,,null,,,,
null,is shouting at,,html-keyboard-response,72,701857,0.0-13.0-2.5,414,List2A,white,woman,,,,null,,,,
20050,,,survey-text,73,721908,0.0-13.0-3.5,414,List2A,white,woman,,,,,"{""Q0"":""Dave is shouting at Kate""}","<img src=""stim_listA/shout3.gif""style=""height:400px;""></stim_listA>",is shouting at,
null,"<div style=""font-size:60px;"">+</div>",,html-keyboard-response,74,722419,0.0-13.0-0.6,414,List2A,white,woman,,,,null,,,,
null,"<img src=""stim_listA/argue3.gif""style=""height:400px;""></stim_listA>",,html-keyboard-response,75,724422,0.0-13.0-1.6,414,List2A,white,woman,,,,null,,,,
null,is arguing with,,html-keyboard-response,76,726431,0.0-13.0-2.6,414,List2A,white,woman,,,,null,,,,
15333,,,survey-text,77,741766,0.0-13.0-3.6,414,List2A,white,woman,,,,,"{""Q0"":""Mike is arguing with Kate""}","<img src=""stim_listA/argue3.gif""style=""height:400px;""></stim_listA>",is arguing with,
null,"<div style=""font-size:60px;"">+</div>",,html-keyboard-response,78,742275,0.0-13.0-0.7,414,List2A,white,woman,,,,null,,,,
null,"<img src=""stim_listA/fight3.gif""style=""height:400px;""></stim_listA>",,html-keyboard-response,79,744276,0.0-13.0-1.7,414,List2A,white,woman,,,,null,,,,
null,is fighting,,html-keyboard-response,80,746286,0.0-13.0-2.7,414,List2A,white,woman,,,,null,,,,
33676,,,survey-text,81,779964,0.0-13.0-3.7,414,List2A,white,woman,,,,,"{""Q0"":""Mike is fighting Kate""}","<img src=""stim_listA/fight3.gif""style=""height:400px;""></stim_listA>",is fighting,
null,"<div style=""font-size:60px;"">+</div>",,html-keyboard-response,82,780474,0.0-13.0-0.8,414,List2A,white,woman,,,,null,,,,
null,"<img src=""stim_listA/play7.gif""style=""height:400px;""></stim_listA>",,html-keyboard-response,83,782478,0.0-13.0-1.8,414,List2A,white,woman,,,,null,,,,
null,is playing with,,html-keyboard-response,84,784488,0.0-13.0-2.8,414,List2A,white,woman,,,,null,,,,
15074,,,survey-text,85,799563,0.0-13.0-3.8,414,List2A,white,woman,,,,,"{""Q0"":""Jane is playing with Kate""}","<img src=""stim_listA/play7.gif""style=""height:400px;""></stim_listA>",is playing with,
null,"<div style=""font-size:60px;"">+</div>",,html-keyboard-response,86,800069,0.0-13.0-0.9,414,List2A,white,woman,,,,null,,,,
null,"<img src=""stim_listA/kiss8.gif""style=""height:400px;""></stim_listA>",,html-keyboard-response,87,802070,0.0-13.0-1.9,414,List2A,white,woman,,,,null,,,,
null,are kissing each other,,html-keyboard-response,88,804081,0.0-13.0-2.9,414,List2A,white,woman,,,,null,,,,
19761,,,survey-text,89,823843,0.0-13.0-3.9,414,List2A,white,woman,,,,,"{""Q0"":""Kate and Jane are kissing each other""}","<img src=""stim_listA/kiss8.gif""style=""height:400px;""></stim_listA>",are kissing each other,
null,"<div style=""font-size:60px;"">+</div>",,html-keyboard-response,90,824345,0.0-13.0-0.10,414,List2A,white,woman,,,,null,,,,
null,"<img src=""stim_listA/play4.gif""style=""height:400px;""></stim_listA>",,html-keyboard-response,91,826348,0.0-13.0-1.10,414,List2A,white,woman,,,,null,,,,
null,are playing with each other,,html-keyboard-response,92,828350,0.0-13.0-2.10,414,List2A,white,woman,,,,null,,,,
24124,,,survey-text,93,852475,0.0-13.0-3.10,414,List2A,white,woman,,,,,"{""Q0"":""Fred and Beth are playing with each other""}","<img src=""stim_listA/play4.gif""style=""height:400px;""></stim_listA>",are playing with each other,
null,"<div style=""font-size:60px;"">+</div>",,html-keyboard-response,94,852981,0.0-13.0-0.11,414,List2A,white,woman,,,,null,,,,
null,"<img src=""stim_listA/fight8.gif""style=""height:400px;""></stim_listA>",,html-keyboard-response,95,854983,0.0-13.0-1.11,414,List2A,white,woman,,,,null,,,,
null,are fighting each other,,html-keyboard-response,96,856984,0.0-13.0-2.11,414,List2A,white,woman,,,,null,,,,
16714,,,survey-text,97,873699,0.0-13.0-3.11,414,List2A,white,woman,,,,,"{""Q0"":""Ruth and Kate are fighting""}","<img src=""stim_listA/fight8.gif""style=""height:400px;""></stim_listA>",are fighting each other,
null,"<div style=""font-size:60px;"">+</div>",,html-keyboard-response,98,874204,0.0-13.0-0.12,414,List2A,white,woman,,,,null,,,,
null,"<img src=""stim_listA/argue7.gif""style=""height:400px;""></stim_listA>",,html-keyboard-response,99,876206,0.0-13.0-1.12,414,List2A,white,woman,,,,null,,,,
null,is arguing with,,html-keyboard-response,100,878216,0.0-13.0-2.12,414,List2A,white,woman,,,,null,,,,
22888,,,survey-text,101,901106,0.0-13.0-3.12,414,List2A,white,woman,,,,,"{""Q0"":""Jane is arguing with Kate""}","<img src=""stim_listA/argue7.gif""style=""height:400px;""></stim_listA>",is arguing with,
null,"<div style=""font-size:60px;"">+</div>",,html-keyboard-response,102,901614,0.0-13.0-0.13,414,List2A,white,woman,,,,null,,,,
null,"<img src=""stim_listA/kiss7.gif""style=""height:400px;""></stim_listA>",,html-keyboard-response,103,903621,0.0-13.0-1.13,414,List2A,white,woman,,,,null,,,,
null,is kissing,,html-keyboard-response,104,905631,0.0-13.0-2.13,414,List2A,white,woman,,,,null,,,,
9698,,,survey-text,105,915330,0.0-13.0-3.13,414,List2A,white,woman,,,,,"{""Q0"":""Ruth is kissing Kate""}","<img src=""stim_listA/kiss7.gif""style=""height:400px;""></stim_listA>",is kissing,
null,"<div style=""font-size:60px;"">+</div>",,html-keyboard-response,106,915841,0.0-13.0-0.14,414,List2A,white,woman,,,,null,,,,
null,"<img src=""stim_listA/play5.gif""style=""height:400px;""></stim_listA>",,html-keyboard-response,107,917845,0.0-13.0-1.14,414,List2A,white,woman,,,,null,,,,
null,is playing with,,html-keyboard-response,108,919846,0.0-13.0-2.14,414,List2A,white,woman,,,,null,,,,
10907,,,survey-text,109,930754,0.0-13.0-3.14,414,List2A,white,woman,,,,,"{""Q0"":""Mike is playing withDave""}","<img src=""stim_listA/play5.gif""style=""height:400px;""></stim_listA>",is playing with,
null,"<div style=""font-size:60px;"">+</div>",,html-keyboard-response,110,931265,0.0-13.0-0.15,414,List2A,white,woman,,,,null,,,,
null,"<img src=""stim_listA/argue4.gif""style=""height:400px;""></stim_listA>",,html-keyboard-response,111,933267,0.0-13.0-1.15,414,List2A,white,woman,,,,null,,,,
null,are arguing with each other,,html-keyboard-response,112,935268,0.0-13.0-2.15,414,List2A,white,woman,,,,null,,,,
21508,,,survey-text,113,956777,0.0-13.0-3.15,414,List2A,white,woman,,,,,"{""Q0"":""Fred and Beth are arguing with each other""}","<img src=""stim_listA/argue4.gif""style=""height:400px;""></stim_listA>",are arguing with each other,
null,"<div style=""font-size:60px;"">+</div>",,html-keyboard-response,114,957280,0.0-13.0-0.16,414,List2A,white,woman,,,,null,,,,
null,"<img src=""stim_listA/touch1.gif""style=""height:400px;""></stim_listA>",,html-keyboard-response,115,959284,0.0-13.0-1.16,414,List2A,white,woman,,,,null,,,,
null,is touching,,html-keyboard-response,116,961294,0.0-13.0-2.16,414,List2A,white,woman,,,,null,,,,
15795,,,survey-text,117,977090,0.0-13.0-3.16,414,List2A,white,woman,,,,,"{""Q0"":""Jane is touching Dave""}","<img src=""stim_listA/touch1.gif""style=""height:400px;""></stim_listA>",is touching,
null,"<div style=""font-size:60px;"">+</div>",,html-keyboard-response,118,977596,0.0-13.0-0.17,414,List2A,white,woman,,,,null,,,,
null,"<img src=""stim_listA/shout1.gif""style=""height:400px;""></stim_listA>",,html-keyboard-response,119,979598,0.0-13.0-1.17,414,List2A,white,woman,,,,null,,,,
null,is shouting at,,html-keyboard-response,120,981608,0.0-13.0-2.17,414,List2A,white,woman,,,,null,,,,
10136,,,survey-text,121,991745,0.0-13.0-3.17,414,List2A,white,woman,,,,,"{""Q0"":""Ruth is shouting at Luke""}","<img src=""stim_listA/shout1.gif""style=""height:400px;""></stim_listA>",is shouting at,
null,"<div style=""font-size:60px;"">+</div>",,html-keyboard-response,122,992251,0.0-13.0-0.18,414,List2A,white,woman,,,,null,,,,
null,"<img src=""stim_listA/kiss6.gif""style=""height:400px;""></stim_listA>",,html-keyboard-response,123,994253,0.0-13.0-1.18,414,List2A,white,woman,,,,null,,,,
null,are kissing each other,,html-keyboard-response,124,996263,0.0-13.0-2.18,414,List2A,white,woman,,,,null,,,,
14585,,,survey-text,125,1010849,0.0-13.0-3.18,414,List2A,white,woman,,,,,"{""Q0"":""Mike and Dave are kissing""}","<img src=""stim_listA/kiss6.gif""style=""height:400px;""></stim_listA>",are kissing each other,
null,"<div style=""font-size:60px;"">+</div>",,html-keyboard-response,126,1011354,0.0-13.0-0.19,414,List2A,white,woman,,,,null,,,,
null,"<img src=""stim_listA/flirt5.gif""style=""height:400px;""></stim_listA>",,html-keyboard-response,127,1013357,0.0-13.0-1.19,414,List2A,white,woman,,,,null,,,,
null,is flirting with,,html-keyboard-response,128,1015362,0.0-13.0-2.19,414,List2A,white,woman,,,,null,,,,
12670,,,survey-text,129,1028032,0.0-13.0-3.19,414,List2A,white,woman,,,,,"{""Q0"":""Luke is flirting with Mike""}","<img src=""stim_listA/flirt5.gif""style=""height:400px;""></stim_listA>",is flirting with,
34294,"<img src='img/portrait_matrix_list2.jpg' style='width:900px;height:500px;''></img><p>If you have memorised all the portraits and names and are ready to start, press Continue.</p><p><strong>Please note: Your memory of these faces will be tested 4 times during this experiment.</strong></p>",0,html-button-response,130,1062328,0.0-14.0-0.0,414,List2A,white,woman,,,,,,,,
4133,"<img src=""portrait/WM1.jpg""style=""height:400px;""></img>",6,html-button-response,131,1067472,0.0-14.0-1.0,414,List2A,white,woman,,TRUE,6,,,,,
null,CORRECT,,html-keyboard-response,132,1068989,0.0-14.0-2.0-0.0,414,List2A,white,woman,,,,null,,,,
3178,"<img src=""portrait/BM2.jpg""style=""height:400px;""></img>",5,html-button-response,133,1072168,0.0-14.0-4.0,414,List2A,white,woman,,TRUE,5,,,,,
null,CORRECT,,html-keyboard-response,134,1073681,0.0-14.0-5.0-0.0,414,List2A,white,woman,,,,null,,,,
3454,"<img src=""portrait/WW2.jpg""style=""height:400px;""></img>",3,html-button-response,135,1077136,0.0-14.0-7.0,414,List2A,white,woman,,TRUE,3,,,,,
null,CORRECT,,html-keyboard-response,136,1078653,0.0-14.0-8.0-0.0,414,List2A,white,woman,,,,null,,,,
4555,"<img src=""portrait/BW1.jpg""style=""height:400px;""></img>",0,html-button-response,137,1083208,0.0-14.0-10.0,414,List2A,white,woman,,TRUE,0,,,,,
null,CORRECT,,html-keyboard-response,138,1084716,0.0-14.0-11.0-0.0,414,List2A,white,woman,,,,null,,,,
1667,"<img src=""portrait/WM2.jpg""style=""height:400px;""></img>",7,html-button-response,139,1086384,0.0-14.0-13.0,414,List2A,white,woman,,TRUE,7,,,,,
null,CORRECT,,html-keyboard-response,140,1087908,0.0-14.0-14.0-0.0,414,List2A,white,woman,,,,null,,,,
4234,"<img src=""portrait/BW2.jpg""style=""height:400px;""></img>",2,html-button-response,141,1092144,0.0-14.0-16.0,414,List2A,white,woman,,TRUE,2,,,,,
null,CORRECT,,html-keyboard-response,142,1093657,0.0-14.0-17.0-0.0,414,List2A,white,woman,,,,null,,,,
6686,"<img src=""portrait/BM1.jpg""style=""height:400px;""></img>",4,html-button-response,143,1100344,0.0-14.0-19.0,414,List2A,white,woman,,TRUE,4,,,,,
null,CORRECT,,html-keyboard-response,144,1101860,0.0-14.0-20.0-0.0,414,List2A,white,woman,,,,null,,,,
2155,"<img src=""portrait/WW1.jpg""style=""height:400px;""></img>",1,html-button-response,145,1104016,0.0-14.0-22.0,414,List2A,white,woman,,TRUE,1,,,,,
null,CORRECT,,html-keyboard-response,146,1105531,0.0-14.0-23.0-0.0,414,List2A,white,woman,,,,null,,,,
1323,<p>You got 8 out of 8 right first time. Press Continue.</p>,0,html-button-response,147,1106856,0.0-14.0-25.0,414,List2A,white,woman,,,,,,,,
null,"<div style=""font-size:60px;"">+</div>",,html-keyboard-response,148,1108371,0.0-15.0-0.0,414,List2A,white,woman,,,,null,,,,
null,"<img src=""stim_listA/flirt2.gif""style=""height:400px;""></stim_listA>",,html-keyboard-response,149,1110374,0.0-15.0-1.0,414,List2A,white,woman,,,,null,,,,
null,are flirting with each other,,html-keyboard-response,150,1112383,0.0-15.0-2.0,414,List2A,white,woman,,,,null,,,,
17696,,,survey-text,151,1130079,0.0-15.0-3.0,414,List2A,white,woman,,,,,"{""Q0"":""Ruth and Dave are flirting with each other""}","<img src=""stim_listA/flirt2.gif""style=""height:400px;""></stim_listA>",are flirting with each other,
null,"<div style=""font-size:60px;"">+</div>",,html-keyboard-response,152,1130584,0.0-15.0-0.1,414,List2A,white,woman,,,,null,,,,
null,"<img src=""stim_listA/fight7.gif""style=""height:400px;""></stim_listA>",,html-keyboard-response,153,1132588,0.0-15.0-1.1,414,List2A,white,woman,,,,null,,,,
null,is fighting,,html-keyboard-response,154,1134599,0.0-15.0-2.1,414,List2A,white,woman,,,,null,,,,
15359,,,survey-text,155,1149959,0.0-15.0-3.1,414,List2A,white,woman,,,,,"{""Q0"":""Jane is fighting beth""}","<img src=""stim_listA/fight7.gif""style=""height:400px;""></stim_listA>",is fighting,
null,"<div style=""font-size:60px;"">+</div>",,html-keyboard-response,156,1150469,0.0-15.0-0.2,414,List2A,white,woman,,,,null,,,,
null,"<img src=""stim_listA/shout5.gif""style=""height:400px;""></stim_listA>",,html-keyboard-response,157,1152471,0.0-15.0-1.2,414,List2A,white,woman,,,,null,,,,
null,is shouting at,,html-keyboard-response,158,1154472,0.0-15.0-2.2,414,List2A,white,woman,,,,null,,,,
12391,,,survey-text,159,1166863,0.0-15.0-3.2,414,List2A,white,woman,,,,,"{""Q0"":""Luke is shouting at Fred""}","<img src=""stim_listA/shout5.gif""style=""height:400px;""></stim_listA>",is shouting at,
null,"<div style=""font-size:60px;"">+</div>",,html-keyboard-response,160,1167371,0.0-15.0-0.3,414,List2A,white,woman,,,,null,,,,
null,"<img src=""stim_listA/touch2.gif""style=""height:400px;""></stim_listA>",,html-keyboard-response,161,1169373,0.0-15.0-1.3,414,List2A,white,woman,,,,null,,,,
null,are touching each other,,html-keyboard-response,162,1171375,0.0-15.0-2.3,414,List2A,white,woman,,,,null,,,,
17087,,,survey-text,163,1188462,0.0-15.0-3.3,414,List2A,white,woman,,,,,"{""Q0"":""Luke and Ruth are touching each other""}","<img src=""stim_listA/touch2.gif""style=""height:400px;""></stim_listA>",are touching each other,
null,"<div style=""font-size:60px;"">+</div>",,html-keyboard-response,164,1188967,0.0-15.0-0.4,414,List2A,white,woman,,,,null,,,,
null,"<img src=""stim_listA/fight4.gif""style=""height:400px;""></stim_listA>",,html-keyboard-response,165,1190974,0.0-15.0-1.4,414,List2A,white,woman,,,,null,,,,
null,are fighting each other,,html-keyboard-response,166,1192980,0.0-15.0-2.4,414,List2A,white,woman,,,,null,,,,
15712,,,survey-text,167,1208694,0.0-15.0-3.4,414,List2A,white,woman,,,,,"{""Q0"":""Kate and Fred are fighting each other""}","<img src=""stim_listA/fight4.gif""style=""height:400px;""></stim_listA>",are fighting each other,
null,"<div style=""font-size:60px;"">+</div>",,html-keyboard-response,168,1209202,0.0-15.0-0.5,414,List2A,white,woman,,,,null,,,,
null,"<img src=""stim_listA/marry2.gif""style=""height:400px;""></stim_listA>",,html-keyboard-response,169,1211205,0.0-15.0-1.5,414,List2A,white,woman,,,,null,,,,
null,are marrying each other,,html-keyboard-response,170,1213214,0.0-15.0-2.5,414,List2A,white,woman,,,,null,,,,
18198,,,survey-text,171,1231414,0.0-15.0-3.5,414,List2A,white,woman,,,,,"{""Q0"":""Jane and Luke are marrying each other""}","<img src=""stim_listA/marry2.gif""style=""height:400px;""></stim_listA>",are marrying each other,
null,"<div style=""font-size:60px;"">+</div>",,html-keyboard-response,172,1231916,0.0-15.0-0.6,414,List2A,white,woman,,,,null,,,,
null,"<img src=""stim_listA/fight1.gif""style=""height:400px;""></stim_listA>",,html-keyboard-response,173,1233921,0.0-15.0-1.6,414,List2A,white,woman,,,,null,,,,
null,is fighting,,html-keyboard-response,174,1235921,0.0-15.0-2.6,414,List2A,white,woman,,,,null,,,,
18396,,,survey-text,175,1254318,0.0-15.0-3.6,414,List2A,white,woman,,,,,"{""Q0"":""Dave is fighting Jane""}","<img src=""stim_listA/fight1.gif""style=""height:400px;""></stim_listA>",is fighting,
null,"<div style=""font-size:60px;"">+</div>",,html-keyboard-response,176,1254830,0.0-15.0-0.7,414,List2A,white,woman,,,,null,,,,
null,"<img src=""stim_listA/talk8.gif""style=""height:400px;""></stim_listA>",,html-keyboard-response,177,1256832,0.0-15.0-1.7,414,List2A,white,woman,,,,null,,,,
null,are talking to each other,,html-keyboard-response,178,1258834,0.0-15.0-2.7,414,List2A,white,woman,,,,null,,,,
27258,,,survey-text,179,1286094,0.0-15.0-3.7,414,List2A,white,woman,,,,,"{""Q0"":""Jane and Kate are talking to each other""}","<img src=""stim_listA/talk8.gif""style=""height:400px;""></stim_listA>",are talking to each other,
null,"<div style=""font-size:60px;"">+</div>",,html-keyboard-response,180,1286597,0.0-15.0-0.8,414,List2A,white,woman,,,,null,,,,
null,"<img src=""stim_listA/shout6.gif""style=""height:400px;""></stim_listA>",,html-keyboard-response,181,1288598,0.0-15.0-1.8,414,List2A,white,woman,,,,null,,,,
null,are shouting at each other,,html-keyboard-response,182,1290599,0.0-15.0-2.8,414,List2A,white,woman,,,,null,,,,
17901,,,survey-text,183,1308501,0.0-15.0-3.8,414,List2A,white,woman,,,,,"{""Q0"":""Mike and dave are shouting at each other""}","<img src=""stim_listA/shout6.gif""style=""height:400px;""></stim_listA>",are shouting at each other,
null,"<div style=""font-size:60px;"">+</div>",,html-keyboard-response,184,1309011,0.0-15.0-0.9,414,List2A,white,woman,,,,null,,,,
null,"<img src=""stim_listA/touch4.gif""style=""height:400px;""></stim_listA>",,html-keyboard-response,185,1311013,0.0-15.0-1.9,414,List2A,white,woman,,,,null,,,,
null,are touching each other,,html-keyboard-response,186,1313016,0.0-15.0-2.9,414,List2A,white,woman,,,,null,,,,
19740,,,survey-text,187,1332756,0.0-15.0-3.9,414,List2A,white,woman,,,,,"{""Q0"":""Fred and Kate are touching each other""}","<img src=""stim_listA/touch4.gif""style=""height:400px;""></stim_listA>",are touching each other,
null,"<div style=""font-size:60px;"">+</div>",,html-keyboard-response,188,1333259,0.0-15.0-0.10,414,List2A,white,woman,,,,null,,,,
null,"<img src=""stim_listA/flirt1.gif""style=""height:400px;""></stim_listA>",,html-keyboard-response,189,1335260,0.0-15.0-1.10,414,List2A,white,woman,,,,null,,,,
null,is flirting with,,html-keyboard-response,190,1337271,0.0-15.0-2.10,414,List2A,white,woman,,,,null,,,,
14579,,,survey-text,191,1351852,0.0-15.0-3.10,414,List2A,white,woman,,,,,"{""Q0"":""Luke is flirting with Jane""}","<img src=""stim_listA/flirt1.gif""style=""height:400px;""></stim_listA>",is flirting with,
null,"<div style=""font-size:60px;"">+</div>",,html-keyboard-response,192,1352362,0.0-15.0-0.11,414,List2A,white,woman,,,,null,,,,
null,"<img src=""stim_listA/dance5.gif""style=""height:400px;""></stim_listA>",,html-keyboard-response,193,1354364,0.0-15.0-1.11,414,List2A,white,woman,,,,null,,,,
null,is dancing with,,html-keyboard-response,194,1356367,0.0-15.0-2.11,414,List2A,white,woman,,,,null,,,,
10533,,,survey-text,195,1366900,0.0-15.0-3.11,414,List2A,white,woman,,,,,"{""Q0"":""Luke is dancing with Mike""}","<img src=""stim_listA/dance5.gif""style=""height:400px;""></stim_listA>",is dancing with,
null,"<div style=""font-size:60px;"">+</div>",,html-keyboard-response,196,1367408,0.0-15.0-0.12,414,List2A,white,woman,,,,null,,,,
null,"<img src=""stim_listA/argue2.gif""style=""height:400px;""></stim_listA>",,html-keyboard-response,197,1369410,0.0-15.0-1.12,414,List2A,white,woman,,,,null,,,,
null,are arguing with each other,,html-keyboard-response,198,1371420,0.0-15.0-2.12,414,List2A,white,woman,,,,null,,,,
13199,,,survey-text,199,1384620,0.0-15.0-3.12,414,List2A,white,woman,,,,,"{""Q0"":""Jane and Luke are arguing with each other""}","<img src=""stim_listA/argue2.gif""style=""height:400px;""></stim_listA>",are arguing with each other,
null,"<div style=""font-size:60px;"">+</div>",,html-keyboard-response,200,1385131,0.0-15.0-0.13,414,List2A,white,woman,,,,null,,,,
null,"<img src=""stim_listA/talk4.gif""style=""height:400px;""></stim_listA>",,html-keyboard-response,201,1387133,0.0-15.0-1.13,414,List2A,white,woman,,,,null,,,,
null,are talking to each other,,html-keyboard-response,202,1389143,0.0-15.0-2.13,414,List2A,white,woman,,,,null,,,,
18340,,,survey-text,203,1407483,0.0-15.0-3.13,414,List2A,white,woman,,,,,"{""Q0"":""Kate and Mike are talking to each other""}","<img src=""stim_listA/talk4.gif""style=""height:400px;""></stim_listA>",are talking to each other,
null,"<div style=""font-size:60px;"">+</div>",,html-keyboard-response,204,1407985,0.0-15.0-0.14,414,List2A,white,woman,,,,null,,,,
null,"<img src=""stim_listA/flirt3.gif""style=""height:400px;""></stim_listA>",,html-keyboard-response,205,1409989,0.0-15.0-1.14,414,List2A,white,woman,,,,null,,,,
null,is flirting with,,html-keyboard-response,206,1412000,0.0-15.0-2.14,414,List2A,white,woman,,,,null,,,,
13899,,,survey-text,207,1425899,0.0-15.0-3.14,414,List2A,white,woman,,,,,"{""Q0"":""Kate is flirting with Fred""}","<img src=""stim_listA/flirt3.gif""style=""height:400px;""></stim_listA>",is flirting with,
null,"<div style=""font-size:60px;"">+</div>",,html-keyboard-response,208,1426401,0.0-15.0-0.15,414,List2A,white,woman,,,,null,,,,
null,"<img src=""stim_listA/flirt7.gif""style=""height:400px;""></stim_listA>",,html-keyboard-response,209,1428403,0.0-15.0-1.15,414,List2A,white,woman,,,,null,,,,
null,is flirting with,,html-keyboard-response,210,1430413,0.0-15.0-2.15,414,List2A,white,woman,,,,null,,,,
14358,,,survey-text,211,1444771,0.0-15.0-3.15,414,List2A,white,woman,,,,,"{""Q0"":""Ruth is flirting with Kate""}","<img src=""stim_listA/flirt7.gif""style=""height:400px;""></stim_listA>",is flirting with,
null,"<div style=""font-size:60px;"">+</div>",,html-keyboard-response,212,1445276,0.0-15.0-0.16,414,List2A,white,woman,,,,null,,,,
null,"<img src=""stim_listA/fight5.gif""style=""height:400px;""></stim_listA>",,html-keyboard-response,213,1447279,0.0-15.0-1.16,414,List2A,white,woman,,,,null,,,,
null,is fighting,,html-keyboard-response,214,1449289,0.0-15.0-2.16,414,List2A,white,woman,,,,null,,,,
9802,,,survey-text,215,1459092,0.0-15.0-3.16,414,List2A,white,woman,,,,,"{""Q0"":""Dave is fighting Mike""}","<img src=""stim_listA/fight5.gif""style=""height:400px;""></stim_listA>",is fighting,
null,"<div style=""font-size:60px;"">+</div>",,html-keyboard-response,216,1459600,0.0-15.0-0.17,414,List2A,white,woman,,,,null,,,,
null,"<img src=""stim_listA/shout2.gif""style=""height:400px;""></stim_listA>",,html-keyboard-response,217,1461603,0.0-15.0-1.17,414,List2A,white,woman,,,,null,,,,
null,are shouting at each other,,html-keyboard-response,218,1463617,0.0-15.0-2.17,414,List2A,white,woman,,,,null,,,,
18968,,,survey-text,219,1482587,0.0-15.0-3.17,414,List2A,white,woman,,,,,"{""Q0"":""Jane and Dave are shouting at each other""}","<img src=""stim_listA/shout2.gif""style=""height:400px;""></stim_listA>",are shouting at each other,
null,"<div style=""font-size:60px;"">+</div>",,html-keyboard-response,220,1483096,0.0-15.0-0.18,414,List2A,white,woman,,,,null,,,,
null,"<img src=""stim_listA/touch5.gif""style=""height:400px;""></stim_listA>",,html-keyboard-response,221,1485099,0.0-15.0-1.18,414,List2A,white,woman,,,,null,,,,
null,is touching,,html-keyboard-response,222,1487109,0.0-15.0-2.18,414,List2A,white,woman,,,,null,,,,
10724,,,survey-text,223,1497834,0.0-15.0-3.18,414,List2A,white,woman,,,,,"{""Q0"":""Mike is touching Dave""}","<img src=""stim_listA/touch5.gif""style=""height:400px;""></stim_listA>",is touching,
null,"<div style=""font-size:60px;"">+</div>",,html-keyboard-response,224,1498339,0.0-15.0-0.19,414,List2A,white,woman,,,,null,,,,
null,"<img src=""stim_listA/marry8.gif""style=""height:400px;""></stim_listA>",,html-keyboard-response,225,1500341,0.0-15.0-1.19,414,List2A,white,woman,,,,null,,,,
null,are marrying each other,,html-keyboard-response,226,1502352,0.0-15.0-2.19,414,List2A,white,woman,,,,null,,,,
19233,,,survey-text,227,1521586,0.0-15.0-3.19,414,List2A,white,woman,,,,,"{""Q0"":""Jane and Kate are marying each other""}","<img src=""stim_listA/marry8.gif""style=""height:400px;""></stim_listA>",are marrying each other,
21294,"<img src='img/portrait_matrix_list2.jpg' style='width:900px;height:500px;''></img><p>If you have memorised all the portraits and names and are ready to start, press Continue.</p><p><strong>Please note: Your memory of these faces will be tested 4 times during this experiment.</strong></p>",0,html-button-response,228,1542882,0.0-16.0-0.0,414,List2A,white,woman,,,,,,,,
2873,"<img src=""portrait/BW2.jpg""style=""height:400px;""></img>",2,html-button-response,229,1546763,0.0-16.0-1.0,414,List2A,white,woman,,TRUE,2,,,,,
null,CORRECT,,html-keyboard-response,230,1548278,0.0-16.0-2.0-0.0,414,List2A,white,woman,,,,null,,,,
4899,"<img src=""portrait/BM2.jpg""style=""height:400px;""></img>",5,html-button-response,231,1553179,0.0-16.0-4.0,414,List2A,white,woman,,TRUE,5,,,,,
null,CORRECT,,html-keyboard-response,232,1554689,0.0-16.0-5.0-0.0,414,List2A,white,woman,,,,null,,,,
1671,"<img src=""portrait/WM2.jpg""style=""height:400px;""></img>",7,html-button-response,233,1556363,0.0-16.0-7.0,414,List2A,white,woman,,TRUE,7,,,,,
null,CORRECT,,html-keyboard-response,234,1557881,0.0-16.0-8.0-0.0,414,List2A,white,woman,,,,null,,,,
1751,"<img src=""portrait/WM1.jpg""style=""height:400px;""></img>",6,html-button-response,235,1559634,0.0-16.0-10.0,414,List2A,white,woman,,TRUE,6,,,,,
null,CORRECT,,html-keyboard-response,236,1561154,0.0-16.0-11.0-0.0,414,List2A,white,woman,,,,null,,,,
1936,"<img src=""portrait/WW1.jpg""style=""height:400px;""></img>",1,html-button-response,237,1563090,0.0-16.0-13.0,414,List2A,white,woman,,TRUE,1,,,,,
null,CORRECT,,html-keyboard-response,238,1564608,0.0-16.0-14.0-0.0,414,List2A,white,woman,,,,null,,,,
3817,"<img src=""portrait/BM1.jpg""style=""height:400px;""></img>",4,html-button-response,239,1568426,0.0-16.0-16.0,414,List2A,white,woman,,TRUE,4,,,,,
null,CORRECT,,html-keyboard-response,240,1569940,0.0-16.0-17.0-0.0,414,List2A,white,woman,,,,null,,,,
4212,"<img src=""portrait/WW2.jpg""style=""height:400px;""></img>",3,html-button-response,241,1574155,0.0-16.0-19.0,414,List2A,white,woman,,TRUE,3,,,,,
null,CORRECT,,html-keyboard-response,242,1575672,0.0-16.0-20.0-0.0,414,List2A,white,woman,,,,null,,,,
2001,"<img src=""portrait/BW1.jpg""style=""height:400px;""></img>",0,html-button-response,243,1577674,0.0-16.0-22.0,414,List2A,white,woman,,TRUE,0,,,,,
null,CORRECT,,html-keyboard-response,244,1579193,0.0-16.0-23.0-0.0,414,List2A,white,woman,,,,null,,,,
1150,<p>You got 8 out of 8 right first time. Press Continue.</p>,0,html-button-response,245,1580345,0.0-16.0-25.0,414,List2A,white,woman,,,,,,,,
null,"<div style=""font-size:60px;"">+</div>",,html-keyboard-response,246,1581863,0.0-17.0-0.0,414,List2A,white,woman,,,,null,,,,
null,"<img src=""stim_listA/talk7.gif""style=""height:400px;""></stim_listA>",,html-keyboard-response,247,1583873,0.0-17.0-1.0,414,List2A,white,woman,,,,null,,,,
null,is talking to,,html-keyboard-response,248,1585883,0.0-17.0-2.0,414,List2A,white,woman,,,,null,,,,
16950,,,survey-text,249,1602834,0.0-17.0-3.0,414,List2A,white,woman,,,,,"{""Q0"":""Ruth is talking to Kate""}","<img src=""stim_listA/talk7.gif""style=""height:400px;""></stim_listA>",is talking to,
null,"<div style=""font-size:60px;"">+</div>",,html-keyboard-response,250,1603344,0.0-17.0-0.1,414,List2A,white,woman,,,,null,,,,
null,"<img src=""stim_listA/play6.gif""style=""height:400px;""></stim_listA>",,html-keyboard-response,251,1605348,0.0-17.0-1.1,414,List2A,white,woman,,,,null,,,,
null,are playing with each other,,html-keyboard-response,252,1607358,0.0-17.0-2.1,414,List2A,white,woman,,,,null,,,,
15353,,,survey-text,253,1622713,0.0-17.0-3.1,414,List2A,white,woman,,,,,"{""Q0"":""Fred and Luke are playing with each other""}","<img src=""stim_listA/play6.gif""style=""height:400px;""></stim_listA>",are playing with each other,
null,"<div style=""font-size:60px;"">+</div>",,html-keyboard-response,254,1623222,0.0-17.0-0.2,414,List2A,white,woman,,,,null,,,,
null,"<img src=""stim_listA/talk5.gif""style=""height:400px;""></stim_listA>",,html-keyboard-response,255,1625224,0.0-17.0-1.2,414,List2A,white,woman,,,,null,,,,
null,is talking to,,html-keyboard-response,256,1627225,0.0-17.0-2.2,414,List2A,white,woman,,,,null,,,,
15535,,,survey-text,257,1642761,0.0-17.0-3.2,414,List2A,white,woman,,,,,"{""Q0"":""Mike is talking to Luke""}","<img src=""stim_listA/talk5.gif""style=""height:400px;""></stim_listA>",is talking to,
null,"<div style=""font-size:60px;"">+</div>",,html-keyboard-response,258,1643266,0.0-17.0-0.3,414,List2A,white,woman,,,,null,,,,
null,"<img src=""stim_listA/play1.gif""style=""height:400px;""></stim_listA>",,html-keyboard-response,259,1645268,0.0-17.0-1.3,414,List2A,white,woman,,,,null,,,,
null,is playing with,,html-keyboard-response,260,1647270,0.0-17.0-2.3,414,List2A,white,woman,,,,null,,,,
10779,,,survey-text,261,1658050,0.0-17.0-3.3,414,List2A,white,woman,,,,,"{""Q0"":""Dave is playing with Jane""}","<img src=""stim_listA/play1.gif""style=""height:400px;""></stim_listA>",is playing with,
null,"<div style=""font-size:60px;"">+</div>",,html-keyboard-response,262,1658560,0.0-17.0-0.4,414,List2A,white,woman,,,,null,,,,
null,"<img src=""stim_listA/kiss4.gif""style=""height:400px;""></stim_listA>",,html-keyboard-response,263,1660562,0.0-17.0-1.4,414,List2A,white,woman,,,,null,,,,
null,are kissing each other,,html-keyboard-response,264,1662572,0.0-17.0-2.4,414,List2A,white,woman,,,,null,,,,
18844,,,survey-text,265,1681416,0.0-17.0-3.4,414,List2A,white,woman,,,,,"{""Q0"":""Kate and Mike are kissing each other""}","<img src=""stim_listA/kiss4.gif""style=""height:400px;""></stim_listA>",are kissing each other,
null,"<div style=""font-size:60px;"">+</div>",,html-keyboard-response,266,1681922,0.0-17.0-0.5,414,List2A,white,woman,,,,null,,,,
null,"<img src=""stim_listA/dance7.gif""style=""height:400px;""></stim_listA>",,html-keyboard-response,267,1683925,0.0-17.0-1.5,414,List2A,white,woman,,,,null,,,,
null,is dancing with,,html-keyboard-response,268,1685934,0.0-17.0-2.5,414,List2A,white,woman,,,,null,,,,
10747,,,survey-text,269,1696681,0.0-17.0-3.5,414,List2A,white,woman,,,,,"{""Q0"":""Kate is dancing with Ruth""}","<img src=""stim_listA/dance7.gif""style=""height:400px;""></stim_listA>",is dancing with,
null,"<div style=""font-size:60px;"">+</div>",,html-keyboard-response,270,1697186,0.0-17.0-0.6,414,List2A,white,woman,,,,null,,,,
null,"<img src=""stim_listA/marry5.gif""style=""height:400px;""></stim_listA>",,html-keyboard-response,271,1699188,0.0-17.0-1.6,414,List2A,white,woman,,,,null,,,,
null,is marrying,,html-keyboard-response,272,1701198,0.0-17.0-2.6,414,List2A,white,woman,,,,null,,,,
9729,,,survey-text,273,1710929,0.0-17.0-3.6,414,List2A,white,woman,,,,,"{""Q0"":""Dave is marrying Fred""}","<img src=""stim_listA/marry5.gif""style=""height:400px;""></stim_listA>",is marrying,
null,"<div style=""font-size:60px;"">+</div>",,html-keyboard-response,274,1711438,0.0-17.0-0.7,414,List2A,white,woman,,,,null,,,,
null,"<img src=""stim_listA/talk2.gif""style=""height:400px;""></stim_listA>",,html-keyboard-response,275,1713442,0.0-17.0-1.7,414,List2A,white,woman,,,,null,,,,
null,are talking to each other,,html-keyboard-response,276,1715452,0.0-17.0-2.7,414,List2A,white,woman,,,,null,,,,
12994,,,survey-text,277,1728448,0.0-17.0-3.7,414,List2A,white,woman,,,,,"{""Q0"":""Ruth and Dave are talking to each other""}","<img src=""stim_listA/talk2.gif""style=""height:400px;""></stim_listA>",are talking to each other,
null,"<div style=""font-size:60px;"">+</div>",,html-keyboard-response,278,1728953,0.0-17.0-0.8,414,List2A,white,woman,,,,null,,,,
null,"<img src=""stim_listA/play3.gif""style=""height:400px;""></stim_listA>",,html-keyboard-response,279,1730955,0.0-17.0-1.8,414,List2A,white,woman,,,,null,,,,
null,is playing with,,html-keyboard-response,280,1732962,0.0-17.0-2.8,414,List2A,white,woman,,,,null,,,,
12541,,,survey-text,281,1745503,0.0-17.0-3.8,414,List2A,white,woman,,,,,"{""Q0"":""Kate is playing with Mike""}","<img src=""stim_listA/play3.gif""style=""height:400px;""></stim_listA>",is playing with,
null,"<div style=""font-size:60px;"">+</div>",,html-keyboard-response,282,1746008,0.0-17.0-0.9,414,List2A,white,woman,,,,null,,,,
null,"<img src=""stim_listA/touch7.gif""style=""height:400px;""></stim_listA>",,html-keyboard-response,283,1748011,0.0-17.0-1.9,414,List2A,white,woman,,,,null,,,,
null,is touching,,html-keyboard-response,284,1750013,0.0-17.0-2.9,414,List2A,white,woman,,,,null,,,,
11137,,,survey-text,285,1761151,0.0-17.0-3.9,414,List2A,white,woman,,,,,"{""Q0"":""Kate is touching Jane""}","<img src=""stim_listA/touch7.gif""style=""height:400px;""></stim_listA>",is touching,
null,"<div style=""font-size:60px;"">+</div>",,html-keyboard-response,286,1761655,0.0-17.0-0.10,414,List2A,white,woman,,,,null,,,,
null,"<img src=""stim_listA/marry6.gif""style=""height:400px;""></stim_listA>",,html-keyboard-response,287,1763657,0.0-17.0-1.10,414,List2A,white,woman,,,,null,,,,
null,are marrying each other,,html-keyboard-response,288,1765667,0.0-17.0-2.10,414,List2A,white,woman,,,,null,,,,
15820,,,survey-text,289,1781487,0.0-17.0-3.10,414,List2A,white,woman,,,,,"{""Q0"":""Mike and Luke are marrying each other""}","<img src=""stim_listA/marry6.gif""style=""height:400px;""></stim_listA>",are marrying each other,
null,"<div style=""font-size:60px;"">+</div>",,html-keyboard-response,290,1781989,0.0-17.0-0.11,414,List2A,white,woman,,,,null,,,,
null,"<img src=""stim_listA/marry3.gif""style=""height:400px;""></stim_listA>",,html-keyboard-response,291,1783991,0.0-17.0-1.11,414,List2A,white,woman,,,,null,,,,
null,is marrying,,html-keyboard-response,292,1785993,0.0-17.0-2.11,414,List2A,white,woman,,,,null,,,,
12341,,,survey-text,293,1798335,0.0-17.0-3.11,414,List2A,white,woman,,,,,"{""Q0"":""Beth is marrying Mike""}","<img src=""stim_listA/marry3.gif""style=""height:400px;""></stim_listA>",is marrying,
null,"<div style=""font-size:60px;"">+</div>",,html-keyboard-response,294,1798843,0.0-17.0-0.12,414,List2A,white,woman,,,,null,,,,
null,"<img src=""stim_listA/talk3.gif""style=""height:400px;""></stim_listA>",,html-keyboard-response,295,1800845,0.0-17.0-1.12,414,List2A,white,woman,,,,null,,,,
null,is talking to,,html-keyboard-response,296,1802847,0.0-17.0-2.12,414,List2A,white,woman,,,,null,,,,
16671,,,survey-text,297,1819519,0.0-17.0-3.12,414,List2A,white,woman,,,,,"{""Q0"":""Fred is talking to Kate""}","<img src=""stim_listA/talk3.gif""style=""height:400px;""></stim_listA>",is talking to,
null,"<div style=""font-size:60px;"">+</div>",,html-keyboard-response,298,1820030,0.0-17.0-0.13,414,List2A,white,woman,,,,null,,,,
null,"<img src=""stim_listA/argue6.gif""style=""height:400px;""></stim_listA>",,html-keyboard-response,299,1822031,0.0-17.0-1.13,414,List2A,white,woman,,,,null,,,,
null,are arguing with each other,,html-keyboard-response,300,1824034,0.0-17.0-2.13,414,List2A,white,woman,,,,null,,,,
19796,,,survey-text,301,1843830,0.0-17.0-3.13,414,List2A,white,woman,,,,,"{""Q0"":""Mike and Luke are arguing with each other""}","<img src=""stim_listA/argue6.gif""style=""height:400px;""></stim_listA>",are arguing with each other,
null,"<div style=""font-size:60px;"">+</div>",,html-keyboard-response,302,1844336,0.0-17.0-0.14,414,List2A,white,woman,,,,null,,,,
null,"<img src=""stim_listA/fight6.gif""style=""height:400px;""></stim_listA>",,html-keyboard-response,303,1846338,0.0-17.0-1.14,414,List2A,white,woman,,,,null,,,,
null,are fighting each other,,html-keyboard-response,304,1848340,0.0-17.0-2.14,414,List2A,white,woman,,,,null,,,,
16074,,,survey-text,305,1864415,0.0-17.0-3.14,414,List2A,white,woman,,,,,"{""Q0"":""Luke and Fred are fighting each other""}","<img src=""stim_listA/fight6.gif""style=""height:400px;""></stim_listA>",are fighting each other,
null,"<div style=""font-size:60px;"">+</div>",,html-keyboard-response,306,1864919,0.0-17.0-0.15,414,List2A,white,woman,,,,null,,,,
null,"<img src=""stim_listA/play8.gif""style=""height:400px;""></stim_listA>",,html-keyboard-response,307,1866921,0.0-17.0-1.15,414,List2A,white,woman,,,,null,,,,
null,are playing with each other,,html-keyboard-response,308,1868924,0.0-17.0-2.15,414,List2A,white,woman,,,,null,,,,
16745,,,survey-text,309,1885670,0.0-17.0-3.15,414,List2A,white,woman,,,,,"{""Q0"":""Ruth and Beth are playing with each other""}","<img src=""stim_listA/play8.gif""style=""height:400px;""></stim_listA>",are playing with each other,
null,"<div style=""font-size:60px;"">+</div>",,html-keyboard-response,310,1886175,0.0-17.0-0.16,414,List2A,white,woman,,,,null,,,,
null,"<img src=""stim_listA/kiss1.gif""style=""height:400px;""></stim_listA>",,html-keyboard-response,311,1888176,0.0-17.0-1.16,414,List2A,white,woman,,,,null,,,,
null,is kissing,,html-keyboard-response,312,1890186,0.0-17.0-2.16,414,List2A,white,woman,,,,null,,,,
10763,,,survey-text,313,1900949,0.0-17.0-3.16,414,List2A,white,woman,,,,,"{""Q0"":""Ruth is kissing Luke""}","<img src=""stim_listA/kiss1.gif""style=""height:400px;""></stim_listA>",is kissing,
null,"<div style=""font-size:60px;"">+</div>",,html-keyboard-response,314,1901459,0.0-17.0-0.17,414,List2A,white,woman,,,,null,,,,
null,"<img src=""stim_listA/talk1.gif""style=""height:400px;""></stim_listA>",,html-keyboard-response,315,1903461,0.0-17.0-1.17,414,List2A,white,woman,,,,null,,,,
null,is talking to,,html-keyboard-response,316,1905461,0.0-17.0-2.17,414,List2A,white,woman,,,,null,,,,
12848,,,survey-text,317,1918310,0.0-17.0-3.17,414,List2A,white,woman,,,,,"{""Q0"":""Luke is talking to Jane""}","<img src=""stim_listA/talk1.gif""style=""height:400px;""></stim_listA>",is talking to,
null,"<div style=""font-size:60px;"">+</div>",,html-keyboard-response,318,1918812,0.0-17.0-0.18,414,List2A,white,woman,,,,null,,,,
null,"<img src=""stim_listA/dance2.gif""style=""height:400px;""></stim_listA>",,html-keyboard-response,319,1920816,0.0-17.0-1.18,414,List2A,white,woman,,,,null,,,,
null,are dancing with each other,,html-keyboard-response,320,1922818,0.0-17.0-2.18,414,List2A,white,woman,,,,null,,,,
13842,,,survey-text,321,1936661,0.0-17.0-3.18,414,List2A,white,woman,,,,,"{""Q0"":""Ruth and Dave are dancing with each other""}","<img src=""stim_listA/dance2.gif""style=""height:400px;""></stim_listA>",are dancing with each other,
null,"<div style=""font-size:60px;"">+</div>",,html-keyboard-response,322,1937171,0.0-17.0-0.19,414,List2A,white,woman,,,,null,,,,
null,"<img src=""stim_listA/flirt8.gif""style=""height:400px;""></stim_listA>",,html-keyboard-response,323,1939173,0.0-17.0-1.19,414,List2A,white,woman,,,,null,,,,
null,are flirting with each other,,html-keyboard-response,324,1941183,0.0-17.0-2.19,414,List2A,white,woman,,,,null,,,,
18013,,,survey-text,325,1959197,0.0-17.0-3.19,414,List2A,white,woman,,,,,"{""Q0"":""Beth and Jane are flirting with each other""}","<img src=""stim_listA/flirt8.gif""style=""height:400px;""></stim_listA>",are flirting with each other,
11197,"<img src='img/portrait_matrix_list2.jpg' style='width:900px;height:500px;''></img><p>If you have memorised all the portraits and names and are ready to start, press Continue.</p><p><strong>Please note: Your memory of these faces will be tested 4 times during this experiment.</strong></p>",0,html-button-response,326,1970397,0.0-18.0-0.0,414,List2A,white,woman,,,,,,,,
2719,"<img src=""portrait/BM2.jpg""style=""height:400px;""></img>",5,html-button-response,327,1974125,0.0-18.0-1.0,414,List2A,white,woman,,TRUE,5,,,,,
null,CORRECT,,html-keyboard-response,328,1975642,0.0-18.0-2.0-0.0,414,List2A,white,woman,,,,null,,,,
2538,"<img src=""portrait/BM1.jpg""style=""height:400px;""></img>",4,html-button-response,329,1978182,0.0-18.0-4.0,414,List2A,white,woman,,TRUE,4,,,,,
null,CORRECT,,html-keyboard-response,330,1979693,0.0-18.0-5.0-0.0,414,List2A,white,woman,,,,null,,,,
1838,"<img src=""portrait/WM2.jpg""style=""height:400px;""></img>",7,html-button-response,331,1981533,0.0-18.0-7.0,414,List2A,white,woman,,TRUE,7,,,,,
null,CORRECT,,html-keyboard-response,332,1983045,0.0-18.0-8.0-0.0,414,List2A,white,woman,,,,null,,,,
1518,"<img src=""portrait/WW2.jpg""style=""height:400px;""></img>",3,html-button-response,333,1984565,0.0-18.0-10.0,414,List2A,white,woman,,TRUE,3,,,,,
null,CORRECT,,html-keyboard-response,334,1986087,0.0-18.0-11.0-0.0,414,List2A,white,woman,,,,null,,,,
2045,"<img src=""portrait/BW2.jpg""style=""height:400px;""></img>",2,html-button-response,335,1988133,0.0-18.0-13.0,414,List2A,white,woman,,TRUE,2,,,,,
null,CORRECT,,html-keyboard-response,336,1989649,0.0-18.0-14.0-0.0,414,List2A,white,woman,,,,null,,,,
2082,"<img src=""portrait/WM1.jpg""style=""height:400px;""></img>",6,html-button-response,337,1991733,0.0-18.0-16.0,414,List2A,white,woman,,TRUE,6,,,,,
null,CORRECT,,html-keyboard-response,338,1993252,0.0-18.0-17.0-0.0,414,List2A,white,woman,,,,null,,,,
1785,"<img src=""portrait/BW1.jpg""style=""height:400px;""></img>",0,html-button-response,339,1995038,0.0-18.0-19.0,414,List2A,white,woman,,TRUE,0,,,,,
null,CORRECT,,html-keyboard-response,340,1996553,0.0-18.0-20.0-0.0,414,List2A,white,woman,,,,null,,,,
1930,"<img src=""portrait/WW1.jpg""style=""height:400px;""></img>",1,html-button-response,341,1998485,0.0-18.0-22.0,414,List2A,white,woman,,TRUE,1,,,,,
null,CORRECT,,html-keyboard-response,342,1999995,0.0-18.0-23.0-0.0,414,List2A,white,woman,,,,null,,,,
1216,<p>You got 8 out of 8 right first time. Press Continue.</p>,0,html-button-response,343,2001212,0.0-18.0-25.0,414,List2A,white,woman,,,,,,,,
null,"<div style=""font-size:60px;"">+</div>",,html-keyboard-response,344,2002725,0.0-19.0-0.0,414,List2A,white,woman,,,,null,,,,
null,"<img src=""stim_listA/kiss2.gif""style=""height:400px;""></stim_listA>",,html-keyboard-response,345,2004727,0.0-19.0-1.0,414,List2A,white,woman,,,,null,,,,
null,are kissing each other,,html-keyboard-response,346,2006737,0.0-19.0-2.0,414,List2A,white,woman,,,,null,,,,
17362,,,survey-text,347,2024100,0.0-19.0-3.0,414,List2A,white,woman,,,,,"{""Q0"":""Jane and dave are kissing each other""}","<img src=""stim_listA/kiss2.gif""style=""height:400px;""></stim_listA>",are kissing each other,
null,"<div style=""font-size:60px;"">+</div>",,html-keyboard-response,348,2024606,0.0-19.0-0.1,414,List2A,white,woman,,,,null,,,,
null,"<img src=""stim_listA/dance1.gif""style=""height:400px;""></stim_listA>",,html-keyboard-response,349,2026609,0.0-19.0-1.1,414,List2A,white,woman,,,,null,,,,
null,is dancing with,,html-keyboard-response,350,2028614,0.0-19.0-2.1,414,List2A,white,woman,,,,null,,,,
11628,,,survey-text,351,2040244,0.0-19.0-3.1,414,List2A,white,woman,,,,,"{""Q0"":""Luke is dancing with Jane""}","<img src=""stim_listA/dance1.gif""style=""height:400px;""></stim_listA>",is dancing with,
null,"<div style=""font-size:60px;"">+</div>",,html-keyboard-response,352,2040748,0.0-19.0-0.2,414,List2A,white,woman,,,,null,,,,
null,"<img src=""stim_listA/flirt4.gif""style=""height:400px;""></stim_listA>",,html-keyboard-response,353,2042751,0.0-19.0-1.2,414,List2A,white,woman,,,,null,,,,
null,are flirting with each other,,html-keyboard-response,354,2044760,0.0-19.0-2.2,414,List2A,white,woman,,,,null,,,,
16010,,,survey-text,355,2060772,0.0-19.0-3.2,414,List2A,white,woman,,,,,"{""Q0"":""Mike and Beth are flirting with each other""}","<img src=""stim_listA/flirt4.gif""style=""height:400px;""></stim_listA>",are flirting with each other,
null,"<div style=""font-size:60px;"">+</div>",,html-keyboard-response,356,2061273,0.0-19.0-0.3,414,List2A,white,woman,,,,null,,,,
null,"<img src=""stim_listA/marry1.gif""style=""height:400px;""></stim_listA>",,html-keyboard-response,357,2063280,0.0-19.0-1.3,414,List2A,white,woman,,,,null,,,,
null,is marrying,,html-keyboard-response,358,2065287,0.0-19.0-2.3,414,List2A,white,woman,,,,null,,,,
8219,,,survey-text,359,2073507,0.0-19.0-3.3,414,List2A,white,woman,,,,,"{""Q0"":""Dave is marrying Ruth""}","<img src=""stim_listA/marry1.gif""style=""height:400px;""></stim_listA>",is marrying,
null,"<div style=""font-size:60px;"">+</div>",,html-keyboard-response,360,2074017,0.0-19.0-0.4,414,List2A,white,woman,,,,null,,,,
null,"<img src=""stim_listA/shout7.gif""style=""height:400px;""></stim_listA>",,html-keyboard-response,361,2076020,0.0-19.0-1.4,414,List2A,white,woman,,,,null,,,,
null,is shouting at,,html-keyboard-response,362,2078029,0.0-19.0-2.4,414,List2A,white,woman,,,,null,,,,
10565,,,survey-text,363,2088596,0.0-19.0-3.4,414,List2A,white,woman,,,,,"{""Q0"":""Ruth is shouting at Beth""}","<img src=""stim_listA/shout7.gif""style=""height:400px;""></stim_listA>",is shouting at,
null,"<div style=""font-size:60px;"">+</div>",,html-keyboard-response,364,2089103,0.0-19.0-0.5,414,List2A,white,woman,,,,null,,,,
null,"<img src=""stim_listA/argue8.gif""style=""height:400px;""></stim_listA>",,html-keyboard-response,365,2091103,0.0-19.0-1.5,414,List2A,white,woman,,,,null,,,,
null,are arguing with each other,,html-keyboard-response,366,2093112,0.0-19.0-2.5,414,List2A,white,woman,,,,null,,,,
20802,,,survey-text,367,2113915,0.0-19.0-3.5,414,List2A,white,woman,,,,,"{""Q0"":""Kate and Ruth are arguing with each other""}","<img src=""stim_listA/argue8.gif""style=""height:400px;""></stim_listA>",are arguing with each other,
null,"<div style=""font-size:60px;"">+</div>",,html-keyboard-response,368,2114419,0.0-19.0-0.6,414,List2A,white,woman,,,,null,,,,
null,"<img src=""stim_listA/talk6.gif""style=""height:400px;""></stim_listA>",,html-keyboard-response,369,2116422,0.0-19.0-1.6,414,List2A,white,woman,,,,null,,,,
null,are talking to each other,,html-keyboard-response,370,2118424,0.0-19.0-2.6,414,List2A,white,woman,,,,null,,,,
15449,,,survey-text,371,2133875,0.0-19.0-3.6,414,List2A,white,woman,,,,,"{""Q0"":""Dave and Fred are talking to each other""}","<img src=""stim_listA/talk6.gif""style=""height:400px;""></stim_listA>",are talking to each other,
null,"<div style=""font-size:60px;"">+</div>",,html-keyboard-response,372,2134376,0.0-19.0-0.7,414,List2A,white,woman,,,,null,,,,
null,"<img src=""stim_listA/argue5.gif""style=""height:400px;""></stim_listA>",,html-keyboard-response,373,2136379,0.0-19.0-1.7,414,List2A,white,woman,,,,null,,,,
null,is arguing with,,html-keyboard-response,374,2138381,0.0-19.0-2.7,414,List2A,white,woman,,,,null,,,,
11230,,,survey-text,375,2149612,0.0-19.0-3.7,414,List2A,white,woman,,,,,"{""Q0"":""Dave is arguing with Fred""}","<img src=""stim_listA/argue5.gif""style=""height:400px;""></stim_listA>",is arguing with,
null,"<div style=""font-size:60px;"">+</div>",,html-keyboard-response,376,2150121,0.0-19.0-0.8,414,List2A,white,woman,,,,null,,,,
null,"<img src=""stim_listA/shout4.gif""style=""height:400px;""></stim_listA>",,html-keyboard-response,377,2152122,0.0-19.0-1.8,414,List2A,white,woman,,,,null,,,,
null,are shouting at each other,,html-keyboard-response,378,2154126,0.0-19.0-2.8,414,List2A,white,woman,,,,null,,,,
12902,,,survey-text,379,2167028,0.0-19.0-3.8,414,List2A,white,woman,,,,,"{""Q0"":""Mike and Kate are shouting at each other""}","<img src=""stim_listA/shout4.gif""style=""height:400px;""></stim_listA>",are shouting at each other,
null,"<div style=""font-size:60px;"">+</div>",,html-keyboard-response,380,2167534,0.0-19.0-0.9,414,List2A,white,woman,,,,null,,,,
null,"<img src=""stim_listA/dance3.gif""style=""height:400px;""></stim_listA>",,html-keyboard-response,381,2169536,0.0-19.0-1.9,414,List2A,white,woman,,,,null,,,,
null,is dancing with,,html-keyboard-response,382,2171547,0.0-19.0-2.9,414,List2A,white,woman,,,,null,,,,
11647,,,survey-text,383,2183195,0.0-19.0-3.9,414,List2A,white,woman,,,,,"{""Q0"":""Kate is dancing with fred""}","<img src=""stim_listA/dance3.gif""style=""height:400px;""></stim_listA>",is dancing with,
null,"<div style=""font-size:60px;"">+</div>",,html-keyboard-response,384,2183698,0.0-19.0-0.10,414,List2A,white,woman,,,,null,,,,
null,"<img src=""stim_listA/touch8.gif""style=""height:400px;""></stim_listA>",,html-keyboard-response,385,2185700,0.0-19.0-1.10,414,List2A,white,woman,,,,null,,,,
null,are touching each other,,html-keyboard-response,386,2187710,0.0-19.0-2.10,414,List2A,white,woman,,,,null,,,,
14531,,,survey-text,387,2202242,0.0-19.0-3.10,414,List2A,white,woman,,,,,"{""Q0"":""Beth and Ruth are touching each other""}","<img src=""stim_listA/touch8.gif""style=""height:400px;""></stim_listA>",are touching each other,
null,"<div style=""font-size:60px;"">+</div>",,html-keyboard-response,388,2202744,0.0-19.0-0.11,414,List2A,white,woman,,,,null,,,,
null,"<img src=""stim_listA/fight2.gif""style=""height:400px;""></stim_listA>",,html-keyboard-response,389,2204746,0.0-19.0-1.11,414,List2A,white,woman,,,,null,,,,
null,are fighting each other,,html-keyboard-response,390,2206756,0.0-19.0-2.11,414,List2A,white,woman,,,,null,,,,
13004,,,survey-text,391,2219762,0.0-19.0-3.11,414,List2A,white,woman,,,,,"{""Q0"":""Ruth and Luke are fighting each other""}","<img src=""stim_listA/fight2.gif""style=""height:400px;""></stim_listA>",are fighting each other,
null,"<div style=""font-size:60px;"">+</div>",,html-keyboard-response,392,2220264,0.0-19.0-0.12,414,List2A,white,woman,,,,null,,,,
null,"<img src=""stim_listA/kiss5.gif""style=""height:400px;""></stim_listA>",,html-keyboard-response,393,2222269,0.0-19.0-1.12,414,List2A,white,woman,,,,null,,,,
null,is kissing,,html-keyboard-response,394,2224273,0.0-19.0-2.12,414,List2A,white,woman,,,,null,,,,
8560,,,survey-text,395,2232834,0.0-19.0-3.12,414,List2A,white,woman,,,,,"{""Q0"":""Luke is kissing fred""}","<img src=""stim_listA/kiss5.gif""style=""height:400px;""></stim_listA>",is kissing,
null,"<div style=""font-size:60px;"">+</div>",,html-keyboard-response,396,2233336,0.0-19.0-0.13,414,List2A,white,woman,,,,null,,,,
null,"<img src=""stim_listA/kiss3.gif""style=""height:400px;""></stim_listA>",,html-keyboard-response,397,2235337,0.0-19.0-1.13,414,List2A,white,woman,,,,null,,,,
null,is kissing,,html-keyboard-response,398,2237339,0.0-19.0-2.13,414,List2A,white,woman,,,,null,,,,
11182,,,survey-text,399,2248522,0.0-19.0-3.13,414,List2A,white,woman,,,,,"{""Q0"":""Kate is kissing Fred""}","<img src=""stim_listA/kiss3.gif""style=""height:400px;""></stim_listA>",is kissing,
null,"<div style=""font-size:60px;"">+</div>",,html-keyboard-response,400,2249029,0.0-19.0-0.14,414,List2A,white,woman,,,,null,,,,
null,"<img src=""stim_listA/marry7.gif""style=""height:400px;""></stim_listA>",,html-keyboard-response,401,2251031,0.0-19.0-1.14,414,List2A,white,woman,,,,null,,,,
null,is marrying,,html-keyboard-response,402,2253041,0.0-19.0-2.14,414,List2A,white,woman,,,,null,,,,
9439,,,survey-text,403,2262482,0.0-19.0-3.14,414,List2A,white,woman,,,,,"{""Q0"":""Beth is marrying Jane""}","<img src=""stim_listA/marry7.gif""style=""height:400px;""></stim_listA>",is marrying,
null,"<div style=""font-size:60px;"">+</div>",,html-keyboard-response,404,2262984,0.0-19.0-0.15,414,List2A,white,woman,,,,null,,,,
null,"<img src=""stim_listA/dance6.gif""style=""height:400px;""></stim_listA>",,html-keyboard-response,405,2264985,0.0-19.0-1.15,414,List2A,white,woman,,,,null,,,,
null,are dancing with each other,,html-keyboard-response,406,2266995,0.0-19.0-2.15,414,List2A,white,woman,,,,null,,,,
14164,,,survey-text,407,2281161,0.0-19.0-3.15,414,List2A,white,woman,,,,,"{""Q0"":""Dave and Fred are dancing with each other""}","<img src=""stim_listA/dance6.gif""style=""height:400px;""></stim_listA>",are dancing with each other,
null,"<div style=""font-size:60px;"">+</div>",,html-keyboard-response,408,2281679,0.0-19.0-0.16,414,List2A,white,woman,,,,null,,,,
null,"<img src=""stim_listA/argue1.gif""style=""height:400px;""></stim_listA>",,html-keyboard-response,409,2283679,0.0-19.0-1.16,414,List2A,white,woman,,,,null,,,,
null,is arguing with,,html-keyboard-response,410,2285681,0.0-19.0-2.16,414,List2A,white,woman,,,,null,,,,
9231,,,survey-text,411,2294913,0.0-19.0-3.16,414,List2A,white,woman,,,,,"{""Q0"":""Ruth is arguing with dave""}","<img src=""stim_listA/argue1.gif""style=""height:400px;""></stim_listA>",is arguing with,
null,"<div style=""font-size:60px;"">+</div>",,html-keyboard-response,412,2295421,0.0-19.0-0.17,414,List2A,white,woman,,,,null,,,,
null,"<img src=""stim_listA/marry4.gif""style=""height:400px;""></stim_listA>",,html-keyboard-response,413,2297423,0.0-19.0-1.17,414,List2A,white,woman,,,,null,,,,
null,are marrying each other,,html-keyboard-response,414,2299432,0.0-19.0-2.17,414,List2A,white,woman,,,,null,,,,
14568,,,survey-text,415,2314001,0.0-19.0-3.17,414,List2A,white,woman,,,,,"{""Q0"":""Kate and fred are marrying each other""}","<img src=""stim_listA/marry4.gif""style=""height:400px;""></stim_listA>",are marrying each other,
null,"<div style=""font-size:60px;"">+</div>",,html-keyboard-response,416,2314506,0.0-19.0-0.18,414,List2A,white,woman,,,,null,,,,
null,"<img src=""stim_listA/dance8.gif""style=""height:400px;""></stim_listA>",,html-keyboard-response,417,2316510,0.0-19.0-1.18,414,List2A,white,woman,,,,null,,,,
null,are dancing with each other,,html-keyboard-response,418,2318519,0.0-19.0-2.18,414,List2A,white,woman,,,,null,,,,
16840,,,survey-text,419,2335360,0.0-19.0-3.18,414,List2A,white,woman,,,,,"{""Q0"":""Jane and Beth are dancing with each other""}","<img src=""stim_listA/dance8.gif""style=""height:400px;""></stim_listA>",are dancing with each other,
null,"<div style=""font-size:60px;"">+</div>",,html-keyboard-response,420,2335862,0.0-19.0-0.19,414,List2A,white,woman,,,,null,,,,
null,"<img src=""stim_listA/touch3.gif""style=""height:400px;""></stim_listA>",,html-keyboard-response,421,2337866,0.0-19.0-1.19,414,List2A,white,woman,,,,null,,,,
null,is touching,,html-keyboard-response,422,2339867,0.0-19.0-2.19,414,List2A,white,woman,,,,null,,,,
10877,,,survey-text,423,2350744,0.0-19.0-3.19,414,List2A,white,woman,,,,,"{""Q0"":""Kate is touching Mike""}","<img src=""stim_listA/touch3.gif""style=""height:400px;""></stim_listA>",is touching,
1744,<p>Thank you for completing that task.</p><p>The final part of this session is a short questionnaire.</p><p>Press Continue.</p>,0,html-button-response,424,2352489,0.0-20.0,414,List2A,white,woman,,,,,,,,
126452,,,survey-text,425,2479944,0.0-21.0,414,List2A,white,woman,,,,,"{""Q0"":""46"",""Q1"":""English"",""Q2"":""English"",""Q3"":""England"",""Q4"":""White (British)"",""Q5"":""Female""}",,,demographics
7198,,,survey-likert,426,2487146,0.0-22.0,414,List2A,white,woman,,,,,"{""Q0"":4}",,,likert_ESS
5787,,,survey-likert,427,2492936,0.0-23.0,414,List2A,white,woman,,,,,"{""Q0"":4}",,,likert_NSSAL_Q1
4933,,,survey-likert,428,2497871,0.0-24.0,414,List2A,white,woman,,,,,"{""Q0"":4}",,,likert_NSSAL_Q2
3877,,,survey-likert,429,2501752,0.0-25.0,414,List2A,white,woman,,,,,"{""Q0"":4}",,,likert_CGRS_Q1
3397,,,survey-likert,430,2505151,0.0-26.0,414,List2A,white,woman,,,,,"{""Q0"":4}",,,likert_CGRS_Q2
3518,,,survey-likert,431,2508671,0.0-27.0,414,List2A,white,woman,,,,,"{""Q0"":4}",,,likert_CGRS_Q3
5877,,,survey-text,432,2514550,0.0-28.0,414,List2A,white,woman,,,,,"{""Q0"":""ccc""}",,,worker_id
35802,,,external-html,433,2550486,0.0-29.0,414,List2A,white,woman,debrief.html,,,,,,,
