rt,stimulus,button_pressed,trial_type,trial_index,time_elapsed,internal_node_id,subject,list,ppt_race,ppt_gender,url,first_guess,correct,key_press,responses,image_type,phrase_type,test_part
2709,Welcome to the experiment. Press Continue to begin.,0,html-button-response,0,2717,0.0-0.0,41853,List1A,white,woman,,,,,,,,
45158,,,external-html,1,48932,0.0-1.0,41853,List1A,white,woman,consent.html,,,,,,,
9314,"<p>On the next page, you will see portraits of 8 people and their names.</p><p>Your first task is to take a few minutes to memorise the names of these people.</p><p>You will have to recall their names during the rest of the experiment, so it is</p><p>essential that you try to memorise these people and their names as best as you can.</p><br><p><strong>You will then be tested on your memory of these names and portraits.</strong></p><br><p>The experiment will start after you have completed this memory test.</p><br><p>Ready?</p>",0,html-button-response,2,58250,0.0-2.0,41853,List1A,white,woman,,,,,,,,
90371,"<img src='img/portrait_matrix_list1.jpg' style='width:900px;height:500px;''></img><p>If you have memorised all the portraits and names and are ready to start, press Continue.</p><p><strong>Please note: Your memory of these faces will be tested 4 times during this experiment.</strong></p>",0,html-button-response,3,149635,0.0-3.0-0.0,41853,List1A,white,woman,,,,,,,,
3669,"<img src=""portrait/WM2.jpg""style=""height:400px;""></img>",7,html-button-response,4,154316,0.0-3.0-1.0,41853,List1A,white,woman,,TRUE,7,,,,,
null,CORRECT,,html-keyboard-response,5,155831,0.0-3.0-2.0-0.0,41853,List1A,white,woman,,,,null,,,,
2737,"<img src=""portrait/BM2.jpg""style=""height:400px;""></img>",5,html-button-response,6,158573,0.0-3.0-4.0,41853,List1A,white,woman,,TRUE,5,,,,,
null,CORRECT,,html-keyboard-response,7,160092,0.0-3.0-5.0-0.0,41853,List1A,white,woman,,,,null,,,,
1847,"<img src=""portrait/BM1.jpg""style=""height:400px;""></img>",4,html-button-response,8,161942,0.0-3.0-7.0,41853,List1A,white,woman,,TRUE,4,,,,,
null,CORRECT,,html-keyboard-response,9,163462,0.0-3.0-8.0-0.0,41853,List1A,white,woman,,,,null,,,,
2448,"<img src=""portrait/BW2.jpg""style=""height:400px;""></img>",2,html-button-response,10,165913,0.0-3.0-10.0,41853,List1A,white,woman,,TRUE,2,,,,,
null,CORRECT,,html-keyboard-response,11,167431,0.0-3.0-11.0-0.0,41853,List1A,white,woman,,,,null,,,,
3134,"<img src=""portrait/WM1.jpg""style=""height:400px;""></img>",6,html-button-response,12,170568,0.0-3.0-13.0,41853,List1A,white,woman,,TRUE,6,,,,,
null,CORRECT,,html-keyboard-response,13,172081,0.0-3.0-14.0-0.0,41853,List1A,white,woman,,,,null,,,,
1936,"<img src=""portrait/WW1.jpg""style=""height:400px;""></img>",1,html-button-response,14,174021,0.0-3.0-16.0,41853,List1A,white,woman,,TRUE,1,,,,,
null,CORRECT,,html-keyboard-response,15,175542,0.0-3.0-17.0-0.0,41853,List1A,white,woman,,,,null,,,,
2254,"<img src=""portrait/BW1.jpg""style=""height:400px;""></img>",0,html-button-response,16,177798,0.0-3.0-19.0,41853,List1A,white,woman,,TRUE,0,,,,,
null,CORRECT,,html-keyboard-response,17,179311,0.0-3.0-20.0-0.0,41853,List1A,white,woman,,,,null,,,,
1531,"<img src=""portrait/WW2.jpg""style=""height:400px;""></img>",3,html-button-response,18,180846,0.0-3.0-22.0,41853,List1A,white,woman,,TRUE,3,,,,,
null,CORRECT,,html-keyboard-response,19,182361,0.0-3.0-23.0-0.0,41853,List1A,white,woman,,,,null,,,,
2040,<p>You got 8 out of 8 right first time. Press Continue.</p>,0,html-button-response,20,184402,0.0-3.0-25.0,41853,List1A,white,woman,,,,,,,,
29390,"<p>In this experiment, you will view photographs of the people from the memory game interacting.</p><p>By using the <strong>exact</strong> phrase given <i>after</i> the photograph appears and recalling the correct names of the people in the photographs, form a sentence describing the interaction. You do not need to capitalise names.</p><p>Type your answer in the space provided. Please complete every sentence before moving onto the next trial.</p><p>You will only have a few seconds to memorise each given photograph and phrase before you can respond, so try your best to focus.</p><p>An example is given below. Press 'Continue' when you are ready.</p><img src='img/speaking_example.jpg' style='width:800px;height:460px;''></img>",0,html-button-response,21,214806,0.0-4.0,41853,List1A,white,woman,,,,,,,,
1973,"<p>Before the experiment starts, you will watch two example trials. Press 'Continue'.</p>",0,html-button-response,22,217789,0.0-5.0,41853,List1A,white,woman,,,,,,,,
null,<img src='img/meet_eg.gif' style='height:400px;''></img>,,html-keyboard-response,23,220803,0.0-6.0,41853,List1A,white,woman,,,,null,,,,
null,<p>is meeting</p>,,html-keyboard-response,24,222812,0.0-7.0,41853,List1A,white,woman,,,,null,,,,
7092,<p><b>Answer:</b> kate is meeting beth</p>,0,html-button-response,25,229905,0.0-8.0,41853,List1A,white,woman,,,,,,,,
null,<img src='img/look_eg.gif' style='height:400px;''></img>,,html-keyboard-response,26,232922,0.0-9.0,41853,List1A,white,woman,,,,null,,,,
null,<p>are looking at each other</p>,,html-keyboard-response,27,234932,0.0-10.0,41853,List1A,white,woman,,,,null,,,,
2180,<p><b>Answer:</b> luke and dave are looking at each other</p>,0,html-button-response,28,237114,0.0-11.0,41853,List1A,white,woman,,,,,,,,
3213,"<p>Ready to start the experiment?</p><br><p><strong>Remember to describe the picture using a full sentence,</strong></p><p><strong>that combines the names of the people with the <i>exact</i> phrase given.</strong></p><p><strong>To receive full payment you must do this correctly.</strong></p><p><strong> You do not need to capitalise names or use punctuation.</strong></p><br><p>Press 'Continue' to begin.</p>",0,html-button-response,29,241337,0.0-12.0,41853,List1A,white,woman,,,,,,,,
null,"<div style=""font-size:60px;"">+</div>",,html-keyboard-response,30,242852,0.0-13.0-0.0,41853,List1A,white,woman,,,,null,,,,
null,"<img src=""stim_listA/flirt1.gif""style=""height:400px;""></stim_listA>",,html-keyboard-response,31,244862,0.0-13.0-1.0,41853,List1A,white,woman,,,,null,,,,
null,is flirting with,,html-keyboard-response,32,246873,0.0-13.0-2.0,41853,List1A,white,woman,,,,null,,,,
12343,,,survey-text,33,259218,0.0-13.0-3.0,41853,List1A,white,woman,,,,,"{""Q0"":""fred is flirting with beth""}","<img src=""stim_listA/flirt1.gif""style=""height:400px;""></stim_listA>",is flirting with,
null,"<div style=""font-size:60px;"">+</div>",,html-keyboard-response,34,259721,0.0-13.0-0.1,41853,List1A,white,woman,,,,null,,,,
null,"<img src=""stim_listA/fight4.gif""style=""height:400px;""></stim_listA>",,html-keyboard-response,35,261732,0.0-13.0-1.1,41853,List1A,white,woman,,,,null,,,,
null,are fighting each other,,html-keyboard-response,36,263742,0.0-13.0-2.1,41853,List1A,white,woman,,,,null,,,,
6607,,,survey-text,37,270352,0.0-13.0-3.1,41853,List1A,white,woman,,,,,"{""Q0"":""luke is fighting with ruth""}","<img src=""stim_listA/fight4.gif""style=""height:400px;""></stim_listA>",are fighting each other,
null,"<div style=""font-size:60px;"">+</div>",,html-keyboard-response,38,270862,0.0-13.0-0.2,41853,List1A,white,woman,,,,null,,,,
null,"<img src=""stim_listA/play1.gif""style=""height:400px;""></stim_listA>",,html-keyboard-response,39,272871,0.0-13.0-1.2,41853,List1A,white,woman,,,,null,,,,
null,is playing with,,html-keyboard-response,40,274882,0.0-13.0-2.2,41853,List1A,white,woman,,,,null,,,,
6081,,,survey-text,41,280964,0.0-13.0-3.2,41853,List1A,white,woman,,,,,"{""Q0"":""kate is playing with mike""}","<img src=""stim_listA/play1.gif""style=""height:400px;""></stim_listA>",is playing with,
null,"<div style=""font-size:60px;"">+</div>",,html-keyboard-response,42,281471,0.0-13.0-0.3,41853,List1A,white,woman,,,,null,,,,
null,"<img src=""stim_listA/dance4.gif""style=""height:400px;""></stim_listA>",,html-keyboard-response,43,283481,0.0-13.0-1.3,41853,List1A,white,woman,,,,null,,,,
null,are dancing with each other,,html-keyboard-response,44,285484,0.0-13.0-2.3,41853,List1A,white,woman,,,,null,,,,
5983,,,survey-text,45,291469,0.0-13.0-3.3,41853,List1A,white,woman,,,,,"{""Q0"":""dave is dancing with ruth""}","<img src=""stim_listA/dance4.gif""style=""height:400px;""></stim_listA>",are dancing with each other,
null,"<div style=""font-size:60px;"">+</div>",,html-keyboard-response,46,291972,0.0-13.0-0.4,41853,List1A,white,woman,,,,null,,,,
null,"<img src=""stim_listA/flirt4.gif""style=""height:400px;""></stim_listA>",,html-keyboard-response,47,293982,0.0-13.0-1.4,41853,List1A,white,woman,,,,null,,,,
null,are flirting with each other,,html-keyboard-response,48,295991,0.0-13.0-2.4,41853,List1A,white,woman,,,,null,,,,
7355,,,survey-text,49,303347,0.0-13.0-3.4,41853,List1A,white,woman,,,,,"{""Q0"":""ruth is flirting with dave""}","<img src=""stim_listA/flirt4.gif""style=""height:400px;""></stim_listA>",are flirting with each other,
null,"<div style=""font-size:60px;"">+</div>",,html-keyboard-response,50,303851,0.0-13.0-0.5,41853,List1A,white,woman,,,,null,,,,
null,"<img src=""stim_listA/dance2.gif""style=""height:400px;""></stim_listA>",,html-keyboard-response,51,305861,0.0-13.0-1.5,41853,List1A,white,woman,,,,null,,,,
null,are dancing with each other,,html-keyboard-response,52,307872,0.0-13.0-2.5,41853,List1A,white,woman,,,,null,,,,
12181,,,survey-text,53,320053,0.0-13.0-3.5,41853,List1A,white,woman,,,,,"{""Q0"":""beth is dancing with mike""}","<img src=""stim_listA/dance2.gif""style=""height:400px;""></stim_listA>",are dancing with each other,
null,"<div style=""font-size:60px;"">+</div>",,html-keyboard-response,54,320561,0.0-13.0-0.6,41853,List1A,white,woman,,,,null,,,,
null,"<img src=""stim_listA/fight3.gif""style=""height:400px;""></stim_listA>",,html-keyboard-response,55,322571,0.0-13.0-1.6,41853,List1A,white,woman,,,,null,,,,
null,is fighting,,html-keyboard-response,56,324579,0.0-13.0-2.6,41853,List1A,white,woman,,,,null,,,,
6317,,,survey-text,57,330897,0.0-13.0-3.6,41853,List1A,white,woman,,,,,"{""Q0"":""ruth is fighting with dave""}","<img src=""stim_listA/fight3.gif""style=""height:400px;""></stim_listA>",is fighting,
null,"<div style=""font-size:60px;"">+</div>",,html-keyboard-response,58,331401,0.0-13.0-0.7,41853,List1A,white,woman,,,,null,,,,
null,"<img src=""stim_listA/fight2.gif""style=""height:400px;""></stim_listA>",,html-keyboard-response,59,333411,0.0-13.0-1.7,41853,List1A,white,woman,,,,null,,,,
null,are fighting each other,,html-keyboard-response,60,335420,0.0-13.0-2.7,41853,List1A,white,woman,,,,null,,,,
7414,,,survey-text,61,342836,0.0-13.0-3.7,41853,List1A,white,woman,,,,,"{""Q0"":""beth is fighting with fred""}","<img src=""stim_listA/fight2.gif""style=""height:400px;""></stim_listA>",are fighting each other,
null,"<div style=""font-size:60px;"">+</div>",,html-keyboard-response,62,343347,0.0-13.0-0.8,41853,List1A,white,woman,,,,null,,,,
null,"<img src=""stim_listA/argue8.gif""style=""height:400px;""></stim_listA>",,html-keyboard-response,63,345357,0.0-13.0-1.8,41853,List1A,white,woman,,,,null,,,,
null,are arguing with each other,,html-keyboard-response,64,347367,0.0-13.0-2.8,41853,List1A,white,woman,,,,null,,,,
16108,,,survey-text,65,363477,0.0-13.0-3.8,41853,List1A,white,woman,,,,,"{""Q0"":""beth is arguing with jane""}","<img src=""stim_listA/argue8.gif""style=""height:400px;""></stim_listA>",are arguing with each other,
null,"<div style=""font-size:60px;"">+</div>",,html-keyboard-response,66,363986,0.0-13.0-0.9,41853,List1A,white,woman,,,,null,,,,
null,"<img src=""stim_listA/shout1.gif""style=""height:400px;""></stim_listA>",,html-keyboard-response,67,365996,0.0-13.0-1.9,41853,List1A,white,woman,,,,null,,,,
null,is shouting at,,html-keyboard-response,68,368006,0.0-13.0-2.9,41853,List1A,white,woman,,,,null,,,,
7456,,,survey-text,69,375465,0.0-13.0-3.9,41853,List1A,white,woman,,,,,"{""Q0"":""beth is shouting at fred""}","<img src=""stim_listA/shout1.gif""style=""height:400px;""></stim_listA>",is shouting at,
null,"<div style=""font-size:60px;"">+</div>",,html-keyboard-response,70,375966,0.0-13.0-0.10,41853,List1A,white,woman,,,,null,,,,
null,"<img src=""stim_listA/kiss8.gif""style=""height:400px;""></stim_listA>",,html-keyboard-response,71,377976,0.0-13.0-1.10,41853,List1A,white,woman,,,,null,,,,
null,are kissing each other,,html-keyboard-response,72,379986,0.0-13.0-2.10,41853,List1A,white,woman,,,,null,,,,
22341,,,survey-text,73,402329,0.0-13.0-3.10,41853,List1A,white,woman,,,,,"{""Q0"":""jane is kissing kate""}","<img src=""stim_listA/kiss8.gif""style=""height:400px;""></stim_listA>",are kissing each other,
null,"<div style=""font-size:60px;"">+</div>",,html-keyboard-response,74,402836,0.0-13.0-0.11,41853,List1A,white,woman,,,,null,,,,
null,"<img src=""stim_listA/kiss5.gif""style=""height:400px;""></stim_listA>",,html-keyboard-response,75,404838,0.0-13.0-1.11,41853,List1A,white,woman,,,,null,,,,
null,is kissing,,html-keyboard-response,76,406848,0.0-13.0-2.11,41853,List1A,white,woman,,,,null,,,,
5962,,,survey-text,77,412811,0.0-13.0-3.11,41853,List1A,white,woman,,,,,"{""Q0"":""fred is kissing luke""}","<img src=""stim_listA/kiss5.gif""style=""height:400px;""></stim_listA>",is kissing,
null,"<div style=""font-size:60px;"">+</div>",,html-keyboard-response,78,413318,0.0-13.0-0.12,41853,List1A,white,woman,,,,null,,,,
null,"<img src=""stim_listA/marry1.gif""style=""height:400px;""></stim_listA>",,html-keyboard-response,79,415328,0.0-13.0-1.12,41853,List1A,white,woman,,,,null,,,,
null,is marrying,,html-keyboard-response,80,417338,0.0-13.0-2.12,41853,List1A,white,woman,,,,null,,,,
5414,,,survey-text,81,422752,0.0-13.0-3.12,41853,List1A,white,woman,,,,,"{""Q0"":""beth is marrying mike""}","<img src=""stim_listA/marry1.gif""style=""height:400px;""></stim_listA>",is marrying,
null,"<div style=""font-size:60px;"">+</div>",,html-keyboard-response,82,423258,0.0-13.0-0.13,41853,List1A,white,woman,,,,null,,,,
null,"<img src=""stim_listA/argue3.gif""style=""height:400px;""></stim_listA>",,html-keyboard-response,83,425268,0.0-13.0-1.13,41853,List1A,white,woman,,,,null,,,,
null,is arguing with,,html-keyboard-response,84,427277,0.0-13.0-2.13,41853,List1A,white,woman,,,,null,,,,
7423,,,survey-text,85,434702,0.0-13.0-3.13,41853,List1A,white,woman,,,,,"{""Q0"":""dave is arguing with ruth""}","<img src=""stim_listA/argue3.gif""style=""height:400px;""></stim_listA>",is arguing with,
null,"<div style=""font-size:60px;"">+</div>",,html-keyboard-response,86,435207,0.0-13.0-0.14,41853,List1A,white,woman,,,,null,,,,
null,"<img src=""stim_listA/marry5.gif""style=""height:400px;""></stim_listA>",,html-keyboard-response,87,437218,0.0-13.0-1.14,41853,List1A,white,woman,,,,null,,,,
null,is marrying,,html-keyboard-response,88,439228,0.0-13.0-2.14,41853,List1A,white,woman,,,,null,,,,
5353,,,survey-text,89,444582,0.0-13.0-3.14,41853,List1A,white,woman,,,,,"{""Q0"":""mike is marrying luke""}","<img src=""stim_listA/marry5.gif""style=""height:400px;""></stim_listA>",is marrying,
null,"<div style=""font-size:60px;"">+</div>",,html-keyboard-response,90,445087,0.0-13.0-0.15,41853,List1A,white,woman,,,,null,,,,
null,"<img src=""stim_listA/flirt6.gif""style=""height:400px;""></stim_listA>",,html-keyboard-response,91,447097,0.0-13.0-1.15,41853,List1A,white,woman,,,,null,,,,
null,are flirting with each other,,html-keyboard-response,92,449107,0.0-13.0-2.15,41853,List1A,white,woman,,,,null,,,,
6159,,,survey-text,93,455267,0.0-13.0-3.15,41853,List1A,white,woman,,,,,"{""Q0"":""mike is flirting with luke""}","<img src=""stim_listA/flirt6.gif""style=""height:400px;""></stim_listA>",are flirting with each other,
null,"<div style=""font-size:60px;"">+</div>",,html-keyboard-response,94,455777,0.0-13.0-0.16,41853,List1A,white,woman,,,,null,,,,
null,"<img src=""stim_listA/shout3.gif""style=""height:400px;""></stim_listA>",,html-keyboard-response,95,457787,0.0-13.0-1.16,41853,List1A,white,woman,,,,null,,,,
null,is shouting at,,html-keyboard-response,96,459797,0.0-13.0-2.16,41853,List1A,white,woman,,,,null,,,,
6084,,,survey-text,97,465882,0.0-13.0-3.16,41853,List1A,white,woman,,,,,"{""Q0"":""luke is shouting at ruth""}","<img src=""stim_listA/shout3.gif""style=""height:400px;""></stim_listA>",is shouting at,
null,"<div style=""font-size:60px;"">+</div>",,html-keyboard-response,98,466387,0.0-13.0-0.17,41853,List1A,white,woman,,,,null,,,,
null,"<img src=""stim_listA/flirt7.gif""style=""height:400px;""></stim_listA>",,html-keyboard-response,99,468397,0.0-13.0-1.17,41853,List1A,white,woman,,,,null,,,,
null,is flirting with,,html-keyboard-response,100,470407,0.0-13.0-2.17,41853,List1A,white,woman,,,,null,,,,
5567,,,survey-text,101,475975,0.0-13.0-3.17,41853,List1A,white,woman,,,,,"{""Q0"":""beth is flirting with jane""}","<img src=""stim_listA/flirt7.gif""style=""height:400px;""></stim_listA>",is flirting with,
null,"<div style=""font-size:60px;"">+</div>",,html-keyboard-response,102,476487,0.0-13.0-0.18,41853,List1A,white,woman,,,,null,,,,
null,"<img src=""stim_listA/touch8.gif""style=""height:400px;""></stim_listA>",,html-keyboard-response,103,478497,0.0-13.0-1.18,41853,List1A,white,woman,,,,null,,,,
null,are touching each other,,html-keyboard-response,104,480507,0.0-13.0-2.18,41853,List1A,white,woman,,,,null,,,,
12158,,,survey-text,105,492666,0.0-13.0-3.18,41853,List1A,white,woman,,,,,"{""Q0"":""jane is touching beth""}","<img src=""stim_listA/touch8.gif""style=""height:400px;""></stim_listA>",are touching each other,
null,"<div style=""font-size:60px;"">+</div>",,html-keyboard-response,106,493177,0.0-13.0-0.19,41853,List1A,white,woman,,,,null,,,,
null,"<img src=""stim_listA/fight6.gif""style=""height:400px;""></stim_listA>",,html-keyboard-response,107,495187,0.0-13.0-1.19,41853,List1A,white,woman,,,,null,,,,
null,are fighting each other,,html-keyboard-response,108,497197,0.0-13.0-2.19,41853,List1A,white,woman,,,,null,,,,
7776,,,survey-text,109,504974,0.0-13.0-3.19,41853,List1A,white,woman,,,,,"{""Q0"":""luke and fred are fighting each other""}","<img src=""stim_listA/fight6.gif""style=""height:400px;""></stim_listA>",are fighting each other,
7612,"<img src='img/portrait_matrix_list1.jpg' style='width:900px;height:500px;''></img><p>If you have memorised all the portraits and names and are ready to start, press Continue.</p><p><strong>Please note: Your memory of these faces will be tested 4 times during this experiment.</strong></p>",0,html-button-response,110,512590,0.0-14.0-0.0,41853,List1A,white,woman,,,,,,,,
3034,"<img src=""portrait/BW1.jpg""style=""height:400px;""></img>",0,html-button-response,111,516633,0.0-14.0-1.0,41853,List1A,white,woman,,TRUE,0,,,,,
null,CORRECT,,html-keyboard-response,112,518148,0.0-14.0-2.0-0.0,41853,List1A,white,woman,,,,null,,,,
1803,"<img src=""portrait/WM2.jpg""style=""height:400px;""></img>",7,html-button-response,113,519955,0.0-14.0-4.0,41853,List1A,white,woman,,TRUE,7,,,,,
null,CORRECT,,html-keyboard-response,114,521471,0.0-14.0-5.0-0.0,41853,List1A,white,woman,,,,null,,,,
2462,"<img src=""portrait/WM1.jpg""style=""height:400px;""></img>",6,html-button-response,115,523936,0.0-14.0-7.0,41853,List1A,white,woman,,TRUE,6,,,,,
null,CORRECT,,html-keyboard-response,116,525454,0.0-14.0-8.0-0.0,41853,List1A,white,woman,,,,null,,,,
1860,"<img src=""portrait/BW2.jpg""style=""height:400px;""></img>",2,html-button-response,117,527316,0.0-14.0-10.0,41853,List1A,white,woman,,TRUE,2,,,,,
null,CORRECT,,html-keyboard-response,118,528837,0.0-14.0-11.0-0.0,41853,List1A,white,woman,,,,null,,,,
2112,"<img src=""portrait/WW2.jpg""style=""height:400px;""></img>",3,html-button-response,119,530949,0.0-14.0-13.0,41853,List1A,white,woman,,TRUE,3,,,,,
null,CORRECT,,html-keyboard-response,120,532468,0.0-14.0-14.0-0.0,41853,List1A,white,woman,,,,null,,,,
2666,"<img src=""portrait/BM2.jpg""style=""height:400px;""></img>",5,html-button-response,121,535135,0.0-14.0-16.0,41853,List1A,white,woman,,TRUE,5,,,,,
null,CORRECT,,html-keyboard-response,122,536651,0.0-14.0-17.0-0.0,41853,List1A,white,woman,,,,null,,,,
2105,"<img src=""portrait/WW1.jpg""style=""height:400px;""></img>",1,html-button-response,123,538758,0.0-14.0-19.0,41853,List1A,white,woman,,TRUE,1,,,,,
null,CORRECT,,html-keyboard-response,124,540273,0.0-14.0-20.0-0.0,41853,List1A,white,woman,,,,null,,,,
1600,"<img src=""portrait/BM1.jpg""style=""height:400px;""></img>",4,html-button-response,125,541876,0.0-14.0-22.0,41853,List1A,white,woman,,TRUE,4,,,,,
null,CORRECT,,html-keyboard-response,126,543395,0.0-14.0-23.0-0.0,41853,List1A,white,woman,,,,null,,,,
1413,<p>You got 8 out of 8 right first time. Press Continue.</p>,0,html-button-response,127,544810,0.0-14.0-25.0,41853,List1A,white,woman,,,,,,,,
null,"<div style=""font-size:60px;"">+</div>",,html-keyboard-response,128,546326,0.0-15.0-0.0,41853,List1A,white,woman,,,,null,,,,
null,"<img src=""stim_listA/kiss1.gif""style=""height:400px;""></stim_listA>",,html-keyboard-response,129,548336,0.0-15.0-1.0,41853,List1A,white,woman,,,,null,,,,
null,is kissing,,html-keyboard-response,130,550345,0.0-15.0-2.0,41853,List1A,white,woman,,,,null,,,,
6123,,,survey-text,131,556469,0.0-15.0-3.0,41853,List1A,white,woman,,,,,"{""Q0"":""fred is kissing beth""}","<img src=""stim_listA/kiss1.gif""style=""height:400px;""></stim_listA>",is kissing,
null,"<div style=""font-size:60px;"">+</div>",,html-keyboard-response,132,556975,0.0-15.0-0.1,41853,List1A,white,woman,,,,null,,,,
null,"<img src=""stim_listA/flirt3.gif""style=""height:400px;""></stim_listA>",,html-keyboard-response,133,558985,0.0-15.0-1.1,41853,List1A,white,woman,,,,null,,,,
null,is flirting with,,html-keyboard-response,134,560995,0.0-15.0-2.1,41853,List1A,white,woman,,,,null,,,,
5335,,,survey-text,135,566331,0.0-15.0-3.1,41853,List1A,white,woman,,,,,"{""Q0"":""luke is flirting with jane""}","<img src=""stim_listA/flirt3.gif""style=""height:400px;""></stim_listA>",is flirting with,
null,"<div style=""font-size:60px;"">+</div>",,html-keyboard-response,136,566834,0.0-15.0-0.2,41853,List1A,white,woman,,,,null,,,,
null,"<img src=""stim_listA/fight5.gif""style=""height:400px;""></stim_listA>",,html-keyboard-response,137,568845,0.0-15.0-1.2,41853,List1A,white,woman,,,,null,,,,
null,is fighting,,html-keyboard-response,138,570855,0.0-15.0-2.2,41853,List1A,white,woman,,,,null,,,,
5447,,,survey-text,139,576303,0.0-15.0-3.2,41853,List1A,white,woman,,,,,"{""Q0"":""mike is fighting dave""}","<img src=""stim_listA/fight5.gif""style=""height:400px;""></stim_listA>",is fighting,
null,"<div style=""font-size:60px;"">+</div>",,html-keyboard-response,140,576804,0.0-15.0-0.3,41853,List1A,white,woman,,,,null,,,,
null,"<img src=""stim_listA/marry8.gif""style=""height:400px;""></stim_listA>",,html-keyboard-response,141,578815,0.0-15.0-1.3,41853,List1A,white,woman,,,,null,,,,
null,are marrying each other,,html-keyboard-response,142,580825,0.0-15.0-2.3,41853,List1A,white,woman,,,,null,,,,
9374,,,survey-text,143,590200,0.0-15.0-3.3,41853,List1A,white,woman,,,,,"{""Q0"":""beth and jane are marrying each other""}","<img src=""stim_listA/marry8.gif""style=""height:400px;""></stim_listA>",are marrying each other,
null,"<div style=""font-size:60px;"">+</div>",,html-keyboard-response,144,590704,0.0-15.0-0.4,41853,List1A,white,woman,,,,null,,,,
null,"<img src=""stim_listA/argue7.gif""style=""height:400px;""></stim_listA>",,html-keyboard-response,145,592715,0.0-15.0-1.4,41853,List1A,white,woman,,,,null,,,,
null,is arguing with,,html-keyboard-response,146,594725,0.0-15.0-2.4,41853,List1A,white,woman,,,,null,,,,
11881,,,survey-text,147,606606,0.0-15.0-3.4,41853,List1A,white,woman,,,,,"{""Q0"":""kate is arguing with jane""}","<img src=""stim_listA/argue7.gif""style=""height:400px;""></stim_listA>",is arguing with,
null,"<div style=""font-size:60px;"">+</div>",,html-keyboard-response,148,607117,0.0-15.0-0.5,41853,List1A,white,woman,,,,null,,,,
null,"<img src=""stim_listA/touch7.gif""style=""height:400px;""></stim_listA>",,html-keyboard-response,149,609127,0.0-15.0-1.5,41853,List1A,white,woman,,,,null,,,,
null,is touching,,html-keyboard-response,150,611136,0.0-15.0-2.5,41853,List1A,white,woman,,,,null,,,,
6392,,,survey-text,151,617529,0.0-15.0-3.5,41853,List1A,white,woman,,,,,"{""Q0"":""kate is touching jane""}","<img src=""stim_listA/touch7.gif""style=""height:400px;""></stim_listA>",is touching,
null,"<div style=""font-size:60px;"">+</div>",,html-keyboard-response,152,618036,0.0-15.0-0.6,41853,List1A,white,woman,,,,null,,,,
null,"<img src=""stim_listA/shout6.gif""style=""height:400px;""></stim_listA>",,html-keyboard-response,153,620039,0.0-15.0-1.6,41853,List1A,white,woman,,,,null,,,,
null,are shouting at each other,,html-keyboard-response,154,622049,0.0-15.0-2.6,41853,List1A,white,woman,,,,null,,,,
10273,,,survey-text,155,632324,0.0-15.0-3.6,41853,List1A,white,woman,,,,,"{""Q0"":""mike and dave are shouting at each other""}","<img src=""stim_listA/shout6.gif""style=""height:400px;""></stim_listA>",are shouting at each other,
null,"<div style=""font-size:60px;"">+</div>",,html-keyboard-response,156,632829,0.0-15.0-0.7,41853,List1A,white,woman,,,,null,,,,
null,"<img src=""stim_listA/argue5.gif""style=""height:400px;""></stim_listA>",,html-keyboard-response,157,634839,0.0-15.0-1.7,41853,List1A,white,woman,,,,null,,,,
null,is arguing with,,html-keyboard-response,158,636848,0.0-15.0-2.7,41853,List1A,white,woman,,,,null,,,,
5662,,,survey-text,159,642512,0.0-15.0-3.7,41853,List1A,white,woman,,,,,"{""Q0"":""luke is arguing with mike""}","<img src=""stim_listA/argue5.gif""style=""height:400px;""></stim_listA>",is arguing with,
null,"<div style=""font-size:60px;"">+</div>",,html-keyboard-response,160,643022,0.0-15.0-0.8,41853,List1A,white,woman,,,,null,,,,
null,"<img src=""stim_listA/kiss6.gif""style=""height:400px;""></stim_listA>",,html-keyboard-response,161,645032,0.0-15.0-1.8,41853,List1A,white,woman,,,,null,,,,
null,are kissing each other,,html-keyboard-response,162,647035,0.0-15.0-2.8,41853,List1A,white,woman,,,,null,,,,
9607,,,survey-text,163,656643,0.0-15.0-3.8,41853,List1A,white,woman,,,,,"{""Q0"":""dave and mike are kissing each other""}","<img src=""stim_listA/kiss6.gif""style=""height:400px;""></stim_listA>",are kissing each other,
null,"<div style=""font-size:60px;"">+</div>",,html-keyboard-response,164,657144,0.0-15.0-0.9,41853,List1A,white,woman,,,,null,,,,
null,"<img src=""stim_listA/touch2.gif""style=""height:400px;""></stim_listA>",,html-keyboard-response,165,659155,0.0-15.0-1.9,41853,List1A,white,woman,,,,null,,,,
null,are touching each other,,html-keyboard-response,166,661157,0.0-15.0-2.9,41853,List1A,white,woman,,,,null,,,,
8525,,,survey-text,167,669684,0.0-15.0-3.9,41853,List1A,white,woman,,,,,"{""Q0"":""beth and fred are touching each other""}","<img src=""stim_listA/touch2.gif""style=""height:400px;""></stim_listA>",are touching each other,
null,"<div style=""font-size:60px;"">+</div>",,html-keyboard-response,168,670191,0.0-15.0-0.10,41853,List1A,white,woman,,,,null,,,,
null,"<img src=""stim_listA/touch3.gif""style=""height:400px;""></stim_listA>",,html-keyboard-response,169,672201,0.0-15.0-1.10,41853,List1A,white,woman,,,,null,,,,
null,is touching,,html-keyboard-response,170,674211,0.0-15.0-2.10,41853,List1A,white,woman,,,,null,,,,
8661,,,survey-text,171,682873,0.0-15.0-3.10,41853,List1A,white,woman,,,,,"{""Q0"":""dave is touching jane""}","<img src=""stim_listA/touch3.gif""style=""height:400px;""></stim_listA>",is touching,
null,"<div style=""font-size:60px;"">+</div>",,html-keyboard-response,172,683380,0.0-15.0-0.11,41853,List1A,white,woman,,,,null,,,,
null,"<img src=""stim_listA/talk7.gif""style=""height:400px;""></stim_listA>",,html-keyboard-response,173,685390,0.0-15.0-1.11,41853,List1A,white,woman,,,,null,,,,
null,is talking to,,html-keyboard-response,174,687401,0.0-15.0-2.11,41853,List1A,white,woman,,,,null,,,,
5945,,,survey-text,175,693347,0.0-15.0-3.11,41853,List1A,white,woman,,,,,"{""Q0"":""jane is talking to beth""}","<img src=""stim_listA/talk7.gif""style=""height:400px;""></stim_listA>",is talking to,
null,"<div style=""font-size:60px;"">+</div>",,html-keyboard-response,176,693850,0.0-15.0-0.12,41853,List1A,white,woman,,,,null,,,,
null,"<img src=""stim_listA/shout8.gif""style=""height:400px;""></stim_listA>",,html-keyboard-response,177,695860,0.0-15.0-1.12,41853,List1A,white,woman,,,,null,,,,
null,are shouting at each other,,html-keyboard-response,178,697870,0.0-15.0-2.12,41853,List1A,white,woman,,,,null,,,,
9246,,,survey-text,179,707118,0.0-15.0-3.12,41853,List1A,white,woman,,,,,"{""Q0"":""ruth and kate are shouting at each other""}","<img src=""stim_listA/shout8.gif""style=""height:400px;""></stim_listA>",are shouting at each other,
null,"<div style=""font-size:60px;"">+</div>",,html-keyboard-response,180,707620,0.0-15.0-0.13,41853,List1A,white,woman,,,,null,,,,
null,"<img src=""stim_listA/touch4.gif""style=""height:400px;""></stim_listA>",,html-keyboard-response,181,709629,0.0-15.0-1.13,41853,List1A,white,woman,,,,null,,,,
null,are touching each other,,html-keyboard-response,182,711640,0.0-15.0-2.13,41853,List1A,white,woman,,,,null,,,,
7031,,,survey-text,183,718673,0.0-15.0-3.13,41853,List1A,white,woman,,,,,"{""Q0"":""ruth and luke are touching each other""}","<img src=""stim_listA/touch4.gif""style=""height:400px;""></stim_listA>",are touching each other,
null,"<div style=""font-size:60px;"">+</div>",,html-keyboard-response,184,719180,0.0-15.0-0.14,41853,List1A,white,woman,,,,null,,,,
null,"<img src=""stim_listA/dance5.gif""style=""height:400px;""></stim_listA>",,html-keyboard-response,185,721190,0.0-15.0-1.14,41853,List1A,white,woman,,,,null,,,,
null,is dancing with,,html-keyboard-response,186,723200,0.0-15.0-2.14,41853,List1A,white,woman,,,,null,,,,
5055,,,survey-text,187,728256,0.0-15.0-3.14,41853,List1A,white,woman,,,,,"{""Q0"":""fred is dancing with dave""}","<img src=""stim_listA/dance5.gif""style=""height:400px;""></stim_listA>",is dancing with,
null,"<div style=""font-size:60px;"">+</div>",,html-keyboard-response,188,728760,0.0-15.0-0.15,41853,List1A,white,woman,,,,null,,,,
null,"<img src=""stim_listA/marry2.gif""style=""height:400px;""></stim_listA>",,html-keyboard-response,189,730769,0.0-15.0-1.15,41853,List1A,white,woman,,,,null,,,,
null,are marrying each other,,html-keyboard-response,190,732780,0.0-15.0-2.15,41853,List1A,white,woman,,,,null,,,,
7803,,,survey-text,191,740584,0.0-15.0-3.15,41853,List1A,white,woman,,,,,"{""Q0"":""kate and fred are marrying each other""}","<img src=""stim_listA/marry2.gif""style=""height:400px;""></stim_listA>",are marrying each other,
null,"<div style=""font-size:60px;"">+</div>",,html-keyboard-response,192,741090,0.0-15.0-0.16,41853,List1A,white,woman,,,,null,,,,
null,"<img src=""stim_listA/play2.gif""style=""height:400px;""></stim_listA>",,html-keyboard-response,193,743099,0.0-15.0-1.16,41853,List1A,white,woman,,,,null,,,,
null,are playing with each other,,html-keyboard-response,194,745109,0.0-15.0-2.16,41853,List1A,white,woman,,,,null,,,,
7845,,,survey-text,195,752956,0.0-15.0-3.16,41853,List1A,white,woman,,,,,"{""Q0"":""beth and fred are playing with each other""}","<img src=""stim_listA/play2.gif""style=""height:400px;""></stim_listA>",are playing with each other,
null,"<div style=""font-size:60px;"">+</div>",,html-keyboard-response,196,753470,0.0-15.0-0.17,41853,List1A,white,woman,,,,null,,,,
null,"<img src=""stim_listA/marry6.gif""style=""height:400px;""></stim_listA>",,html-keyboard-response,197,755479,0.0-15.0-1.17,41853,List1A,white,woman,,,,null,,,,
null,are marrying each other,,html-keyboard-response,198,757489,0.0-15.0-2.17,41853,List1A,white,woman,,,,null,,,,
9435,,,survey-text,199,766925,0.0-15.0-3.17,41853,List1A,white,woman,,,,,"{""Q0"":""dave and fred are marrying each other""}","<img src=""stim_listA/marry6.gif""style=""height:400px;""></stim_listA>",are marrying each other,
null,"<div style=""font-size:60px;"">+</div>",,html-keyboard-response,200,767431,0.0-15.0-0.18,41853,List1A,white,woman,,,,null,,,,
null,"<img src=""stim_listA/dance1.gif""style=""height:400px;""></stim_listA>",,html-keyboard-response,201,769441,0.0-15.0-1.18,41853,List1A,white,woman,,,,null,,,,
null,is dancing with,,html-keyboard-response,202,771451,0.0-15.0-2.18,41853,List1A,white,woman,,,,null,,,,
5801,,,survey-text,203,777254,0.0-15.0-3.18,41853,List1A,white,woman,,,,,"{""Q0"":""fred is dancing with kate""}","<img src=""stim_listA/dance1.gif""style=""height:400px;""></stim_listA>",is dancing with,
null,"<div style=""font-size:60px;"">+</div>",,html-keyboard-response,204,777761,0.0-15.0-0.19,41853,List1A,white,woman,,,,null,,,,
null,"<img src=""stim_listA/argue2.gif""style=""height:400px;""></stim_listA>",,html-keyboard-response,205,779771,0.0-15.0-1.19,41853,List1A,white,woman,,,,null,,,,
null,are arguing with each other,,html-keyboard-response,206,781774,0.0-15.0-2.19,41853,List1A,white,woman,,,,null,,,,
9932,,,survey-text,207,791707,0.0-15.0-3.19,41853,List1A,white,woman,,,,,"{""Q0"":""fred and kate are arguing with each other""}","<img src=""stim_listA/argue2.gif""style=""height:400px;""></stim_listA>",are arguing with each other,
6911,"<img src='img/portrait_matrix_list1.jpg' style='width:900px;height:500px;''></img><p>If you have memorised all the portraits and names and are ready to start, press Continue.</p><p><strong>Please note: Your memory of these faces will be tested 4 times during this experiment.</strong></p>",0,html-button-response,208,798620,0.0-16.0-0.0,41853,List1A,white,woman,,,,,,,,
2661,"<img src=""portrait/WM1.jpg""style=""height:400px;""></img>",6,html-button-response,209,802287,0.0-16.0-1.0,41853,List1A,white,woman,,TRUE,6,,,,,
null,CORRECT,,html-keyboard-response,210,803804,0.0-16.0-2.0-0.0,41853,List1A,white,woman,,,,null,,,,
2182,"<img src=""portrait/BW2.jpg""style=""height:400px;""></img>",2,html-button-response,211,805990,0.0-16.0-4.0,41853,List1A,white,woman,,TRUE,2,,,,,
null,CORRECT,,html-keyboard-response,212,807504,0.0-16.0-5.0-0.0,41853,List1A,white,woman,,,,null,,,,
3246,"<img src=""portrait/BW1.jpg""style=""height:400px;""></img>",0,html-button-response,213,810751,0.0-16.0-7.0,41853,List1A,white,woman,,TRUE,0,,,,,
null,CORRECT,,html-keyboard-response,214,812271,0.0-16.0-8.0-0.0,41853,List1A,white,woman,,,,null,,,,
2167,"<img src=""portrait/BM2.jpg""style=""height:400px;""></img>",5,html-button-response,215,814440,0.0-16.0-10.0,41853,List1A,white,woman,,TRUE,5,,,,,
null,CORRECT,,html-keyboard-response,216,815952,0.0-16.0-11.0-0.0,41853,List1A,white,woman,,,,null,,,,
2633,"<img src=""portrait/WM2.jpg""style=""height:400px;""></img>",7,html-button-response,217,818587,0.0-16.0-13.0,41853,List1A,white,woman,,TRUE,7,,,,,
null,CORRECT,,html-keyboard-response,218,820104,0.0-16.0-14.0-0.0,41853,List1A,white,woman,,,,null,,,,
1367,"<img src=""portrait/BM1.jpg""style=""height:400px;""></img>",4,html-button-response,219,821473,0.0-16.0-16.0,41853,List1A,white,woman,,TRUE,4,,,,,
null,CORRECT,,html-keyboard-response,220,822989,0.0-16.0-17.0-0.0,41853,List1A,white,woman,,,,null,,,,
4049,"<img src=""portrait/WW2.jpg""style=""height:400px;""></img>",3,html-button-response,221,827040,0.0-16.0-19.0,41853,List1A,white,woman,,TRUE,3,,,,,
null,CORRECT,,html-keyboard-response,222,828550,0.0-16.0-20.0-0.0,41853,List1A,white,woman,,,,null,,,,
1866,"<img src=""portrait/WW1.jpg""style=""height:400px;""></img>",1,html-button-response,223,830419,0.0-16.0-22.0,41853,List1A,white,woman,,TRUE,1,,,,,
null,CORRECT,,html-keyboard-response,224,831933,0.0-16.0-23.0-0.0,41853,List1A,white,woman,,,,null,,,,
1394,<p>You got 8 out of 8 right first time. Press Continue.</p>,0,html-button-response,225,833327,0.0-16.0-25.0,41853,List1A,white,woman,,,,,,,,
null,"<div style=""font-size:60px;"">+</div>",,html-keyboard-response,226,834837,0.0-17.0-0.0,41853,List1A,white,woman,,,,null,,,,
null,"<img src=""stim_listA/touch5.gif""style=""height:400px;""></stim_listA>",,html-keyboard-response,227,836842,0.0-17.0-1.0,41853,List1A,white,woman,,,,null,,,,
null,is touching,,html-keyboard-response,228,838852,0.0-17.0-2.0,41853,List1A,white,woman,,,,null,,,,
5981,,,survey-text,229,844834,0.0-17.0-3.0,41853,List1A,white,woman,,,,,"{""Q0"":""dave is touching mike""}","<img src=""stim_listA/touch5.gif""style=""height:400px;""></stim_listA>",is touching,
null,"<div style=""font-size:60px;"">+</div>",,html-keyboard-response,230,845342,0.0-17.0-0.1,41853,List1A,white,woman,,,,null,,,,
null,"<img src=""stim_listA/kiss3.gif""style=""height:400px;""></stim_listA>",,html-keyboard-response,231,847352,0.0-17.0-1.1,41853,List1A,white,woman,,,,null,,,,
null,is kissing,,html-keyboard-response,232,849362,0.0-17.0-2.1,41853,List1A,white,woman,,,,null,,,,
6206,,,survey-text,233,855570,0.0-17.0-3.1,41853,List1A,white,woman,,,,,"{""Q0"":""luke is kissing ruth""}","<img src=""stim_listA/kiss3.gif""style=""height:400px;""></stim_listA>",is kissing,
null,"<div style=""font-size:60px;"">+</div>",,html-keyboard-response,234,856072,0.0-17.0-0.2,41853,List1A,white,woman,,,,null,,,,
null,"<img src=""stim_listA/play3.gif""style=""height:400px;""></stim_listA>",,html-keyboard-response,235,858082,0.0-17.0-1.2,41853,List1A,white,woman,,,,null,,,,
null,is playing with,,html-keyboard-response,236,860093,0.0-17.0-2.2,41853,List1A,white,woman,,,,null,,,,
5370,,,survey-text,237,865464,0.0-17.0-3.2,41853,List1A,white,woman,,,,,"{""Q0"":""ruth is playing with dave""}","<img src=""stim_listA/play3.gif""style=""height:400px;""></stim_listA>",is playing with,
null,"<div style=""font-size:60px;"">+</div>",,html-keyboard-response,238,865972,0.0-17.0-0.3,41853,List1A,white,woman,,,,null,,,,
null,"<img src=""stim_listA/fight1.gif""style=""height:400px;""></stim_listA>",,html-keyboard-response,239,867982,0.0-17.0-1.3,41853,List1A,white,woman,,,,null,,,,
null,is fighting,,html-keyboard-response,240,869992,0.0-17.0-2.3,41853,List1A,white,woman,,,,null,,,,
5188,,,survey-text,241,875181,0.0-17.0-3.3,41853,List1A,white,woman,,,,,"{""Q0"":""kate is fighting with mike""}","<img src=""stim_listA/fight1.gif""style=""height:400px;""></stim_listA>",is fighting,
null,"<div style=""font-size:60px;"">+</div>",,html-keyboard-response,242,875687,0.0-17.0-0.4,41853,List1A,white,woman,,,,null,,,,
null,"<img src=""stim_listA/talk2.gif""style=""height:400px;""></stim_listA>",,html-keyboard-response,243,877692,0.0-17.0-1.4,41853,List1A,white,woman,,,,null,,,,
null,are talking to each other,,html-keyboard-response,244,879702,0.0-17.0-2.4,41853,List1A,white,woman,,,,null,,,,
11567,,,survey-text,245,891271,0.0-17.0-3.4,41853,List1A,white,woman,,,,,"{""Q0"":""mike and beth are talking to each other""}","<img src=""stim_listA/talk2.gif""style=""height:400px;""></stim_listA>",are talking to each other,
null,"<div style=""font-size:60px;"">+</div>",,html-keyboard-response,246,891782,0.0-17.0-0.5,41853,List1A,white,woman,,,,null,,,,
null,"<img src=""stim_listA/play8.gif""style=""height:400px;""></stim_listA>",,html-keyboard-response,247,893791,0.0-17.0-1.5,41853,List1A,white,woman,,,,null,,,,
null,are playing with each other,,html-keyboard-response,248,895801,0.0-17.0-2.5,41853,List1A,white,woman,,,,null,,,,
9099,,,survey-text,249,904903,0.0-17.0-3.5,41853,List1A,white,woman,,,,,"{""Q0"":""ruth and beth are playing with each other""}","<img src=""stim_listA/play8.gif""style=""height:400px;""></stim_listA>",are playing with each other,
null,"<div style=""font-size:60px;"">+</div>",,html-keyboard-response,250,905412,0.0-17.0-0.6,41853,List1A,white,woman,,,,null,,,,
null,"<img src=""stim_listA/argue4.gif""style=""height:400px;""></stim_listA>",,html-keyboard-response,251,907421,0.0-17.0-1.6,41853,List1A,white,woman,,,,null,,,,
null,are arguing with each other,,html-keyboard-response,252,909432,0.0-17.0-2.6,41853,List1A,white,woman,,,,null,,,,
7046,,,survey-text,253,916478,0.0-17.0-3.6,41853,List1A,white,woman,,,,,"{""Q0"":""jane and luke are arguing with each other""}","<img src=""stim_listA/argue4.gif""style=""height:400px;""></stim_listA>",are arguing with each other,
null,"<div style=""font-size:60px;"">+</div>",,html-keyboard-response,254,916981,0.0-17.0-0.7,41853,List1A,white,woman,,,,null,,,,
null,"<img src=""stim_listA/kiss7.gif""style=""height:400px;""></stim_listA>",,html-keyboard-response,255,918992,0.0-17.0-1.7,41853,List1A,white,woman,,,,null,,,,
null,is kissing,,html-keyboard-response,256,921001,0.0-17.0-2.7,41853,List1A,white,woman,,,,null,,,,
8388,,,survey-text,257,929391,0.0-17.0-3.7,41853,List1A,white,woman,,,,,"{""Q0"":""beth is kissing ruth""}","<img src=""stim_listA/kiss7.gif""style=""height:400px;""></stim_listA>",is kissing,
null,"<div style=""font-size:60px;"">+</div>",,html-keyboard-response,258,929901,0.0-17.0-0.8,41853,List1A,white,woman,,,,null,,,,
null,"<img src=""stim_listA/play4.gif""style=""height:400px;""></stim_listA>",,html-keyboard-response,259,931911,0.0-17.0-1.8,41853,List1A,white,woman,,,,null,,,,
null,are playing with each other,,html-keyboard-response,260,933921,0.0-17.0-2.8,41853,List1A,white,woman,,,,null,,,,
7658,,,survey-text,261,941580,0.0-17.0-3.8,41853,List1A,white,woman,,,,,"{""Q0"":""ruth and luke are playing with each other""}","<img src=""stim_listA/play4.gif""style=""height:400px;""></stim_listA>",are playing with each other,
null,"<div style=""font-size:60px;"">+</div>",,html-keyboard-response,262,942083,0.0-17.0-0.9,41853,List1A,white,woman,,,,null,,,,
null,"<img src=""stim_listA/talk4.gif""style=""height:400px;""></stim_listA>",,html-keyboard-response,263,944092,0.0-17.0-1.9,41853,List1A,white,woman,,,,null,,,,
null,are talking to each other,,html-keyboard-response,264,946103,0.0-17.0-2.9,41853,List1A,white,woman,,,,null,,,,
6979,,,survey-text,265,953083,0.0-17.0-3.9,41853,List1A,white,woman,,,,,"{""Q0"":""ruth and dave are talking to each other""}","<img src=""stim_listA/talk4.gif""style=""height:400px;""></stim_listA>",are talking to each other,
null,"<div style=""font-size:60px;"">+</div>",,html-keyboard-response,266,953592,0.0-17.0-0.10,41853,List1A,white,woman,,,,null,,,,
null,"<img src=""stim_listA/play6.gif""style=""height:400px;""></stim_listA>",,html-keyboard-response,267,955603,0.0-17.0-1.10,41853,List1A,white,woman,,,,null,,,,
null,are playing with each other,,html-keyboard-response,268,957613,0.0-17.0-2.10,41853,List1A,white,woman,,,,null,,,,
6663,,,survey-text,269,964278,0.0-17.0-3.10,41853,List1A,white,woman,,,,,"{""Q0"":""fred and luke are playing with each other""}","<img src=""stim_listA/play6.gif""style=""height:400px;""></stim_listA>",are playing with each other,
null,"<div style=""font-size:60px;"">+</div>",,html-keyboard-response,270,964783,0.0-17.0-0.11,41853,List1A,white,woman,,,,null,,,,
null,"<img src=""stim_listA/talk6.gif""style=""height:400px;""></stim_listA>",,html-keyboard-response,271,966793,0.0-17.0-1.11,41853,List1A,white,woman,,,,null,,,,
null,are talking to each other,,html-keyboard-response,272,968797,0.0-17.0-2.11,41853,List1A,white,woman,,,,null,,,,
6596,,,survey-text,273,975394,0.0-17.0-3.11,41853,List1A,white,woman,,,,,"{""Q0"":""luke and mike are taking to each other""}","<img src=""stim_listA/talk6.gif""style=""height:400px;""></stim_listA>",are talking to each other,
null,"<div style=""font-size:60px;"">+</div>",,html-keyboard-response,274,975902,0.0-17.0-0.12,41853,List1A,white,woman,,,,null,,,,
null,"<img src=""stim_listA/talk3.gif""style=""height:400px;""></stim_listA>",,html-keyboard-response,275,977913,0.0-17.0-1.12,41853,List1A,white,woman,,,,null,,,,
null,is talking to,,html-keyboard-response,276,979922,0.0-17.0-2.12,41853,List1A,white,woman,,,,null,,,,
6528,,,survey-text,277,986452,0.0-17.0-3.12,41853,List1A,white,woman,,,,,"{""Q0"":""luke is talking to jane""}","<img src=""stim_listA/talk3.gif""style=""height:400px;""></stim_listA>",is talking to,
null,"<div style=""font-size:60px;"">+</div>",,html-keyboard-response,278,986962,0.0-17.0-0.13,41853,List1A,white,woman,,,,null,,,,
null,"<img src=""stim_listA/talk8.gif""style=""height:400px;""></stim_listA>",,html-keyboard-response,279,988972,0.0-17.0-1.13,41853,List1A,white,woman,,,,null,,,,
null,are talking to each other,,html-keyboard-response,280,990982,0.0-17.0-2.13,41853,List1A,white,woman,,,,null,,,,
9496,,,survey-text,281,1000480,0.0-17.0-3.13,41853,List1A,white,woman,,,,,"{""Q0"":""ruth and kate are talking to each other""}","<img src=""stim_listA/talk8.gif""style=""height:400px;""></stim_listA>",are talking to each other,
null,"<div style=""font-size:60px;"">+</div>",,html-keyboard-response,282,1000982,0.0-17.0-0.14,41853,List1A,white,woman,,,,null,,,,
null,"<img src=""stim_listA/talk5.gif""style=""height:400px;""></stim_listA>",,html-keyboard-response,283,1002992,0.0-17.0-1.14,41853,List1A,white,woman,,,,null,,,,
null,is talking to,,html-keyboard-response,284,1005002,0.0-17.0-2.14,41853,List1A,white,woman,,,,null,,,,
4888,,,survey-text,285,1009891,0.0-17.0-3.14,41853,List1A,white,woman,,,,,"{""Q0"":""dave is talking to fred""}","<img src=""stim_listA/talk5.gif""style=""height:400px;""></stim_listA>",is talking to,
null,"<div style=""font-size:60px;"">+</div>",,html-keyboard-response,286,1010402,0.0-17.0-0.15,41853,List1A,white,woman,,,,null,,,,
null,"<img src=""stim_listA/argue1.gif""style=""height:400px;""></stim_listA>",,html-keyboard-response,287,1012412,0.0-17.0-1.15,41853,List1A,white,woman,,,,null,,,,
null,is arguing with,,html-keyboard-response,288,1014422,0.0-17.0-2.15,41853,List1A,white,woman,,,,null,,,,
5460,,,survey-text,289,1019883,0.0-17.0-3.15,41853,List1A,white,woman,,,,,"{""Q0"":""mike is arguing with beth""}","<img src=""stim_listA/argue1.gif""style=""height:400px;""></stim_listA>",is arguing with,
null,"<div style=""font-size:60px;"">+</div>",,html-keyboard-response,290,1020393,0.0-17.0-0.16,41853,List1A,white,woman,,,,null,,,,
null,"<img src=""stim_listA/dance7.gif""style=""height:400px;""></stim_listA>",,html-keyboard-response,291,1022402,0.0-17.0-1.16,41853,List1A,white,woman,,,,null,,,,
null,is dancing with,,html-keyboard-response,292,1024412,0.0-17.0-2.16,41853,List1A,white,woman,,,,null,,,,
4950,,,survey-text,293,1029364,0.0-17.0-3.16,41853,List1A,white,woman,,,,,"{""Q0"":""beth is dancing with jane""}","<img src=""stim_listA/dance7.gif""style=""height:400px;""></stim_listA>",is dancing with,
null,"<div style=""font-size:60px;"">+</div>",,html-keyboard-response,294,1029872,0.0-17.0-0.17,41853,List1A,white,woman,,,,null,,,,
null,"<img src=""stim_listA/fight7.gif""style=""height:400px;""></stim_listA>",,html-keyboard-response,295,1031882,0.0-17.0-1.17,41853,List1A,white,woman,,,,null,,,,
null,is fighting,,html-keyboard-response,296,1033889,0.0-17.0-2.17,41853,List1A,white,woman,,,,null,,,,
5029,,,survey-text,297,1038919,0.0-17.0-3.17,41853,List1A,white,woman,,,,,"{""Q0"":""kate is fighting with jane""}","<img src=""stim_listA/fight7.gif""style=""height:400px;""></stim_listA>",is fighting,
null,"<div style=""font-size:60px;"">+</div>",,html-keyboard-response,298,1039422,0.0-17.0-0.18,41853,List1A,white,woman,,,,null,,,,
null,"<img src=""stim_listA/dance6.gif""style=""height:400px;""></stim_listA>",,html-keyboard-response,299,1041431,0.0-17.0-1.18,41853,List1A,white,woman,,,,null,,,,
null,are dancing with each other,,html-keyboard-response,300,1043441,0.0-17.0-2.18,41853,List1A,white,woman,,,,null,,,,
7522,,,survey-text,301,1050965,0.0-17.0-3.18,41853,List1A,white,woman,,,,,"{""Q0"":""fred and luke are dancing with each other""}","<img src=""stim_listA/dance6.gif""style=""height:400px;""></stim_listA>",are dancing with each other,
null,"<div style=""font-size:60px;"">+</div>",,html-keyboard-response,302,1051472,0.0-17.0-0.19,41853,List1A,white,woman,,,,null,,,,
null,"<img src=""stim_listA/play7.gif""style=""height:400px;""></stim_listA>",,html-keyboard-response,303,1053482,0.0-17.0-1.19,41853,List1A,white,woman,,,,null,,,,
null,is playing with,,html-keyboard-response,304,1055491,0.0-17.0-2.19,41853,List1A,white,woman,,,,null,,,,
6794,,,survey-text,305,1062287,0.0-17.0-3.19,41853,List1A,white,woman,,,,,"{""Q0"":""jane is playing with kate""}","<img src=""stim_listA/play7.gif""style=""height:400px;""></stim_listA>",is playing with,
3507,"<img src='img/portrait_matrix_list1.jpg' style='width:900px;height:500px;''></img><p>If you have memorised all the portraits and names and are ready to start, press Continue.</p><p><strong>Please note: Your memory of these faces will be tested 4 times during this experiment.</strong></p>",0,html-button-response,306,1065797,0.0-18.0-0.0,41853,List1A,white,woman,,,,,,,,
2492,"<img src=""portrait/BW2.jpg""style=""height:400px;""></img>",2,html-button-response,307,1069296,0.0-18.0-1.0,41853,List1A,white,woman,,TRUE,2,,,,,
null,CORRECT,,html-keyboard-response,308,1070816,0.0-18.0-2.0-0.0,41853,List1A,white,woman,,,,null,,,,
1386,"<img src=""portrait/BM2.jpg""style=""height:400px;""></img>",5,html-button-response,309,1072204,0.0-18.0-4.0,41853,List1A,white,woman,,TRUE,5,,,,,
null,CORRECT,,html-keyboard-response,310,1073717,0.0-18.0-5.0-0.0,41853,List1A,white,woman,,,,null,,,,
2474,"<img src=""portrait/WW1.jpg""style=""height:400px;""></img>",1,html-button-response,311,1076194,0.0-18.0-7.0,41853,List1A,white,woman,,TRUE,1,,,,,
null,CORRECT,,html-keyboard-response,312,1077709,0.0-18.0-8.0-0.0,41853,List1A,white,woman,,,,null,,,,
2028,"<img src=""portrait/WW2.jpg""style=""height:400px;""></img>",3,html-button-response,313,1079741,0.0-18.0-10.0,41853,List1A,white,woman,,TRUE,3,,,,,
null,CORRECT,,html-keyboard-response,314,1081252,0.0-18.0-11.0-0.0,41853,List1A,white,woman,,,,null,,,,
1662,"<img src=""portrait/WM2.jpg""style=""height:400px;""></img>",7,html-button-response,315,1082916,0.0-18.0-13.0,41853,List1A,white,woman,,TRUE,7,,,,,
null,CORRECT,,html-keyboard-response,316,1084436,0.0-18.0-14.0-0.0,41853,List1A,white,woman,,,,null,,,,
2370,"<img src=""portrait/WM1.jpg""style=""height:400px;""></img>",6,html-button-response,317,1086808,0.0-18.0-16.0,41853,List1A,white,woman,,TRUE,6,,,,,
null,CORRECT,,html-keyboard-response,318,1088327,0.0-18.0-17.0-0.0,41853,List1A,white,woman,,,,null,,,,
3022,"<img src=""portrait/BW1.jpg""style=""height:400px;""></img>",0,html-button-response,319,1091351,0.0-18.0-19.0,41853,List1A,white,woman,,TRUE,0,,,,,
null,CORRECT,,html-keyboard-response,320,1092869,0.0-18.0-20.0-0.0,41853,List1A,white,woman,,,,null,,,,
1568,"<img src=""portrait/BM1.jpg""style=""height:400px;""></img>",4,html-button-response,321,1094440,0.0-18.0-22.0,41853,List1A,white,woman,,TRUE,4,,,,,
null,CORRECT,,html-keyboard-response,322,1095952,0.0-18.0-23.0-0.0,41853,List1A,white,woman,,,,null,,,,
2259,<p>You got 8 out of 8 right first time. Press Continue.</p>,0,html-button-response,323,1098213,0.0-18.0-25.0,41853,List1A,white,woman,,,,,,,,
null,"<div style=""font-size:60px;"">+</div>",,html-keyboard-response,324,1099732,0.0-19.0-0.0,41853,List1A,white,woman,,,,null,,,,
null,"<img src=""stim_listA/kiss2.gif""style=""height:400px;""></stim_listA>",,html-keyboard-response,325,1101742,0.0-19.0-1.0,41853,List1A,white,woman,,,,null,,,,
null,are kissing each other,,html-keyboard-response,326,1103752,0.0-19.0-2.0,41853,List1A,white,woman,,,,null,,,,
7477,,,survey-text,327,1111230,0.0-19.0-3.0,41853,List1A,white,woman,,,,,"{""Q0"":""mike and kate are kissing each other""}","<img src=""stim_listA/kiss2.gif""style=""height:400px;""></stim_listA>",are kissing each other,
null,"<div style=""font-size:60px;"">+</div>",,html-keyboard-response,328,1111742,0.0-19.0-0.1,41853,List1A,white,woman,,,,null,,,,
null,"<img src=""stim_listA/shout5.gif""style=""height:400px;""></stim_listA>",,html-keyboard-response,329,1113752,0.0-19.0-1.1,41853,List1A,white,woman,,,,null,,,,
null,is shouting at,,html-keyboard-response,330,1115762,0.0-19.0-2.1,41853,List1A,white,woman,,,,null,,,,
5370,,,survey-text,331,1121134,0.0-19.0-3.1,41853,List1A,white,woman,,,,,"{""Q0"":""luke is shouting at fred""}","<img src=""stim_listA/shout5.gif""style=""height:400px;""></stim_listA>",is shouting at,
null,"<div style=""font-size:60px;"">+</div>",,html-keyboard-response,332,1121642,0.0-19.0-0.2,41853,List1A,white,woman,,,,null,,,,
null,"<img src=""stim_listA/dance8.gif""style=""height:400px;""></stim_listA>",,html-keyboard-response,333,1123651,0.0-19.0-1.2,41853,List1A,white,woman,,,,null,,,,
null,are dancing with each other,,html-keyboard-response,334,1125662,0.0-19.0-2.2,41853,List1A,white,woman,,,,null,,,,
10854,,,survey-text,335,1136517,0.0-19.0-3.2,41853,List1A,white,woman,,,,,"{""Q0"":""ruth and kate are dancing with each other""}","<img src=""stim_listA/dance8.gif""style=""height:400px;""></stim_listA>",are dancing with each other,
null,"<div style=""font-size:60px;"">+</div>",,html-keyboard-response,336,1137022,0.0-19.0-0.3,41853,List1A,white,woman,,,,null,,,,
null,"<img src=""stim_listA/kiss4.gif""style=""height:400px;""></stim_listA>",,html-keyboard-response,337,1139032,0.0-19.0-1.3,41853,List1A,white,woman,,,,null,,,,
null,are kissing each other,,html-keyboard-response,338,1141041,0.0-19.0-2.3,41853,List1A,white,woman,,,,null,,,,
6761,,,survey-text,339,1147804,0.0-19.0-3.3,41853,List1A,white,woman,,,,,"{""Q0"":""jane and dave are kissing each other""}","<img src=""stim_listA/kiss4.gif""style=""height:400px;""></stim_listA>",are kissing each other,
null,"<div style=""font-size:60px;"">+</div>",,html-keyboard-response,340,1148311,0.0-19.0-0.4,41853,List1A,white,woman,,,,null,,,,
null,"<img src=""stim_listA/flirt5.gif""style=""height:400px;""></stim_listA>",,html-keyboard-response,341,1150322,0.0-19.0-1.4,41853,List1A,white,woman,,,,null,,,,
null,is flirting with,,html-keyboard-response,342,1152331,0.0-19.0-2.4,41853,List1A,white,woman,,,,null,,,,
5399,,,survey-text,343,1157732,0.0-19.0-3.4,41853,List1A,white,woman,,,,,"{""Q0"":""dave is flirting with fred""}","<img src=""stim_listA/flirt5.gif""style=""height:400px;""></stim_listA>",is flirting with,
null,"<div style=""font-size:60px;"">+</div>",,html-keyboard-response,344,1158241,0.0-19.0-0.5,41853,List1A,white,woman,,,,null,,,,
null,"<img src=""stim_listA/shout7.gif""style=""height:400px;""></stim_listA>",,html-keyboard-response,345,1160251,0.0-19.0-1.5,41853,List1A,white,woman,,,,null,,,,
null,is shouting at,,html-keyboard-response,346,1162262,0.0-19.0-2.5,41853,List1A,white,woman,,,,null,,,,
5457,,,survey-text,347,1167720,0.0-19.0-3.5,41853,List1A,white,woman,,,,,"{""Q0"":""beth is shouting at ruth""}","<img src=""stim_listA/shout7.gif""style=""height:400px;""></stim_listA>",is shouting at,
null,"<div style=""font-size:60px;"">+</div>",,html-keyboard-response,348,1168231,0.0-19.0-0.6,41853,List1A,white,woman,,,,null,,,,
null,"<img src=""stim_listA/shout2.gif""style=""height:400px;""></stim_listA>",,html-keyboard-response,349,1170241,0.0-19.0-1.6,41853,List1A,white,woman,,,,null,,,,
null,are shouting at each other,,html-keyboard-response,350,1172251,0.0-19.0-2.6,41853,List1A,white,woman,,,,null,,,,
9002,,,survey-text,351,1181255,0.0-19.0-3.6,41853,List1A,white,woman,,,,,"{""Q0"":""mike and kate are shouting at each other""}","<img src=""stim_listA/shout2.gif""style=""height:400px;""></stim_listA>",are shouting at each other,
null,"<div style=""font-size:60px;"">+</div>",,html-keyboard-response,352,1181761,0.0-19.0-0.7,41853,List1A,white,woman,,,,null,,,,
null,"<img src=""stim_listA/talk1.gif""style=""height:400px;""></stim_listA>",,html-keyboard-response,353,1183771,0.0-19.0-1.7,41853,List1A,white,woman,,,,null,,,,
null,is talking to,,html-keyboard-response,354,1185781,0.0-19.0-2.7,41853,List1A,white,woman,,,,null,,,,
5143,,,survey-text,355,1190925,0.0-19.0-3.7,41853,List1A,white,woman,,,,,"{""Q0"":""kate is talking with fred""}","<img src=""stim_listA/talk1.gif""style=""height:400px;""></stim_listA>",is talking to,
null,"<div style=""font-size:60px;"">+</div>",,html-keyboard-response,356,1191431,0.0-19.0-0.8,41853,List1A,white,woman,,,,null,,,,
null,"<img src=""stim_listA/marry3.gif""style=""height:400px;""></stim_listA>",,html-keyboard-response,357,1193441,0.0-19.0-1.8,41853,List1A,white,woman,,,,null,,,,
null,is marrying,,html-keyboard-response,358,1195448,0.0-19.0-2.8,41853,List1A,white,woman,,,,null,,,,
4439,,,survey-text,359,1199889,0.0-19.0-3.8,41853,List1A,white,woman,,,,,"{""Q0"":""ruth is marrying dave""}","<img src=""stim_listA/marry3.gif""style=""height:400px;""></stim_listA>",is marrying,
null,"<div style=""font-size:60px;"">+</div>",,html-keyboard-response,360,1200391,0.0-19.0-0.9,41853,List1A,white,woman,,,,null,,,,
null,"<img src=""stim_listA/marry7.gif""style=""height:400px;""></stim_listA>",,html-keyboard-response,361,1202401,0.0-19.0-1.9,41853,List1A,white,woman,,,,null,,,,
null,is marrying,,html-keyboard-response,362,1204410,0.0-19.0-2.9,41853,List1A,white,woman,,,,null,,,,
4924,,,survey-text,363,1209337,0.0-19.0-3.9,41853,List1A,white,woman,,,,,"{""Q0"":""ruth is marrying kate""}","<img src=""stim_listA/marry7.gif""style=""height:400px;""></stim_listA>",is marrying,
null,"<div style=""font-size:60px;"">+</div>",,html-keyboard-response,364,1209841,0.0-19.0-0.10,41853,List1A,white,woman,,,,null,,,,
null,"<img src=""stim_listA/fight8.gif""style=""height:400px;""></stim_listA>",,html-keyboard-response,365,1211851,0.0-19.0-1.10,41853,List1A,white,woman,,,,null,,,,
null,are fighting each other,,html-keyboard-response,366,1213861,0.0-19.0-2.10,41853,List1A,white,woman,,,,null,,,,
8882,,,survey-text,367,1222745,0.0-19.0-3.10,41853,List1A,white,woman,,,,,"{""Q0"":""beth is fighting ruth""}","<img src=""stim_listA/fight8.gif""style=""height:400px;""></stim_listA>",are fighting each other,
null,"<div style=""font-size:60px;"">+</div>",,html-keyboard-response,368,1223251,0.0-19.0-0.11,41853,List1A,white,woman,,,,null,,,,
null,"<img src=""stim_listA/dance3.gif""style=""height:400px;""></stim_listA>",,html-keyboard-response,369,1225261,0.0-19.0-1.11,41853,List1A,white,woman,,,,null,,,,
null,is dancing with,,html-keyboard-response,370,1227271,0.0-19.0-2.11,41853,List1A,white,woman,,,,null,,,,
5608,,,survey-text,371,1232880,0.0-19.0-3.11,41853,List1A,white,woman,,,,,"{""Q0"":""jane is dancing with luke""}","<img src=""stim_listA/dance3.gif""style=""height:400px;""></stim_listA>",is dancing with,
null,"<div style=""font-size:60px;"">+</div>",,html-keyboard-response,372,1233390,0.0-19.0-0.12,41853,List1A,white,woman,,,,null,,,,
null,"<img src=""stim_listA/play5.gif""style=""height:400px;""></stim_listA>",,html-keyboard-response,373,1235401,0.0-19.0-1.12,41853,List1A,white,woman,,,,null,,,,
null,is playing with,,html-keyboard-response,374,1237411,0.0-19.0-2.12,41853,List1A,white,woman,,,,null,,,,
5592,,,survey-text,375,1243004,0.0-19.0-3.12,41853,List1A,white,woman,,,,,"{""Q0"":""dave is playing with mike""}","<img src=""stim_listA/play5.gif""style=""height:400px;""></stim_listA>",is playing with,
null,"<div style=""font-size:60px;"">+</div>",,html-keyboard-response,376,1243513,0.0-19.0-0.13,41853,List1A,white,woman,,,,null,,,,
null,"<img src=""stim_listA/touch1.gif""style=""height:400px;""></stim_listA>",,html-keyboard-response,377,1245524,0.0-19.0-1.13,41853,List1A,white,woman,,,,null,,,,
null,is touching,,html-keyboard-response,378,1247533,0.0-19.0-2.13,41853,List1A,white,woman,,,,null,,,,
4462,,,survey-text,379,1251997,0.0-19.0-3.13,41853,List1A,white,woman,,,,,"{""Q0"":""mike is touching kate""}","<img src=""stim_listA/touch1.gif""style=""height:400px;""></stim_listA>",is touching,
null,"<div style=""font-size:60px;"">+</div>",,html-keyboard-response,380,1252503,0.0-19.0-0.14,41853,List1A,white,woman,,,,null,,,,
null,"<img src=""stim_listA/shout4.gif""style=""height:400px;""></stim_listA>",,html-keyboard-response,381,1254513,0.0-19.0-1.14,41853,List1A,white,woman,,,,null,,,,
null,are shouting at each other,,html-keyboard-response,382,1256523,0.0-19.0-2.14,41853,List1A,white,woman,,,,null,,,,
7351,,,survey-text,383,1263875,0.0-19.0-3.14,41853,List1A,white,woman,,,,,"{""Q0"":""dave and jane are shouting at each other""}","<img src=""stim_listA/shout4.gif""style=""height:400px;""></stim_listA>",are shouting at each other,
null,"<div style=""font-size:60px;"">+</div>",,html-keyboard-response,384,1264383,0.0-19.0-0.15,41853,List1A,white,woman,,,,null,,,,
null,"<img src=""stim_listA/argue6.gif""style=""height:400px;""></stim_listA>",,html-keyboard-response,385,1266393,0.0-19.0-1.15,41853,List1A,white,woman,,,,null,,,,
null,are arguing with each other,,html-keyboard-response,386,1268403,0.0-19.0-2.15,41853,List1A,white,woman,,,,null,,,,
9155,,,survey-text,387,1277560,0.0-19.0-3.15,41853,List1A,white,woman,,,,,"{""Q0"":""dave and fred are arguing with each other""}","<img src=""stim_listA/argue6.gif""style=""height:400px;""></stim_listA>",are arguing with each other,
null,"<div style=""font-size:60px;"">+</div>",,html-keyboard-response,388,1278063,0.0-19.0-0.16,41853,List1A,white,woman,,,,null,,,,
null,"<img src=""stim_listA/touch6.gif""style=""height:400px;""></stim_listA>",,html-keyboard-response,389,1280073,0.0-19.0-1.16,41853,List1A,white,woman,,,,null,,,,
null,are touching each other,,html-keyboard-response,390,1282083,0.0-19.0-2.16,41853,List1A,white,woman,,,,null,,,,
8802,,,survey-text,391,1290886,0.0-19.0-3.16,41853,List1A,white,woman,,,,,"{""Q0"":""luke and fred are touching each other""}","<img src=""stim_listA/touch6.gif""style=""height:400px;""></stim_listA>",are touching each other,
null,"<div style=""font-size:60px;"">+</div>",,html-keyboard-response,392,1291393,0.0-19.0-0.17,41853,List1A,white,woman,,,,null,,,,
null,"<img src=""stim_listA/flirt2.gif""style=""height:400px;""></stim_listA>",,html-keyboard-response,393,1293402,0.0-19.0-1.17,41853,List1A,white,woman,,,,null,,,,
null,are flirting with each other,,html-keyboard-response,394,1295413,0.0-19.0-2.17,41853,List1A,white,woman,,,,null,,,,
10694,,,survey-text,395,1306108,0.0-19.0-3.17,41853,List1A,white,woman,,,,,"{""Q0"":""beth and mike are flirting with each other""}","<img src=""stim_listA/flirt2.gif""style=""height:400px;""></stim_listA>",are flirting with each other,
null,"<div style=""font-size:60px;"">+</div>",,html-keyboard-response,396,1306612,0.0-19.0-0.18,41853,List1A,white,woman,,,,null,,,,
null,"<img src=""stim_listA/flirt8.gif""style=""height:400px;""></stim_listA>",,html-keyboard-response,397,1308622,0.0-19.0-1.18,41853,List1A,white,woman,,,,null,,,,
null,are flirting with each other,,html-keyboard-response,398,1310633,0.0-19.0-2.18,41853,List1A,white,woman,,,,null,,,,
7984,,,survey-text,399,1318619,0.0-19.0-3.18,41853,List1A,white,woman,,,,,"{""Q0"":""ruth and kate are flirting with each other""}","<img src=""stim_listA/flirt8.gif""style=""height:400px;""></stim_listA>",are flirting with each other,
null,"<div style=""font-size:60px;"">+</div>",,html-keyboard-response,400,1319125,0.0-19.0-0.19,41853,List1A,white,woman,,,,null,,,,
null,"<img src=""stim_listA/marry4.gif""style=""height:400px;""></stim_listA>",,html-keyboard-response,401,1321135,0.0-19.0-1.19,41853,List1A,white,woman,,,,null,,,,
null,are marrying each other,,html-keyboard-response,402,1323142,0.0-19.0-2.19,41853,List1A,white,woman,,,,null,,,,
6934,,,survey-text,403,1330078,0.0-19.0-3.19,41853,List1A,white,woman,,,,,"{""Q0"":""jane and luke are marrying each other""}","<img src=""stim_listA/marry4.gif""style=""height:400px;""></stim_listA>",are marrying each other,
2932,<p>Thank you for completing that task.</p><p>The final part of this session is a short questionnaire.</p><p>Press Continue.</p>,0,html-button-response,404,1333013,0.0-20.0,41853,List1A,white,woman,,,,,,,,
25348,,,survey-text,405,1359366,0.0-21.0,41853,List1A,white,woman,,,,,"{""Q0"":""38"",""Q1"":""English"",""Q2"":""English"",""Q3"":""UK"",""Q4"":""White british"",""Q5"":""female""}",,,demographics
11847,,,survey-likert,406,1371217,0.0-22.0,41853,List1A,white,woman,,,,,"{""Q0"":4}",,,likert_ESS
8728,,,survey-likert,407,1379950,0.0-23.0,41853,List1A,white,woman,,,,,"{""Q0"":4}",,,likert_NSSAL_Q1
4468,,,survey-likert,408,1384422,0.0-24.0,41853,List1A,white,woman,,,,,"{""Q0"":4}",,,likert_NSSAL_Q2
4823,,,survey-likert,409,1389250,0.0-25.0,41853,List1A,white,woman,,,,,"{""Q0"":4}",,,likert_CGRS_Q1
3400,,,survey-likert,410,1392653,0.0-26.0,41853,List1A,white,woman,,,,,"{""Q0"":4}",,,likert_CGRS_Q2
4050,,,survey-likert,411,1396707,0.0-27.0,41853,List1A,white,woman,,,,,"{""Q0"":4}",,,likert_CGRS_Q3
4555,,,survey-text,412,1401266,0.0-28.0,41853,List1A,white,woman,,,,,"{""Q0"":""ccc""}",,,worker_id
53242,,,external-html,413,1454645,0.0-29.0,41853,List1A,white,woman,debrief.html,,,,,,,
