rt,stimulus,button_pressed,trial_type,trial_index,time_elapsed,internal_node_id,subject,list,ppt_race,ppt_gender,url,first_guess,correct,key_press,responses,image_type,phrase_type,test_part
2105,Welcome to the experiment. Press Continue to begin.,0,html-button-response,0,2115,0.0-0.0,42126,List1B,black,woman,,,,,,,,
25638,,,external-html,1,28795,0.0-1.0,42126,List1B,black,woman,consent.html,,,,,,,
13942,"<p>On the next page, you will see portraits of 8 people and their names.</p><p>Your first task is to take a few minutes to memorise the names of these people.</p><p>You will have to recall their names during the rest of the experiment, so it is</p><p>essential that you try to memorise these people and their names as best as you can.</p><br><p><strong>You will then be tested on your memory of these names and portraits.</strong></p><br><p>The experiment will start after you have completed this memory test.</p><br><p>Ready?</p>",0,html-button-response,2,42739,0.0-2.0,42126,List1B,black,woman,,,,,,,,
150860,"<img src='img/portrait_matrix_list1.jpg' style='width:900px;height:500px;''></img><p>If you have memorised all the portraits and names and are ready to start, press Continue.</p><p><strong>Please note: Your memory of these faces will be tested 4 times during this experiment.</strong></p>",0,html-button-response,3,194604,0.0-3.0-0.0,42126,List1B,black,woman,,,,,,,,
13180,"<img src=""portrait/BW1.jpg""style=""height:400px;""></img>",0,html-button-response,4,208786,0.0-3.0-1.0,42126,List1B,black,woman,,TRUE,0,,,,,
null,CORRECT,,html-keyboard-response,5,210293,0.0-3.0-2.0-0.0,42126,List1B,black,woman,,,,null,,,,
1955,"<img src=""portrait/BM1.jpg""style=""height:400px;""></img>",4,html-button-response,6,212250,0.0-3.0-4.0,42126,List1B,black,woman,,TRUE,4,,,,,
null,CORRECT,,html-keyboard-response,7,213753,0.0-3.0-5.0-0.0,42126,List1B,black,woman,,,,null,,,,
1759,"<img src=""portrait/WW2.jpg""style=""height:400px;""></img>",3,html-button-response,8,215513,0.0-3.0-7.0,42126,List1B,black,woman,,TRUE,3,,,,,
null,CORRECT,,html-keyboard-response,9,217017,0.0-3.0-8.0-0.0,42126,List1B,black,woman,,,,null,,,,
1751,"<img src=""portrait/WM2.jpg""style=""height:400px;""></img>",7,html-button-response,10,218770,0.0-3.0-10.0,42126,List1B,black,woman,,TRUE,7,,,,,
null,CORRECT,,html-keyboard-response,11,220274,0.0-3.0-11.0-0.0,42126,List1B,black,woman,,,,null,,,,
2022,"<img src=""portrait/WM1.jpg""style=""height:400px;""></img>",6,html-button-response,12,222298,0.0-3.0-13.0,42126,List1B,black,woman,,TRUE,6,,,,,
null,CORRECT,,html-keyboard-response,13,223802,0.0-3.0-14.0-0.0,42126,List1B,black,woman,,,,null,,,,
2799,"<img src=""portrait/BW2.jpg""style=""height:400px;""></img>",2,html-button-response,14,226603,0.0-3.0-16.0,42126,List1B,black,woman,,TRUE,2,,,,,
null,CORRECT,,html-keyboard-response,15,228107,0.0-3.0-17.0-0.0,42126,List1B,black,woman,,,,null,,,,
5324,"<img src=""portrait/WW1.jpg""style=""height:400px;""></img>",1,html-button-response,16,233433,0.0-3.0-19.0,42126,List1B,black,woman,,TRUE,1,,,,,
null,CORRECT,,html-keyboard-response,17,234937,0.0-3.0-20.0-0.0,42126,List1B,black,woman,,,,null,,,,
10430,"<img src=""portrait/BM2.jpg""style=""height:400px;""></img>",5,html-button-response,18,245369,0.0-3.0-22.0,42126,List1B,black,woman,,TRUE,5,,,,,
null,CORRECT,,html-keyboard-response,19,246873,0.0-3.0-23.0-0.0,42126,List1B,black,woman,,,,null,,,,
1709,<p>You got 8 out of 8 right first time. Press Continue.</p>,0,html-button-response,20,248585,0.0-3.0-25.0,42126,List1B,black,woman,,,,,,,,
20163,"<p>In this experiment, you will view photographs of the people from the memory game interacting.</p><p>By using the <strong>exact</strong> phrase given <i>after</i> the photograph appears and recalling the correct names of the people in the photographs, form a sentence describing the interaction. You do not need to capitalise names.</p><p>Type your answer in the space provided. Please complete every sentence before moving onto the next trial.</p><p>You will only have a few seconds to memorise each given photograph and phrase before you can respond, so try your best to focus.</p><p>An example is given below. Press 'Continue' when you are ready.</p><img src='img/speaking_example.jpg' style='width:800px;height:460px;''></img>",0,html-button-response,21,269753,0.0-4.0,42126,List1B,black,woman,,,,,,,,
2606,"<p>Before the experiment starts, you will watch two example trials. Press 'Continue'.</p>",0,html-button-response,22,273361,0.0-5.0,42126,List1B,black,woman,,,,,,,,
null,<img src='img/meet_eg.gif' style='height:400px;''></img>,,html-keyboard-response,23,276366,0.0-6.0,42126,List1B,black,woman,,,,null,,,,
null,<p>is meeting</p>,,html-keyboard-response,24,278376,0.0-7.0,42126,List1B,black,woman,,,,null,,,,
1959,<p><b>Answer:</b> kate is meeting beth</p>,0,html-button-response,25,280337,0.0-8.0,42126,List1B,black,woman,,,,,,,,
null,<img src='img/look_eg.gif' style='height:400px;''></img>,,html-keyboard-response,26,283341,0.0-9.0,42126,List1B,black,woman,,,,null,,,,
null,<p>are looking at each other</p>,,html-keyboard-response,27,285343,0.0-10.0,42126,List1B,black,woman,,,,null,,,,
3321,<p><b>Answer:</b> luke and dave are looking at each other</p>,0,html-button-response,28,288665,0.0-11.0,42126,List1B,black,woman,,,,,,,,
5941,"<p>Ready to start the experiment?</p><br><p><strong>Remember to describe the picture using a full sentence,</strong></p><p><strong>that combines the names of the people with the <i>exact</i> phrase given.</strong></p><p><strong>To receive full payment you must do this correctly.</strong></p><p><strong> You do not need to capitalise names or use punctuation.</strong></p><br><p>Press 'Continue' to begin.</p>",0,html-button-response,29,295609,0.0-12.0,42126,List1B,black,woman,,,,,,,,
null,"<div style=""font-size:60px;"">+</div>",,html-keyboard-response,30,297114,0.0-13.0-0.0,42126,List1B,black,woman,,,,null,,,,
null,"<img src=""stim_listB/kiss1.gif""style=""height:400px;""></stim_listB>",,html-keyboard-response,31,299118,0.0-13.0-1.0,42126,List1B,black,woman,,,,null,,,,
null,is kissing,,html-keyboard-response,32,301120,0.0-13.0-2.0,42126,List1B,black,woman,,,,null,,,,
8455,,,survey-text,33,309577,0.0-13.0-3.0,42126,List1B,black,woman,,,,,"{""Q0"":""fred is kissing beth ""}","<img src=""stim_listB/kiss1.gif""style=""height:400px;""></stim_listB>",is kissing,
null,"<div style=""font-size:60px;"">+</div>",,html-keyboard-response,34,310080,0.0-13.0-0.1,42126,List1B,black,woman,,,,null,,,,
null,"<img src=""stim_listB/flirt6.gif""style=""height:400px;""></stim_listB>",,html-keyboard-response,35,312083,0.0-13.0-1.1,42126,List1B,black,woman,,,,null,,,,
null,are flirting with each other,,html-keyboard-response,36,314085,0.0-13.0-2.1,42126,List1B,black,woman,,,,null,,,,
11963,,,survey-text,37,326050,0.0-13.0-3.1,42126,List1B,black,woman,,,,,"{""Q0"":""luke and mike are flirting with each other ""}","<img src=""stim_listB/flirt6.gif""style=""height:400px;""></stim_listB>",are flirting with each other,
null,"<div style=""font-size:60px;"">+</div>",,html-keyboard-response,38,326552,0.0-13.0-0.2,42126,List1B,black,woman,,,,null,,,,
null,"<img src=""stim_listB/marry4.gif""style=""height:400px;""></stim_listB>",,html-keyboard-response,39,328555,0.0-13.0-1.2,42126,List1B,black,woman,,,,null,,,,
null,are marrying each other,,html-keyboard-response,40,330557,0.0-13.0-2.2,42126,List1B,black,woman,,,,null,,,,
11170,,,survey-text,41,341729,0.0-13.0-3.2,42126,List1B,black,woman,,,,,"{""Q0"":""jane and luke are marrying each other ""}","<img src=""stim_listB/marry4.gif""style=""height:400px;""></stim_listB>",are marrying each other,
null,"<div style=""font-size:60px;"">+</div>",,html-keyboard-response,42,342231,0.0-13.0-0.3,42126,List1B,black,woman,,,,null,,,,
null,"<img src=""stim_listB/talk2.gif""style=""height:400px;""></stim_listB>",,html-keyboard-response,43,344234,0.0-13.0-1.3,42126,List1B,black,woman,,,,null,,,,
null,are talking to each other,,html-keyboard-response,44,346237,0.0-13.0-2.3,42126,List1B,black,woman,,,,null,,,,
6435,,,survey-text,45,352673,0.0-13.0-3.3,42126,List1B,black,woman,,,,,"{""Q0"":""mike and beth are talking to each other""}","<img src=""stim_listB/talk2.gif""style=""height:400px;""></stim_listB>",are talking to each other,
null,"<div style=""font-size:60px;"">+</div>",,html-keyboard-response,46,353175,0.0-13.0-0.4,42126,List1B,black,woman,,,,null,,,,
null,"<img src=""stim_listB/talk5.gif""style=""height:400px;""></stim_listB>",,html-keyboard-response,47,355178,0.0-13.0-1.4,42126,List1B,black,woman,,,,null,,,,
null,is talking to,,html-keyboard-response,48,357180,0.0-13.0-2.4,42126,List1B,black,woman,,,,null,,,,
7764,,,survey-text,49,364945,0.0-13.0-3.4,42126,List1B,black,woman,,,,,"{""Q0"":""Fred is talking to Dave ""}","<img src=""stim_listB/talk5.gif""style=""height:400px;""></stim_listB>",is talking to,
null,"<div style=""font-size:60px;"">+</div>",,html-keyboard-response,50,365447,0.0-13.0-0.5,42126,List1B,black,woman,,,,null,,,,
null,"<img src=""stim_listB/kiss3.gif""style=""height:400px;""></stim_listB>",,html-keyboard-response,51,367452,0.0-13.0-1.5,42126,List1B,black,woman,,,,null,,,,
null,is kissing,,html-keyboard-response,52,369455,0.0-13.0-2.5,42126,List1B,black,woman,,,,null,,,,
5305,,,survey-text,53,374761,0.0-13.0-3.5,42126,List1B,black,woman,,,,,"{""Q0"":""Luke is kissing Ruth ""}","<img src=""stim_listB/kiss3.gif""style=""height:400px;""></stim_listB>",is kissing,
null,"<div style=""font-size:60px;"">+</div>",,html-keyboard-response,54,375264,0.0-13.0-0.6,42126,List1B,black,woman,,,,null,,,,
null,"<img src=""stim_listB/play4.gif""style=""height:400px;""></stim_listB>",,html-keyboard-response,55,377268,0.0-13.0-1.6,42126,List1B,black,woman,,,,null,,,,
null,are playing with each other,,html-keyboard-response,56,379270,0.0-13.0-2.6,42126,List1B,black,woman,,,,null,,,,
16401,,,survey-text,57,395673,0.0-13.0-3.6,42126,List1B,black,woman,,,,,"{""Q0"":""Luke and Ruth are playing with each other ""}","<img src=""stim_listB/play4.gif""style=""height:400px;""></stim_listB>",are playing with each other,
null,"<div style=""font-size:60px;"">+</div>",,html-keyboard-response,58,396175,0.0-13.0-0.7,42126,List1B,black,woman,,,,null,,,,
null,"<img src=""stim_listB/fight2.gif""style=""height:400px;""></stim_listB>",,html-keyboard-response,59,398178,0.0-13.0-1.7,42126,List1B,black,woman,,,,null,,,,
null,are fighting each other,,html-keyboard-response,60,400180,0.0-13.0-2.7,42126,List1B,black,woman,,,,null,,,,
9363,,,survey-text,61,409545,0.0-13.0-3.7,42126,List1B,black,woman,,,,,"{""Q0"":""Fred and Beth are fighting each other ""}","<img src=""stim_listB/fight2.gif""style=""height:400px;""></stim_listB>",are fighting each other,
null,"<div style=""font-size:60px;"">+</div>",,html-keyboard-response,62,410047,0.0-13.0-0.8,42126,List1B,black,woman,,,,null,,,,
null,"<img src=""stim_listB/argue6.gif""style=""height:400px;""></stim_listB>",,html-keyboard-response,63,412052,0.0-13.0-1.8,42126,List1B,black,woman,,,,null,,,,
null,are arguing with each other,,html-keyboard-response,64,414055,0.0-13.0-2.8,42126,List1B,black,woman,,,,null,,,,
14009,,,survey-text,65,428066,0.0-13.0-3.8,42126,List1B,black,woman,,,,,"{""Q0"":""Fred and Dave are arguing with each other ""}","<img src=""stim_listB/argue6.gif""style=""height:400px;""></stim_listB>",are arguing with each other,
null,"<div style=""font-size:60px;"">+</div>",,html-keyboard-response,66,428570,0.0-13.0-0.9,42126,List1B,black,woman,,,,null,,,,
null,"<img src=""stim_listB/argue7.gif""style=""height:400px;""></stim_listB>",,html-keyboard-response,67,430572,0.0-13.0-1.9,42126,List1B,black,woman,,,,null,,,,
null,is arguing with,,html-keyboard-response,68,432574,0.0-13.0-2.9,42126,List1B,black,woman,,,,null,,,,
7098,,,survey-text,69,439673,0.0-13.0-3.9,42126,List1B,black,woman,,,,,"{""Q0"":""ruth is arguing with kate ""}","<img src=""stim_listB/argue7.gif""style=""height:400px;""></stim_listB>",is arguing with,
null,"<div style=""font-size:60px;"">+</div>",,html-keyboard-response,70,440175,0.0-13.0-0.10,42126,List1B,black,woman,,,,null,,,,
null,"<img src=""stim_listB/play7.gif""style=""height:400px;""></stim_listB>",,html-keyboard-response,71,442176,0.0-13.0-1.10,42126,List1B,black,woman,,,,null,,,,
null,is playing with,,html-keyboard-response,72,444178,0.0-13.0-2.10,42126,List1B,black,woman,,,,null,,,,
5118,,,survey-text,73,449297,0.0-13.0-3.10,42126,List1B,black,woman,,,,,"{""Q0"":""jane is playing with kate ""}","<img src=""stim_listB/play7.gif""style=""height:400px;""></stim_listB>",is playing with,
null,"<div style=""font-size:60px;"">+</div>",,html-keyboard-response,74,449800,0.0-13.0-0.11,42126,List1B,black,woman,,,,null,,,,
null,"<img src=""stim_listB/touch8.gif""style=""height:400px;""></stim_listB>",,html-keyboard-response,75,451804,0.0-13.0-1.11,42126,List1B,black,woman,,,,null,,,,
null,are touching each other,,html-keyboard-response,76,453805,0.0-13.0-2.11,42126,List1B,black,woman,,,,null,,,,
7465,,,survey-text,77,461273,0.0-13.0-3.11,42126,List1B,black,woman,,,,,"{""Q0"":""beth and ruth are touching each other""}","<img src=""stim_listB/touch8.gif""style=""height:400px;""></stim_listB>",are touching each other,
null,"<div style=""font-size:60px;"">+</div>",,html-keyboard-response,78,461774,0.0-13.0-0.12,42126,List1B,black,woman,,,,null,,,,
null,"<img src=""stim_listB/flirt1.gif""style=""height:400px;""></stim_listB>",,html-keyboard-response,79,463777,0.0-13.0-1.12,42126,List1B,black,woman,,,,null,,,,
null,is flirting with,,html-keyboard-response,80,465779,0.0-13.0-2.12,42126,List1B,black,woman,,,,null,,,,
6253,,,survey-text,81,472033,0.0-13.0-3.12,42126,List1B,black,woman,,,,,"{""Q0"":""kate is flirting with fred ""}","<img src=""stim_listB/flirt1.gif""style=""height:400px;""></stim_listB>",is flirting with,
null,"<div style=""font-size:60px;"">+</div>",,html-keyboard-response,82,472535,0.0-13.0-0.13,42126,List1B,black,woman,,,,null,,,,
null,"<img src=""stim_listB/kiss8.gif""style=""height:400px;""></stim_listB>",,html-keyboard-response,83,474539,0.0-13.0-1.13,42126,List1B,black,woman,,,,null,,,,
null,are kissing each other,,html-keyboard-response,84,476540,0.0-13.0-2.13,42126,List1B,black,woman,,,,null,,,,
7932,,,survey-text,85,484473,0.0-13.0-3.13,42126,List1B,black,woman,,,,,"{""Q0"":""kate and jane are kissing each other""}","<img src=""stim_listB/kiss8.gif""style=""height:400px;""></stim_listB>",are kissing each other,
null,"<div style=""font-size:60px;"">+</div>",,html-keyboard-response,86,484976,0.0-13.0-0.14,42126,List1B,black,woman,,,,null,,,,
null,"<img src=""stim_listB/shout7.gif""style=""height:400px;""></stim_listB>",,html-keyboard-response,87,486979,0.0-13.0-1.14,42126,List1B,black,woman,,,,null,,,,
null,is shouting at,,html-keyboard-response,88,488981,0.0-13.0-2.14,42126,List1B,black,woman,,,,null,,,,
6466,,,survey-text,89,495449,0.0-13.0-3.14,42126,List1B,black,woman,,,,,"{""Q0"":""beth is shouting at ruth ""}","<img src=""stim_listB/shout7.gif""style=""height:400px;""></stim_listB>",is shouting at,
null,"<div style=""font-size:60px;"">+</div>",,html-keyboard-response,90,495951,0.0-13.0-0.15,42126,List1B,black,woman,,,,null,,,,
null,"<img src=""stim_listB/flirt4.gif""style=""height:400px;""></stim_listB>",,html-keyboard-response,91,497954,0.0-13.0-1.15,42126,List1B,black,woman,,,,null,,,,
null,are flirting with each other,,html-keyboard-response,92,499957,0.0-13.0-2.15,42126,List1B,black,woman,,,,null,,,,
7763,,,survey-text,93,507721,0.0-13.0-3.15,42126,List1B,black,woman,,,,,"{""Q0"":""dave and ruth are flirting with each other ""}","<img src=""stim_listB/flirt4.gif""style=""height:400px;""></stim_listB>",are flirting with each other,
null,"<div style=""font-size:60px;"">+</div>",,html-keyboard-response,94,508223,0.0-13.0-0.16,42126,List1B,black,woman,,,,null,,,,
null,"<img src=""stim_listB/fight8.gif""style=""height:400px;""></stim_listB>",,html-keyboard-response,95,510228,0.0-13.0-1.16,42126,List1B,black,woman,,,,null,,,,
null,are fighting each other,,html-keyboard-response,96,512231,0.0-13.0-2.16,42126,List1B,black,woman,,,,null,,,,
7872,,,survey-text,97,520105,0.0-13.0-3.16,42126,List1B,black,woman,,,,,"{""Q0"":""beth and ruth are fighting each other""}","<img src=""stim_listB/fight8.gif""style=""height:400px;""></stim_listB>",are fighting each other,
null,"<div style=""font-size:60px;"">+</div>",,html-keyboard-response,98,520607,0.0-13.0-0.17,42126,List1B,black,woman,,,,null,,,,
null,"<img src=""stim_listB/marry2.gif""style=""height:400px;""></stim_listB>",,html-keyboard-response,99,522611,0.0-13.0-1.17,42126,List1B,black,woman,,,,null,,,,
null,are marrying each other,,html-keyboard-response,100,524613,0.0-13.0-2.17,42126,List1B,black,woman,,,,null,,,,
6451,,,survey-text,101,531065,0.0-13.0-3.17,42126,List1B,black,woman,,,,,"{""Q0"":""fred and kate are marrying each other""}","<img src=""stim_listB/marry2.gif""style=""height:400px;""></stim_listB>",are marrying each other,
null,"<div style=""font-size:60px;"">+</div>",,html-keyboard-response,102,531567,0.0-13.0-0.18,42126,List1B,black,woman,,,,null,,,,
null,"<img src=""stim_listB/kiss6.gif""style=""height:400px;""></stim_listB>",,html-keyboard-response,103,533570,0.0-13.0-1.18,42126,List1B,black,woman,,,,null,,,,
null,are kissing each other,,html-keyboard-response,104,535572,0.0-13.0-2.18,42126,List1B,black,woman,,,,null,,,,
8125,,,survey-text,105,543698,0.0-13.0-3.18,42126,List1B,black,woman,,,,,"{""Q0"":""dave and mike are kissing each other ""}","<img src=""stim_listB/kiss6.gif""style=""height:400px;""></stim_listB>",are kissing each other,
null,"<div style=""font-size:60px;"">+</div>",,html-keyboard-response,106,544201,0.0-13.0-0.19,42126,List1B,black,woman,,,,null,,,,
null,"<img src=""stim_listB/flirt7.gif""style=""height:400px;""></stim_listB>",,html-keyboard-response,107,546204,0.0-13.0-1.19,42126,List1B,black,woman,,,,null,,,,
null,is flirting with,,html-keyboard-response,108,548206,0.0-13.0-2.19,42126,List1B,black,woman,,,,null,,,,
6561,,,survey-text,109,554769,0.0-13.0-3.19,42126,List1B,black,woman,,,,,"{""Q0"":""jane is flirting with beth ""}","<img src=""stim_listB/flirt7.gif""style=""height:400px;""></stim_listB>",is flirting with,
10262,"<img src='img/portrait_matrix_list1.jpg' style='width:900px;height:500px;''></img><p>If you have memorised all the portraits and names and are ready to start, press Continue.</p><p><strong>Please note: Your memory of these faces will be tested 4 times during this experiment.</strong></p>",0,html-button-response,110,565033,0.0-14.0-0.0,42126,List1B,black,woman,,,,,,,,
3222,"<img src=""portrait/WW1.jpg""style=""height:400px;""></img>",1,html-button-response,111,569256,0.0-14.0-1.0,42126,List1B,black,woman,,TRUE,1,,,,,
null,CORRECT,,html-keyboard-response,112,570759,0.0-14.0-2.0-0.0,42126,List1B,black,woman,,,,null,,,,
1360,"<img src=""portrait/BM1.jpg""style=""height:400px;""></img>",4,html-button-response,113,572121,0.0-14.0-4.0,42126,List1B,black,woman,,TRUE,4,,,,,
null,CORRECT,,html-keyboard-response,114,573626,0.0-14.0-5.0-0.0,42126,List1B,black,woman,,,,null,,,,
1212,"<img src=""portrait/BW2.jpg""style=""height:400px;""></img>",2,html-button-response,115,574841,0.0-14.0-7.0,42126,List1B,black,woman,,TRUE,2,,,,,
null,CORRECT,,html-keyboard-response,116,576346,0.0-14.0-8.0-0.0,42126,List1B,black,woman,,,,null,,,,
1981,"<img src=""portrait/WW2.jpg""style=""height:400px;""></img>",3,html-button-response,117,578329,0.0-14.0-10.0,42126,List1B,black,woman,,TRUE,3,,,,,
null,CORRECT,,html-keyboard-response,118,579833,0.0-14.0-11.0-0.0,42126,List1B,black,woman,,,,null,,,,
1709,"<img src=""portrait/WM1.jpg""style=""height:400px;""></img>",6,html-button-response,119,581545,0.0-14.0-13.0,42126,List1B,black,woman,,TRUE,6,,,,,
null,CORRECT,,html-keyboard-response,120,583048,0.0-14.0-14.0-0.0,42126,List1B,black,woman,,,,null,,,,
1360,"<img src=""portrait/BM2.jpg""style=""height:400px;""></img>",5,html-button-response,121,584410,0.0-14.0-16.0,42126,List1B,black,woman,,TRUE,5,,,,,
null,CORRECT,,html-keyboard-response,122,585913,0.0-14.0-17.0-0.0,42126,List1B,black,woman,,,,null,,,,
991,"<img src=""portrait/WM2.jpg""style=""height:400px;""></img>",7,html-button-response,123,586905,0.0-14.0-19.0,42126,List1B,black,woman,,TRUE,7,,,,,
null,CORRECT,,html-keyboard-response,124,588410,0.0-14.0-20.0-0.0,42126,List1B,black,woman,,,,null,,,,
1149,"<img src=""portrait/BW1.jpg""style=""height:400px;""></img>",0,html-button-response,125,589561,0.0-14.0-22.0,42126,List1B,black,woman,,TRUE,0,,,,,
null,CORRECT,,html-keyboard-response,126,591066,0.0-14.0-23.0-0.0,42126,List1B,black,woman,,,,null,,,,
1524,<p>You got 8 out of 8 right first time. Press Continue.</p>,0,html-button-response,127,592593,0.0-14.0-25.0,42126,List1B,black,woman,,,,,,,,
null,"<div style=""font-size:60px;"">+</div>",,html-keyboard-response,128,594097,0.0-15.0-0.0,42126,List1B,black,woman,,,,null,,,,
null,"<img src=""stim_listB/shout4.gif""style=""height:400px;""></stim_listB>",,html-keyboard-response,129,596101,0.0-15.0-1.0,42126,List1B,black,woman,,,,null,,,,
null,are shouting at each other,,html-keyboard-response,130,598103,0.0-15.0-2.0,42126,List1B,black,woman,,,,null,,,,
6056,,,survey-text,131,604160,0.0-15.0-3.0,42126,List1B,black,woman,,,,,"{""Q0"":""dave and jane are shouting at each other""}","<img src=""stim_listB/shout4.gif""style=""height:400px;""></stim_listB>",are shouting at each other,
null,"<div style=""font-size:60px;"">+</div>",,html-keyboard-response,132,604663,0.0-15.0-0.1,42126,List1B,black,woman,,,,null,,,,
null,"<img src=""stim_listB/play6.gif""style=""height:400px;""></stim_listB>",,html-keyboard-response,133,606668,0.0-15.0-1.1,42126,List1B,black,woman,,,,null,,,,
null,are playing with each other,,html-keyboard-response,134,608671,0.0-15.0-2.1,42126,List1B,black,woman,,,,null,,,,
6440,,,survey-text,135,615113,0.0-15.0-3.1,42126,List1B,black,woman,,,,,"{""Q0"":""fred and luke are playing with each other""}","<img src=""stim_listB/play6.gif""style=""height:400px;""></stim_listB>",are playing with each other,
null,"<div style=""font-size:60px;"">+</div>",,html-keyboard-response,136,615616,0.0-15.0-0.2,42126,List1B,black,woman,,,,null,,,,
null,"<img src=""stim_listB/dance7.gif""style=""height:400px;""></stim_listB>",,html-keyboard-response,137,617620,0.0-15.0-1.2,42126,List1B,black,woman,,,,null,,,,
null,is dancing with,,html-keyboard-response,138,619622,0.0-15.0-2.2,42126,List1B,black,woman,,,,null,,,,
5432,,,survey-text,139,625057,0.0-15.0-3.2,42126,List1B,black,woman,,,,,"{""Q0"":""jane is dancing with beth""}","<img src=""stim_listB/dance7.gif""style=""height:400px;""></stim_listB>",is dancing with,
null,"<div style=""font-size:60px;"">+</div>",,html-keyboard-response,140,625558,0.0-15.0-0.3,42126,List1B,black,woman,,,,null,,,,
null,"<img src=""stim_listB/marry7.gif""style=""height:400px;""></stim_listB>",,html-keyboard-response,141,627562,0.0-15.0-1.3,42126,List1B,black,woman,,,,null,,,,
null,is marrying,,html-keyboard-response,142,629566,0.0-15.0-2.3,42126,List1B,black,woman,,,,null,,,,
6353,,,survey-text,143,635921,0.0-15.0-3.3,42126,List1B,black,woman,,,,,"{""Q0"":""ruth is marrying kate""}","<img src=""stim_listB/marry7.gif""style=""height:400px;""></stim_listB>",is marrying,
null,"<div style=""font-size:60px;"">+</div>",,html-keyboard-response,144,636422,0.0-15.0-0.4,42126,List1B,black,woman,,,,null,,,,
null,"<img src=""stim_listB/touch7.gif""style=""height:400px;""></stim_listB>",,html-keyboard-response,145,638423,0.0-15.0-1.4,42126,List1B,black,woman,,,,null,,,,
null,is touching,,html-keyboard-response,146,640424,0.0-15.0-2.4,42126,List1B,black,woman,,,,null,,,,
4415,,,survey-text,147,644841,0.0-15.0-3.4,42126,List1B,black,woman,,,,,"{""Q0"":""jane is touching kate""}","<img src=""stim_listB/touch7.gif""style=""height:400px;""></stim_listB>",is touching,
null,"<div style=""font-size:60px;"">+</div>",,html-keyboard-response,148,645342,0.0-15.0-0.5,42126,List1B,black,woman,,,,null,,,,
null,"<img src=""stim_listB/marry5.gif""style=""height:400px;""></stim_listB>",,html-keyboard-response,149,647347,0.0-15.0-1.5,42126,List1B,black,woman,,,,null,,,,
null,is marrying,,html-keyboard-response,150,649349,0.0-15.0-2.5,42126,List1B,black,woman,,,,null,,,,
4786,,,survey-text,151,654137,0.0-15.0-3.5,42126,List1B,black,woman,,,,,"{""Q0"":""luke is marrying mike""}","<img src=""stim_listB/marry5.gif""style=""height:400px;""></stim_listB>",is marrying,
null,"<div style=""font-size:60px;"">+</div>",,html-keyboard-response,152,654638,0.0-15.0-0.6,42126,List1B,black,woman,,,,null,,,,
null,"<img src=""stim_listB/argue4.gif""style=""height:400px;""></stim_listB>",,html-keyboard-response,153,656642,0.0-15.0-1.6,42126,List1B,black,woman,,,,null,,,,
null,are arguing with each other,,html-keyboard-response,154,658644,0.0-15.0-2.6,42126,List1B,black,woman,,,,null,,,,
6347,,,survey-text,155,664993,0.0-15.0-3.6,42126,List1B,black,woman,,,,,"{""Q0"":""luke and jane are arguing with each other""}","<img src=""stim_listB/argue4.gif""style=""height:400px;""></stim_listB>",are arguing with each other,
null,"<div style=""font-size:60px;"">+</div>",,html-keyboard-response,156,665495,0.0-15.0-0.7,42126,List1B,black,woman,,,,null,,,,
null,"<img src=""stim_listB/dance1.gif""style=""height:400px;""></stim_listB>",,html-keyboard-response,157,667498,0.0-15.0-1.7,42126,List1B,black,woman,,,,null,,,,
null,is dancing with,,html-keyboard-response,158,669499,0.0-15.0-2.7,42126,List1B,black,woman,,,,null,,,,
5324,,,survey-text,159,674825,0.0-15.0-3.7,42126,List1B,black,woman,,,,,"{""Q0"":""kate is dancing with fred ""}","<img src=""stim_listB/dance1.gif""style=""height:400px;""></stim_listB>",is dancing with,
null,"<div style=""font-size:60px;"">+</div>",,html-keyboard-response,160,675327,0.0-15.0-0.8,42126,List1B,black,woman,,,,null,,,,
null,"<img src=""stim_listB/kiss2.gif""style=""height:400px;""></stim_listB>",,html-keyboard-response,161,677331,0.0-15.0-1.8,42126,List1B,black,woman,,,,null,,,,
null,are kissing each other,,html-keyboard-response,162,679333,0.0-15.0-2.8,42126,List1B,black,woman,,,,null,,,,
6946,,,survey-text,163,686281,0.0-15.0-3.8,42126,List1B,black,woman,,,,,"{""Q0"":""mike and kate are kissing each other ""}","<img src=""stim_listB/kiss2.gif""style=""height:400px;""></stim_listB>",are kissing each other,
null,"<div style=""font-size:60px;"">+</div>",,html-keyboard-response,164,686784,0.0-15.0-0.9,42126,List1B,black,woman,,,,null,,,,
null,"<img src=""stim_listB/fight7.gif""style=""height:400px;""></stim_listB>",,html-keyboard-response,165,688787,0.0-15.0-1.9,42126,List1B,black,woman,,,,null,,,,
null,is fighting,,html-keyboard-response,166,690789,0.0-15.0-2.9,42126,List1B,black,woman,,,,null,,,,
5050,,,survey-text,167,695841,0.0-15.0-3.9,42126,List1B,black,woman,,,,,"{""Q0"":""jane is fighting kate""}","<img src=""stim_listB/fight7.gif""style=""height:400px;""></stim_listB>",is fighting,
null,"<div style=""font-size:60px;"">+</div>",,html-keyboard-response,168,696343,0.0-15.0-0.10,42126,List1B,black,woman,,,,null,,,,
null,"<img src=""stim_listB/shout2.gif""style=""height:400px;""></stim_listB>",,html-keyboard-response,169,698347,0.0-15.0-1.10,42126,List1B,black,woman,,,,null,,,,
null,are shouting at each other,,html-keyboard-response,170,700350,0.0-15.0-2.10,42126,List1B,black,woman,,,,null,,,,
6377,,,survey-text,171,706729,0.0-15.0-3.10,42126,List1B,black,woman,,,,,"{""Q0"":""mike and kate are shouting at each other""}","<img src=""stim_listB/shout2.gif""style=""height:400px;""></stim_listB>",are shouting at each other,
null,"<div style=""font-size:60px;"">+</div>",,html-keyboard-response,172,707231,0.0-15.0-0.11,42126,List1B,black,woman,,,,null,,,,
null,"<img src=""stim_listB/touch2.gif""style=""height:400px;""></stim_listB>",,html-keyboard-response,173,709233,0.0-15.0-1.11,42126,List1B,black,woman,,,,null,,,,
null,are touching each other,,html-keyboard-response,174,711236,0.0-15.0-2.11,42126,List1B,black,woman,,,,null,,,,
6923,,,survey-text,175,718161,0.0-15.0-3.11,42126,List1B,black,woman,,,,,"{""Q0"":""fred and beth are touching each other""}","<img src=""stim_listB/touch2.gif""style=""height:400px;""></stim_listB>",are touching each other,
null,"<div style=""font-size:60px;"">+</div>",,html-keyboard-response,176,718663,0.0-15.0-0.12,42126,List1B,black,woman,,,,null,,,,
null,"<img src=""stim_listB/marry6.gif""style=""height:400px;""></stim_listB>",,html-keyboard-response,177,720666,0.0-15.0-1.12,42126,List1B,black,woman,,,,null,,,,
null,are marrying each other,,html-keyboard-response,178,722668,0.0-15.0-2.12,42126,List1B,black,woman,,,,null,,,,
5843,,,survey-text,179,728513,0.0-15.0-3.12,42126,List1B,black,woman,,,,,"{""Q0"":""fred and dave are marrying each other""}","<img src=""stim_listB/marry6.gif""style=""height:400px;""></stim_listB>",are marrying each other,
null,"<div style=""font-size:60px;"">+</div>",,html-keyboard-response,180,729014,0.0-15.0-0.13,42126,List1B,black,woman,,,,null,,,,
null,"<img src=""stim_listB/flirt8.gif""style=""height:400px;""></stim_listB>",,html-keyboard-response,181,731019,0.0-15.0-1.13,42126,List1B,black,woman,,,,null,,,,
null,are flirting with each other,,html-keyboard-response,182,733022,0.0-15.0-2.13,42126,List1B,black,woman,,,,null,,,,
11641,,,survey-text,183,744665,0.0-15.0-3.13,42126,List1B,black,woman,,,,,"{""Q0"":""kate and ruth are flirting with each other""}","<img src=""stim_listB/flirt8.gif""style=""height:400px;""></stim_listB>",are flirting with each other,
null,"<div style=""font-size:60px;"">+</div>",,html-keyboard-response,184,745167,0.0-15.0-0.14,42126,List1B,black,woman,,,,null,,,,
null,"<img src=""stim_listB/shout1.gif""style=""height:400px;""></stim_listB>",,html-keyboard-response,185,747172,0.0-15.0-1.14,42126,List1B,black,woman,,,,null,,,,
null,is shouting at,,html-keyboard-response,186,749175,0.0-15.0-2.14,42126,List1B,black,woman,,,,null,,,,
4856,,,survey-text,187,754033,0.0-15.0-3.14,42126,List1B,black,woman,,,,,"{""Q0"":""beth is shouting at fred""}","<img src=""stim_listB/shout1.gif""style=""height:400px;""></stim_listB>",is shouting at,
null,"<div style=""font-size:60px;"">+</div>",,html-keyboard-response,188,754535,0.0-15.0-0.15,42126,List1B,black,woman,,,,null,,,,
null,"<img src=""stim_listB/talk4.gif""style=""height:400px;""></stim_listB>",,html-keyboard-response,189,756538,0.0-15.0-1.15,42126,List1B,black,woman,,,,null,,,,
null,are talking to each other,,html-keyboard-response,190,758540,0.0-15.0-2.15,42126,List1B,black,woman,,,,null,,,,
6043,,,survey-text,191,764585,0.0-15.0-3.15,42126,List1B,black,woman,,,,,"{""Q0"":""dave and ruth are talking to each other""}","<img src=""stim_listB/talk4.gif""style=""height:400px;""></stim_listB>",are talking to each other,
null,"<div style=""font-size:60px;"">+</div>",,html-keyboard-response,192,765087,0.0-15.0-0.16,42126,List1B,black,woman,,,,null,,,,
null,"<img src=""stim_listB/shout3.gif""style=""height:400px;""></stim_listB>",,html-keyboard-response,193,767091,0.0-15.0-1.16,42126,List1B,black,woman,,,,null,,,,
null,is shouting at,,html-keyboard-response,194,769093,0.0-15.0-2.16,42126,List1B,black,woman,,,,null,,,,
6586,,,survey-text,195,775680,0.0-15.0-3.16,42126,List1B,black,woman,,,,,"{""Q0"":""ruth is shouting at luke""}","<img src=""stim_listB/shout3.gif""style=""height:400px;""></stim_listB>",is shouting at,
null,"<div style=""font-size:60px;"">+</div>",,html-keyboard-response,196,776183,0.0-15.0-0.17,42126,List1B,black,woman,,,,null,,,,
null,"<img src=""stim_listB/talk7.gif""style=""height:400px;""></stim_listB>",,html-keyboard-response,197,778185,0.0-15.0-1.17,42126,List1B,black,woman,,,,null,,,,
null,is talking to,,html-keyboard-response,198,780188,0.0-15.0-2.17,42126,List1B,black,woman,,,,null,,,,
5315,,,survey-text,199,785504,0.0-15.0-3.17,42126,List1B,black,woman,,,,,"{""Q0"":""jane is talking to beth""}","<img src=""stim_listB/talk7.gif""style=""height:400px;""></stim_listB>",is talking to,
null,"<div style=""font-size:60px;"">+</div>",,html-keyboard-response,200,786006,0.0-15.0-0.18,42126,List1B,black,woman,,,,null,,,,
null,"<img src=""stim_listB/play2.gif""style=""height:400px;""></stim_listB>",,html-keyboard-response,201,788010,0.0-15.0-1.18,42126,List1B,black,woman,,,,null,,,,
null,are playing with each other,,html-keyboard-response,202,790011,0.0-15.0-2.18,42126,List1B,black,woman,,,,null,,,,
7580,,,survey-text,203,797592,0.0-15.0-3.18,42126,List1B,black,woman,,,,,"{""Q0"":""fred and beth are playing with each other""}","<img src=""stim_listB/play2.gif""style=""height:400px;""></stim_listB>",are playing with each other,
null,"<div style=""font-size:60px;"">+</div>",,html-keyboard-response,204,798095,0.0-15.0-0.19,42126,List1B,black,woman,,,,null,,,,
null,"<img src=""stim_listB/argue1.gif""style=""height:400px;""></stim_listB>",,html-keyboard-response,205,800098,0.0-15.0-1.19,42126,List1B,black,woman,,,,null,,,,
null,is arguing with,,html-keyboard-response,206,802101,0.0-15.0-2.19,42126,List1B,black,woman,,,,null,,,,
5650,,,survey-text,207,807752,0.0-15.0-3.19,42126,List1B,black,woman,,,,,"{""Q0"":""beth is arguing with mike""}","<img src=""stim_listB/argue1.gif""style=""height:400px;""></stim_listB>",is arguing with,
6871,"<img src='img/portrait_matrix_list1.jpg' style='width:900px;height:500px;''></img><p>If you have memorised all the portraits and names and are ready to start, press Continue.</p><p><strong>Please note: Your memory of these faces will be tested 4 times during this experiment.</strong></p>",0,html-button-response,208,814625,0.0-16.0-0.0,42126,List1B,black,woman,,,,,,,,
1278,"<img src=""portrait/WM2.jpg""style=""height:400px;""></img>",7,html-button-response,209,816904,0.0-16.0-1.0,42126,List1B,black,woman,,TRUE,7,,,,,
null,CORRECT,,html-keyboard-response,210,818407,0.0-16.0-2.0-0.0,42126,List1B,black,woman,,,,null,,,,
1264,"<img src=""portrait/BM2.jpg""style=""height:400px;""></img>",5,html-button-response,211,819672,0.0-16.0-4.0,42126,List1B,black,woman,,TRUE,5,,,,,
null,CORRECT,,html-keyboard-response,212,821176,0.0-16.0-5.0-0.0,42126,List1B,black,woman,,,,null,,,,
1175,"<img src=""portrait/WW2.jpg""style=""height:400px;""></img>",3,html-button-response,213,822352,0.0-16.0-7.0,42126,List1B,black,woman,,TRUE,3,,,,,
null,CORRECT,,html-keyboard-response,214,823857,0.0-16.0-8.0-0.0,42126,List1B,black,woman,,,,null,,,,
1997,"<img src=""portrait/WM1.jpg""style=""height:400px;""></img>",6,html-button-response,215,825857,0.0-16.0-10.0,42126,List1B,black,woman,,TRUE,6,,,,,
null,CORRECT,,html-keyboard-response,216,827358,0.0-16.0-11.0-0.0,42126,List1B,black,woman,,,,null,,,,
1328,"<img src=""portrait/WW1.jpg""style=""height:400px;""></img>",1,html-button-response,217,828688,0.0-16.0-13.0,42126,List1B,black,woman,,TRUE,1,,,,,
null,CORRECT,,html-keyboard-response,218,830193,0.0-16.0-14.0-0.0,42126,List1B,black,woman,,,,null,,,,
1149,"<img src=""portrait/BM1.jpg""style=""height:400px;""></img>",4,html-button-response,219,831345,0.0-16.0-16.0,42126,List1B,black,woman,,TRUE,4,,,,,
null,CORRECT,,html-keyboard-response,220,832849,0.0-16.0-17.0-0.0,42126,List1B,black,woman,,,,null,,,,
1637,"<img src=""portrait/BW1.jpg""style=""height:400px;""></img>",0,html-button-response,221,834488,0.0-16.0-19.0,42126,List1B,black,woman,,TRUE,0,,,,,
null,CORRECT,,html-keyboard-response,222,835994,0.0-16.0-20.0-0.0,42126,List1B,black,woman,,,,null,,,,
1204,"<img src=""portrait/BW2.jpg""style=""height:400px;""></img>",2,html-button-response,223,837200,0.0-16.0-22.0,42126,List1B,black,woman,,TRUE,2,,,,,
null,CORRECT,,html-keyboard-response,224,838705,0.0-16.0-23.0-0.0,42126,List1B,black,woman,,,,null,,,,
1309,<p>You got 8 out of 8 right first time. Press Continue.</p>,0,html-button-response,225,840016,0.0-16.0-25.0,42126,List1B,black,woman,,,,,,,,
null,"<div style=""font-size:60px;"">+</div>",,html-keyboard-response,226,841521,0.0-17.0-0.0,42126,List1B,black,woman,,,,null,,,,
null,"<img src=""stim_listB/play8.gif""style=""height:400px;""></stim_listB>",,html-keyboard-response,227,843524,0.0-17.0-1.0,42126,List1B,black,woman,,,,null,,,,
null,are playing with each other,,html-keyboard-response,228,845527,0.0-17.0-2.0,42126,List1B,black,woman,,,,null,,,,
7392,,,survey-text,229,852920,0.0-17.0-3.0,42126,List1B,black,woman,,,,,"{""Q0"":""ruth and beth are playing with each other""}","<img src=""stim_listB/play8.gif""style=""height:400px;""></stim_listB>",are playing with each other,
null,"<div style=""font-size:60px;"">+</div>",,html-keyboard-response,230,853422,0.0-17.0-0.1,42126,List1B,black,woman,,,,null,,,,
null,"<img src=""stim_listB/touch1.gif""style=""height:400px;""></stim_listB>",,html-keyboard-response,231,855426,0.0-17.0-1.1,42126,List1B,black,woman,,,,null,,,,
null,is touching,,html-keyboard-response,232,857428,0.0-17.0-2.1,42126,List1B,black,woman,,,,null,,,,
3963,,,survey-text,233,861393,0.0-17.0-3.1,42126,List1B,black,woman,,,,,"{""Q0"":""kate is touching mike""}","<img src=""stim_listB/touch1.gif""style=""height:400px;""></stim_listB>",is touching,
null,"<div style=""font-size:60px;"">+</div>",,html-keyboard-response,234,861895,0.0-17.0-0.2,42126,List1B,black,woman,,,,null,,,,
null,"<img src=""stim_listB/kiss5.gif""style=""height:400px;""></stim_listB>",,html-keyboard-response,235,863899,0.0-17.0-1.2,42126,List1B,black,woman,,,,null,,,,
null,is kissing,,html-keyboard-response,236,865902,0.0-17.0-2.2,42126,List1B,black,woman,,,,null,,,,
4042,,,survey-text,237,869944,0.0-17.0-3.2,42126,List1B,black,woman,,,,,"{""Q0"":""luke is kissing fred""}","<img src=""stim_listB/kiss5.gif""style=""height:400px;""></stim_listB>",is kissing,
null,"<div style=""font-size:60px;"">+</div>",,html-keyboard-response,238,870447,0.0-17.0-0.3,42126,List1B,black,woman,,,,null,,,,
null,"<img src=""stim_listB/dance5.gif""style=""height:400px;""></stim_listB>",,html-keyboard-response,239,872450,0.0-17.0-1.3,42126,List1B,black,woman,,,,null,,,,
null,is dancing with,,html-keyboard-response,240,874452,0.0-17.0-2.3,42126,List1B,black,woman,,,,null,,,,
4203,,,survey-text,241,878656,0.0-17.0-3.3,42126,List1B,black,woman,,,,,"{""Q0"":""dave is dancing with fred""}","<img src=""stim_listB/dance5.gif""style=""height:400px;""></stim_listB>",is dancing with,
null,"<div style=""font-size:60px;"">+</div>",,html-keyboard-response,242,879159,0.0-17.0-0.4,42126,List1B,black,woman,,,,null,,,,
null,"<img src=""stim_listB/touch4.gif""style=""height:400px;""></stim_listB>",,html-keyboard-response,243,881162,0.0-17.0-1.4,42126,List1B,black,woman,,,,null,,,,
null,are touching each other,,html-keyboard-response,244,883165,0.0-17.0-2.4,42126,List1B,black,woman,,,,null,,,,
5897,,,survey-text,245,889064,0.0-17.0-3.4,42126,List1B,black,woman,,,,,"{""Q0"":""luke and ruth are touching each other""}","<img src=""stim_listB/touch4.gif""style=""height:400px;""></stim_listB>",are touching each other,
null,"<div style=""font-size:60px;"">+</div>",,html-keyboard-response,246,889567,0.0-17.0-0.5,42126,List1B,black,woman,,,,null,,,,
null,"<img src=""stim_listB/fight1.gif""style=""height:400px;""></stim_listB>",,html-keyboard-response,247,891570,0.0-17.0-1.5,42126,List1B,black,woman,,,,null,,,,
null,is fighting,,html-keyboard-response,248,893572,0.0-17.0-2.5,42126,List1B,black,woman,,,,null,,,,
7370,,,survey-text,249,900945,0.0-17.0-3.5,42126,List1B,black,woman,,,,,"{""Q0"":""kate is fighting mike""}","<img src=""stim_listB/fight1.gif""style=""height:400px;""></stim_listB>",is fighting,
null,"<div style=""font-size:60px;"">+</div>",,html-keyboard-response,250,901448,0.0-17.0-0.6,42126,List1B,black,woman,,,,null,,,,
null,"<img src=""stim_listB/flirt2.gif""style=""height:400px;""></stim_listB>",,html-keyboard-response,251,903451,0.0-17.0-1.6,42126,List1B,black,woman,,,,null,,,,
null,are flirting with each other,,html-keyboard-response,252,905454,0.0-17.0-2.6,42126,List1B,black,woman,,,,null,,,,
5992,,,survey-text,253,911448,0.0-17.0-3.6,42126,List1B,black,woman,,,,,"{""Q0"":""mike and beth are flirting with each other""}","<img src=""stim_listB/flirt2.gif""style=""height:400px;""></stim_listB>",are flirting with each other,
null,"<div style=""font-size:60px;"">+</div>",,html-keyboard-response,254,911950,0.0-17.0-0.7,42126,List1B,black,woman,,,,null,,,,
null,"<img src=""stim_listB/talk1.gif""style=""height:400px;""></stim_listB>",,html-keyboard-response,255,913954,0.0-17.0-1.7,42126,List1B,black,woman,,,,null,,,,
null,is talking to,,html-keyboard-response,256,915956,0.0-17.0-2.7,42126,List1B,black,woman,,,,null,,,,
4298,,,survey-text,257,920256,0.0-17.0-3.7,42126,List1B,black,woman,,,,,"{""Q0"":""kate is talking to fred""}","<img src=""stim_listB/talk1.gif""style=""height:400px;""></stim_listB>",is talking to,
null,"<div style=""font-size:60px;"">+</div>",,html-keyboard-response,258,920757,0.0-17.0-0.8,42126,List1B,black,woman,,,,null,,,,
null,"<img src=""stim_listB/touch6.gif""style=""height:400px;""></stim_listB>",,html-keyboard-response,259,922759,0.0-17.0-1.8,42126,List1B,black,woman,,,,null,,,,
null,are touching each other,,html-keyboard-response,260,924761,0.0-17.0-2.8,42126,List1B,black,woman,,,,null,,,,
5670,,,survey-text,261,930432,0.0-17.0-3.8,42126,List1B,black,woman,,,,,"{""Q0"":""fred and luke are touching each other""}","<img src=""stim_listB/touch6.gif""style=""height:400px;""></stim_listB>",are touching each other,
null,"<div style=""font-size:60px;"">+</div>",,html-keyboard-response,262,930934,0.0-17.0-0.9,42126,List1B,black,woman,,,,null,,,,
null,"<img src=""stim_listB/kiss4.gif""style=""height:400px;""></stim_listB>",,html-keyboard-response,263,932937,0.0-17.0-1.9,42126,List1B,black,woman,,,,null,,,,
null,are kissing each other,,html-keyboard-response,264,934939,0.0-17.0-2.9,42126,List1B,black,woman,,,,null,,,,
5723,,,survey-text,265,940663,0.0-17.0-3.9,42126,List1B,black,woman,,,,,"{""Q0"":""dave and jane are kissing each other""}","<img src=""stim_listB/kiss4.gif""style=""height:400px;""></stim_listB>",are kissing each other,
null,"<div style=""font-size:60px;"">+</div>",,html-keyboard-response,266,941166,0.0-17.0-0.10,42126,List1B,black,woman,,,,null,,,,
null,"<img src=""stim_listB/argue5.gif""style=""height:400px;""></stim_listB>",,html-keyboard-response,267,943169,0.0-17.0-1.10,42126,List1B,black,woman,,,,null,,,,
null,is arguing with,,html-keyboard-response,268,945171,0.0-17.0-2.10,42126,List1B,black,woman,,,,null,,,,
5827,,,survey-text,269,950999,0.0-17.0-3.10,42126,List1B,black,woman,,,,,"{""Q0"":""luke is arguing with mike""}","<img src=""stim_listB/argue5.gif""style=""height:400px;""></stim_listB>",is arguing with,
null,"<div style=""font-size:60px;"">+</div>",,html-keyboard-response,270,951502,0.0-17.0-0.11,42126,List1B,black,woman,,,,null,,,,
null,"<img src=""stim_listB/talk6.gif""style=""height:400px;""></stim_listB>",,html-keyboard-response,271,953504,0.0-17.0-1.11,42126,List1B,black,woman,,,,null,,,,
null,are talking to each other,,html-keyboard-response,272,955506,0.0-17.0-2.11,42126,List1B,black,woman,,,,null,,,,
7084,,,survey-text,273,962591,0.0-17.0-3.11,42126,List1B,black,woman,,,,,"{""Q0"":""luke and mike are talking to each other""}","<img src=""stim_listB/talk6.gif""style=""height:400px;""></stim_listB>",are talking to each other,
null,"<div style=""font-size:60px;"">+</div>",,html-keyboard-response,274,963095,0.0-17.0-0.12,42126,List1B,black,woman,,,,null,,,,
null,"<img src=""stim_listB/dance8.gif""style=""height:400px;""></stim_listB>",,html-keyboard-response,275,965098,0.0-17.0-1.12,42126,List1B,black,woman,,,,null,,,,
null,are dancing with each other,,html-keyboard-response,276,967098,0.0-17.0-2.12,42126,List1B,black,woman,,,,null,,,,
6156,,,survey-text,277,973255,0.0-17.0-3.12,42126,List1B,black,woman,,,,,"{""Q0"":""ruth and kate are dancing with each other""}","<img src=""stim_listB/dance8.gif""style=""height:400px;""></stim_listB>",are dancing with each other,
null,"<div style=""font-size:60px;"">+</div>",,html-keyboard-response,278,973758,0.0-17.0-0.13,42126,List1B,black,woman,,,,null,,,,
null,"<img src=""stim_listB/shout8.gif""style=""height:400px;""></stim_listB>",,html-keyboard-response,279,975761,0.0-17.0-1.13,42126,List1B,black,woman,,,,null,,,,
null,are shouting at each other,,html-keyboard-response,280,977765,0.0-17.0-2.13,42126,List1B,black,woman,,,,null,,,,
6647,,,survey-text,281,984416,0.0-17.0-3.13,42126,List1B,black,woman,,,,,"{""Q0"":""kate and jane are shouting at each other""}","<img src=""stim_listB/shout8.gif""style=""height:400px;""></stim_listB>",are shouting at each other,
null,"<div style=""font-size:60px;"">+</div>",,html-keyboard-response,282,984917,0.0-17.0-0.14,42126,List1B,black,woman,,,,null,,,,
null,"<img src=""stim_listB/flirt5.gif""style=""height:400px;""></stim_listB>",,html-keyboard-response,283,986919,0.0-17.0-1.14,42126,List1B,black,woman,,,,null,,,,
null,is flirting with,,html-keyboard-response,284,988921,0.0-17.0-2.14,42126,List1B,black,woman,,,,null,,,,
4509,,,survey-text,285,993431,0.0-17.0-3.14,42126,List1B,black,woman,,,,,"{""Q0"":""dave is flirting with fred""}","<img src=""stim_listB/flirt5.gif""style=""height:400px;""></stim_listB>",is flirting with,
null,"<div style=""font-size:60px;"">+</div>",,html-keyboard-response,286,993933,0.0-17.0-0.15,42126,List1B,black,woman,,,,null,,,,
null,"<img src=""stim_listB/shout5.gif""style=""height:400px;""></stim_listB>",,html-keyboard-response,287,995938,0.0-17.0-1.15,42126,List1B,black,woman,,,,null,,,,
null,is shouting at,,html-keyboard-response,288,997940,0.0-17.0-2.15,42126,List1B,black,woman,,,,null,,,,
4201,,,survey-text,289,1002143,0.0-17.0-3.15,42126,List1B,black,woman,,,,,"{""Q0"":""luke is shouting at fred""}","<img src=""stim_listB/shout5.gif""style=""height:400px;""></stim_listB>",is shouting at,
null,"<div style=""font-size:60px;"">+</div>",,html-keyboard-response,290,1002645,0.0-17.0-0.16,42126,List1B,black,woman,,,,null,,,,
null,"<img src=""stim_listB/touch3.gif""style=""height:400px;""></stim_listB>",,html-keyboard-response,291,1004648,0.0-17.0-1.16,42126,List1B,black,woman,,,,null,,,,
null,is touching,,html-keyboard-response,292,1006651,0.0-17.0-2.16,42126,List1B,black,woman,,,,null,,,,
5667,,,survey-text,293,1012319,0.0-17.0-3.16,42126,List1B,black,woman,,,,,"{""Q0"":""jane is touching dave""}","<img src=""stim_listB/touch3.gif""style=""height:400px;""></stim_listB>",is touching,
null,"<div style=""font-size:60px;"">+</div>",,html-keyboard-response,294,1012822,0.0-17.0-0.17,42126,List1B,black,woman,,,,null,,,,
null,"<img src=""stim_listB/fight4.gif""style=""height:400px;""></stim_listB>",,html-keyboard-response,295,1014826,0.0-17.0-1.17,42126,List1B,black,woman,,,,null,,,,
null,are fighting each other,,html-keyboard-response,296,1016828,0.0-17.0-2.17,42126,List1B,black,woman,,,,null,,,,
9929,,,survey-text,297,1026759,0.0-17.0-3.17,42126,List1B,black,woman,,,,,"{""Q0"":""luke and ruth are fighting each other""}","<img src=""stim_listB/fight4.gif""style=""height:400px;""></stim_listB>",are fighting each other,
null,"<div style=""font-size:60px;"">+</div>",,html-keyboard-response,298,1027261,0.0-17.0-0.18,42126,List1B,black,woman,,,,null,,,,
null,"<img src=""stim_listB/argue2.gif""style=""height:400px;""></stim_listB>",,html-keyboard-response,299,1029264,0.0-17.0-1.18,42126,List1B,black,woman,,,,null,,,,
null,are arguing with each other,,html-keyboard-response,300,1031267,0.0-17.0-2.18,42126,List1B,black,woman,,,,null,,,,
9619,,,survey-text,301,1040887,0.0-17.0-3.18,42126,List1B,black,woman,,,,,"{""Q0"":""fred and kate are arguing with each other""}","<img src=""stim_listB/argue2.gif""style=""height:400px;""></stim_listB>",are arguing with each other,
null,"<div style=""font-size:60px;"">+</div>",,html-keyboard-response,302,1041390,0.0-17.0-0.19,42126,List1B,black,woman,,,,null,,,,
null,"<img src=""stim_listB/argue3.gif""style=""height:400px;""></stim_listB>",,html-keyboard-response,303,1043394,0.0-17.0-1.19,42126,List1B,black,woman,,,,null,,,,
null,is arguing with,,html-keyboard-response,304,1045398,0.0-17.0-2.19,42126,List1B,black,woman,,,,null,,,,
4278,,,survey-text,305,1049679,0.0-17.0-3.19,42126,List1B,black,woman,,,,,"{""Q0"":""ruth is arguing with dave""}","<img src=""stim_listB/argue3.gif""style=""height:400px;""></stim_listB>",is arguing with,
8256,"<img src='img/portrait_matrix_list1.jpg' style='width:900px;height:500px;''></img><p>If you have memorised all the portraits and names and are ready to start, press Continue.</p><p><strong>Please note: Your memory of these faces will be tested 4 times during this experiment.</strong></p>",0,html-button-response,306,1057935,0.0-18.0-0.0,42126,List1B,black,woman,,,,,,,,
1283,"<img src=""portrait/WM2.jpg""style=""height:400px;""></img>",7,html-button-response,307,1060223,0.0-18.0-1.0,42126,List1B,black,woman,,TRUE,7,,,,,
null,CORRECT,,html-keyboard-response,308,1061727,0.0-18.0-2.0-0.0,42126,List1B,black,woman,,,,null,,,,
1629,"<img src=""portrait/WW1.jpg""style=""height:400px;""></img>",1,html-button-response,309,1063359,0.0-18.0-4.0,42126,List1B,black,woman,,TRUE,1,,,,,
null,CORRECT,,html-keyboard-response,310,1064863,0.0-18.0-5.0-0.0,42126,List1B,black,woman,,,,null,,,,
1639,"<img src=""portrait/WW2.jpg""style=""height:400px;""></img>",3,html-button-response,311,1066503,0.0-18.0-7.0,42126,List1B,black,woman,,TRUE,3,,,,,
null,CORRECT,,html-keyboard-response,312,1068007,0.0-18.0-8.0-0.0,42126,List1B,black,woman,,,,null,,,,
1334,"<img src=""portrait/BM2.jpg""style=""height:400px;""></img>",5,html-button-response,313,1069343,0.0-18.0-10.0,42126,List1B,black,woman,,TRUE,5,,,,,
null,CORRECT,,html-keyboard-response,314,1070847,0.0-18.0-11.0-0.0,42126,List1B,black,woman,,,,null,,,,
1405,"<img src=""portrait/BW2.jpg""style=""height:400px;""></img>",2,html-button-response,315,1072255,0.0-18.0-13.0,42126,List1B,black,woman,,TRUE,2,,,,,
null,CORRECT,,html-keyboard-response,316,1073760,0.0-18.0-14.0-0.0,42126,List1B,black,woman,,,,null,,,,
1285,"<img src=""portrait/BW1.jpg""style=""height:400px;""></img>",0,html-button-response,317,1075047,0.0-18.0-16.0,42126,List1B,black,woman,,TRUE,0,,,,,
null,CORRECT,,html-keyboard-response,318,1076551,0.0-18.0-17.0-0.0,42126,List1B,black,woman,,,,null,,,,
1701,"<img src=""portrait/WM1.jpg""style=""height:400px;""></img>",6,html-button-response,319,1078255,0.0-18.0-19.0,42126,List1B,black,woman,,TRUE,6,,,,,
null,CORRECT,,html-keyboard-response,320,1079758,0.0-18.0-20.0-0.0,42126,List1B,black,woman,,,,null,,,,
1071,"<img src=""portrait/BM1.jpg""style=""height:400px;""></img>",4,html-button-response,321,1080831,0.0-18.0-22.0,42126,List1B,black,woman,,TRUE,4,,,,,
null,CORRECT,,html-keyboard-response,322,1082339,0.0-18.0-23.0-0.0,42126,List1B,black,woman,,,,null,,,,
1281,<p>You got 8 out of 8 right first time. Press Continue.</p>,0,html-button-response,323,1083623,0.0-18.0-25.0,42126,List1B,black,woman,,,,,,,,
null,"<div style=""font-size:60px;"">+</div>",,html-keyboard-response,324,1085128,0.0-19.0-0.0,42126,List1B,black,woman,,,,null,,,,
null,"<img src=""stim_listB/shout6.gif""style=""height:400px;""></stim_listB>",,html-keyboard-response,325,1087133,0.0-19.0-1.0,42126,List1B,black,woman,,,,null,,,,
null,are shouting at each other,,html-keyboard-response,326,1089135,0.0-19.0-2.0,42126,List1B,black,woman,,,,null,,,,
6590,,,survey-text,327,1095727,0.0-19.0-3.0,42126,List1B,black,woman,,,,,"{""Q0"":""mike and dave are shouting at each other""}","<img src=""stim_listB/shout6.gif""style=""height:400px;""></stim_listB>",are shouting at each other,
null,"<div style=""font-size:60px;"">+</div>",,html-keyboard-response,328,1096229,0.0-19.0-0.1,42126,List1B,black,woman,,,,null,,,,
null,"<img src=""stim_listB/play3.gif""style=""height:400px;""></stim_listB>",,html-keyboard-response,329,1098232,0.0-19.0-1.1,42126,List1B,black,woman,,,,null,,,,
null,is playing with,,html-keyboard-response,330,1100234,0.0-19.0-2.1,42126,List1B,black,woman,,,,null,,,,
4603,,,survey-text,331,1104838,0.0-19.0-3.1,42126,List1B,black,woman,,,,,"{""Q0"":""jane is playing with dave ""}","<img src=""stim_listB/play3.gif""style=""height:400px;""></stim_listB>",is playing with,
null,"<div style=""font-size:60px;"">+</div>",,html-keyboard-response,332,1105341,0.0-19.0-0.2,42126,List1B,black,woman,,,,null,,,,
null,"<img src=""stim_listB/argue8.gif""style=""height:400px;""></stim_listB>",,html-keyboard-response,333,1107345,0.0-19.0-1.2,42126,List1B,black,woman,,,,null,,,,
null,are arguing with each other,,html-keyboard-response,334,1109348,0.0-19.0-2.2,42126,List1B,black,woman,,,,null,,,,
6521,,,survey-text,335,1115870,0.0-19.0-3.2,42126,List1B,black,woman,,,,,"{""Q0"":""beth and jane are arguing with each other""}","<img src=""stim_listB/argue8.gif""style=""height:400px;""></stim_listB>",are arguing with each other,
null,"<div style=""font-size:60px;"">+</div>",,html-keyboard-response,336,1116373,0.0-19.0-0.3,42126,List1B,black,woman,,,,null,,,,
null,"<img src=""stim_listB/talk8.gif""style=""height:400px;""></stim_listB>",,html-keyboard-response,337,1118378,0.0-19.0-1.3,42126,List1B,black,woman,,,,null,,,,
null,are talking to each other,,html-keyboard-response,338,1120380,0.0-19.0-2.3,42126,List1B,black,woman,,,,null,,,,
6153,,,survey-text,339,1126534,0.0-19.0-3.3,42126,List1B,black,woman,,,,,"{""Q0"":""kate and ruth are talking to each other""}","<img src=""stim_listB/talk8.gif""style=""height:400px;""></stim_listB>",are talking to each other,
null,"<div style=""font-size:60px;"">+</div>",,html-keyboard-response,340,1127036,0.0-19.0-0.4,42126,List1B,black,woman,,,,null,,,,
null,"<img src=""stim_listB/marry8.gif""style=""height:400px;""></stim_listB>",,html-keyboard-response,341,1129040,0.0-19.0-1.4,42126,List1B,black,woman,,,,null,,,,
null,are marrying each other,,html-keyboard-response,342,1131043,0.0-19.0-2.4,42126,List1B,black,woman,,,,null,,,,
5505,,,survey-text,343,1136550,0.0-19.0-3.4,42126,List1B,black,woman,,,,,"{""Q0"":""beth and jane are marrying each other""}","<img src=""stim_listB/marry8.gif""style=""height:400px;""></stim_listB>",are marrying each other,
null,"<div style=""font-size:60px;"">+</div>",,html-keyboard-response,344,1137052,0.0-19.0-0.5,42126,List1B,black,woman,,,,null,,,,
null,"<img src=""stim_listB/dance6.gif""style=""height:400px;""></stim_listB>",,html-keyboard-response,345,1139055,0.0-19.0-1.5,42126,List1B,black,woman,,,,null,,,,
null,are dancing with each other,,html-keyboard-response,346,1141056,0.0-19.0-2.5,42126,List1B,black,woman,,,,null,,,,
6325,,,survey-text,347,1147382,0.0-19.0-3.5,42126,List1B,black,woman,,,,,"{""Q0"":""mike and luke are dancing with each other""}","<img src=""stim_listB/dance6.gif""style=""height:400px;""></stim_listB>",are dancing with each other,
null,"<div style=""font-size:60px;"">+</div>",,html-keyboard-response,348,1147884,0.0-19.0-0.6,42126,List1B,black,woman,,,,null,,,,
null,"<img src=""stim_listB/fight6.gif""style=""height:400px;""></stim_listB>",,html-keyboard-response,349,1149888,0.0-19.0-1.6,42126,List1B,black,woman,,,,null,,,,
null,are fighting each other,,html-keyboard-response,350,1151891,0.0-19.0-2.6,42126,List1B,black,woman,,,,null,,,,
5778,,,survey-text,351,1157670,0.0-19.0-3.6,42126,List1B,black,woman,,,,,"{""Q0"":""fred and luke are fighting each other""}","<img src=""stim_listB/fight6.gif""style=""height:400px;""></stim_listB>",are fighting each other,
null,"<div style=""font-size:60px;"">+</div>",,html-keyboard-response,352,1158172,0.0-19.0-0.7,42126,List1B,black,woman,,,,null,,,,
null,"<img src=""stim_listB/marry3.gif""style=""height:400px;""></stim_listB>",,html-keyboard-response,353,1160175,0.0-19.0-1.7,42126,List1B,black,woman,,,,null,,,,
null,is marrying,,html-keyboard-response,354,1162177,0.0-19.0-2.7,42126,List1B,black,woman,,,,null,,,,
4148,,,survey-text,355,1166326,0.0-19.0-3.7,42126,List1B,black,woman,,,,,"{""Q0"":""ruth is marrying dave ""}","<img src=""stim_listB/marry3.gif""style=""height:400px;""></stim_listB>",is marrying,
null,"<div style=""font-size:60px;"">+</div>",,html-keyboard-response,356,1166828,0.0-19.0-0.8,42126,List1B,black,woman,,,,null,,,,
null,"<img src=""stim_listB/flirt3.gif""style=""height:400px;""></stim_listB>",,html-keyboard-response,357,1168831,0.0-19.0-1.8,42126,List1B,black,woman,,,,null,,,,
null,is flirting with,,html-keyboard-response,358,1170833,0.0-19.0-2.8,42126,List1B,black,woman,,,,null,,,,
4644,,,survey-text,359,1175478,0.0-19.0-3.8,42126,List1B,black,woman,,,,,"{""Q0"":""jane is flirting with luke""}","<img src=""stim_listB/flirt3.gif""style=""height:400px;""></stim_listB>",is flirting with,
null,"<div style=""font-size:60px;"">+</div>",,html-keyboard-response,360,1175980,0.0-19.0-0.9,42126,List1B,black,woman,,,,null,,,,
null,"<img src=""stim_listB/talk3.gif""style=""height:400px;""></stim_listB>",,html-keyboard-response,361,1177985,0.0-19.0-1.9,42126,List1B,black,woman,,,,null,,,,
null,is talking to,,html-keyboard-response,362,1179988,0.0-19.0-2.9,42126,List1B,black,woman,,,,null,,,,
4048,,,survey-text,363,1184037,0.0-19.0-3.9,42126,List1B,black,woman,,,,,"{""Q0"":""jane is talking to luke""}","<img src=""stim_listB/talk3.gif""style=""height:400px;""></stim_listB>",is talking to,
null,"<div style=""font-size:60px;"">+</div>",,html-keyboard-response,364,1184539,0.0-19.0-0.10,42126,List1B,black,woman,,,,null,,,,
null,"<img src=""stim_listB/fight3.gif""style=""height:400px;""></stim_listB>",,html-keyboard-response,365,1186543,0.0-19.0-1.10,42126,List1B,black,woman,,,,null,,,,
null,is fighting,,html-keyboard-response,366,1188545,0.0-19.0-2.10,42126,List1B,black,woman,,,,null,,,,
4187,,,survey-text,367,1192733,0.0-19.0-3.10,42126,List1B,black,woman,,,,,"{""Q0"":""jane is fighting dave""}","<img src=""stim_listB/fight3.gif""style=""height:400px;""></stim_listB>",is fighting,
null,"<div style=""font-size:60px;"">+</div>",,html-keyboard-response,368,1193235,0.0-19.0-0.11,42126,List1B,black,woman,,,,null,,,,
null,"<img src=""stim_listB/play5.gif""style=""height:400px;""></stim_listB>",,html-keyboard-response,369,1195237,0.0-19.0-1.11,42126,List1B,black,woman,,,,null,,,,
null,is playing with,,html-keyboard-response,370,1197239,0.0-19.0-2.11,42126,List1B,black,woman,,,,null,,,,
4797,,,survey-text,371,1202037,0.0-19.0-3.11,42126,List1B,black,woman,,,,,"{""Q0"":""dave is playing with mike""}","<img src=""stim_listB/play5.gif""style=""height:400px;""></stim_listB>",is playing with,
null,"<div style=""font-size:60px;"">+</div>",,html-keyboard-response,372,1202540,0.0-19.0-0.12,42126,List1B,black,woman,,,,null,,,,
null,"<img src=""stim_listB/touch5.gif""style=""height:400px;""></stim_listB>",,html-keyboard-response,373,1204543,0.0-19.0-1.12,42126,List1B,black,woman,,,,null,,,,
null,is touching,,html-keyboard-response,374,1206545,0.0-19.0-2.12,42126,List1B,black,woman,,,,null,,,,
4203,,,survey-text,375,1210749,0.0-19.0-3.12,42126,List1B,black,woman,,,,,"{""Q0"":""dave is touching mike""}","<img src=""stim_listB/touch5.gif""style=""height:400px;""></stim_listB>",is touching,
null,"<div style=""font-size:60px;"">+</div>",,html-keyboard-response,376,1211251,0.0-19.0-0.13,42126,List1B,black,woman,,,,null,,,,
null,"<img src=""stim_listB/fight5.gif""style=""height:400px;""></stim_listB>",,html-keyboard-response,377,1213255,0.0-19.0-1.13,42126,List1B,black,woman,,,,null,,,,
null,is fighting,,html-keyboard-response,378,1215257,0.0-19.0-2.13,42126,List1B,black,woman,,,,null,,,,
3859,,,survey-text,379,1219117,0.0-19.0-3.13,42126,List1B,black,woman,,,,,"{""Q0"":""dave is fighting mike""}","<img src=""stim_listB/fight5.gif""style=""height:400px;""></stim_listB>",is fighting,
null,"<div style=""font-size:60px;"">+</div>",,html-keyboard-response,380,1219619,0.0-19.0-0.14,42126,List1B,black,woman,,,,null,,,,
null,"<img src=""stim_listB/dance3.gif""style=""height:400px;""></stim_listB>",,html-keyboard-response,381,1221621,0.0-19.0-1.14,42126,List1B,black,woman,,,,null,,,,
null,is dancing with,,html-keyboard-response,382,1223623,0.0-19.0-2.14,42126,List1B,black,woman,,,,null,,,,
5749,,,survey-text,383,1229373,0.0-19.0-3.14,42126,List1B,black,woman,,,,,"{""Q0"":""luke is dancing with jane""}","<img src=""stim_listB/dance3.gif""style=""height:400px;""></stim_listB>",is dancing with,
null,"<div style=""font-size:60px;"">+</div>",,html-keyboard-response,384,1229875,0.0-19.0-0.15,42126,List1B,black,woman,,,,null,,,,
null,"<img src=""stim_listB/kiss7.gif""style=""height:400px;""></stim_listB>",,html-keyboard-response,385,1231878,0.0-19.0-1.15,42126,List1B,black,woman,,,,null,,,,
null,is kissing,,html-keyboard-response,386,1233880,0.0-19.0-2.15,42126,List1B,black,woman,,,,null,,,,
4084,,,survey-text,387,1237965,0.0-19.0-3.15,42126,List1B,black,woman,,,,,"{""Q0"":""ruth is kissing beth ""}","<img src=""stim_listB/kiss7.gif""style=""height:400px;""></stim_listB>",is kissing,
null,"<div style=""font-size:60px;"">+</div>",,html-keyboard-response,388,1238467,0.0-19.0-0.16,42126,List1B,black,woman,,,,null,,,,
null,"<img src=""stim_listB/play1.gif""style=""height:400px;""></stim_listB>",,html-keyboard-response,389,1240468,0.0-19.0-1.16,42126,List1B,black,woman,,,,null,,,,
null,is playing with,,html-keyboard-response,390,1242469,0.0-19.0-2.16,42126,List1B,black,woman,,,,null,,,,
6206,,,survey-text,391,1248676,0.0-19.0-3.16,42126,List1B,black,woman,,,,,"{""Q0"":""kate is playing with mike ""}","<img src=""stim_listB/play1.gif""style=""height:400px;""></stim_listB>",is playing with,
null,"<div style=""font-size:60px;"">+</div>",,html-keyboard-response,392,1249179,0.0-19.0-0.17,42126,List1B,black,woman,,,,null,,,,
null,"<img src=""stim_listB/dance2.gif""style=""height:400px;""></stim_listB>",,html-keyboard-response,393,1251181,0.0-19.0-1.17,42126,List1B,black,woman,,,,null,,,,
null,are dancing with each other,,html-keyboard-response,394,1253184,0.0-19.0-2.17,42126,List1B,black,woman,,,,null,,,,
6596,,,survey-text,395,1259781,0.0-19.0-3.17,42126,List1B,black,woman,,,,,"{""Q0"":""mike and beth are dancing with each other""}","<img src=""stim_listB/dance2.gif""style=""height:400px;""></stim_listB>",are dancing with each other,
null,"<div style=""font-size:60px;"">+</div>",,html-keyboard-response,396,1260284,0.0-19.0-0.18,42126,List1B,black,woman,,,,null,,,,
null,"<img src=""stim_listB/dance4.gif""style=""height:400px;""></stim_listB>",,html-keyboard-response,397,1262288,0.0-19.0-1.18,42126,List1B,black,woman,,,,null,,,,
null,are dancing with each other,,html-keyboard-response,398,1264290,0.0-19.0-2.18,42126,List1B,black,woman,,,,null,,,,
5897,,,survey-text,399,1270188,0.0-19.0-3.18,42126,List1B,black,woman,,,,,"{""Q0"":""dave and ruth are dancing with each other""}","<img src=""stim_listB/dance4.gif""style=""height:400px;""></stim_listB>",are dancing with each other,
null,"<div style=""font-size:60px;"">+</div>",,html-keyboard-response,400,1270690,0.0-19.0-0.19,42126,List1B,black,woman,,,,null,,,,
null,"<img src=""stim_listB/marry1.gif""style=""height:400px;""></stim_listB>",,html-keyboard-response,401,1272695,0.0-19.0-1.19,42126,List1B,black,woman,,,,null,,,,
null,is marrying,,html-keyboard-response,402,1274698,0.0-19.0-2.19,42126,List1B,black,woman,,,,null,,,,
3864,,,survey-text,403,1278564,0.0-19.0-3.19,42126,List1B,black,woman,,,,,"{""Q0"":""beth is marrying mike""}","<img src=""stim_listB/marry1.gif""style=""height:400px;""></stim_listB>",is marrying,
1407,<p>Thank you for completing that task.</p><p>The final part of this session is a short questionnaire.</p><p>Press Continue.</p>,0,html-button-response,404,1279972,0.0-20.0,42126,List1B,black,woman,,,,,,,,
15549,,,survey-text,405,1296524,0.0-21.0,42126,List1B,black,woman,,,,,"{""Q0"":""29"",""Q1"":""English"",""Q2"":""English"",""Q3"":""United Kingdom"",""Q4"":""Black African"",""Q5"":""Female ""}",,,demographics
6862,,,survey-likert,406,1303388,0.0-22.0,42126,List1B,black,woman,,,,,"{""Q0"":4}",,,likert_ESS
5065,,,survey-likert,407,1308476,0.0-23.0,42126,List1B,black,woman,,,,,"{""Q0"":4}",,,likert_NSSAL_Q1
2773,,,survey-likert,408,1311276,0.0-24.0,42126,List1B,black,woman,,,,,"{""Q0"":4}",,,likert_NSSAL_Q2
4048,,,survey-likert,409,1315348,0.0-25.0,42126,List1B,black,woman,,,,,"{""Q0"":4}",,,likert_CGRS_Q1
2830,,,survey-likert,410,1318220,0.0-26.0,42126,List1B,black,woman,,,,,"{""Q0"":4}",,,likert_CGRS_Q2
2384,,,survey-likert,411,1320628,0.0-27.0,42126,List1B,black,woman,,,,,"{""Q0"":4}",,,likert_CGRS_Q3
2559,,,survey-text,412,1323211,0.0-28.0,42126,List1B,black,woman,,,,,"{""Q0"":""ccc""}",,,worker_id
25111,,,external-html,413,1348364,0.0-29.0,42126,List1B,black,woman,debrief.html,,,,,,,
