rt,stimulus,button_pressed,trial_type,trial_index,time_elapsed,internal_node_id,subject,list,ppt_race,ppt_gender,url,first_guess,correct,key_press,responses,image_type,phrase_type,test_part
2629,Welcome to the experiment. Press Continue to begin.,0,html-button-response,0,2640,0.0-0.0,42172,List1A,black,woman,,,,,,,,
69090,,,external-html,1,72824,0.0-1.0,42172,List1A,black,woman,consent.html,,,,,,,
16502,"<p>On the next page, you will see portraits of 8 people and their names.</p><p>Your first task is to take a few minutes to memorise the names of these people.</p><p>You will have to recall their names during the rest of the experiment, so it is</p><p>essential that you try to memorise these people and their names as best as you can.</p><br><p><strong>You will then be tested on your memory of these names and portraits.</strong></p><br><p>The experiment will start after you have completed this memory test.</p><br><p>Ready?</p>",0,html-button-response,2,89331,0.0-2.0,42172,List1A,black,woman,,,,,,,,
52021,"<img src='img/portrait_matrix_list1.jpg' style='width:900px;height:500px;''></img><p>If you have memorised all the portraits and names and are ready to start, press Continue.</p><p><strong>Please note: Your memory of these faces will be tested 4 times during this experiment.</strong></p>",0,html-button-response,3,142381,0.0-3.0-0.0,42172,List1A,black,woman,,,,,,,,
2703,"<img src=""portrait/WW2.jpg""style=""height:400px;""></img>",3,html-button-response,4,146090,0.0-3.0-1.0,42172,List1A,black,woman,,TRUE,3,,,,,
null,CORRECT,,html-keyboard-response,5,147608,0.0-3.0-2.0-0.0,42172,List1A,black,woman,,,,null,,,,
2664,"<img src=""portrait/BW1.jpg""style=""height:400px;""></img>",2,html-button-response,6,150277,0.0-3.0-4.0,42172,List1A,black,woman,,TRUE,0,,,,,
3413,"<img src=""portrait/BW1.jpg""style=""height:400px;""></img>",0,html-button-response,7,154699,0.0-3.0-6.0-0.0,42172,List1A,black,woman,,FALSE,0,,,,,
null,CORRECT,,html-keyboard-response,8,156213,0.0-3.0-6.0-1.0-0.0,42172,List1A,black,woman,,,,null,,,,
2421,"<img src=""portrait/WM2.jpg""style=""height:400px;""></img>",7,html-button-response,9,158638,0.0-3.0-7.0,42172,List1A,black,woman,,TRUE,7,,,,,
null,CORRECT,,html-keyboard-response,10,160143,0.0-3.0-8.0-0.0,42172,List1A,black,woman,,,,null,,,,
3354,"<img src=""portrait/WM1.jpg""style=""height:400px;""></img>",6,html-button-response,11,163501,0.0-3.0-10.0,42172,List1A,black,woman,,TRUE,6,,,,,
null,CORRECT,,html-keyboard-response,12,165005,0.0-3.0-11.0-0.0,42172,List1A,black,woman,,,,null,,,,
5605,"<img src=""portrait/BM1.jpg""style=""height:400px;""></img>",4,html-button-response,13,170614,0.0-3.0-13.0,42172,List1A,black,woman,,TRUE,4,,,,,
null,CORRECT,,html-keyboard-response,14,172120,0.0-3.0-14.0-0.0,42172,List1A,black,woman,,,,null,,,,
14400,"<img src=""portrait/BM2.jpg""style=""height:400px;""></img>",5,html-button-response,15,186524,0.0-3.0-16.0,42172,List1A,black,woman,,TRUE,5,,,,,
null,CORRECT,,html-keyboard-response,16,188030,0.0-3.0-17.0-0.0,42172,List1A,black,woman,,,,null,,,,
3300,"<img src=""portrait/WW1.jpg""style=""height:400px;""></img>",1,html-button-response,17,191334,0.0-3.0-19.0,42172,List1A,black,woman,,TRUE,1,,,,,
null,CORRECT,,html-keyboard-response,18,192840,0.0-3.0-20.0-0.0,42172,List1A,black,woman,,,,null,,,,
7422,"<img src=""portrait/BW2.jpg""style=""height:400px;""></img>",2,html-button-response,19,200266,0.0-3.0-22.0,42172,List1A,black,woman,,TRUE,2,,,,,
null,CORRECT,,html-keyboard-response,20,201771,0.0-3.0-23.0-0.0,42172,List1A,black,woman,,,,null,,,,
2385,<p>You got 7 out of 8 right first time. Press Continue.</p>,0,html-button-response,21,204160,0.0-3.0-25.0,42172,List1A,black,woman,,,,,,,,
3385,"As you did not score 100%, the memory game will repeat. Press Continue.",0,html-button-response,22,208549,0.0-3.0-26.0-0.0,42172,List1A,black,woman,,,,,,,,
28859,"<img src='img/portrait_matrix_list1.jpg' style='width:900px;height:500px;''></img><p>If you have memorised all the portraits and names and are ready to start, press Continue.</p><p><strong>Please note: Your memory of these faces will be tested 4 times during this experiment.</strong></p>",0,html-button-response,23,238418,0.0-3.1-0.1,42172,List1A,black,woman,,,,,,,,
5858,"<img src=""portrait/WW2.jpg""style=""height:400px;""></img>",3,html-button-response,24,245282,0.0-3.1-1.1,42172,List1A,black,woman,,TRUE,3,,,,,
null,CORRECT,,html-keyboard-response,25,246790,0.0-3.1-2.1-0.1,42172,List1A,black,woman,,,,null,,,,
3204,"<img src=""portrait/BW1.jpg""style=""height:400px;""></img>",0,html-button-response,26,249998,0.0-3.1-4.1,42172,List1A,black,woman,,TRUE,0,,,,,
null,CORRECT,,html-keyboard-response,27,251502,0.0-3.1-5.1-0.1,42172,List1A,black,woman,,,,null,,,,
2088,"<img src=""portrait/WM2.jpg""style=""height:400px;""></img>",7,html-button-response,28,253594,0.0-3.1-7.1,42172,List1A,black,woman,,TRUE,7,,,,,
null,CORRECT,,html-keyboard-response,29,255099,0.0-3.1-8.1-0.1,42172,List1A,black,woman,,,,null,,,,
4951,"<img src=""portrait/WM1.jpg""style=""height:400px;""></img>",6,html-button-response,30,260054,0.0-3.1-10.1,42172,List1A,black,woman,,TRUE,6,,,,,
null,CORRECT,,html-keyboard-response,31,261558,0.0-3.1-11.1-0.1,42172,List1A,black,woman,,,,null,,,,
4395,"<img src=""portrait/BM1.jpg""style=""height:400px;""></img>",4,html-button-response,32,265957,0.0-3.1-13.1,42172,List1A,black,woman,,TRUE,4,,,,,
null,CORRECT,,html-keyboard-response,33,267468,0.0-3.1-14.1-0.1,42172,List1A,black,woman,,,,null,,,,
3452,"<img src=""portrait/BM2.jpg""style=""height:400px;""></img>",5,html-button-response,34,270925,0.0-3.1-16.1,42172,List1A,black,woman,,TRUE,5,,,,,
null,CORRECT,,html-keyboard-response,35,272429,0.0-3.1-17.1-0.1,42172,List1A,black,woman,,,,null,,,,
2540,"<img src=""portrait/WW1.jpg""style=""height:400px;""></img>",1,html-button-response,36,274972,0.0-3.1-19.1,42172,List1A,black,woman,,TRUE,1,,,,,
null,CORRECT,,html-keyboard-response,37,276479,0.0-3.1-20.1-0.1,42172,List1A,black,woman,,,,null,,,,
3468,"<img src=""portrait/BW2.jpg""style=""height:400px;""></img>",2,html-button-response,38,279951,0.0-3.1-22.1,42172,List1A,black,woman,,TRUE,2,,,,,
null,CORRECT,,html-keyboard-response,39,281455,0.0-3.1-23.1-0.1,42172,List1A,black,woman,,,,null,,,,
1705,<p>You got 8 out of 8 right first time. Press Continue.</p>,0,html-button-response,40,283163,0.0-3.1-25.1,42172,List1A,black,woman,,,,,,,,
69216,"<p>In this experiment, you will view photographs of the people from the memory game interacting.</p><p>By using the <strong>exact</strong> phrase given <i>after</i> the photograph appears and recalling the correct names of the people in the photographs, form a sentence describing the interaction. You do not need to capitalise names.</p><p>Type your answer in the space provided. Please complete every sentence before moving onto the next trial.</p><p>You will only have a few seconds to memorise each given photograph and phrase before you can respond, so try your best to focus.</p><p>An example is given below. Press 'Continue' when you are ready.</p><img src='img/speaking_example.jpg' style='width:800px;height:460px;''></img>",0,html-button-response,41,353386,0.0-4.0,42172,List1A,black,woman,,,,,,,,
3776,"<p>Before the experiment starts, you will watch two example trials. Press 'Continue'.</p>",0,html-button-response,42,358167,0.0-5.0,42172,List1A,black,woman,,,,,,,,
null,<img src='img/meet_eg.gif' style='height:400px;''></img>,,html-keyboard-response,43,361174,0.0-6.0,42172,List1A,black,woman,,,,null,,,,
null,<p>is meeting</p>,,html-keyboard-response,44,363176,0.0-7.0,42172,List1A,black,woman,,,,null,,,,
6333,<p><b>Answer:</b> kate is meeting beth</p>,0,html-button-response,45,369511,0.0-8.0,42172,List1A,black,woman,,,,,,,,
null,<img src='img/look_eg.gif' style='height:400px;''></img>,,html-keyboard-response,46,372518,0.0-9.0,42172,List1A,black,woman,,,,null,,,,
null,<p>are looking at each other</p>,,html-keyboard-response,47,374522,0.0-10.0,42172,List1A,black,woman,,,,null,,,,
2349,<p><b>Answer:</b> luke and dave are looking at each other</p>,0,html-button-response,48,376873,0.0-11.0,42172,List1A,black,woman,,,,,,,,
13127,"<p>Ready to start the experiment?</p><br><p><strong>Remember to describe the picture using a full sentence,</strong></p><p><strong>that combines the names of the people with the <i>exact</i> phrase given.</strong></p><p><strong>To receive full payment you must do this correctly.</strong></p><p><strong> You do not need to capitalise names or use punctuation.</strong></p><br><p>Press 'Continue' to begin.</p>",0,html-button-response,49,391005,0.0-12.0,42172,List1A,black,woman,,,,,,,,
null,"<div style=""font-size:60px;"">+</div>",,html-keyboard-response,50,392510,0.0-13.0-0.0,42172,List1A,black,woman,,,,null,,,,
null,"<img src=""stim_listA/flirt2.gif""style=""height:400px;""></stim_listA>",,html-keyboard-response,51,394520,0.0-13.0-1.0,42172,List1A,black,woman,,,,null,,,,
null,are flirting with each other,,html-keyboard-response,52,396529,0.0-13.0-2.0,42172,List1A,black,woman,,,,null,,,,
18522,,,survey-text,53,415055,0.0-13.0-3.0,42172,List1A,black,woman,,,,,"{""Q0"":""Mike and Beth are flirting with each other""}","<img src=""stim_listA/flirt2.gif""style=""height:400px;""></stim_listA>",are flirting with each other,
null,"<div style=""font-size:60px;"">+</div>",,html-keyboard-response,54,415562,0.0-13.0-0.1,42172,List1A,black,woman,,,,null,,,,
null,"<img src=""stim_listA/shout1.gif""style=""height:400px;""></stim_listA>",,html-keyboard-response,55,417565,0.0-13.0-1.1,42172,List1A,black,woman,,,,null,,,,
null,is shouting at,,html-keyboard-response,56,419567,0.0-13.0-2.1,42172,List1A,black,woman,,,,null,,,,
17331,,,survey-text,57,436902,0.0-13.0-3.1,42172,List1A,black,woman,,,,,"{""Q0"":""Fred is shouting at Beth""}","<img src=""stim_listA/shout1.gif""style=""height:400px;""></stim_listA>",is shouting at,
null,"<div style=""font-size:60px;"">+</div>",,html-keyboard-response,58,437405,0.0-13.0-0.2,42172,List1A,black,woman,,,,null,,,,
null,"<img src=""stim_listA/dance5.gif""style=""height:400px;""></stim_listA>",,html-keyboard-response,59,439416,0.0-13.0-1.2,42172,List1A,black,woman,,,,null,,,,
null,is dancing with,,html-keyboard-response,60,441420,0.0-13.0-2.2,42172,List1A,black,woman,,,,null,,,,
28276,,,survey-text,61,469698,0.0-13.0-3.2,42172,List1A,black,woman,,,,,"{""Q0"":""Luke is dancing with Fred""}","<img src=""stim_listA/dance5.gif""style=""height:400px;""></stim_listA>",is dancing with,
null,"<div style=""font-size:60px;"">+</div>",,html-keyboard-response,62,470203,0.0-13.0-0.3,42172,List1A,black,woman,,,,null,,,,
null,"<img src=""stim_listA/argue3.gif""style=""height:400px;""></stim_listA>",,html-keyboard-response,63,472209,0.0-13.0-1.3,42172,List1A,black,woman,,,,null,,,,
null,is arguing with,,html-keyboard-response,64,474213,0.0-13.0-2.3,42172,List1A,black,woman,,,,null,,,,
23043,,,survey-text,65,497259,0.0-13.0-3.3,42172,List1A,black,woman,,,,,"{""Q0"":""Ruth is arguing with Luke""}","<img src=""stim_listA/argue3.gif""style=""height:400px;""></stim_listA>",is arguing with,
null,"<div style=""font-size:60px;"">+</div>",,html-keyboard-response,66,497762,0.0-13.0-0.4,42172,List1A,black,woman,,,,null,,,,
null,"<img src=""stim_listA/touch2.gif""style=""height:400px;""></stim_listA>",,html-keyboard-response,67,499767,0.0-13.0-1.4,42172,List1A,black,woman,,,,null,,,,
null,are touching each other,,html-keyboard-response,68,501771,0.0-13.0-2.4,42172,List1A,black,woman,,,,null,,,,
18808,,,survey-text,69,520582,0.0-13.0-3.4,42172,List1A,black,woman,,,,,"{""Q0"":""Fred is touching with Beth""}","<img src=""stim_listA/touch2.gif""style=""height:400px;""></stim_listA>",are touching each other,
null,"<div style=""font-size:60px;"">+</div>",,html-keyboard-response,70,521086,0.0-13.0-0.5,42172,List1A,black,woman,,,,null,,,,
null,"<img src=""stim_listA/talk1.gif""style=""height:400px;""></stim_listA>",,html-keyboard-response,71,523090,0.0-13.0-1.5,42172,List1A,black,woman,,,,null,,,,
null,is talking to,,html-keyboard-response,72,525098,0.0-13.0-2.5,42172,List1A,black,woman,,,,null,,,,
14144,,,survey-text,73,539246,0.0-13.0-3.5,42172,List1A,black,woman,,,,,"{""Q0"":""Kate is talking to Fred""}","<img src=""stim_listA/talk1.gif""style=""height:400px;""></stim_listA>",is talking to,
null,"<div style=""font-size:60px;"">+</div>",,html-keyboard-response,74,539750,0.0-13.0-0.6,42172,List1A,black,woman,,,,null,,,,
null,"<img src=""stim_listA/dance6.gif""style=""height:400px;""></stim_listA>",,html-keyboard-response,75,541755,0.0-13.0-1.6,42172,List1A,black,woman,,,,null,,,,
null,are dancing with each other,,html-keyboard-response,76,543759,0.0-13.0-2.6,42172,List1A,black,woman,,,,null,,,,
18324,,,survey-text,77,562085,0.0-13.0-3.6,42172,List1A,black,woman,,,,,"{""Q0"":""Mike is dancing with Luke""}","<img src=""stim_listA/dance6.gif""style=""height:400px;""></stim_listA>",are dancing with each other,
null,"<div style=""font-size:60px;"">+</div>",,html-keyboard-response,78,562590,0.0-13.0-0.7,42172,List1A,black,woman,,,,null,,,,
null,"<img src=""stim_listA/talk8.gif""style=""height:400px;""></stim_listA>",,html-keyboard-response,79,564594,0.0-13.0-1.7,42172,List1A,black,woman,,,,null,,,,
null,are talking to each other,,html-keyboard-response,80,566598,0.0-13.0-2.7,42172,List1A,black,woman,,,,null,,,,
13832,,,survey-text,81,580433,0.0-13.0-3.7,42172,List1A,black,woman,,,,,"{""Q0"":""Kate and Ruth are talking to each other""}","<img src=""stim_listA/talk8.gif""style=""height:400px;""></stim_listA>",are talking to each other,
null,"<div style=""font-size:60px;"">+</div>",,html-keyboard-response,82,580938,0.0-13.0-0.8,42172,List1A,black,woman,,,,null,,,,
null,"<img src=""stim_listA/marry8.gif""style=""height:400px;""></stim_listA>",,html-keyboard-response,83,582942,0.0-13.0-1.8,42172,List1A,black,woman,,,,null,,,,
null,are marrying each other,,html-keyboard-response,84,584946,0.0-13.0-2.8,42172,List1A,black,woman,,,,null,,,,
20070,,,survey-text,85,605018,0.0-13.0-3.8,42172,List1A,black,woman,,,,,"{""Q0"":""Beth and Jane are marrying each other""}","<img src=""stim_listA/marry8.gif""style=""height:400px;""></stim_listA>",are marrying each other,
null,"<div style=""font-size:60px;"">+</div>",,html-keyboard-response,86,605536,0.0-13.0-0.9,42172,List1A,black,woman,,,,null,,,,
null,"<img src=""stim_listA/kiss8.gif""style=""height:400px;""></stim_listA>",,html-keyboard-response,87,607551,0.0-13.0-1.9,42172,List1A,black,woman,,,,null,,,,
null,are kissing each other,,html-keyboard-response,88,609553,0.0-13.0-2.9,42172,List1A,black,woman,,,,null,,,,
11773,,,survey-text,89,621329,0.0-13.0-3.9,42172,List1A,black,woman,,,,,"{""Q0"":""Jane and Kate are kissing each other""}","<img src=""stim_listA/kiss8.gif""style=""height:400px;""></stim_listA>",are kissing each other,
null,"<div style=""font-size:60px;"">+</div>",,html-keyboard-response,90,621832,0.0-13.0-0.10,42172,List1A,black,woman,,,,null,,,,
null,"<img src=""stim_listA/argue5.gif""style=""height:400px;""></stim_listA>",,html-keyboard-response,91,623837,0.0-13.0-1.10,42172,List1A,black,woman,,,,null,,,,
null,is arguing with,,html-keyboard-response,92,625843,0.0-13.0-2.10,42172,List1A,black,woman,,,,null,,,,
9474,,,survey-text,93,635324,0.0-13.0-3.10,42172,List1A,black,woman,,,,,"{""Q0"":""Luke is arguing with Mike""}","<img src=""stim_listA/argue5.gif""style=""height:400px;""></stim_listA>",is arguing with,
null,"<div style=""font-size:60px;"">+</div>",,html-keyboard-response,94,635830,0.0-13.0-0.11,42172,List1A,black,woman,,,,null,,,,
null,"<img src=""stim_listA/kiss5.gif""style=""height:400px;""></stim_listA>",,html-keyboard-response,95,637837,0.0-13.0-1.11,42172,List1A,black,woman,,,,null,,,,
null,is kissing,,html-keyboard-response,96,639840,0.0-13.0-2.11,42172,List1A,black,woman,,,,null,,,,
13468,,,survey-text,97,653311,0.0-13.0-3.11,42172,List1A,black,woman,,,,,"{""Q0"":""Fred and Luke is kissing""}","<img src=""stim_listA/kiss5.gif""style=""height:400px;""></stim_listA>",is kissing,
null,"<div style=""font-size:60px;"">+</div>",,html-keyboard-response,98,653815,0.0-13.0-0.12,42172,List1A,black,woman,,,,null,,,,
null,"<img src=""stim_listA/flirt3.gif""style=""height:400px;""></stim_listA>",,html-keyboard-response,99,655821,0.0-13.0-1.12,42172,List1A,black,woman,,,,null,,,,
null,is flirting with,,html-keyboard-response,100,657825,0.0-13.0-2.12,42172,List1A,black,woman,,,,null,,,,
10429,,,survey-text,101,668257,0.0-13.0-3.12,42172,List1A,black,woman,,,,,"{""Q0"":""Luke and Jane is flirting""}","<img src=""stim_listA/flirt3.gif""style=""height:400px;""></stim_listA>",is flirting with,
null,"<div style=""font-size:60px;"">+</div>",,html-keyboard-response,102,668761,0.0-13.0-0.13,42172,List1A,black,woman,,,,null,,,,
null,"<img src=""stim_listA/argue7.gif""style=""height:400px;""></stim_listA>",,html-keyboard-response,103,670765,0.0-13.0-1.13,42172,List1A,black,woman,,,,null,,,,
null,is arguing with,,html-keyboard-response,104,672771,0.0-13.0-2.13,42172,List1A,black,woman,,,,null,,,,
15689,,,survey-text,105,688462,0.0-13.0-3.13,42172,List1A,black,woman,,,,,"{""Q0"":""Ruth is arguing with Kate""}","<img src=""stim_listA/argue7.gif""style=""height:400px;""></stim_listA>",is arguing with,
null,"<div style=""font-size:60px;"">+</div>",,html-keyboard-response,106,688966,0.0-13.0-0.14,42172,List1A,black,woman,,,,null,,,,
null,"<img src=""stim_listA/touch8.gif""style=""height:400px;""></stim_listA>",,html-keyboard-response,107,690969,0.0-13.0-1.14,42172,List1A,black,woman,,,,null,,,,
null,are touching each other,,html-keyboard-response,108,692973,0.0-13.0-2.14,42172,List1A,black,woman,,,,null,,,,
18177,,,survey-text,109,711153,0.0-13.0-3.14,42172,List1A,black,woman,,,,,"{""Q0"":""Beth and Ruth are touching each other""}","<img src=""stim_listA/touch8.gif""style=""height:400px;""></stim_listA>",are touching each other,
null,"<div style=""font-size:60px;"">+</div>",,html-keyboard-response,110,711656,0.0-13.0-0.15,42172,List1A,black,woman,,,,null,,,,
null,"<img src=""stim_listA/marry4.gif""style=""height:400px;""></stim_listA>",,html-keyboard-response,111,713661,0.0-13.0-1.15,42172,List1A,black,woman,,,,null,,,,
null,are marrying each other,,html-keyboard-response,112,715663,0.0-13.0-2.15,42172,List1A,black,woman,,,,null,,,,
13846,,,survey-text,113,729511,0.0-13.0-3.15,42172,List1A,black,woman,,,,,"{""Q0"":""Luke and Jane are marrying each other""}","<img src=""stim_listA/marry4.gif""style=""height:400px;""></stim_listA>",are marrying each other,
null,"<div style=""font-size:60px;"">+</div>",,html-keyboard-response,114,730014,0.0-13.0-0.16,42172,List1A,black,woman,,,,null,,,,
null,"<img src=""stim_listA/play1.gif""style=""height:400px;""></stim_listA>",,html-keyboard-response,115,732020,0.0-13.0-1.16,42172,List1A,black,woman,,,,null,,,,
null,is playing with,,html-keyboard-response,116,734024,0.0-13.0-2.16,42172,List1A,black,woman,,,,null,,,,
11219,,,survey-text,117,745246,0.0-13.0-3.16,42172,List1A,black,woman,,,,,"{""Q0"":""Mike is playing with Kate""}","<img src=""stim_listA/play1.gif""style=""height:400px;""></stim_listA>",is playing with,
null,"<div style=""font-size:60px;"">+</div>",,html-keyboard-response,118,745749,0.0-13.0-0.17,42172,List1A,black,woman,,,,null,,,,
null,"<img src=""stim_listA/talk3.gif""style=""height:400px;""></stim_listA>",,html-keyboard-response,119,747752,0.0-13.0-1.17,42172,List1A,black,woman,,,,null,,,,
null,is talking to,,html-keyboard-response,120,749756,0.0-13.0-2.17,42172,List1A,black,woman,,,,null,,,,
7904,,,survey-text,121,757662,0.0-13.0-3.17,42172,List1A,black,woman,,,,,"{""Q0"":""Luke is talking to Jane""}","<img src=""stim_listA/talk3.gif""style=""height:400px;""></stim_listA>",is talking to,
null,"<div style=""font-size:60px;"">+</div>",,html-keyboard-response,122,758167,0.0-13.0-0.18,42172,List1A,black,woman,,,,null,,,,
null,"<img src=""stim_listA/fight5.gif""style=""height:400px;""></stim_listA>",,html-keyboard-response,123,760172,0.0-13.0-1.18,42172,List1A,black,woman,,,,null,,,,
null,is fighting,,html-keyboard-response,124,762188,0.0-13.0-2.18,42172,List1A,black,woman,,,,null,,,,
8919,,,survey-text,125,771109,0.0-13.0-3.18,42172,List1A,black,woman,,,,,"{""Q0"":""Mike is fighting Dave""}","<img src=""stim_listA/fight5.gif""style=""height:400px;""></stim_listA>",is fighting,
null,"<div style=""font-size:60px;"">+</div>",,html-keyboard-response,126,771613,0.0-13.0-0.19,42172,List1A,black,woman,,,,null,,,,
null,"<img src=""stim_listA/shout7.gif""style=""height:400px;""></stim_listA>",,html-keyboard-response,127,773619,0.0-13.0-1.19,42172,List1A,black,woman,,,,null,,,,
null,is shouting at,,html-keyboard-response,128,775622,0.0-13.0-2.19,42172,List1A,black,woman,,,,null,,,,
21424,,,survey-text,129,797048,0.0-13.0-3.19,42172,List1A,black,woman,,,,,"{""Q0"":""""}","<img src=""stim_listA/shout7.gif""style=""height:400px;""></stim_listA>",is shouting at,
87481,"<img src='img/portrait_matrix_list1.jpg' style='width:900px;height:500px;''></img><p>If you have memorised all the portraits and names and are ready to start, press Continue.</p><p><strong>Please note: Your memory of these faces will be tested 4 times during this experiment.</strong></p>",0,html-button-response,130,884532,0.0-14.0-0.0,42172,List1A,black,woman,,,,,,,,
2996,"<img src=""portrait/WW2.jpg""style=""height:400px;""></img>",3,html-button-response,131,888534,0.0-14.0-1.0,42172,List1A,black,woman,,TRUE,3,,,,,
null,CORRECT,,html-keyboard-response,132,890040,0.0-14.0-2.0-0.0,42172,List1A,black,woman,,,,null,,,,
4798,"<img src=""portrait/BM2.jpg""style=""height:400px;""></img>",5,html-button-response,133,894842,0.0-14.0-4.0,42172,List1A,black,woman,,TRUE,5,,,,,
null,CORRECT,,html-keyboard-response,134,896348,0.0-14.0-5.0-0.0,42172,List1A,black,woman,,,,null,,,,
2441,"<img src=""portrait/WM1.jpg""style=""height:400px;""></img>",6,html-button-response,135,898794,0.0-14.0-7.0,42172,List1A,black,woman,,TRUE,6,,,,,
null,CORRECT,,html-keyboard-response,136,900299,0.0-14.0-8.0-0.0,42172,List1A,black,woman,,,,null,,,,
1673,"<img src=""portrait/WM2.jpg""style=""height:400px;""></img>",7,html-button-response,137,901974,0.0-14.0-10.0,42172,List1A,black,woman,,TRUE,7,,,,,
null,CORRECT,,html-keyboard-response,138,903488,0.0-14.0-11.0-0.0,42172,List1A,black,woman,,,,null,,,,
3480,"<img src=""portrait/BW2.jpg""style=""height:400px;""></img>",2,html-button-response,139,906973,0.0-14.0-13.0,42172,List1A,black,woman,,TRUE,2,,,,,
null,CORRECT,,html-keyboard-response,140,908479,0.0-14.0-14.0-0.0,42172,List1A,black,woman,,,,null,,,,
4278,"<img src=""portrait/BM1.jpg""style=""height:400px;""></img>",4,html-button-response,141,912760,0.0-14.0-16.0,42172,List1A,black,woman,,TRUE,4,,,,,
null,CORRECT,,html-keyboard-response,142,914267,0.0-14.0-17.0-0.0,42172,List1A,black,woman,,,,null,,,,
2218,"<img src=""portrait/WW1.jpg""style=""height:400px;""></img>",1,html-button-response,143,916487,0.0-14.0-19.0,42172,List1A,black,woman,,TRUE,1,,,,,
null,CORRECT,,html-keyboard-response,144,917994,0.0-14.0-20.0-0.0,42172,List1A,black,woman,,,,null,,,,
6678,"<img src=""portrait/BW1.jpg""style=""height:400px;""></img>",0,html-button-response,145,924675,0.0-14.0-22.0,42172,List1A,black,woman,,TRUE,0,,,,,
null,CORRECT,,html-keyboard-response,146,926182,0.0-14.0-23.0-0.0,42172,List1A,black,woman,,,,null,,,,
1520,<p>You got 8 out of 8 right first time. Press Continue.</p>,0,html-button-response,147,927704,0.0-14.0-25.0,42172,List1A,black,woman,,,,,,,,
null,"<div style=""font-size:60px;"">+</div>",,html-keyboard-response,148,929212,0.0-15.0-0.0,42172,List1A,black,woman,,,,null,,,,
null,"<img src=""stim_listA/fight2.gif""style=""height:400px;""></stim_listA>",,html-keyboard-response,149,931217,0.0-15.0-1.0,42172,List1A,black,woman,,,,null,,,,
null,are fighting each other,,html-keyboard-response,150,933220,0.0-15.0-2.0,42172,List1A,black,woman,,,,null,,,,
13931,,,survey-text,151,947153,0.0-15.0-3.0,42172,List1A,black,woman,,,,,"{""Q0"":""Beth and Fred are fighting each other""}","<img src=""stim_listA/fight2.gif""style=""height:400px;""></stim_listA>",are fighting each other,
null,"<div style=""font-size:60px;"">+</div>",,html-keyboard-response,152,947656,0.0-15.0-0.1,42172,List1A,black,woman,,,,null,,,,
null,"<img src=""stim_listA/dance8.gif""style=""height:400px;""></stim_listA>",,html-keyboard-response,153,949661,0.0-15.0-1.1,42172,List1A,black,woman,,,,null,,,,
null,are dancing with each other,,html-keyboard-response,154,951665,0.0-15.0-2.1,42172,List1A,black,woman,,,,null,,,,
19200,,,survey-text,155,970867,0.0-15.0-3.1,42172,List1A,black,woman,,,,,"{""Q0"":""Kate and Ruth are dancing with each other""}","<img src=""stim_listA/dance8.gif""style=""height:400px;""></stim_listA>",are dancing with each other,
null,"<div style=""font-size:60px;"">+</div>",,html-keyboard-response,156,971372,0.0-15.0-0.2,42172,List1A,black,woman,,,,null,,,,
null,"<img src=""stim_listA/shout8.gif""style=""height:400px;""></stim_listA>",,html-keyboard-response,157,973379,0.0-15.0-1.2,42172,List1A,black,woman,,,,null,,,,
null,are shouting at each other,,html-keyboard-response,158,975386,0.0-15.0-2.2,42172,List1A,black,woman,,,,null,,,,
12717,,,survey-text,159,988106,0.0-15.0-3.2,42172,List1A,black,woman,,,,,"{""Q0"":""Jane and kate are shouting at each other""}","<img src=""stim_listA/shout8.gif""style=""height:400px;""></stim_listA>",are shouting at each other,
null,"<div style=""font-size:60px;"">+</div>",,html-keyboard-response,160,988611,0.0-15.0-0.3,42172,List1A,black,woman,,,,null,,,,
null,"<img src=""stim_listA/fight8.gif""style=""height:400px;""></stim_listA>",,html-keyboard-response,161,990616,0.0-15.0-1.3,42172,List1A,black,woman,,,,null,,,,
null,are fighting each other,,html-keyboard-response,162,992619,0.0-15.0-2.3,42172,List1A,black,woman,,,,null,,,,
11935,,,survey-text,163,1004558,0.0-15.0-3.3,42172,List1A,black,woman,,,,,"{""Q0"":""ruth and beth are fighting each other""}","<img src=""stim_listA/fight8.gif""style=""height:400px;""></stim_listA>",are fighting each other,
null,"<div style=""font-size:60px;"">+</div>",,html-keyboard-response,164,1005063,0.0-15.0-0.4,42172,List1A,black,woman,,,,null,,,,
null,"<img src=""stim_listA/marry7.gif""style=""height:400px;""></stim_listA>",,html-keyboard-response,165,1007068,0.0-15.0-1.4,42172,List1A,black,woman,,,,null,,,,
null,is marrying,,html-keyboard-response,166,1009072,0.0-15.0-2.4,42172,List1A,black,woman,,,,null,,,,
8265,,,survey-text,167,1017339,0.0-15.0-3.4,42172,List1A,black,woman,,,,,"{""Q0"":""kate and ruth is marrying""}","<img src=""stim_listA/marry7.gif""style=""height:400px;""></stim_listA>",is marrying,
null,"<div style=""font-size:60px;"">+</div>",,html-keyboard-response,168,1017844,0.0-15.0-0.5,42172,List1A,black,woman,,,,null,,,,
null,"<img src=""stim_listA/flirt1.gif""style=""height:400px;""></stim_listA>",,html-keyboard-response,169,1019849,0.0-15.0-1.5,42172,List1A,black,woman,,,,null,,,,
null,is flirting with,,html-keyboard-response,170,1021852,0.0-15.0-2.5,42172,List1A,black,woman,,,,null,,,,
11368,,,survey-text,171,1033222,0.0-15.0-3.5,42172,List1A,black,woman,,,,,"{""Q0"":""fred is flirting with kate""}","<img src=""stim_listA/flirt1.gif""style=""height:400px;""></stim_listA>",is flirting with,
null,"<div style=""font-size:60px;"">+</div>",,html-keyboard-response,172,1033725,0.0-15.0-0.6,42172,List1A,black,woman,,,,null,,,,
null,"<img src=""stim_listA/play7.gif""style=""height:400px;""></stim_listA>",,html-keyboard-response,173,1035730,0.0-15.0-1.6,42172,List1A,black,woman,,,,null,,,,
null,is playing with,,html-keyboard-response,174,1037733,0.0-15.0-2.6,42172,List1A,black,woman,,,,null,,,,
10570,,,survey-text,175,1048305,0.0-15.0-3.6,42172,List1A,black,woman,,,,,"{""Q0"":""kate is playing with jane""}","<img src=""stim_listA/play7.gif""style=""height:400px;""></stim_listA>",is playing with,
null,"<div style=""font-size:60px;"">+</div>",,html-keyboard-response,176,1048808,0.0-15.0-0.7,42172,List1A,black,woman,,,,null,,,,
null,"<img src=""stim_listA/marry2.gif""style=""height:400px;""></stim_listA>",,html-keyboard-response,177,1050812,0.0-15.0-1.7,42172,List1A,black,woman,,,,null,,,,
null,are marrying each other,,html-keyboard-response,178,1052815,0.0-15.0-2.7,42172,List1A,black,woman,,,,null,,,,
13388,,,survey-text,179,1066205,0.0-15.0-3.7,42172,List1A,black,woman,,,,,"{""Q0"":""kate and fred are marrying each other""}","<img src=""stim_listA/marry2.gif""style=""height:400px;""></stim_listA>",are marrying each other,
null,"<div style=""font-size:60px;"">+</div>",,html-keyboard-response,180,1066708,0.0-15.0-0.8,42172,List1A,black,woman,,,,null,,,,
null,"<img src=""stim_listA/talk4.gif""style=""height:400px;""></stim_listA>",,html-keyboard-response,181,1068712,0.0-15.0-1.8,42172,List1A,black,woman,,,,null,,,,
null,are talking to each other,,html-keyboard-response,182,1070715,0.0-15.0-2.8,42172,List1A,black,woman,,,,null,,,,
18588,,,survey-text,183,1089307,0.0-15.0-3.8,42172,List1A,black,woman,,,,,"{""Q0"":""ruth and dave are talking to each other""}","<img src=""stim_listA/talk4.gif""style=""height:400px;""></stim_listA>",are talking to each other,
null,"<div style=""font-size:60px;"">+</div>",,html-keyboard-response,184,1089810,0.0-15.0-0.9,42172,List1A,black,woman,,,,null,,,,
null,"<img src=""stim_listA/marry6.gif""style=""height:400px;""></stim_listA>",,html-keyboard-response,185,1091813,0.0-15.0-1.9,42172,List1A,black,woman,,,,null,,,,
null,are marrying each other,,html-keyboard-response,186,1093815,0.0-15.0-2.9,42172,List1A,black,woman,,,,null,,,,
11493,,,survey-text,187,1105311,0.0-15.0-3.9,42172,List1A,black,woman,,,,,"{""Q0"":""dave and fred are marrying each other""}","<img src=""stim_listA/marry6.gif""style=""height:400px;""></stim_listA>",are marrying each other,
null,"<div style=""font-size:60px;"">+</div>",,html-keyboard-response,188,1105815,0.0-15.0-0.10,42172,List1A,black,woman,,,,null,,,,
null,"<img src=""stim_listA/play3.gif""style=""height:400px;""></stim_listA>",,html-keyboard-response,189,1107820,0.0-15.0-1.10,42172,List1A,black,woman,,,,null,,,,
null,is playing with,,html-keyboard-response,190,1109826,0.0-15.0-2.10,42172,List1A,black,woman,,,,null,,,,
10606,,,survey-text,191,1120436,0.0-15.0-3.10,42172,List1A,black,woman,,,,,"{""Q0"":""dave is playing with jane""}","<img src=""stim_listA/play3.gif""style=""height:400px;""></stim_listA>",is playing with,
null,"<div style=""font-size:60px;"">+</div>",,html-keyboard-response,192,1120939,0.0-15.0-0.11,42172,List1A,black,woman,,,,null,,,,
null,"<img src=""stim_listA/kiss3.gif""style=""height:400px;""></stim_listA>",,html-keyboard-response,193,1122946,0.0-15.0-1.11,42172,List1A,black,woman,,,,null,,,,
null,is kissing,,html-keyboard-response,194,1124950,0.0-15.0-2.11,42172,List1A,black,woman,,,,null,,,,
10649,,,survey-text,195,1135602,0.0-15.0-3.11,42172,List1A,black,woman,,,,,"{""Q0"":""luke is kissing ruth""}","<img src=""stim_listA/kiss3.gif""style=""height:400px;""></stim_listA>",is kissing,
null,"<div style=""font-size:60px;"">+</div>",,html-keyboard-response,196,1136106,0.0-15.0-0.12,42172,List1A,black,woman,,,,null,,,,
null,"<img src=""stim_listA/shout4.gif""style=""height:400px;""></stim_listA>",,html-keyboard-response,197,1138112,0.0-15.0-1.12,42172,List1A,black,woman,,,,null,,,,
null,are shouting at each other,,html-keyboard-response,198,1140115,0.0-15.0-2.12,42172,List1A,black,woman,,,,null,,,,
17911,,,survey-text,199,1158028,0.0-15.0-3.12,42172,List1A,black,woman,,,,,"{""Q0"":""dave and jane are shouting at each other""}","<img src=""stim_listA/shout4.gif""style=""height:400px;""></stim_listA>",are shouting at each other,
null,"<div style=""font-size:60px;"">+</div>",,html-keyboard-response,200,1158534,0.0-15.0-0.13,42172,List1A,black,woman,,,,null,,,,
null,"<img src=""stim_listA/shout3.gif""style=""height:400px;""></stim_listA>",,html-keyboard-response,201,1160538,0.0-15.0-1.13,42172,List1A,black,woman,,,,null,,,,
null,is shouting at,,html-keyboard-response,202,1162540,0.0-15.0-2.13,42172,List1A,black,woman,,,,null,,,,
9109,,,survey-text,203,1171652,0.0-15.0-3.13,42172,List1A,black,woman,,,,,"{""Q0"":""luke is shoutiing at ruth""}","<img src=""stim_listA/shout3.gif""style=""height:400px;""></stim_listA>",is shouting at,
null,"<div style=""font-size:60px;"">+</div>",,html-keyboard-response,204,1172156,0.0-15.0-0.14,42172,List1A,black,woman,,,,null,,,,
null,"<img src=""stim_listA/touch7.gif""style=""height:400px;""></stim_listA>",,html-keyboard-response,205,1174161,0.0-15.0-1.14,42172,List1A,black,woman,,,,null,,,,
null,is touching,,html-keyboard-response,206,1176164,0.0-15.0-2.14,42172,List1A,black,woman,,,,null,,,,
10072,,,survey-text,207,1186238,0.0-15.0-3.14,42172,List1A,black,woman,,,,,"{""Q0"":""kate is touching jane ""}","<img src=""stim_listA/touch7.gif""style=""height:400px;""></stim_listA>",is touching,
null,"<div style=""font-size:60px;"">+</div>",,html-keyboard-response,208,1186742,0.0-15.0-0.15,42172,List1A,black,woman,,,,null,,,,
null,"<img src=""stim_listA/touch3.gif""style=""height:400px;""></stim_listA>",,html-keyboard-response,209,1188746,0.0-15.0-1.15,42172,List1A,black,woman,,,,null,,,,
null,is touching,,html-keyboard-response,210,1190749,0.0-15.0-2.15,42172,List1A,black,woman,,,,null,,,,
7535,,,survey-text,211,1198287,0.0-15.0-3.15,42172,List1A,black,woman,,,,,"{""Q0"":""jane is touching dave""}","<img src=""stim_listA/touch3.gif""style=""height:400px;""></stim_listA>",is touching,
null,"<div style=""font-size:60px;"">+</div>",,html-keyboard-response,212,1198792,0.0-15.0-0.16,42172,List1A,black,woman,,,,null,,,,
null,"<img src=""stim_listA/kiss1.gif""style=""height:400px;""></stim_listA>",,html-keyboard-response,213,1200797,0.0-15.0-1.16,42172,List1A,black,woman,,,,null,,,,
null,is kissing,,html-keyboard-response,214,1202800,0.0-15.0-2.16,42172,List1A,black,woman,,,,null,,,,
6935,,,survey-text,215,1209738,0.0-15.0-3.16,42172,List1A,black,woman,,,,,"{""Q0"":""fred is kissing beth""}","<img src=""stim_listA/kiss1.gif""style=""height:400px;""></stim_listA>",is kissing,
null,"<div style=""font-size:60px;"">+</div>",,html-keyboard-response,216,1210241,0.0-15.0-0.17,42172,List1A,black,woman,,,,null,,,,
null,"<img src=""stim_listA/touch6.gif""style=""height:400px;""></stim_listA>",,html-keyboard-response,217,1212245,0.0-15.0-1.17,42172,List1A,black,woman,,,,null,,,,
null,are touching each other,,html-keyboard-response,218,1214247,0.0-15.0-2.17,42172,List1A,black,woman,,,,null,,,,
14270,,,survey-text,219,1228519,0.0-15.0-3.17,42172,List1A,black,woman,,,,,"{""Q0"":""luke and fred are touching each other""}","<img src=""stim_listA/touch6.gif""style=""height:400px;""></stim_listA>",are touching each other,
null,"<div style=""font-size:60px;"">+</div>",,html-keyboard-response,220,1229022,0.0-15.0-0.18,42172,List1A,black,woman,,,,null,,,,
null,"<img src=""stim_listA/flirt8.gif""style=""height:400px;""></stim_listA>",,html-keyboard-response,221,1231029,0.0-15.0-1.18,42172,List1A,black,woman,,,,null,,,,
null,are flirting with each other,,html-keyboard-response,222,1233033,0.0-15.0-2.18,42172,List1A,black,woman,,,,null,,,,
14613,,,survey-text,223,1247648,0.0-15.0-3.18,42172,List1A,black,woman,,,,,"{""Q0"":""ruth and kate are flirting with each other""}","<img src=""stim_listA/flirt8.gif""style=""height:400px;""></stim_listA>",are flirting with each other,
null,"<div style=""font-size:60px;"">+</div>",,html-keyboard-response,224,1248152,0.0-15.0-0.19,42172,List1A,black,woman,,,,null,,,,
null,"<img src=""stim_listA/shout5.gif""style=""height:400px;""></stim_listA>",,html-keyboard-response,225,1250156,0.0-15.0-1.19,42172,List1A,black,woman,,,,null,,,,
null,is shouting at,,html-keyboard-response,226,1252162,0.0-15.0-2.19,42172,List1A,black,woman,,,,null,,,,
8274,,,survey-text,227,1260438,0.0-15.0-3.19,42172,List1A,black,woman,,,,,"{""Q0"":""fred is shouting at luke""}","<img src=""stim_listA/shout5.gif""style=""height:400px;""></stim_listA>",is shouting at,
56607,"<img src='img/portrait_matrix_list1.jpg' style='width:900px;height:500px;''></img><p>If you have memorised all the portraits and names and are ready to start, press Continue.</p><p><strong>Please note: Your memory of these faces will be tested 4 times during this experiment.</strong></p>",0,html-button-response,228,1317049,0.0-16.0-0.0,42172,List1A,black,woman,,,,,,,,
4307,"<img src=""portrait/WW1.jpg""style=""height:400px;""></img>",1,html-button-response,229,1322362,0.0-16.0-1.0,42172,List1A,black,woman,,TRUE,1,,,,,
null,CORRECT,,html-keyboard-response,230,1323870,0.0-16.0-2.0-0.0,42172,List1A,black,woman,,,,null,,,,
1774,"<img src=""portrait/BW2.jpg""style=""height:400px;""></img>",2,html-button-response,231,1325648,0.0-16.0-4.0,42172,List1A,black,woman,,TRUE,2,,,,,
null,CORRECT,,html-keyboard-response,232,1327153,0.0-16.0-5.0-0.0,42172,List1A,black,woman,,,,null,,,,
2124,"<img src=""portrait/WM2.jpg""style=""height:400px;""></img>",7,html-button-response,233,1329282,0.0-16.0-7.0,42172,List1A,black,woman,,TRUE,7,,,,,
null,CORRECT,,html-keyboard-response,234,1330787,0.0-16.0-8.0-0.0,42172,List1A,black,woman,,,,null,,,,
1667,"<img src=""portrait/WM1.jpg""style=""height:400px;""></img>",6,html-button-response,235,1332458,0.0-16.0-10.0,42172,List1A,black,woman,,TRUE,6,,,,,
null,CORRECT,,html-keyboard-response,236,1333965,0.0-16.0-11.0-0.0,42172,List1A,black,woman,,,,null,,,,
2190,"<img src=""portrait/BW1.jpg""style=""height:400px;""></img>",0,html-button-response,237,1336159,0.0-16.0-13.0,42172,List1A,black,woman,,TRUE,0,,,,,
null,CORRECT,,html-keyboard-response,238,1337672,0.0-16.0-14.0-0.0,42172,List1A,black,woman,,,,null,,,,
2115,"<img src=""portrait/BM1.jpg""style=""height:400px;""></img>",4,html-button-response,239,1339791,0.0-16.0-16.0,42172,List1A,black,woman,,TRUE,4,,,,,
null,CORRECT,,html-keyboard-response,240,1341300,0.0-16.0-17.0-0.0,42172,List1A,black,woman,,,,null,,,,
1641,"<img src=""portrait/WW2.jpg""style=""height:400px;""></img>",3,html-button-response,241,1342945,0.0-16.0-19.0,42172,List1A,black,woman,,TRUE,3,,,,,
null,CORRECT,,html-keyboard-response,242,1344451,0.0-16.0-20.0-0.0,42172,List1A,black,woman,,,,null,,,,
2262,"<img src=""portrait/BM2.jpg""style=""height:400px;""></img>",5,html-button-response,243,1346717,0.0-16.0-22.0,42172,List1A,black,woman,,TRUE,5,,,,,
null,CORRECT,,html-keyboard-response,244,1348237,0.0-16.0-23.0-0.0,42172,List1A,black,woman,,,,null,,,,
2725,<p>You got 8 out of 8 right first time. Press Continue.</p>,0,html-button-response,245,1350967,0.0-16.0-25.0,42172,List1A,black,woman,,,,,,,,
null,"<div style=""font-size:60px;"">+</div>",,html-keyboard-response,246,1352474,0.0-17.0-0.0,42172,List1A,black,woman,,,,null,,,,
null,"<img src=""stim_listA/kiss4.gif""style=""height:400px;""></stim_listA>",,html-keyboard-response,247,1354479,0.0-17.0-1.0,42172,List1A,black,woman,,,,null,,,,
null,are kissing each other,,html-keyboard-response,248,1356482,0.0-17.0-2.0,42172,List1A,black,woman,,,,null,,,,
13235,,,survey-text,249,1369720,0.0-17.0-3.0,42172,List1A,black,woman,,,,,"{""Q0"":""Dave and Jane are kissing each other""}","<img src=""stim_listA/kiss4.gif""style=""height:400px;""></stim_listA>",are kissing each other,
null,"<div style=""font-size:60px;"">+</div>",,html-keyboard-response,250,1370223,0.0-17.0-0.1,42172,List1A,black,woman,,,,null,,,,
null,"<img src=""stim_listA/argue4.gif""style=""height:400px;""></stim_listA>",,html-keyboard-response,251,1372228,0.0-17.0-1.1,42172,List1A,black,woman,,,,null,,,,
null,are arguing with each other,,html-keyboard-response,252,1374232,0.0-17.0-2.1,42172,List1A,black,woman,,,,null,,,,
29825,,,survey-text,253,1404059,0.0-17.0-3.1,42172,List1A,black,woman,,,,,"{""Q0"":""jane and luke are arguing with each other ""}","<img src=""stim_listA/argue4.gif""style=""height:400px;""></stim_listA>",are arguing with each other,
null,"<div style=""font-size:60px;"">+</div>",,html-keyboard-response,254,1404564,0.0-17.0-0.2,42172,List1A,black,woman,,,,null,,,,
null,"<img src=""stim_listA/fight6.gif""style=""height:400px;""></stim_listA>",,html-keyboard-response,255,1406570,0.0-17.0-1.2,42172,List1A,black,woman,,,,null,,,,
null,are fighting each other,,html-keyboard-response,256,1408574,0.0-17.0-2.2,42172,List1A,black,woman,,,,null,,,,
11175,,,survey-text,257,1419752,0.0-17.0-3.2,42172,List1A,black,woman,,,,,"{""Q0"":""luke and fred are fighting each other""}","<img src=""stim_listA/fight6.gif""style=""height:400px;""></stim_listA>",are fighting each other,
null,"<div style=""font-size:60px;"">+</div>",,html-keyboard-response,258,1420255,0.0-17.0-0.3,42172,List1A,black,woman,,,,null,,,,
null,"<img src=""stim_listA/flirt6.gif""style=""height:400px;""></stim_listA>",,html-keyboard-response,259,1422270,0.0-17.0-1.3,42172,List1A,black,woman,,,,null,,,,
null,are flirting with each other,,html-keyboard-response,260,1424272,0.0-17.0-2.3,42172,List1A,black,woman,,,,null,,,,
16039,,,survey-text,261,1440314,0.0-17.0-3.3,42172,List1A,black,woman,,,,,"{""Q0"":""luke and mike are flirting with each other""}","<img src=""stim_listA/flirt6.gif""style=""height:400px;""></stim_listA>",are flirting with each other,
null,"<div style=""font-size:60px;"">+</div>",,html-keyboard-response,262,1440818,0.0-17.0-0.4,42172,List1A,black,woman,,,,null,,,,
null,"<img src=""stim_listA/argue1.gif""style=""height:400px;""></stim_listA>",,html-keyboard-response,263,1442823,0.0-17.0-1.4,42172,List1A,black,woman,,,,null,,,,
null,is arguing with,,html-keyboard-response,264,1444826,0.0-17.0-2.4,42172,List1A,black,woman,,,,null,,,,
10351,,,survey-text,265,1455180,0.0-17.0-3.4,42172,List1A,black,woman,,,,,"{""Q0"":""mike is arguing with beth""}","<img src=""stim_listA/argue1.gif""style=""height:400px;""></stim_listA>",is arguing with,
null,"<div style=""font-size:60px;"">+</div>",,html-keyboard-response,266,1455683,0.0-17.0-0.5,42172,List1A,black,woman,,,,null,,,,
null,"<img src=""stim_listA/dance1.gif""style=""height:400px;""></stim_listA>",,html-keyboard-response,267,1457686,0.0-17.0-1.5,42172,List1A,black,woman,,,,null,,,,
null,is dancing with,,html-keyboard-response,268,1459689,0.0-17.0-2.5,42172,List1A,black,woman,,,,null,,,,
8727,,,survey-text,269,1468419,0.0-17.0-3.5,42172,List1A,black,woman,,,,,"{""Q0"":""fred is dancing with kate""}","<img src=""stim_listA/dance1.gif""style=""height:400px;""></stim_listA>",is dancing with,
null,"<div style=""font-size:60px;"">+</div>",,html-keyboard-response,270,1468922,0.0-17.0-0.6,42172,List1A,black,woman,,,,null,,,,
null,"<img src=""stim_listA/dance3.gif""style=""height:400px;""></stim_listA>",,html-keyboard-response,271,1470927,0.0-17.0-1.6,42172,List1A,black,woman,,,,null,,,,
null,is dancing with,,html-keyboard-response,272,1472932,0.0-17.0-2.6,42172,List1A,black,woman,,,,null,,,,
8195,,,survey-text,273,1481129,0.0-17.0-3.6,42172,List1A,black,woman,,,,,"{""Q0"":""jane is dancing with luke""}","<img src=""stim_listA/dance3.gif""style=""height:400px;""></stim_listA>",is dancing with,
null,"<div style=""font-size:60px;"">+</div>",,html-keyboard-response,274,1481633,0.0-17.0-0.7,42172,List1A,black,woman,,,,null,,,,
null,"<img src=""stim_listA/kiss7.gif""style=""height:400px;""></stim_listA>",,html-keyboard-response,275,1483639,0.0-17.0-1.7,42172,List1A,black,woman,,,,null,,,,
null,is kissing,,html-keyboard-response,276,1485644,0.0-17.0-2.7,42172,List1A,black,woman,,,,null,,,,
8847,,,survey-text,277,1494492,0.0-17.0-3.7,42172,List1A,black,woman,,,,,"{""Q0"":""beth is kissing ruth""}","<img src=""stim_listA/kiss7.gif""style=""height:400px;""></stim_listA>",is kissing,
null,"<div style=""font-size:60px;"">+</div>",,html-keyboard-response,278,1494997,0.0-17.0-0.8,42172,List1A,black,woman,,,,null,,,,
null,"<img src=""stim_listA/play2.gif""style=""height:400px;""></stim_listA>",,html-keyboard-response,279,1497002,0.0-17.0-1.8,42172,List1A,black,woman,,,,null,,,,
null,are playing with each other,,html-keyboard-response,280,1499006,0.0-17.0-2.8,42172,List1A,black,woman,,,,null,,,,
12570,,,survey-text,281,1511581,0.0-17.0-3.8,42172,List1A,black,woman,,,,,"{""Q0"":""beth and fred are playing with each other""}","<img src=""stim_listA/play2.gif""style=""height:400px;""></stim_listA>",are playing with each other,
null,"<div style=""font-size:60px;"">+</div>",,html-keyboard-response,282,1512085,0.0-17.0-0.9,42172,List1A,black,woman,,,,null,,,,
null,"<img src=""stim_listA/dance2.gif""style=""height:400px;""></stim_listA>",,html-keyboard-response,283,1514091,0.0-17.0-1.9,42172,List1A,black,woman,,,,null,,,,
null,are dancing with each other,,html-keyboard-response,284,1516096,0.0-17.0-2.9,42172,List1A,black,woman,,,,null,,,,
11480,,,survey-text,285,1527578,0.0-17.0-3.9,42172,List1A,black,woman,,,,,"{""Q0"":""beth and mike are dancing with each other""}","<img src=""stim_listA/dance2.gif""style=""height:400px;""></stim_listA>",are dancing with each other,
null,"<div style=""font-size:60px;"">+</div>",,html-keyboard-response,286,1528083,0.0-17.0-0.10,42172,List1A,black,woman,,,,null,,,,
null,"<img src=""stim_listA/fight3.gif""style=""height:400px;""></stim_listA>",,html-keyboard-response,287,1530090,0.0-17.0-1.10,42172,List1A,black,woman,,,,null,,,,
null,is fighting,,html-keyboard-response,288,1532095,0.0-17.0-2.10,42172,List1A,black,woman,,,,null,,,,
8849,,,survey-text,289,1540947,0.0-17.0-3.10,42172,List1A,black,woman,,,,,"{""Q0"":""dave and jane is fighting""}","<img src=""stim_listA/fight3.gif""style=""height:400px;""></stim_listA>",is fighting,
null,"<div style=""font-size:60px;"">+</div>",,html-keyboard-response,290,1541450,0.0-17.0-0.11,42172,List1A,black,woman,,,,null,,,,
null,"<img src=""stim_listA/flirt7.gif""style=""height:400px;""></stim_listA>",,html-keyboard-response,291,1543455,0.0-17.0-1.11,42172,List1A,black,woman,,,,null,,,,
null,is flirting with,,html-keyboard-response,292,1545459,0.0-17.0-2.11,42172,List1A,black,woman,,,,null,,,,
9292,,,survey-text,293,1554754,0.0-17.0-3.11,42172,List1A,black,woman,,,,,"{""Q0"":""beth is flirting with jane""}","<img src=""stim_listA/flirt7.gif""style=""height:400px;""></stim_listA>",is flirting with,
null,"<div style=""font-size:60px;"">+</div>",,html-keyboard-response,294,1555258,0.0-17.0-0.12,42172,List1A,black,woman,,,,null,,,,
null,"<img src=""stim_listA/argue2.gif""style=""height:400px;""></stim_listA>",,html-keyboard-response,295,1557262,0.0-17.0-1.12,42172,List1A,black,woman,,,,null,,,,
null,are arguing with each other,,html-keyboard-response,296,1559266,0.0-17.0-2.12,42172,List1A,black,woman,,,,null,,,,
11220,,,survey-text,297,1570488,0.0-17.0-3.12,42172,List1A,black,woman,,,,,"{""Q0"":""kate and fred are arguing with each other""}","<img src=""stim_listA/argue2.gif""style=""height:400px;""></stim_listA>",are arguing with each other,
null,"<div style=""font-size:60px;"">+</div>",,html-keyboard-response,298,1570991,0.0-17.0-0.13,42172,List1A,black,woman,,,,null,,,,
null,"<img src=""stim_listA/kiss2.gif""style=""height:400px;""></stim_listA>",,html-keyboard-response,299,1572995,0.0-17.0-1.13,42172,List1A,black,woman,,,,null,,,,
null,are kissing each other,,html-keyboard-response,300,1574998,0.0-17.0-2.13,42172,List1A,black,woman,,,,null,,,,
10944,,,survey-text,301,1585944,0.0-17.0-3.13,42172,List1A,black,woman,,,,,"{""Q0"":""kate and mike are kissing each other""}","<img src=""stim_listA/kiss2.gif""style=""height:400px;""></stim_listA>",are kissing each other,
null,"<div style=""font-size:60px;"">+</div>",,html-keyboard-response,302,1586447,0.0-17.0-0.14,42172,List1A,black,woman,,,,null,,,,
null,"<img src=""stim_listA/argue6.gif""style=""height:400px;""></stim_listA>",,html-keyboard-response,303,1588450,0.0-17.0-1.14,42172,List1A,black,woman,,,,null,,,,
null,are arguing with each other,,html-keyboard-response,304,1590453,0.0-17.0-2.14,42172,List1A,black,woman,,,,null,,,,
12539,,,survey-text,305,1602995,0.0-17.0-3.14,42172,List1A,black,woman,,,,,"{""Q0"":""dave and fred are arguing with each other""}","<img src=""stim_listA/argue6.gif""style=""height:400px;""></stim_listA>",are arguing with each other,
null,"<div style=""font-size:60px;"">+</div>",,html-keyboard-response,306,1603498,0.0-17.0-0.15,42172,List1A,black,woman,,,,null,,,,
null,"<img src=""stim_listA/fight7.gif""style=""height:400px;""></stim_listA>",,html-keyboard-response,307,1605503,0.0-17.0-1.15,42172,List1A,black,woman,,,,null,,,,
null,is fighting,,html-keyboard-response,308,1607507,0.0-17.0-2.15,42172,List1A,black,woman,,,,null,,,,
17963,,,survey-text,309,1625473,0.0-17.0-3.15,42172,List1A,black,woman,,,,,"{""Q0"":""kate and jane is fighting ""}","<img src=""stim_listA/fight7.gif""style=""height:400px;""></stim_listA>",is fighting,
null,"<div style=""font-size:60px;"">+</div>",,html-keyboard-response,310,1625977,0.0-17.0-0.16,42172,List1A,black,woman,,,,null,,,,
null,"<img src=""stim_listA/touch1.gif""style=""height:400px;""></stim_listA>",,html-keyboard-response,311,1627982,0.0-17.0-1.16,42172,List1A,black,woman,,,,null,,,,
null,is touching,,html-keyboard-response,312,1629987,0.0-17.0-2.16,42172,List1A,black,woman,,,,null,,,,
18140,,,survey-text,313,1648130,0.0-17.0-3.16,42172,List1A,black,woman,,,,,"{""Q0"":""mike and kate is touching""}","<img src=""stim_listA/touch1.gif""style=""height:400px;""></stim_listA>",is touching,
null,"<div style=""font-size:60px;"">+</div>",,html-keyboard-response,314,1648634,0.0-17.0-0.17,42172,List1A,black,woman,,,,null,,,,
null,"<img src=""stim_listA/play4.gif""style=""height:400px;""></stim_listA>",,html-keyboard-response,315,1650639,0.0-17.0-1.17,42172,List1A,black,woman,,,,null,,,,
null,are playing with each other,,html-keyboard-response,316,1652642,0.0-17.0-2.17,42172,List1A,black,woman,,,,null,,,,
14410,,,survey-text,317,1667055,0.0-17.0-3.17,42172,List1A,black,woman,,,,,"{""Q0"":""ruth and luke are playing with each other""}","<img src=""stim_listA/play4.gif""style=""height:400px;""></stim_listA>",are playing with each other,
null,"<div style=""font-size:60px;"">+</div>",,html-keyboard-response,318,1667560,0.0-17.0-0.18,42172,List1A,black,woman,,,,null,,,,
null,"<img src=""stim_listA/fight1.gif""style=""height:400px;""></stim_listA>",,html-keyboard-response,319,1669565,0.0-17.0-1.18,42172,List1A,black,woman,,,,null,,,,
null,is fighting,,html-keyboard-response,320,1671568,0.0-17.0-2.18,42172,List1A,black,woman,,,,null,,,,
8772,,,survey-text,321,1680344,0.0-17.0-3.18,42172,List1A,black,woman,,,,,"{""Q0"":""mike and kate is fighting""}","<img src=""stim_listA/fight1.gif""style=""height:400px;""></stim_listA>",is fighting,
null,"<div style=""font-size:60px;"">+</div>",,html-keyboard-response,322,1680849,0.0-17.0-0.19,42172,List1A,black,woman,,,,null,,,,
null,"<img src=""stim_listA/argue8.gif""style=""height:400px;""></stim_listA>",,html-keyboard-response,323,1682853,0.0-17.0-1.19,42172,List1A,black,woman,,,,null,,,,
null,are arguing with each other,,html-keyboard-response,324,1684856,0.0-17.0-2.19,42172,List1A,black,woman,,,,null,,,,
12272,,,survey-text,325,1697131,0.0-17.0-3.19,42172,List1A,black,woman,,,,,"{""Q0"":""jane and beth are arguing with each other""}","<img src=""stim_listA/argue8.gif""style=""height:400px;""></stim_listA>",are arguing with each other,
3434,"<img src='img/portrait_matrix_list1.jpg' style='width:900px;height:500px;''></img><p>If you have memorised all the portraits and names and are ready to start, press Continue.</p><p><strong>Please note: Your memory of these faces will be tested 4 times during this experiment.</strong></p>",0,html-button-response,326,1700569,0.0-18.0-0.0,42172,List1A,black,woman,,,,,,,,
2652,"<img src=""portrait/BM2.jpg""style=""height:400px;""></img>",5,html-button-response,327,1704225,0.0-18.0-1.0,42172,List1A,black,woman,,TRUE,5,,,,,
null,CORRECT,,html-keyboard-response,328,1705731,0.0-18.0-2.0-0.0,42172,List1A,black,woman,,,,null,,,,
2354,"<img src=""portrait/BW1.jpg""style=""height:400px;""></img>",0,html-button-response,329,1708089,0.0-18.0-4.0,42172,List1A,black,woman,,TRUE,0,,,,,
null,CORRECT,,html-keyboard-response,330,1709594,0.0-18.0-5.0-0.0,42172,List1A,black,woman,,,,null,,,,
2023,"<img src=""portrait/WM1.jpg""style=""height:400px;""></img>",6,html-button-response,331,1711621,0.0-18.0-7.0,42172,List1A,black,woman,,TRUE,6,,,,,
null,CORRECT,,html-keyboard-response,332,1713127,0.0-18.0-8.0-0.0,42172,List1A,black,woman,,,,null,,,,
2955,"<img src=""portrait/BM1.jpg""style=""height:400px;""></img>",4,html-button-response,333,1716086,0.0-18.0-10.0,42172,List1A,black,woman,,TRUE,4,,,,,
null,CORRECT,,html-keyboard-response,334,1717590,0.0-18.0-11.0-0.0,42172,List1A,black,woman,,,,null,,,,
1850,"<img src=""portrait/BW2.jpg""style=""height:400px;""></img>",2,html-button-response,335,1719444,0.0-18.0-13.0,42172,List1A,black,woman,,TRUE,2,,,,,
null,CORRECT,,html-keyboard-response,336,1720948,0.0-18.0-14.0-0.0,42172,List1A,black,woman,,,,null,,,,
1371,"<img src=""portrait/WW2.jpg""style=""height:400px;""></img>",3,html-button-response,337,1722324,0.0-18.0-16.0,42172,List1A,black,woman,,TRUE,3,,,,,
null,CORRECT,,html-keyboard-response,338,1723830,0.0-18.0-17.0-0.0,42172,List1A,black,woman,,,,null,,,,
1644,"<img src=""portrait/WM2.jpg""style=""height:400px;""></img>",7,html-button-response,339,1725477,0.0-18.0-19.0,42172,List1A,black,woman,,TRUE,7,,,,,
null,CORRECT,,html-keyboard-response,340,1726985,0.0-18.0-20.0-0.0,42172,List1A,black,woman,,,,null,,,,
2169,"<img src=""portrait/WW1.jpg""style=""height:400px;""></img>",1,html-button-response,341,1729158,0.0-18.0-22.0,42172,List1A,black,woman,,TRUE,1,,,,,
null,CORRECT,,html-keyboard-response,342,1730665,0.0-18.0-23.0-0.0,42172,List1A,black,woman,,,,null,,,,
1270,<p>You got 8 out of 8 right first time. Press Continue.</p>,0,html-button-response,343,1731938,0.0-18.0-25.0,42172,List1A,black,woman,,,,,,,,
null,"<div style=""font-size:60px;"">+</div>",,html-keyboard-response,344,1733448,0.0-19.0-0.0,42172,List1A,black,woman,,,,null,,,,
null,"<img src=""stim_listA/shout6.gif""style=""height:400px;""></stim_listA>",,html-keyboard-response,345,1735451,0.0-19.0-1.0,42172,List1A,black,woman,,,,null,,,,
null,are shouting at each other,,html-keyboard-response,346,1737457,0.0-19.0-2.0,42172,List1A,black,woman,,,,null,,,,
13369,,,survey-text,347,1750828,0.0-19.0-3.0,42172,List1A,black,woman,,,,,"{""Q0"":""dave and mike are shouting at each other""}","<img src=""stim_listA/shout6.gif""style=""height:400px;""></stim_listA>",are shouting at each other,
null,"<div style=""font-size:60px;"">+</div>",,html-keyboard-response,348,1751331,0.0-19.0-0.1,42172,List1A,black,woman,,,,null,,,,
null,"<img src=""stim_listA/kiss6.gif""style=""height:400px;""></stim_listA>",,html-keyboard-response,349,1753335,0.0-19.0-1.1,42172,List1A,black,woman,,,,null,,,,
null,are kissing each other,,html-keyboard-response,350,1755338,0.0-19.0-2.1,42172,List1A,black,woman,,,,null,,,,
11352,,,survey-text,351,1766693,0.0-19.0-3.1,42172,List1A,black,woman,,,,,"{""Q0"":""dave and mike are kissing each other""}","<img src=""stim_listA/kiss6.gif""style=""height:400px;""></stim_listA>",are kissing each other,
null,"<div style=""font-size:60px;"">+</div>",,html-keyboard-response,352,1767197,0.0-19.0-0.2,42172,List1A,black,woman,,,,null,,,,
null,"<img src=""stim_listA/marry3.gif""style=""height:400px;""></stim_listA>",,html-keyboard-response,353,1769202,0.0-19.0-1.2,42172,List1A,black,woman,,,,null,,,,
null,is marrying,,html-keyboard-response,354,1771204,0.0-19.0-2.2,42172,List1A,black,woman,,,,null,,,,
7845,,,survey-text,355,1779052,0.0-19.0-3.2,42172,List1A,black,woman,,,,,"{""Q0"":""dave and ruth is marrying""}","<img src=""stim_listA/marry3.gif""style=""height:400px;""></stim_listA>",is marrying,
null,"<div style=""font-size:60px;"">+</div>",,html-keyboard-response,356,1779570,0.0-19.0-0.3,42172,List1A,black,woman,,,,null,,,,
null,"<img src=""stim_listA/talk2.gif""style=""height:400px;""></stim_listA>",,html-keyboard-response,357,1781586,0.0-19.0-1.3,42172,List1A,black,woman,,,,null,,,,
null,are talking to each other,,html-keyboard-response,358,1783591,0.0-19.0-2.3,42172,List1A,black,woman,,,,null,,,,
15452,,,survey-text,359,1799046,0.0-19.0-3.3,42172,List1A,black,woman,,,,,"{""Q0"":""beth and mike are talking to each other""}","<img src=""stim_listA/talk2.gif""style=""height:400px;""></stim_listA>",are talking to each other,
null,"<div style=""font-size:60px;"">+</div>",,html-keyboard-response,360,1799551,0.0-19.0-0.4,42172,List1A,black,woman,,,,null,,,,
null,"<img src=""stim_listA/fight4.gif""style=""height:400px;""></stim_listA>",,html-keyboard-response,361,1801556,0.0-19.0-1.4,42172,List1A,black,woman,,,,null,,,,
null,are fighting each other,,html-keyboard-response,362,1803559,0.0-19.0-2.4,42172,List1A,black,woman,,,,null,,,,
13334,,,survey-text,363,1816895,0.0-19.0-3.4,42172,List1A,black,woman,,,,,"{""Q0"":""ruth and luke are fighting each other""}","<img src=""stim_listA/fight4.gif""style=""height:400px;""></stim_listA>",are fighting each other,
null,"<div style=""font-size:60px;"">+</div>",,html-keyboard-response,364,1817399,0.0-19.0-0.5,42172,List1A,black,woman,,,,null,,,,
null,"<img src=""stim_listA/dance7.gif""style=""height:400px;""></stim_listA>",,html-keyboard-response,365,1819403,0.0-19.0-1.5,42172,List1A,black,woman,,,,null,,,,
null,is dancing with,,html-keyboard-response,366,1821406,0.0-19.0-2.5,42172,List1A,black,woman,,,,null,,,,
11401,,,survey-text,367,1832809,0.0-19.0-3.5,42172,List1A,black,woman,,,,,"{""Q0"":""jane is dancing with beth""}","<img src=""stim_listA/dance7.gif""style=""height:400px;""></stim_listA>",is dancing with,
null,"<div style=""font-size:60px;"">+</div>",,html-keyboard-response,368,1833313,0.0-19.0-0.6,42172,List1A,black,woman,,,,null,,,,
null,"<img src=""stim_listA/flirt5.gif""style=""height:400px;""></stim_listA>",,html-keyboard-response,369,1835320,0.0-19.0-1.6,42172,List1A,black,woman,,,,null,,,,
null,is flirting with,,html-keyboard-response,370,1837323,0.0-19.0-2.6,42172,List1A,black,woman,,,,null,,,,
9471,,,survey-text,371,1846797,0.0-19.0-3.6,42172,List1A,black,woman,,,,,"{""Q0"":""fred is flirting with dave""}","<img src=""stim_listA/flirt5.gif""style=""height:400px;""></stim_listA>",is flirting with,
null,"<div style=""font-size:60px;"">+</div>",,html-keyboard-response,372,1847302,0.0-19.0-0.7,42172,List1A,black,woman,,,,null,,,,
null,"<img src=""stim_listA/play6.gif""style=""height:400px;""></stim_listA>",,html-keyboard-response,373,1849306,0.0-19.0-1.7,42172,List1A,black,woman,,,,null,,,,
null,are playing with each other,,html-keyboard-response,374,1851309,0.0-19.0-2.7,42172,List1A,black,woman,,,,null,,,,
14568,,,survey-text,375,1865881,0.0-19.0-3.7,42172,List1A,black,woman,,,,,"{""Q0"":""luke and fred are playing with each other""}","<img src=""stim_listA/play6.gif""style=""height:400px;""></stim_listA>",are playing with each other,
null,"<div style=""font-size:60px;"">+</div>",,html-keyboard-response,376,1866386,0.0-19.0-0.8,42172,List1A,black,woman,,,,null,,,,
null,"<img src=""stim_listA/touch5.gif""style=""height:400px;""></stim_listA>",,html-keyboard-response,377,1868391,0.0-19.0-1.8,42172,List1A,black,woman,,,,null,,,,
null,is touching,,html-keyboard-response,378,1870393,0.0-19.0-2.8,42172,List1A,black,woman,,,,null,,,,
8129,,,survey-text,379,1878525,0.0-19.0-3.8,42172,List1A,black,woman,,,,,"{""Q0"":""mike and dave is touching""}","<img src=""stim_listA/touch5.gif""style=""height:400px;""></stim_listA>",is touching,
null,"<div style=""font-size:60px;"">+</div>",,html-keyboard-response,380,1879029,0.0-19.0-0.9,42172,List1A,black,woman,,,,null,,,,
null,"<img src=""stim_listA/talk5.gif""style=""height:400px;""></stim_listA>",,html-keyboard-response,381,1881034,0.0-19.0-1.9,42172,List1A,black,woman,,,,null,,,,
null,is talking to,,html-keyboard-response,382,1883037,0.0-19.0-2.9,42172,List1A,black,woman,,,,null,,,,
8803,,,survey-text,383,1891842,0.0-19.0-3.9,42172,List1A,black,woman,,,,,"{""Q0"":""fred is talking to dave""}","<img src=""stim_listA/talk5.gif""style=""height:400px;""></stim_listA>",is talking to,
null,"<div style=""font-size:60px;"">+</div>",,html-keyboard-response,384,1892347,0.0-19.0-0.10,42172,List1A,black,woman,,,,null,,,,
null,"<img src=""stim_listA/dance4.gif""style=""height:400px;""></stim_listA>",,html-keyboard-response,385,1894352,0.0-19.0-1.10,42172,List1A,black,woman,,,,null,,,,
null,are dancing with each other,,html-keyboard-response,386,1896355,0.0-19.0-2.10,42172,List1A,black,woman,,,,null,,,,
15911,,,survey-text,387,1912268,0.0-19.0-3.10,42172,List1A,black,woman,,,,,"{""Q0"":""dave and ruth are dancing with each other""}","<img src=""stim_listA/dance4.gif""style=""height:400px;""></stim_listA>",are dancing with each other,
null,"<div style=""font-size:60px;"">+</div>",,html-keyboard-response,388,1912772,0.0-19.0-0.11,42172,List1A,black,woman,,,,null,,,,
null,"<img src=""stim_listA/marry5.gif""style=""height:400px;""></stim_listA>",,html-keyboard-response,389,1914779,0.0-19.0-1.11,42172,List1A,black,woman,,,,null,,,,
null,is marrying,,html-keyboard-response,390,1916786,0.0-19.0-2.11,42172,List1A,black,woman,,,,null,,,,
8917,,,survey-text,391,1925706,0.0-19.0-3.11,42172,List1A,black,woman,,,,,"{""Q0"":""mike is marrying luke""}","<img src=""stim_listA/marry5.gif""style=""height:400px;""></stim_listA>",is marrying,
null,"<div style=""font-size:60px;"">+</div>",,html-keyboard-response,392,1926211,0.0-19.0-0.12,42172,List1A,black,woman,,,,null,,,,
null,"<img src=""stim_listA/shout2.gif""style=""height:400px;""></stim_listA>",,html-keyboard-response,393,1928215,0.0-19.0-1.12,42172,List1A,black,woman,,,,null,,,,
null,are shouting at each other,,html-keyboard-response,394,1930217,0.0-19.0-2.12,42172,List1A,black,woman,,,,null,,,,
11023,,,survey-text,395,1941243,0.0-19.0-3.12,42172,List1A,black,woman,,,,,"{""Q0"":""kate and mike are shouting at each other""}","<img src=""stim_listA/shout2.gif""style=""height:400px;""></stim_listA>",are shouting at each other,
null,"<div style=""font-size:60px;"">+</div>",,html-keyboard-response,396,1941746,0.0-19.0-0.13,42172,List1A,black,woman,,,,null,,,,
null,"<img src=""stim_listA/marry1.gif""style=""height:400px;""></stim_listA>",,html-keyboard-response,397,1943750,0.0-19.0-1.13,42172,List1A,black,woman,,,,null,,,,
null,is marrying,,html-keyboard-response,398,1945760,0.0-19.0-2.13,42172,List1A,black,woman,,,,null,,,,
7272,,,survey-text,399,1953035,0.0-19.0-3.13,42172,List1A,black,woman,,,,,"{""Q0"":""mike is marrying beth""}","<img src=""stim_listA/marry1.gif""style=""height:400px;""></stim_listA>",is marrying,
null,"<div style=""font-size:60px;"">+</div>",,html-keyboard-response,400,1953538,0.0-19.0-0.14,42172,List1A,black,woman,,,,null,,,,
null,"<img src=""stim_listA/flirt4.gif""style=""height:400px;""></stim_listA>",,html-keyboard-response,401,1955546,0.0-19.0-1.14,42172,List1A,black,woman,,,,null,,,,
null,are flirting with each other,,html-keyboard-response,402,1957549,0.0-19.0-2.14,42172,List1A,black,woman,,,,null,,,,
13041,,,survey-text,403,1970597,0.0-19.0-3.14,42172,List1A,black,woman,,,,,"{""Q0"":""ruth and dave are flirting with each other""}","<img src=""stim_listA/flirt4.gif""style=""height:400px;""></stim_listA>",are flirting with each other,
null,"<div style=""font-size:60px;"">+</div>",,html-keyboard-response,404,1971100,0.0-19.0-0.15,42172,List1A,black,woman,,,,null,,,,
null,"<img src=""stim_listA/play8.gif""style=""height:400px;""></stim_listA>",,html-keyboard-response,405,1973104,0.0-19.0-1.15,42172,List1A,black,woman,,,,null,,,,
null,are playing with each other,,html-keyboard-response,406,1975107,0.0-19.0-2.15,42172,List1A,black,woman,,,,null,,,,
12797,,,survey-text,407,1987906,0.0-19.0-3.15,42172,List1A,black,woman,,,,,"{""Q0"":""ruth and beth are playing with each other""}","<img src=""stim_listA/play8.gif""style=""height:400px;""></stim_listA>",are playing with each other,
null,"<div style=""font-size:60px;"">+</div>",,html-keyboard-response,408,1988409,0.0-19.0-0.16,42172,List1A,black,woman,,,,null,,,,
null,"<img src=""stim_listA/talk6.gif""style=""height:400px;""></stim_listA>",,html-keyboard-response,409,1990413,0.0-19.0-1.16,42172,List1A,black,woman,,,,null,,,,
null,are talking to each other,,html-keyboard-response,410,1992420,0.0-19.0-2.16,42172,List1A,black,woman,,,,null,,,,
10419,,,survey-text,411,2002842,0.0-19.0-3.16,42172,List1A,black,woman,,,,,"{""Q0"":""luke and mike are talking to each other""}","<img src=""stim_listA/talk6.gif""style=""height:400px;""></stim_listA>",are talking to each other,
null,"<div style=""font-size:60px;"">+</div>",,html-keyboard-response,412,2003347,0.0-19.0-0.17,42172,List1A,black,woman,,,,null,,,,
null,"<img src=""stim_listA/talk7.gif""style=""height:400px;""></stim_listA>",,html-keyboard-response,413,2005353,0.0-19.0-1.17,42172,List1A,black,woman,,,,null,,,,
null,is talking to,,html-keyboard-response,414,2007358,0.0-19.0-2.17,42172,List1A,black,woman,,,,null,,,,
7373,,,survey-text,415,2014734,0.0-19.0-3.17,42172,List1A,black,woman,,,,,"{""Q0"":""beth is talking to jane""}","<img src=""stim_listA/talk7.gif""style=""height:400px;""></stim_listA>",is talking to,
null,"<div style=""font-size:60px;"">+</div>",,html-keyboard-response,416,2015239,0.0-19.0-0.18,42172,List1A,black,woman,,,,null,,,,
null,"<img src=""stim_listA/play5.gif""style=""height:400px;""></stim_listA>",,html-keyboard-response,417,2017244,0.0-19.0-1.18,42172,List1A,black,woman,,,,null,,,,
null,is playing with,,html-keyboard-response,418,2019247,0.0-19.0-2.18,42172,List1A,black,woman,,,,null,,,,
7712,,,survey-text,419,2026962,0.0-19.0-3.18,42172,List1A,black,woman,,,,,"{""Q0"":""mike is playing with dave""}","<img src=""stim_listA/play5.gif""style=""height:400px;""></stim_listA>",is playing with,
null,"<div style=""font-size:60px;"">+</div>",,html-keyboard-response,420,2027465,0.0-19.0-0.19,42172,List1A,black,woman,,,,null,,,,
null,"<img src=""stim_listA/touch4.gif""style=""height:400px;""></stim_listA>",,html-keyboard-response,421,2029471,0.0-19.0-1.19,42172,List1A,black,woman,,,,null,,,,
null,are touching each other,,html-keyboard-response,422,2031473,0.0-19.0-2.19,42172,List1A,black,woman,,,,null,,,,
13565,,,survey-text,423,2045041,0.0-19.0-3.19,42172,List1A,black,woman,,,,,"{""Q0"":""ruth and luke are touching each other""}","<img src=""stim_listA/touch4.gif""style=""height:400px;""></stim_listA>",are touching each other,
2780,<p>Thank you for completing that task.</p><p>The final part of this session is a short questionnaire.</p><p>Press Continue.</p>,0,html-button-response,424,2047824,0.0-20.0,42172,List1A,black,woman,,,,,,,,
51467,,,survey-text,425,2100297,0.0-21.0,42172,List1A,black,woman,,,,,"{""Q0"":""31"",""Q1"":""English"",""Q2"":""English"",""Q3"":""United Kingdom"",""Q4"":""Black British"",""Q5"":""Female""}",,,demographics
11207,,,survey-likert,426,2111512,0.0-22.0,42172,List1A,black,woman,,,,,"{""Q0"":3}",,,likert_ESS
23449,,,survey-likert,427,2134967,0.0-23.0,42172,List1A,black,woman,,,,,"{""Q0"":1}",,,likert_NSSAL_Q1
5075,,,survey-likert,428,2140047,0.0-24.0,42172,List1A,black,woman,,,,,"{""Q0"":1}",,,likert_NSSAL_Q2
9441,,,survey-likert,429,2149493,0.0-25.0,42172,List1A,black,woman,,,,,"{""Q0"":3}",,,likert_CGRS_Q1
5655,,,survey-likert,430,2155154,0.0-26.0,42172,List1A,black,woman,,,,,"{""Q0"":3}",,,likert_CGRS_Q2
4311,,,survey-likert,431,2159471,0.0-27.0,42172,List1A,black,woman,,,,,"{""Q0"":3}",,,likert_CGRS_Q3
13810,,,survey-text,432,2173285,0.0-28.0,42172,List1A,black,woman,,,,,"{""Q0"":""ccc""}",,,worker_id
49235,,,external-html,433,2222667,0.0-29.0,42172,List1A,black,woman,debrief.html,,,,,,,
