rt,stimulus,button_pressed,trial_type,trial_index,time_elapsed,internal_node_id,subject,list,ppt_race,ppt_gender,url,first_guess,correct,key_press,responses,image_type,phrase_type,test_part
8092,Welcome to the experiment. Press Continue to begin.,0,html-button-response,0,8099,0.0-0.0,42365,List2A,black,woman,,,,,,,,
24186,,,external-html,1,33357,0.0-1.0,42365,List2A,black,woman,consent.html,,,,,,,
4442,"<p>On the next page, you will see portraits of 8 people and their names.</p><p>Your first task is to take a few minutes to memorise the names of these people.</p><p>You will have to recall their names during the rest of the experiment, so it is</p><p>essential that you try to memorise these people and their names as best as you can.</p><br><p><strong>You will then be tested on your memory of these names and portraits.</strong></p><br><p>The experiment will start after you have completed this memory test.</p><br><p>Ready?</p>",0,html-button-response,2,37803,0.0-2.0,42365,List2A,black,woman,,,,,,,,
373067,"<img src='img/portrait_matrix_list2.jpg' style='width:900px;height:500px;''></img><p>If you have memorised all the portraits and names and are ready to start, press Continue.</p><p><strong>Please note: Your memory of these faces will be tested 4 times during this experiment.</strong></p>",0,html-button-response,3,411879,0.0-3.0-0.0,42365,List2A,black,woman,,,,,,,,
6459,"<img src=""portrait/WW2.jpg""style=""height:400px;""></img>",1,html-button-response,4,419340,0.0-3.0-1.0,42365,List2A,black,woman,,TRUE,3,,,,,
6437,"<img src=""portrait/WW2.jpg""style=""height:400px;""></img>",3,html-button-response,5,426798,0.0-3.0-3.0-0.0,42365,List2A,black,woman,,FALSE,3,,,,,
null,CORRECT,,html-keyboard-response,6,428332,0.0-3.0-3.0-1.0-0.0,42365,List2A,black,woman,,,,null,,,,
4373,"<img src=""portrait/WW1.jpg""style=""height:400px;""></img>",1,html-button-response,7,432707,0.0-3.0-4.0,42365,List2A,black,woman,,TRUE,1,,,,,
null,CORRECT,,html-keyboard-response,8,434225,0.0-3.0-5.0-0.0,42365,List2A,black,woman,,,,null,,,,
11262,"<img src=""portrait/BW1.jpg""style=""height:400px;""></img>",2,html-button-response,9,445490,0.0-3.0-7.0,42365,List2A,black,woman,,TRUE,0,,,,,
3847,"<img src=""portrait/BW1.jpg""style=""height:400px;""></img>",0,html-button-response,10,450340,0.0-3.0-9.0-0.0,42365,List2A,black,woman,,FALSE,0,,,,,
null,CORRECT,,html-keyboard-response,11,451857,0.0-3.0-9.0-1.0-0.0,42365,List2A,black,woman,,,,null,,,,
4043,"<img src=""portrait/WM2.jpg""style=""height:400px;""></img>",6,html-button-response,12,455902,0.0-3.0-10.0,42365,List2A,black,woman,,TRUE,7,,,,,
54506,"<img src=""portrait/WM2.jpg""style=""height:400px;""></img>",7,html-button-response,13,511414,0.0-3.0-12.0-0.0,42365,List2A,black,woman,,FALSE,7,,,,,
null,CORRECT,,html-keyboard-response,14,512918,0.0-3.0-12.0-1.0-0.0,42365,List2A,black,woman,,,,null,,,,
3027,"<img src=""portrait/WM1.jpg""style=""height:400px;""></img>",6,html-button-response,15,515946,0.0-3.0-13.0,42365,List2A,black,woman,,TRUE,6,,,,,
null,CORRECT,,html-keyboard-response,16,517466,0.0-3.0-14.0-0.0,42365,List2A,black,woman,,,,null,,,,
3449,"<img src=""portrait/BM2.jpg""style=""height:400px;""></img>",5,html-button-response,17,520916,0.0-3.0-16.0,42365,List2A,black,woman,,TRUE,5,,,,,
null,CORRECT,,html-keyboard-response,18,522428,0.0-3.0-17.0-0.0,42365,List2A,black,woman,,,,null,,,,
5155,"<img src=""portrait/BW2.jpg""style=""height:400px;""></img>",2,html-button-response,19,527584,0.0-3.0-19.0,42365,List2A,black,woman,,TRUE,2,,,,,
null,CORRECT,,html-keyboard-response,20,529100,0.0-3.0-20.0-0.0,42365,List2A,black,woman,,,,null,,,,
2978,"<img src=""portrait/BM1.jpg""style=""height:400px;""></img>",4,html-button-response,21,532080,0.0-3.0-22.0,42365,List2A,black,woman,,TRUE,4,,,,,
null,CORRECT,,html-keyboard-response,22,533583,0.0-3.0-23.0-0.0,42365,List2A,black,woman,,,,null,,,,
4148,<p>You got 5 out of 8 right first time. Press Continue.</p>,0,html-button-response,23,537731,0.0-3.0-25.0,42365,List2A,black,woman,,,,,,,,
5672,"As you did not score 100%, the memory game will repeat. Press Continue.",0,html-button-response,24,544405,0.0-3.0-26.0-0.0,42365,List2A,black,woman,,,,,,,,
20050,"<img src='img/portrait_matrix_list2.jpg' style='width:900px;height:500px;''></img><p>If you have memorised all the portraits and names and are ready to start, press Continue.</p><p><strong>Please note: Your memory of these faces will be tested 4 times during this experiment.</strong></p>",0,html-button-response,25,565473,0.0-3.1-0.1,42365,List2A,black,woman,,,,,,,,
8895,"<img src=""portrait/WW2.jpg""style=""height:400px;""></img>",3,html-button-response,26,575378,0.0-3.1-1.1,42365,List2A,black,woman,,TRUE,3,,,,,
null,CORRECT,,html-keyboard-response,27,576898,0.0-3.1-2.1-0.1,42365,List2A,black,woman,,,,null,,,,
4230,"<img src=""portrait/WW1.jpg""style=""height:400px;""></img>",1,html-button-response,28,581131,0.0-3.1-4.1,42365,List2A,black,woman,,TRUE,1,,,,,
null,CORRECT,,html-keyboard-response,29,582652,0.0-3.1-5.1-0.1,42365,List2A,black,woman,,,,null,,,,
4047,"<img src=""portrait/BW1.jpg""style=""height:400px;""></img>",0,html-button-response,30,586700,0.0-3.1-7.1,42365,List2A,black,woman,,TRUE,0,,,,,
null,CORRECT,,html-keyboard-response,31,588203,0.0-3.1-8.1-0.1,42365,List2A,black,woman,,,,null,,,,
4573,"<img src=""portrait/WM2.jpg""style=""height:400px;""></img>",7,html-button-response,32,592777,0.0-3.1-10.1,42365,List2A,black,woman,,TRUE,7,,,,,
null,CORRECT,,html-keyboard-response,33,594302,0.0-3.1-11.1-0.1,42365,List2A,black,woman,,,,null,,,,
4702,"<img src=""portrait/WM1.jpg""style=""height:400px;""></img>",6,html-button-response,34,599005,0.0-3.1-13.1,42365,List2A,black,woman,,TRUE,6,,,,,
null,CORRECT,,html-keyboard-response,35,600508,0.0-3.1-14.1-0.1,42365,List2A,black,woman,,,,null,,,,
3030,"<img src=""portrait/BM2.jpg""style=""height:400px;""></img>",5,html-button-response,36,603540,0.0-3.1-16.1,42365,List2A,black,woman,,TRUE,5,,,,,
null,CORRECT,,html-keyboard-response,37,605058,0.0-3.1-17.1-0.1,42365,List2A,black,woman,,,,null,,,,
4015,"<img src=""portrait/BW2.jpg""style=""height:400px;""></img>",2,html-button-response,38,609074,0.0-3.1-19.1,42365,List2A,black,woman,,TRUE,2,,,,,
null,CORRECT,,html-keyboard-response,39,610579,0.0-3.1-20.1-0.1,42365,List2A,black,woman,,,,null,,,,
7981,"<img src=""portrait/BM1.jpg""style=""height:400px;""></img>",4,html-button-response,40,618561,0.0-3.1-22.1,42365,List2A,black,woman,,TRUE,4,,,,,
null,CORRECT,,html-keyboard-response,41,620065,0.0-3.1-23.1-0.1,42365,List2A,black,woman,,,,null,,,,
4626,<p>You got 8 out of 8 right first time. Press Continue.</p>,0,html-button-response,42,624693,0.0-3.1-25.1,42365,List2A,black,woman,,,,,,,,
28909,"<p>In this experiment, you will view photographs of the people from the memory game interacting.</p><p>By using the <strong>exact</strong> phrase given <i>after</i> the photograph appears and recalling the correct names of the people in the photographs, form a sentence describing the interaction. You do not need to capitalise names.</p><p>Type your answer in the space provided. Please complete every sentence before moving onto the next trial.</p><p>You will only have a few seconds to memorise each given photograph and phrase before you can respond, so try your best to focus.</p><p>An example is given below. Press 'Continue' when you are ready.</p><img src='img/speaking_example.jpg' style='width:800px;height:460px;''></img>",0,html-button-response,43,654605,0.0-4.0,42365,List2A,black,woman,,,,,,,,
4247,"<p>Before the experiment starts, you will watch two example trials. Press 'Continue'.</p>",0,html-button-response,44,659857,0.0-5.0,42365,List2A,black,woman,,,,,,,,
null,<img src='img/meet_eg.gif' style='height:400px;''></img>,,html-keyboard-response,45,662863,0.0-6.0,42365,List2A,black,woman,,,,null,,,,
null,<p>is meeting</p>,,html-keyboard-response,46,664869,0.0-7.0,42365,List2A,black,woman,,,,null,,,,
8048,<p><b>Answer:</b> jane is meeting ruth</p>,0,html-button-response,47,672918,0.0-8.0,42365,List2A,black,woman,,,,,,,,
null,<img src='img/look_eg.gif' style='height:400px;''></img>,,html-keyboard-response,48,675921,0.0-9.0,42365,List2A,black,woman,,,,null,,,,
null,<p>are looking at each other</p>,,html-keyboard-response,49,677934,0.0-10.0,42365,List2A,black,woman,,,,null,,,,
2392,<p><b>Answer:</b> fred and mike are looking at each other</p>,0,html-button-response,50,680328,0.0-11.0,42365,List2A,black,woman,,,,,,,,
10431,"<p>Ready to start the experiment?</p><br><p><strong>Remember to describe the picture using a full sentence,</strong></p><p><strong>that combines the names of the people with the <i>exact</i> phrase given.</strong></p><p><strong>To receive full payment you must do this correctly.</strong></p><p><strong> You do not need to capitalise names or use punctuation.</strong></p><br><p>Press 'Continue' to begin.</p>",0,html-button-response,51,691770,0.0-12.0,42365,List2A,black,woman,,,,,,,,
null,"<div style=""font-size:60px;"">+</div>",,html-keyboard-response,52,693286,0.0-13.0-0.0,42365,List2A,black,woman,,,,null,,,,
null,"<img src=""stim_listA/talk3.gif""style=""height:400px;""></stim_listA>",,html-keyboard-response,53,695291,0.0-13.0-1.0,42365,List2A,black,woman,,,,null,,,,
null,is talking to,,html-keyboard-response,54,697298,0.0-13.0-2.0,42365,List2A,black,woman,,,,null,,,,
24564,,,survey-text,55,721864,0.0-13.0-3.0,42365,List2A,black,woman,,,,,"{""Q0"":""kate is talking to fred""}","<img src=""stim_listA/talk3.gif""style=""height:400px;""></stim_listA>",is talking to,
null,"<div style=""font-size:60px;"">+</div>",,html-keyboard-response,56,722379,0.0-13.0-0.1,42365,List2A,black,woman,,,,null,,,,
null,"<img src=""stim_listA/talk8.gif""style=""height:400px;""></stim_listA>",,html-keyboard-response,57,724381,0.0-13.0-1.1,42365,List2A,black,woman,,,,null,,,,
null,are talking to each other,,html-keyboard-response,58,726385,0.0-13.0-2.1,42365,List2A,black,woman,,,,null,,,,
76033,,,survey-text,59,802419,0.0-13.0-3.1,42365,List2A,black,woman,,,,,"{""Q0"":""jane and beth are talking to each other""}","<img src=""stim_listA/talk8.gif""style=""height:400px;""></stim_listA>",are talking to each other,
null,"<div style=""font-size:60px;"">+</div>",,html-keyboard-response,60,802921,0.0-13.0-0.2,42365,List2A,black,woman,,,,null,,,,
null,"<img src=""stim_listA/marry2.gif""style=""height:400px;""></stim_listA>",,html-keyboard-response,61,804924,0.0-13.0-1.2,42365,List2A,black,woman,,,,null,,,,
null,are marrying each other,,html-keyboard-response,62,806933,0.0-13.0-2.2,42365,List2A,black,woman,,,,null,,,,
34639,,,survey-text,63,841574,0.0-13.0-3.2,42365,List2A,black,woman,,,,,"{""Q0"":""jane and luke are marrying each other""}","<img src=""stim_listA/marry2.gif""style=""height:400px;""></stim_listA>",are marrying each other,
null,"<div style=""font-size:60px;"">+</div>",,html-keyboard-response,64,842075,0.0-13.0-0.3,42365,List2A,black,woman,,,,null,,,,
null,"<img src=""stim_listA/flirt8.gif""style=""height:400px;""></stim_listA>",,html-keyboard-response,65,844080,0.0-13.0-1.3,42365,List2A,black,woman,,,,null,,,,
null,are flirting with each other,,html-keyboard-response,66,846089,0.0-13.0-2.3,42365,List2A,black,woman,,,,null,,,,
32929,,,survey-text,67,879019,0.0-13.0-3.3,42365,List2A,black,woman,,,,,"{""Q0"":""beth and kate are flirting with each other""}","<img src=""stim_listA/flirt8.gif""style=""height:400px;""></stim_listA>",are flirting with each other,
null,"<div style=""font-size:60px;"">+</div>",,html-keyboard-response,68,879521,0.0-13.0-0.4,42365,List2A,black,woman,,,,null,,,,
null,"<img src=""stim_listA/talk2.gif""style=""height:400px;""></stim_listA>",,html-keyboard-response,69,881526,0.0-13.0-1.4,42365,List2A,black,woman,,,,null,,,,
null,are talking to each other,,html-keyboard-response,70,883529,0.0-13.0-2.4,42365,List2A,black,woman,,,,null,,,,
46825,,,survey-text,71,930357,0.0-13.0-3.4,42365,List2A,black,woman,,,,,"{""Q0"":""ruth and dave are talking to each other""}","<img src=""stim_listA/talk2.gif""style=""height:400px;""></stim_listA>",are talking to each other,
null,"<div style=""font-size:60px;"">+</div>",,html-keyboard-response,72,930866,0.0-13.0-0.5,42365,List2A,black,woman,,,,null,,,,
null,"<img src=""stim_listA/marry5.gif""style=""height:400px;""></stim_listA>",,html-keyboard-response,73,932869,0.0-13.0-1.5,42365,List2A,black,woman,,,,null,,,,
null,is marrying,,html-keyboard-response,74,934871,0.0-13.0-2.5,42365,List2A,black,woman,,,,null,,,,
36515,,,survey-text,75,971388,0.0-13.0-3.5,42365,List2A,black,woman,,,,,"{""Q0"":""fred and dave is marrying""}","<img src=""stim_listA/marry5.gif""style=""height:400px;""></stim_listA>",is marrying,
null,"<div style=""font-size:60px;"">+</div>",,html-keyboard-response,76,971890,0.0-13.0-0.6,42365,List2A,black,woman,,,,null,,,,
null,"<img src=""stim_listA/fight1.gif""style=""height:400px;""></stim_listA>",,html-keyboard-response,77,973893,0.0-13.0-1.6,42365,List2A,black,woman,,,,null,,,,
null,is fighting,,html-keyboard-response,78,975894,0.0-13.0-2.6,42365,List2A,black,woman,,,,null,,,,
37220,,,survey-text,79,1013115,0.0-13.0-3.6,42365,List2A,black,woman,,,,,"{""Q0"":""dave and kate is fighting""}","<img src=""stim_listA/fight1.gif""style=""height:400px;""></stim_listA>",is fighting,
null,"<div style=""font-size:60px;"">+</div>",,html-keyboard-response,80,1013629,0.0-13.0-0.7,42365,List2A,black,woman,,,,null,,,,
null,"<img src=""stim_listA/kiss5.gif""style=""height:400px;""></stim_listA>",,html-keyboard-response,81,1015637,0.0-13.0-1.7,42365,List2A,black,woman,,,,null,,,,
null,is kissing,,html-keyboard-response,82,1017640,0.0-13.0-2.7,42365,List2A,black,woman,,,,null,,,,
17708,,,survey-text,83,1035348,0.0-13.0-3.7,42365,List2A,black,woman,,,,,"{""Q0"":""fred and luke is kissing""}","<img src=""stim_listA/kiss5.gif""style=""height:400px;""></stim_listA>",is kissing,
null,"<div style=""font-size:60px;"">+</div>",,html-keyboard-response,84,1035851,0.0-13.0-0.8,42365,List2A,black,woman,,,,null,,,,
null,"<img src=""stim_listA/talk5.gif""style=""height:400px;""></stim_listA>",,html-keyboard-response,85,1037853,0.0-13.0-1.8,42365,List2A,black,woman,,,,null,,,,
null,is talking to,,html-keyboard-response,86,1039867,0.0-13.0-2.8,42365,List2A,black,woman,,,,null,,,,
18275,,,survey-text,87,1058142,0.0-13.0-3.8,42365,List2A,black,woman,,,,,"{""Q0"":""mike and luke is talking to""}","<img src=""stim_listA/talk5.gif""style=""height:400px;""></stim_listA>",is talking to,
null,"<div style=""font-size:60px;"">+</div>",,html-keyboard-response,88,1058646,0.0-13.0-0.9,42365,List2A,black,woman,,,,null,,,,
null,"<img src=""stim_listA/flirt5.gif""style=""height:400px;""></stim_listA>",,html-keyboard-response,89,1060648,0.0-13.0-1.9,42365,List2A,black,woman,,,,null,,,,
null,is flirting with,,html-keyboard-response,90,1062650,0.0-13.0-2.9,42365,List2A,black,woman,,,,null,,,,
40214,,,survey-text,91,1102866,0.0-13.0-3.9,42365,List2A,black,woman,,,,,"{""Q0"":""mike ad luke is fighting wth""}","<img src=""stim_listA/flirt5.gif""style=""height:400px;""></stim_listA>",is flirting with,
null,"<div style=""font-size:60px;"">+</div>",,html-keyboard-response,92,1103383,0.0-13.0-0.10,42365,List2A,black,woman,,,,null,,,,
null,"<img src=""stim_listA/marry4.gif""style=""height:400px;""></stim_listA>",,html-keyboard-response,93,1105386,0.0-13.0-1.10,42365,List2A,black,woman,,,,null,,,,
null,are marrying each other,,html-keyboard-response,94,1107387,0.0-13.0-2.10,42365,List2A,black,woman,,,,null,,,,
18588,,,survey-text,95,1125977,0.0-13.0-3.10,42365,List2A,black,woman,,,,,"{""Q0"":""kate is talking""}","<img src=""stim_listA/marry4.gif""style=""height:400px;""></stim_listA>",are marrying each other,
null,"<div style=""font-size:60px;"">+</div>",,html-keyboard-response,96,1126493,0.0-13.0-0.11,42365,List2A,black,woman,,,,null,,,,
null,"<img src=""stim_listA/touch2.gif""style=""height:400px;""></stim_listA>",,html-keyboard-response,97,1128495,0.0-13.0-1.11,42365,List2A,black,woman,,,,null,,,,
null,are touching each other,,html-keyboard-response,98,1130496,0.0-13.0-2.11,42365,List2A,black,woman,,,,null,,,,
22860,,,survey-text,99,1153356,0.0-13.0-3.11,42365,List2A,black,woman,,,,,"{""Q0"":""ruth and luke is touching each other""}","<img src=""stim_listA/touch2.gif""style=""height:400px;""></stim_listA>",are touching each other,
null,"<div style=""font-size:60px;"">+</div>",,html-keyboard-response,100,1153870,0.0-13.0-0.12,42365,List2A,black,woman,,,,null,,,,
null,"<img src=""stim_listA/shout8.gif""style=""height:400px;""></stim_listA>",,html-keyboard-response,101,1155873,0.0-13.0-1.12,42365,List2A,black,woman,,,,null,,,,
null,are shouting at each other,,html-keyboard-response,102,1157884,0.0-13.0-2.12,42365,List2A,black,woman,,,,null,,,,
28329,,,survey-text,103,1186215,0.0-13.0-3.12,42365,List2A,black,woman,,,,,"{""Q0"":""kate and jane is shouting at each other""}","<img src=""stim_listA/shout8.gif""style=""height:400px;""></stim_listA>",are shouting at each other,
null,"<div style=""font-size:60px;"">+</div>",,html-keyboard-response,104,1186718,0.0-13.0-0.13,42365,List2A,black,woman,,,,null,,,,
null,"<img src=""stim_listA/touch8.gif""style=""height:400px;""></stim_listA>",,html-keyboard-response,105,1188720,0.0-13.0-1.13,42365,List2A,black,woman,,,,null,,,,
null,are touching each other,,html-keyboard-response,106,1190731,0.0-13.0-2.13,42365,List2A,black,woman,,,,null,,,,
48209,,,survey-text,107,1238940,0.0-13.0-3.13,42365,List2A,black,woman,,,,,"{""Q0"":""kate and ruthis touching each other""}","<img src=""stim_listA/touch8.gif""style=""height:400px;""></stim_listA>",are touching each other,
null,"<div style=""font-size:60px;"">+</div>",,html-keyboard-response,108,1239442,0.0-13.0-0.14,42365,List2A,black,woman,,,,null,,,,
null,"<img src=""stim_listA/play3.gif""style=""height:400px;""></stim_listA>",,html-keyboard-response,109,1241459,0.0-13.0-1.14,42365,List2A,black,woman,,,,null,,,,
null,is playing with,,html-keyboard-response,110,1243460,0.0-13.0-2.14,42365,List2A,black,woman,,,,null,,,,
10039,,,survey-text,111,1253501,0.0-13.0-3.14,42365,List2A,black,woman,,,,,"{""Q0"":""mike and kate is playing with""}","<img src=""stim_listA/play3.gif""style=""height:400px;""></stim_listA>",is playing with,
null,"<div style=""font-size:60px;"">+</div>",,html-keyboard-response,112,1254004,0.0-13.0-0.15,42365,List2A,black,woman,,,,null,,,,
null,"<img src=""stim_listA/play4.gif""style=""height:400px;""></stim_listA>",,html-keyboard-response,113,1256005,0.0-13.0-1.15,42365,List2A,black,woman,,,,null,,,,
null,are playing with each other,,html-keyboard-response,114,1258016,0.0-13.0-2.15,42365,List2A,black,woman,,,,null,,,,
19302,,,survey-text,115,1277319,0.0-13.0-3.15,42365,List2A,black,woman,,,,,"{""Q0"":""kate and fred are playing with each other""}","<img src=""stim_listA/play4.gif""style=""height:400px;""></stim_listA>",are playing with each other,
null,"<div style=""font-size:60px;"">+</div>",,html-keyboard-response,116,1277821,0.0-13.0-0.16,42365,List2A,black,woman,,,,null,,,,
null,"<img src=""stim_listA/argue7.gif""style=""height:400px;""></stim_listA>",,html-keyboard-response,117,1279824,0.0-13.0-1.16,42365,List2A,black,woman,,,,null,,,,
null,is arguing with,,html-keyboard-response,118,1281826,0.0-13.0-2.16,42365,List2A,black,woman,,,,null,,,,
13693,,,survey-text,119,1295520,0.0-13.0-3.16,42365,List2A,black,woman,,,,,"{""Q0"":""kate and jane is arguing with""}","<img src=""stim_listA/argue7.gif""style=""height:400px;""></stim_listA>",is arguing with,
null,"<div style=""font-size:60px;"">+</div>",,html-keyboard-response,120,1296034,0.0-13.0-0.17,42365,List2A,black,woman,,,,null,,,,
null,"<img src=""stim_listA/talk6.gif""style=""height:400px;""></stim_listA>",,html-keyboard-response,121,1298037,0.0-13.0-1.17,42365,List2A,black,woman,,,,null,,,,
null,are talking to each other,,html-keyboard-response,122,1300049,0.0-13.0-2.17,42365,List2A,black,woman,,,,null,,,,
11698,,,survey-text,123,1311748,0.0-13.0-3.17,42365,List2A,black,woman,,,,,"{""Q0"":""fred and dave""}","<img src=""stim_listA/talk6.gif""style=""height:400px;""></stim_listA>",are talking to each other,
null,"<div style=""font-size:60px;"">+</div>",,html-keyboard-response,124,1312265,0.0-13.0-0.18,42365,List2A,black,woman,,,,null,,,,
null,"<img src=""stim_listA/play1.gif""style=""height:400px;""></stim_listA>",,html-keyboard-response,125,1314267,0.0-13.0-1.18,42365,List2A,black,woman,,,,null,,,,
null,is playing with,,html-keyboard-response,126,1316276,0.0-13.0-2.18,42365,List2A,black,woman,,,,null,,,,
13119,,,survey-text,127,1329396,0.0-13.0-3.18,42365,List2A,black,woman,,,,,"{""Q0"":""jane and dave is playing with""}","<img src=""stim_listA/play1.gif""style=""height:400px;""></stim_listA>",is playing with,
null,"<div style=""font-size:60px;"">+</div>",,html-keyboard-response,128,1329897,0.0-13.0-0.19,42365,List2A,black,woman,,,,null,,,,
null,"<img src=""stim_listA/touch3.gif""style=""height:400px;""></stim_listA>",,html-keyboard-response,129,1331899,0.0-13.0-1.19,42365,List2A,black,woman,,,,null,,,,
null,is touching,,html-keyboard-response,130,1333901,0.0-13.0-2.19,42365,List2A,black,woman,,,,null,,,,
10893,,,survey-text,131,1344795,0.0-13.0-3.19,42365,List2A,black,woman,,,,,"{""Q0"":""mike and kate is touching""}","<img src=""stim_listA/touch3.gif""style=""height:400px;""></stim_listA>",is touching,
10861,"<img src='img/portrait_matrix_list2.jpg' style='width:900px;height:500px;''></img><p>If you have memorised all the portraits and names and are ready to start, press Continue.</p><p><strong>Please note: Your memory of these faces will be tested 4 times during this experiment.</strong></p>",0,html-button-response,132,1355657,0.0-14.0-0.0,42365,List2A,black,woman,,,,,,,,
12139,"<img src=""portrait/BM1.jpg""style=""height:400px;""></img>",4,html-button-response,133,1368800,0.0-14.0-1.0,42365,List2A,black,woman,,TRUE,4,,,,,
null,CORRECT,,html-keyboard-response,134,1370338,0.0-14.0-2.0-0.0,42365,List2A,black,woman,,,,null,,,,
4919,"<img src=""portrait/WM1.jpg""style=""height:400px;""></img>",7,html-button-response,135,1375257,0.0-14.0-4.0,42365,List2A,black,woman,,TRUE,6,,,,,
2549,"<img src=""portrait/WM1.jpg""style=""height:400px;""></img>",6,html-button-response,136,1378809,0.0-14.0-6.0-0.0,42365,List2A,black,woman,,FALSE,6,,,,,
null,CORRECT,,html-keyboard-response,137,1380320,0.0-14.0-6.0-1.0-0.0,42365,List2A,black,woman,,,,null,,,,
7840,"<img src=""portrait/WW2.jpg""style=""height:400px;""></img>",3,html-button-response,138,1388162,0.0-14.0-7.0,42365,List2A,black,woman,,TRUE,3,,,,,
null,CORRECT,,html-keyboard-response,139,1389671,0.0-14.0-8.0-0.0,42365,List2A,black,woman,,,,null,,,,
2139,"<img src=""portrait/BW1.jpg""style=""height:400px;""></img>",2,html-button-response,140,1391812,0.0-14.0-10.0,42365,List2A,black,woman,,TRUE,0,,,,,
5769,"<img src=""portrait/BW1.jpg""style=""height:400px;""></img>",0,html-button-response,141,1398590,0.0-14.0-12.0-0.0,42365,List2A,black,woman,,FALSE,0,,,,,
null,CORRECT,,html-keyboard-response,142,1400093,0.0-14.0-12.0-1.0-0.0,42365,List2A,black,woman,,,,null,,,,
6614,"<img src=""portrait/WM2.jpg""style=""height:400px;""></img>",7,html-button-response,143,1406707,0.0-14.0-13.0,42365,List2A,black,woman,,TRUE,7,,,,,
null,CORRECT,,html-keyboard-response,144,1408215,0.0-14.0-14.0-0.0,42365,List2A,black,woman,,,,null,,,,
2273,"<img src=""portrait/BM2.jpg""style=""height:400px;""></img>",5,html-button-response,145,1410490,0.0-14.0-16.0,42365,List2A,black,woman,,TRUE,5,,,,,
null,CORRECT,,html-keyboard-response,146,1411994,0.0-14.0-17.0-0.0,42365,List2A,black,woman,,,,null,,,,
6061,"<img src=""portrait/WW1.jpg""style=""height:400px;""></img>",1,html-button-response,147,1418056,0.0-14.0-19.0,42365,List2A,black,woman,,TRUE,1,,,,,
null,CORRECT,,html-keyboard-response,148,1419583,0.0-14.0-20.0-0.0,42365,List2A,black,woman,,,,null,,,,
3404,"<img src=""portrait/BW2.jpg""style=""height:400px;""></img>",2,html-button-response,149,1422988,0.0-14.0-22.0,42365,List2A,black,woman,,TRUE,2,,,,,
null,CORRECT,,html-keyboard-response,150,1424489,0.0-14.0-23.0-0.0,42365,List2A,black,woman,,,,null,,,,
5711,<p>You got 6 out of 8 right first time. Press Continue.</p>,0,html-button-response,151,1430203,0.0-14.0-25.0,42365,List2A,black,woman,,,,,,,,
3899,"As you did not score 100%, the memory game will repeat. Press Continue.",0,html-button-response,152,1435116,0.0-14.0-26.0-0.0,42365,List2A,black,woman,,,,,,,,
6609,"<img src='img/portrait_matrix_list2.jpg' style='width:900px;height:500px;''></img><p>If you have memorised all the portraits and names and are ready to start, press Continue.</p><p><strong>Please note: Your memory of these faces will be tested 4 times during this experiment.</strong></p>",0,html-button-response,153,1442731,0.0-14.1-0.1,42365,List2A,black,woman,,,,,,,,
4784,"<img src=""portrait/BM1.jpg""style=""height:400px;""></img>",4,html-button-response,154,1448517,0.0-14.1-1.1,42365,List2A,black,woman,,TRUE,4,,,,,
null,CORRECT,,html-keyboard-response,155,1450035,0.0-14.1-2.1-0.1,42365,List2A,black,woman,,,,null,,,,
4875,"<img src=""portrait/WM1.jpg""style=""height:400px;""></img>",6,html-button-response,156,1454912,0.0-14.1-4.1,42365,List2A,black,woman,,TRUE,6,,,,,
null,CORRECT,,html-keyboard-response,157,1456415,0.0-14.1-5.1-0.1,42365,List2A,black,woman,,,,null,,,,
4205,"<img src=""portrait/WW2.jpg""style=""height:400px;""></img>",3,html-button-response,158,1460622,0.0-14.1-7.1,42365,List2A,black,woman,,TRUE,3,,,,,
null,CORRECT,,html-keyboard-response,159,1462124,0.0-14.1-8.1-0.1,42365,List2A,black,woman,,,,null,,,,
4342,"<img src=""portrait/BW1.jpg""style=""height:400px;""></img>",0,html-button-response,160,1466468,0.0-14.1-10.1,42365,List2A,black,woman,,TRUE,0,,,,,
null,CORRECT,,html-keyboard-response,161,1467970,0.0-14.1-11.1-0.1,42365,List2A,black,woman,,,,null,,,,
17021,"<img src=""portrait/WM2.jpg""style=""height:400px;""></img>",7,html-button-response,162,1484994,0.0-14.1-13.1,42365,List2A,black,woman,,TRUE,7,,,,,
null,CORRECT,,html-keyboard-response,163,1486497,0.0-14.1-14.1-0.1,42365,List2A,black,woman,,,,null,,,,
3166,"<img src=""portrait/BM2.jpg""style=""height:400px;""></img>",5,html-button-response,164,1489665,0.0-14.1-16.1,42365,List2A,black,woman,,TRUE,5,,,,,
null,CORRECT,,html-keyboard-response,165,1491183,0.0-14.1-17.1-0.1,42365,List2A,black,woman,,,,null,,,,
4297,"<img src=""portrait/WW1.jpg""style=""height:400px;""></img>",1,html-button-response,166,1495482,0.0-14.1-19.1,42365,List2A,black,woman,,TRUE,1,,,,,
null,CORRECT,,html-keyboard-response,167,1496987,0.0-14.1-20.1-0.1,42365,List2A,black,woman,,,,null,,,,
3596,"<img src=""portrait/BW2.jpg""style=""height:400px;""></img>",2,html-button-response,168,1500585,0.0-14.1-22.1,42365,List2A,black,woman,,TRUE,2,,,,,
null,CORRECT,,html-keyboard-response,169,1502099,0.0-14.1-23.1-0.1,42365,List2A,black,woman,,,,null,,,,
3130,<p>You got 8 out of 8 right first time. Press Continue.</p>,0,html-button-response,170,1505230,0.0-14.1-25.1,42365,List2A,black,woman,,,,,,,,
null,"<div style=""font-size:60px;"">+</div>",,html-keyboard-response,171,1506742,0.0-15.0-0.0,42365,List2A,black,woman,,,,null,,,,
null,"<img src=""stim_listA/kiss1.gif""style=""height:400px;""></stim_listA>",,html-keyboard-response,172,1508744,0.0-15.0-1.0,42365,List2A,black,woman,,,,null,,,,
null,is kissing,,html-keyboard-response,173,1510758,0.0-15.0-2.0,42365,List2A,black,woman,,,,null,,,,
15161,,,survey-text,174,1525921,0.0-15.0-3.0,42365,List2A,black,woman,,,,,"{""Q0"":""ruth and luke is kissing""}","<img src=""stim_listA/kiss1.gif""style=""height:400px;""></stim_listA>",is kissing,
null,"<div style=""font-size:60px;"">+</div>",,html-keyboard-response,175,1526422,0.0-15.0-0.1,42365,List2A,black,woman,,,,null,,,,
null,"<img src=""stim_listA/fight6.gif""style=""height:400px;""></stim_listA>",,html-keyboard-response,176,1528424,0.0-15.0-1.1,42365,List2A,black,woman,,,,null,,,,
null,are fighting each other,,html-keyboard-response,177,1530430,0.0-15.0-2.1,42365,List2A,black,woman,,,,null,,,,
53844,,,survey-text,178,1584275,0.0-15.0-3.1,42365,List2A,black,woman,,,,,"{""Q0"":""fred and luke is fighting each other""}","<img src=""stim_listA/fight6.gif""style=""height:400px;""></stim_listA>",are fighting each other,
null,"<div style=""font-size:60px;"">+</div>",,html-keyboard-response,179,1584790,0.0-15.0-0.2,42365,List2A,black,woman,,,,null,,,,
null,"<img src=""stim_listA/touch4.gif""style=""height:400px;""></stim_listA>",,html-keyboard-response,180,1586795,0.0-15.0-1.2,42365,List2A,black,woman,,,,null,,,,
null,are touching each other,,html-keyboard-response,181,1588795,0.0-15.0-2.2,42365,List2A,black,woman,,,,null,,,,
13931,,,survey-text,182,1602727,0.0-15.0-3.2,42365,List2A,black,woman,,,,,"{""Q0"":""kate and fred are touching each other""}","<img src=""stim_listA/touch4.gif""style=""height:400px;""></stim_listA>",are touching each other,
null,"<div style=""font-size:60px;"">+</div>",,html-keyboard-response,183,1603243,0.0-15.0-0.3,42365,List2A,black,woman,,,,null,,,,
null,"<img src=""stim_listA/dance5.gif""style=""height:400px;""></stim_listA>",,html-keyboard-response,184,1605245,0.0-15.0-1.3,42365,List2A,black,woman,,,,null,,,,
null,is dancing with,,html-keyboard-response,185,1607258,0.0-15.0-2.3,42365,List2A,black,woman,,,,null,,,,
15857,,,survey-text,186,1623116,0.0-15.0-3.3,42365,List2A,black,woman,,,,,"{""Q0"":""mike and dave is dancing with""}","<img src=""stim_listA/dance5.gif""style=""height:400px;""></stim_listA>",is dancing with,
null,"<div style=""font-size:60px;"">+</div>",,html-keyboard-response,187,1623618,0.0-15.0-0.4,42365,List2A,black,woman,,,,null,,,,
null,"<img src=""stim_listA/dance6.gif""style=""height:400px;""></stim_listA>",,html-keyboard-response,188,1625621,0.0-15.0-1.4,42365,List2A,black,woman,,,,null,,,,
null,are dancing with each other,,html-keyboard-response,189,1627623,0.0-15.0-2.4,42365,List2A,black,woman,,,,null,,,,
42975,,,survey-text,190,1670599,0.0-15.0-3.4,42365,List2A,black,woman,,,,,"{""Q0"":""fred and dave are dancing with each other""}","<img src=""stim_listA/dance6.gif""style=""height:400px;""></stim_listA>",are dancing with each other,
null,"<div style=""font-size:60px;"">+</div>",,html-keyboard-response,191,1671100,0.0-15.0-0.5,42365,List2A,black,woman,,,,null,,,,
null,"<img src=""stim_listA/dance1.gif""style=""height:400px;""></stim_listA>",,html-keyboard-response,192,1673102,0.0-15.0-1.5,42365,List2A,black,woman,,,,null,,,,
null,is dancing with,,html-keyboard-response,193,1675109,0.0-15.0-2.5,42365,List2A,black,woman,,,,null,,,,
22153,,,survey-text,194,1697264,0.0-15.0-3.5,42365,List2A,black,woman,,,,,"{""Q0"":""jane and luke is dancing with""}","<img src=""stim_listA/dance1.gif""style=""height:400px;""></stim_listA>",is dancing with,
null,"<div style=""font-size:60px;"">+</div>",,html-keyboard-response,195,1697770,0.0-15.0-0.6,42365,List2A,black,woman,,,,null,,,,
null,"<img src=""stim_listA/shout4.gif""style=""height:400px;""></stim_listA>",,html-keyboard-response,196,1699772,0.0-15.0-1.6,42365,List2A,black,woman,,,,null,,,,
null,are shouting at each other,,html-keyboard-response,197,1701787,0.0-15.0-2.6,42365,List2A,black,woman,,,,null,,,,
21027,,,survey-text,198,1722815,0.0-15.0-3.6,42365,List2A,black,woman,,,,,"{""Q0"":""beth and mike are shouting at each other""}","<img src=""stim_listA/shout4.gif""style=""height:400px;""></stim_listA>",are shouting at each other,
null,"<div style=""font-size:60px;"">+</div>",,html-keyboard-response,199,1723318,0.0-15.0-0.7,42365,List2A,black,woman,,,,null,,,,
null,"<img src=""stim_listA/marry3.gif""style=""height:400px;""></stim_listA>",,html-keyboard-response,200,1725321,0.0-15.0-1.7,42365,List2A,black,woman,,,,null,,,,
null,is marrying,,html-keyboard-response,201,1727334,0.0-15.0-2.7,42365,List2A,black,woman,,,,null,,,,
173426,,,survey-text,202,1900767,0.0-15.0-3.7,42365,List2A,black,woman,,,,,"{""Q0"":""kate and mike is marrying""}","<img src=""stim_listA/marry3.gif""style=""height:400px;""></stim_listA>",is marrying,
null,"<div style=""font-size:60px;"">+</div>",,html-keyboard-response,203,1901281,0.0-15.0-0.8,42365,List2A,black,woman,,,,null,,,,
null,"<img src=""stim_listA/fight7.gif""style=""height:400px;""></stim_listA>",,html-keyboard-response,204,1903288,0.0-15.0-1.8,42365,List2A,black,woman,,,,null,,,,
null,is fighting,,html-keyboard-response,205,1905297,0.0-15.0-2.8,42365,List2A,black,woman,,,,null,,,,
28677,,,survey-text,206,1933975,0.0-15.0-3.8,42365,List2A,black,woman,,,,,"{""Q0"":""jane and kate is fighting""}","<img src=""stim_listA/fight7.gif""style=""height:400px;""></stim_listA>",is fighting,
null,"<div style=""font-size:60px;"">+</div>",,html-keyboard-response,207,1934491,0.0-15.0-0.9,42365,List2A,black,woman,,,,null,,,,
null,"<img src=""stim_listA/play5.gif""style=""height:400px;""></stim_listA>",,html-keyboard-response,208,1936494,0.0-15.0-1.9,42365,List2A,black,woman,,,,null,,,,
null,is playing with,,html-keyboard-response,209,1938505,0.0-15.0-2.9,42365,List2A,black,woman,,,,null,,,,
26509,,,survey-text,210,1965016,0.0-15.0-3.9,42365,List2A,black,woman,,,,,"{""Q0"":""mike and dave is playing with""}","<img src=""stim_listA/play5.gif""style=""height:400px;""></stim_listA>",is playing with,
null,"<div style=""font-size:60px;"">+</div>",,html-keyboard-response,211,1965525,0.0-15.0-0.10,42365,List2A,black,woman,,,,null,,,,
null,"<img src=""stim_listA/flirt4.gif""style=""height:400px;""></stim_listA>",,html-keyboard-response,212,1967544,0.0-15.0-1.10,42365,List2A,black,woman,,,,null,,,,
null,are flirting with each other,,html-keyboard-response,213,1969558,0.0-15.0-2.10,42365,List2A,black,woman,,,,null,,,,
32117,,,survey-text,214,2001676,0.0-15.0-3.10,42365,List2A,black,woman,,,,,"{""Q0"":""mike and beth are flirting with each other""}","<img src=""stim_listA/flirt4.gif""style=""height:400px;""></stim_listA>",are flirting with each other,
null,"<div style=""font-size:60px;"">+</div>",,html-keyboard-response,215,2002185,0.0-15.0-0.11,42365,List2A,black,woman,,,,null,,,,
null,"<img src=""stim_listA/argue4.gif""style=""height:400px;""></stim_listA>",,html-keyboard-response,216,2004191,0.0-15.0-1.11,42365,List2A,black,woman,,,,null,,,,
null,are arguing with each other,,html-keyboard-response,217,2006198,0.0-15.0-2.11,42365,List2A,black,woman,,,,null,,,,
88546,,,survey-text,218,2094746,0.0-15.0-3.11,42365,List2A,black,woman,,,,,"{""Q0"":""kate and fred are arguing with each other""}","<img src=""stim_listA/argue4.gif""style=""height:400px;""></stim_listA>",are arguing with each other,
null,"<div style=""font-size:60px;"">+</div>",,html-keyboard-response,219,2095250,0.0-15.0-0.12,42365,List2A,black,woman,,,,null,,,,
null,"<img src=""stim_listA/flirt1.gif""style=""height:400px;""></stim_listA>",,html-keyboard-response,220,2097253,0.0-15.0-1.12,42365,List2A,black,woman,,,,null,,,,
null,is flirting with,,html-keyboard-response,221,2099265,0.0-15.0-2.12,42365,List2A,black,woman,,,,null,,,,
87030,,,survey-text,222,2186297,0.0-15.0-3.12,42365,List2A,black,woman,,,,,"{""Q0"":""jane and mike is flirting with each other""}","<img src=""stim_listA/flirt1.gif""style=""height:400px;""></stim_listA>",is flirting with,
null,"<div style=""font-size:60px;"">+</div>",,html-keyboard-response,223,2186800,0.0-15.0-0.13,42365,List2A,black,woman,,,,null,,,,
null,"<img src=""stim_listA/argue3.gif""style=""height:400px;""></stim_listA>",,html-keyboard-response,224,2188802,0.0-15.0-1.13,42365,List2A,black,woman,,,,null,,,,
null,is arguing with,,html-keyboard-response,225,2190804,0.0-15.0-2.13,42365,List2A,black,woman,,,,null,,,,
41958,,,survey-text,226,2232764,0.0-15.0-3.13,42365,List2A,black,woman,,,,,"{""Q0"":""mike and beth is arguing with""}","<img src=""stim_listA/argue3.gif""style=""height:400px;""></stim_listA>",is arguing with,
null,"<div style=""font-size:60px;"">+</div>",,html-keyboard-response,227,2233279,0.0-15.0-0.14,42365,List2A,black,woman,,,,null,,,,
null,"<img src=""stim_listA/dance7.gif""style=""height:400px;""></stim_listA>",,html-keyboard-response,228,2235281,0.0-15.0-1.14,42365,List2A,black,woman,,,,null,,,,
null,is dancing with,,html-keyboard-response,229,2237284,0.0-15.0-2.14,42365,List2A,black,woman,,,,null,,,,
7016,,,survey-text,230,2244302,0.0-15.0-3.14,42365,List2A,black,woman,,,,,"{""Q0"":""""}","<img src=""stim_listA/dance7.gif""style=""height:400px;""></stim_listA>",is dancing with,
null,"<div style=""font-size:60px;"">+</div>",,html-keyboard-response,231,2244803,0.0-15.0-0.15,42365,List2A,black,woman,,,,null,,,,
null,"<img src=""stim_listA/kiss7.gif""style=""height:400px;""></stim_listA>",,html-keyboard-response,232,2246805,0.0-15.0-1.15,42365,List2A,black,woman,,,,null,,,,
null,is kissing,,html-keyboard-response,233,2248810,0.0-15.0-2.15,42365,List2A,black,woman,,,,null,,,,
66846,,,survey-text,234,2315658,0.0-15.0-3.15,42365,List2A,black,woman,,,,,"{""Q0"":""kate and ruth is kissing""}","<img src=""stim_listA/kiss7.gif""style=""height:400px;""></stim_listA>",is kissing,
null,"<div style=""font-size:60px;"">+</div>",,html-keyboard-response,235,2316173,0.0-15.0-0.16,42365,List2A,black,woman,,,,null,,,,
null,"<img src=""stim_listA/talk7.gif""style=""height:400px;""></stim_listA>",,html-keyboard-response,236,2318182,0.0-15.0-1.16,42365,List2A,black,woman,,,,null,,,,
null,is talking to,,html-keyboard-response,237,2320187,0.0-15.0-2.16,42365,List2A,black,woman,,,,null,,,,
79692,,,survey-text,238,2399880,0.0-15.0-3.16,42365,List2A,black,woman,,,,,"{""Q0"":""kate and ruth is talking to""}","<img src=""stim_listA/talk7.gif""style=""height:400px;""></stim_listA>",is talking to,
null,"<div style=""font-size:60px;"">+</div>",,html-keyboard-response,239,2400388,0.0-15.0-0.17,42365,List2A,black,woman,,,,null,,,,
null,"<img src=""stim_listA/touch5.gif""style=""height:400px;""></stim_listA>",,html-keyboard-response,240,2402392,0.0-15.0-1.17,42365,List2A,black,woman,,,,null,,,,
null,is touching,,html-keyboard-response,241,2404402,0.0-15.0-2.17,42365,List2A,black,woman,,,,null,,,,
39119,,,survey-text,242,2443523,0.0-15.0-3.17,42365,List2A,black,woman,,,,,"{""Q0"":""mike and dave is touching""}","<img src=""stim_listA/touch5.gif""style=""height:400px;""></stim_listA>",is touching,
null,"<div style=""font-size:60px;"">+</div>",,html-keyboard-response,243,2444027,0.0-15.0-0.18,42365,List2A,black,woman,,,,null,,,,
null,"<img src=""stim_listA/argue8.gif""style=""height:400px;""></stim_listA>",,html-keyboard-response,244,2446032,0.0-15.0-1.18,42365,List2A,black,woman,,,,null,,,,
null,are arguing with each other,,html-keyboard-response,245,2448041,0.0-15.0-2.18,42365,List2A,black,woman,,,,null,,,,
38983,,,survey-text,246,2487024,0.0-15.0-3.18,42365,List2A,black,woman,,,,,"{""Q0"":""kate and ruth are arguing with each other""}","<img src=""stim_listA/argue8.gif""style=""height:400px;""></stim_listA>",are arguing with each other,
null,"<div style=""font-size:60px;"">+</div>",,html-keyboard-response,247,2487538,0.0-15.0-0.19,42365,List2A,black,woman,,,,null,,,,
null,"<img src=""stim_listA/kiss3.gif""style=""height:400px;""></stim_listA>",,html-keyboard-response,248,2489545,0.0-15.0-1.19,42365,List2A,black,woman,,,,null,,,,
null,is kissing,,html-keyboard-response,249,2491554,0.0-15.0-2.19,42365,List2A,black,woman,,,,null,,,,
29495,,,survey-text,250,2521051,0.0-15.0-3.19,42365,List2A,black,woman,,,,,"{""Q0"":""fred and ruth is kissing""}","<img src=""stim_listA/kiss3.gif""style=""height:400px;""></stim_listA>",is kissing,
148067,"<img src='img/portrait_matrix_list2.jpg' style='width:900px;height:500px;''></img><p>If you have memorised all the portraits and names and are ready to start, press Continue.</p><p><strong>Please note: Your memory of these faces will be tested 4 times during this experiment.</strong></p>",0,html-button-response,251,2669119,0.0-16.0-0.0,42365,List2A,black,woman,,,,,,,,
4597,"<img src=""portrait/WW1.jpg""style=""height:400px;""></img>",1,html-button-response,252,2674725,0.0-16.0-1.0,42365,List2A,black,woman,,TRUE,1,,,,,
null,CORRECT,,html-keyboard-response,253,2676242,0.0-16.0-2.0-0.0,42365,List2A,black,woman,,,,null,,,,
4852,"<img src=""portrait/BW1.jpg""style=""height:400px;""></img>",0,html-button-response,254,2681096,0.0-16.0-4.0,42365,List2A,black,woman,,TRUE,0,,,,,
null,CORRECT,,html-keyboard-response,255,2682610,0.0-16.0-5.0-0.0,42365,List2A,black,woman,,,,null,,,,
4482,"<img src=""portrait/WM1.jpg""style=""height:400px;""></img>",6,html-button-response,256,2687093,0.0-16.0-7.0,42365,List2A,black,woman,,TRUE,6,,,,,
null,CORRECT,,html-keyboard-response,257,2688602,0.0-16.0-8.0-0.0,42365,List2A,black,woman,,,,null,,,,
4490,"<img src=""portrait/BW2.jpg""style=""height:400px;""></img>",2,html-button-response,258,2693094,0.0-16.0-10.0,42365,List2A,black,woman,,TRUE,2,,,,,
null,CORRECT,,html-keyboard-response,259,2694603,0.0-16.0-11.0-0.0,42365,List2A,black,woman,,,,null,,,,
1770,"<img src=""portrait/BM2.jpg""style=""height:400px;""></img>",5,html-button-response,260,2696376,0.0-16.0-13.0,42365,List2A,black,woman,,TRUE,5,,,,,
null,CORRECT,,html-keyboard-response,261,2697896,0.0-16.0-14.0-0.0,42365,List2A,black,woman,,,,null,,,,
3328,"<img src=""portrait/WM2.jpg""style=""height:400px;""></img>",7,html-button-response,262,2701227,0.0-16.0-16.0,42365,List2A,black,woman,,TRUE,7,,,,,
null,CORRECT,,html-keyboard-response,263,2702741,0.0-16.0-17.0-0.0,42365,List2A,black,woman,,,,null,,,,
3287,"<img src=""portrait/WW2.jpg""style=""height:400px;""></img>",3,html-button-response,264,2706056,0.0-16.0-19.0,42365,List2A,black,woman,,TRUE,3,,,,,
null,CORRECT,,html-keyboard-response,265,2707584,0.0-16.0-20.0-0.0,42365,List2A,black,woman,,,,null,,,,
2356,"<img src=""portrait/BM1.jpg""style=""height:400px;""></img>",4,html-button-response,266,2709942,0.0-16.0-22.0,42365,List2A,black,woman,,TRUE,4,,,,,
null,CORRECT,,html-keyboard-response,267,2711460,0.0-16.0-23.0-0.0,42365,List2A,black,woman,,,,null,,,,
2361,<p>You got 8 out of 8 right first time. Press Continue.</p>,0,html-button-response,268,2713823,0.0-16.0-25.0,42365,List2A,black,woman,,,,,,,,
null,"<div style=""font-size:60px;"">+</div>",,html-keyboard-response,269,2715349,0.0-17.0-0.0,42365,List2A,black,woman,,,,null,,,,
null,"<img src=""stim_listA/argue6.gif""style=""height:400px;""></stim_listA>",,html-keyboard-response,270,2717355,0.0-17.0-1.0,42365,List2A,black,woman,,,,null,,,,
null,are arguing with each other,,html-keyboard-response,271,2719361,0.0-17.0-2.0,42365,List2A,black,woman,,,,null,,,,
22076,,,survey-text,272,2741439,0.0-17.0-3.0,42365,List2A,black,woman,,,,,"{""Q0"":""mike and luke are arguig with each other""}","<img src=""stim_listA/argue6.gif""style=""height:400px;""></stim_listA>",are arguing with each other,
null,"<div style=""font-size:60px;"">+</div>",,html-keyboard-response,273,2741949,0.0-17.0-0.1,42365,List2A,black,woman,,,,null,,,,
null,"<img src=""stim_listA/shout2.gif""style=""height:400px;""></stim_listA>",,html-keyboard-response,274,2743956,0.0-17.0-1.1,42365,List2A,black,woman,,,,null,,,,
null,are shouting at each other,,html-keyboard-response,275,2745958,0.0-17.0-2.1,42365,List2A,black,woman,,,,null,,,,
21784,,,survey-text,276,2767745,0.0-17.0-3.1,42365,List2A,black,woman,,,,,"{""Q0"":""jane and dave are shouting at each other""}","<img src=""stim_listA/shout2.gif""style=""height:400px;""></stim_listA>",are shouting at each other,
null,"<div style=""font-size:60px;"">+</div>",,html-keyboard-response,277,2768260,0.0-17.0-0.2,42365,List2A,black,woman,,,,null,,,,
null,"<img src=""stim_listA/kiss6.gif""style=""height:400px;""></stim_listA>",,html-keyboard-response,278,2770265,0.0-17.0-1.2,42365,List2A,black,woman,,,,null,,,,
null,are kissing each other,,html-keyboard-response,279,2772269,0.0-17.0-2.2,42365,List2A,black,woman,,,,null,,,,
28415,,,survey-text,280,2800686,0.0-17.0-3.2,42365,List2A,black,woman,,,,,"{""Q0"":""mike and dave are kissng each other""}","<img src=""stim_listA/kiss6.gif""style=""height:400px;""></stim_listA>",are kissing each other,
null,"<div style=""font-size:60px;"">+</div>",,html-keyboard-response,281,2801196,0.0-17.0-0.3,42365,List2A,black,woman,,,,null,,,,
null,"<img src=""stim_listA/fight4.gif""style=""height:400px;""></stim_listA>",,html-keyboard-response,282,2803199,0.0-17.0-1.3,42365,List2A,black,woman,,,,null,,,,
null,are fighting each other,,html-keyboard-response,283,2805211,0.0-17.0-2.3,42365,List2A,black,woman,,,,null,,,,
18209,,,survey-text,284,2823421,0.0-17.0-3.3,42365,List2A,black,woman,,,,,"{""Q0"":""fred and beth are fighting each other""}","<img src=""stim_listA/fight4.gif""style=""height:400px;""></stim_listA>",are fighting each other,
null,"<div style=""font-size:60px;"">+</div>",,html-keyboard-response,285,2823938,0.0-17.0-0.4,42365,List2A,black,woman,,,,null,,,,
null,"<img src=""stim_listA/shout6.gif""style=""height:400px;""></stim_listA>",,html-keyboard-response,286,2825942,0.0-17.0-1.4,42365,List2A,black,woman,,,,null,,,,
null,are shouting at each other,,html-keyboard-response,287,2827949,0.0-17.0-2.4,42365,List2A,black,woman,,,,null,,,,
22467,,,survey-text,288,2850416,0.0-17.0-3.4,42365,List2A,black,woman,,,,,"{""Q0"":""mike and dave are shouting at each other""}","<img src=""stim_listA/shout6.gif""style=""height:400px;""></stim_listA>",are shouting at each other,
null,"<div style=""font-size:60px;"">+</div>",,html-keyboard-response,289,2850932,0.0-17.0-0.5,42365,List2A,black,woman,,,,null,,,,
null,"<img src=""stim_listA/marry8.gif""style=""height:400px;""></stim_listA>",,html-keyboard-response,290,2852938,0.0-17.0-1.5,42365,List2A,black,woman,,,,null,,,,
null,are marrying each other,,html-keyboard-response,291,2854952,0.0-17.0-2.5,42365,List2A,black,woman,,,,null,,,,
22161,,,survey-text,292,2877114,0.0-17.0-3.5,42365,List2A,black,woman,,,,,"{""Q0"":""ruth and kate are marrying each other""}","<img src=""stim_listA/marry8.gif""style=""height:400px;""></stim_listA>",are marrying each other,
null,"<div style=""font-size:60px;"">+</div>",,html-keyboard-response,293,2877625,0.0-17.0-0.6,42365,List2A,black,woman,,,,null,,,,
null,"<img src=""stim_listA/play7.gif""style=""height:400px;""></stim_listA>",,html-keyboard-response,294,2879632,0.0-17.0-1.6,42365,List2A,black,woman,,,,null,,,,
null,is playing with,,html-keyboard-response,295,2881637,0.0-17.0-2.6,42365,List2A,black,woman,,,,null,,,,
21521,,,survey-text,296,2903159,0.0-17.0-3.6,42365,List2A,black,woman,,,,,"{""Q0"":""kate and jane is playing with""}","<img src=""stim_listA/play7.gif""style=""height:400px;""></stim_listA>",is playing with,
null,"<div style=""font-size:60px;"">+</div>",,html-keyboard-response,297,2903664,0.0-17.0-0.7,42365,List2A,black,woman,,,,null,,,,
null,"<img src=""stim_listA/shout5.gif""style=""height:400px;""></stim_listA>",,html-keyboard-response,298,2905673,0.0-17.0-1.7,42365,List2A,black,woman,,,,null,,,,
null,is shouting at,,html-keyboard-response,299,2907677,0.0-17.0-2.7,42365,List2A,black,woman,,,,null,,,,
17054,,,survey-text,300,2924733,0.0-17.0-3.7,42365,List2A,black,woman,,,,,"{""Q0"":""beth and ruth is shouting at""}","<img src=""stim_listA/shout5.gif""style=""height:400px;""></stim_listA>",is shouting at,
null,"<div style=""font-size:60px;"">+</div>",,html-keyboard-response,301,2925250,0.0-17.0-0.8,42365,List2A,black,woman,,,,null,,,,
null,"<img src=""stim_listA/shout3.gif""style=""height:400px;""></stim_listA>",,html-keyboard-response,302,2927254,0.0-17.0-1.8,42365,List2A,black,woman,,,,null,,,,
null,is shouting at,,html-keyboard-response,303,2929265,0.0-17.0-2.8,42365,List2A,black,woman,,,,null,,,,
17344,,,survey-text,304,2946611,0.0-17.0-3.8,42365,List2A,black,woman,,,,,"{""Q0"":""fred and beth is shouting at""}","<img src=""stim_listA/shout3.gif""style=""height:400px;""></stim_listA>",is shouting at,
null,"<div style=""font-size:60px;"">+</div>",,html-keyboard-response,305,2947123,0.0-17.0-0.9,42365,List2A,black,woman,,,,null,,,,
null,"<img src=""stim_listA/marry1.gif""style=""height:400px;""></stim_listA>",,html-keyboard-response,306,2949130,0.0-17.0-1.9,42365,List2A,black,woman,,,,null,,,,
null,is marrying,,html-keyboard-response,307,2951139,0.0-17.0-2.9,42365,List2A,black,woman,,,,null,,,,
15708,,,survey-text,308,2966848,0.0-17.0-3.9,42365,List2A,black,woman,,,,,"{""Q0"":""ruth and dave is marrying""}","<img src=""stim_listA/marry1.gif""style=""height:400px;""></stim_listA>",is marrying,
null,"<div style=""font-size:60px;"">+</div>",,html-keyboard-response,309,2967349,0.0-17.0-0.10,42365,List2A,black,woman,,,,null,,,,
null,"<img src=""stim_listA/touch1.gif""style=""height:400px;""></stim_listA>",,html-keyboard-response,310,2969363,0.0-17.0-1.10,42365,List2A,black,woman,,,,null,,,,
null,is touching,,html-keyboard-response,311,2971376,0.0-17.0-2.10,42365,List2A,black,woman,,,,null,,,,
16822,,,survey-text,312,2988199,0.0-17.0-3.10,42365,List2A,black,woman,,,,,"{""Q0"":""dave and jane is touching""}","<img src=""stim_listA/touch1.gif""style=""height:400px;""></stim_listA>",is touching,
null,"<div style=""font-size:60px;"">+</div>",,html-keyboard-response,313,2988716,0.0-17.0-0.11,42365,List2A,black,woman,,,,null,,,,
null,"<img src=""stim_listA/fight3.gif""style=""height:400px;""></stim_listA>",,html-keyboard-response,314,2990721,0.0-17.0-1.11,42365,List2A,black,woman,,,,null,,,,
null,is fighting,,html-keyboard-response,315,2992725,0.0-17.0-2.11,42365,List2A,black,woman,,,,null,,,,
13440,,,survey-text,316,3006168,0.0-17.0-3.11,42365,List2A,black,woman,,,,,"{""Q0"":""mike and kate is fighting""}","<img src=""stim_listA/fight3.gif""style=""height:400px;""></stim_listA>",is fighting,
null,"<div style=""font-size:60px;"">+</div>",,html-keyboard-response,317,3006671,0.0-17.0-0.12,42365,List2A,black,woman,,,,null,,,,
null,"<img src=""stim_listA/play6.gif""style=""height:400px;""></stim_listA>",,html-keyboard-response,318,3008673,0.0-17.0-1.12,42365,List2A,black,woman,,,,null,,,,
null,are playing with each other,,html-keyboard-response,319,3010687,0.0-17.0-2.12,42365,List2A,black,woman,,,,null,,,,
22200,,,survey-text,320,3032892,0.0-17.0-3.12,42365,List2A,black,woman,,,,,"{""Q0"":""fred and luke are playing with each other""}","<img src=""stim_listA/play6.gif""style=""height:400px;""></stim_listA>",are playing with each other,
null,"<div style=""font-size:60px;"">+</div>",,html-keyboard-response,321,3033405,0.0-17.0-0.13,42365,List2A,black,woman,,,,null,,,,
null,"<img src=""stim_listA/flirt6.gif""style=""height:400px;""></stim_listA>",,html-keyboard-response,322,3035410,0.0-17.0-1.13,42365,List2A,black,woman,,,,null,,,,
null,are flirting with each other,,html-keyboard-response,323,3037421,0.0-17.0-2.13,42365,List2A,black,woman,,,,null,,,,
36273,,,survey-text,324,3073695,0.0-17.0-3.13,42365,List2A,black,woman,,,,,"{""Q0"":""fred and dave are flirting with each other""}","<img src=""stim_listA/flirt6.gif""style=""height:400px;""></stim_listA>",are flirting with each other,
null,"<div style=""font-size:60px;"">+</div>",,html-keyboard-response,325,3074212,0.0-17.0-0.14,42365,List2A,black,woman,,,,null,,,,
null,"<img src=""stim_listA/kiss8.gif""style=""height:400px;""></stim_listA>",,html-keyboard-response,326,3076219,0.0-17.0-1.14,42365,List2A,black,woman,,,,null,,,,
null,are kissing each other,,html-keyboard-response,327,3078232,0.0-17.0-2.14,42365,List2A,black,woman,,,,null,,,,
21790,,,survey-text,328,3100024,0.0-17.0-3.14,42365,List2A,black,woman,,,,,"{""Q0"":""kate and jane are kissing each other""}","<img src=""stim_listA/kiss8.gif""style=""height:400px;""></stim_listA>",are kissing each other,
null,"<div style=""font-size:60px;"">+</div>",,html-keyboard-response,329,3100530,0.0-17.0-0.15,42365,List2A,black,woman,,,,null,,,,
null,"<img src=""stim_listA/dance4.gif""style=""height:400px;""></stim_listA>",,html-keyboard-response,330,3102533,0.0-17.0-1.15,42365,List2A,black,woman,,,,null,,,,
null,are dancing with each other,,html-keyboard-response,331,3104547,0.0-17.0-2.15,42365,List2A,black,woman,,,,null,,,,
15655,,,survey-text,332,3120204,0.0-17.0-3.15,42365,List2A,black,woman,,,,,"{""Q0"":""mike and beth are dancing with each other""}","<img src=""stim_listA/dance4.gif""style=""height:400px;""></stim_listA>",are dancing with each other,
null,"<div style=""font-size:60px;"">+</div>",,html-keyboard-response,333,3120708,0.0-17.0-0.16,42365,List2A,black,woman,,,,null,,,,
null,"<img src=""stim_listA/flirt2.gif""style=""height:400px;""></stim_listA>",,html-keyboard-response,334,3122716,0.0-17.0-1.16,42365,List2A,black,woman,,,,null,,,,
null,are flirting with each other,,html-keyboard-response,335,3124724,0.0-17.0-2.16,42365,List2A,black,woman,,,,null,,,,
16697,,,survey-text,336,3141422,0.0-17.0-3.16,42365,List2A,black,woman,,,,,"{""Q0"":""ruth and dave are flirting with each other""}","<img src=""stim_listA/flirt2.gif""style=""height:400px;""></stim_listA>",are flirting with each other,
null,"<div style=""font-size:60px;"">+</div>",,html-keyboard-response,337,3141926,0.0-17.0-0.17,42365,List2A,black,woman,,,,null,,,,
null,"<img src=""stim_listA/dance3.gif""style=""height:400px;""></stim_listA>",,html-keyboard-response,338,3143930,0.0-17.0-1.17,42365,List2A,black,woman,,,,null,,,,
null,is dancing with,,html-keyboard-response,339,3145946,0.0-17.0-2.17,42365,List2A,black,woman,,,,null,,,,
13534,,,survey-text,340,3159482,0.0-17.0-3.17,42365,List2A,black,woman,,,,,"{""Q0"":""fred and kate is dancing with""}","<img src=""stim_listA/dance3.gif""style=""height:400px;""></stim_listA>",is dancing with,
null,"<div style=""font-size:60px;"">+</div>",,html-keyboard-response,341,3159991,0.0-17.0-0.18,42365,List2A,black,woman,,,,null,,,,
null,"<img src=""stim_listA/touch7.gif""style=""height:400px;""></stim_listA>",,html-keyboard-response,342,3161997,0.0-17.0-1.18,42365,List2A,black,woman,,,,null,,,,
null,is touching,,html-keyboard-response,343,3163999,0.0-17.0-2.18,42365,List2A,black,woman,,,,null,,,,
19045,,,survey-text,344,3183045,0.0-17.0-3.18,42365,List2A,black,woman,,,,,"{""Q0"":""kate and jane is touching""}","<img src=""stim_listA/touch7.gif""style=""height:400px;""></stim_listA>",is touching,
null,"<div style=""font-size:60px;"">+</div>",,html-keyboard-response,345,3183557,0.0-17.0-0.19,42365,List2A,black,woman,,,,null,,,,
null,"<img src=""stim_listA/talk1.gif""style=""height:400px;""></stim_listA>",,html-keyboard-response,346,3185561,0.0-17.0-1.19,42365,List2A,black,woman,,,,null,,,,
null,is talking to,,html-keyboard-response,347,3187567,0.0-17.0-2.19,42365,List2A,black,woman,,,,null,,,,
15996,,,survey-text,348,3203564,0.0-17.0-3.19,42365,List2A,black,woman,,,,,"{""Q0"":""luke and jane is talking to""}","<img src=""stim_listA/talk1.gif""style=""height:400px;""></stim_listA>",is talking to,
15403,"<img src='img/portrait_matrix_list2.jpg' style='width:900px;height:500px;''></img><p>If you have memorised all the portraits and names and are ready to start, press Continue.</p><p><strong>Please note: Your memory of these faces will be tested 4 times during this experiment.</strong></p>",0,html-button-response,349,3218969,0.0-18.0-0.0,42365,List2A,black,woman,,,,,,,,
3004,"<img src=""portrait/BW2.jpg""style=""height:400px;""></img>",2,html-button-response,350,3222975,0.0-18.0-1.0,42365,List2A,black,woman,,TRUE,2,,,,,
null,CORRECT,,html-keyboard-response,351,3224492,0.0-18.0-2.0-0.0,42365,List2A,black,woman,,,,null,,,,
3181,"<img src=""portrait/WW2.jpg""style=""height:400px;""></img>",3,html-button-response,352,3227676,0.0-18.0-4.0,42365,List2A,black,woman,,TRUE,3,,,,,
null,CORRECT,,html-keyboard-response,353,3229185,0.0-18.0-5.0-0.0,42365,List2A,black,woman,,,,null,,,,
1746,"<img src=""portrait/BM2.jpg""style=""height:400px;""></img>",5,html-button-response,354,3230934,0.0-18.0-7.0,42365,List2A,black,woman,,TRUE,5,,,,,
null,CORRECT,,html-keyboard-response,355,3232458,0.0-18.0-8.0-0.0,42365,List2A,black,woman,,,,null,,,,
5154,"<img src=""portrait/WM2.jpg""style=""height:400px;""></img>",7,html-button-response,356,3237615,0.0-18.0-10.0,42365,List2A,black,woman,,TRUE,7,,,,,
null,CORRECT,,html-keyboard-response,357,3239138,0.0-18.0-11.0-0.0,42365,List2A,black,woman,,,,null,,,,
2106,"<img src=""portrait/BM1.jpg""style=""height:400px;""></img>",4,html-button-response,358,3241246,0.0-18.0-13.0,42365,List2A,black,woman,,TRUE,4,,,,,
null,CORRECT,,html-keyboard-response,359,3242774,0.0-18.0-14.0-0.0,42365,List2A,black,woman,,,,null,,,,
4222,"<img src=""portrait/WW1.jpg""style=""height:400px;""></img>",1,html-button-response,360,3246998,0.0-18.0-16.0,42365,List2A,black,woman,,TRUE,1,,,,,
null,CORRECT,,html-keyboard-response,361,3248530,0.0-18.0-17.0-0.0,42365,List2A,black,woman,,,,null,,,,
4417,"<img src=""portrait/BW1.jpg""style=""height:400px;""></img>",0,html-button-response,362,3252950,0.0-18.0-19.0,42365,List2A,black,woman,,TRUE,0,,,,,
null,CORRECT,,html-keyboard-response,363,3254475,0.0-18.0-20.0-0.0,42365,List2A,black,woman,,,,null,,,,
4652,"<img src=""portrait/WM1.jpg""style=""height:400px;""></img>",6,html-button-response,364,3259129,0.0-18.0-22.0,42365,List2A,black,woman,,TRUE,6,,,,,
null,CORRECT,,html-keyboard-response,365,3260635,0.0-18.0-23.0-0.0,42365,List2A,black,woman,,,,null,,,,
1757,<p>You got 8 out of 8 right first time. Press Continue.</p>,0,html-button-response,366,3262394,0.0-18.0-25.0,42365,List2A,black,woman,,,,,,,,
null,"<div style=""font-size:60px;"">+</div>",,html-keyboard-response,367,3263924,0.0-19.0-0.0,42365,List2A,black,woman,,,,null,,,,
null,"<img src=""stim_listA/kiss4.gif""style=""height:400px;""></stim_listA>",,html-keyboard-response,368,3265930,0.0-19.0-1.0,42365,List2A,black,woman,,,,null,,,,
null,are kissing each other,,html-keyboard-response,369,3267944,0.0-19.0-2.0,42365,List2A,black,woman,,,,null,,,,
16987,,,survey-text,370,3284933,0.0-19.0-3.0,42365,List2A,black,woman,,,,,"{""Q0"":""mike and kate are kissing each other""}","<img src=""stim_listA/kiss4.gif""style=""height:400px;""></stim_listA>",are kissing each other,
null,"<div style=""font-size:60px;"">+</div>",,html-keyboard-response,371,3285447,0.0-19.0-0.1,42365,List2A,black,woman,,,,null,,,,
null,"<img src=""stim_listA/kiss2.gif""style=""height:400px;""></stim_listA>",,html-keyboard-response,372,3287449,0.0-19.0-1.1,42365,List2A,black,woman,,,,null,,,,
null,are kissing each other,,html-keyboard-response,373,3289462,0.0-19.0-2.1,42365,List2A,black,woman,,,,null,,,,
16797,,,survey-text,374,3306261,0.0-19.0-3.1,42365,List2A,black,woman,,,,,"{""Q0"":""dave and jane are kissing each other""}","<img src=""stim_listA/kiss2.gif""style=""height:400px;""></stim_listA>",are kissing each other,
null,"<div style=""font-size:60px;"">+</div>",,html-keyboard-response,375,3306765,0.0-19.0-0.2,42365,List2A,black,woman,,,,null,,,,
null,"<img src=""stim_listA/dance2.gif""style=""height:400px;""></stim_listA>",,html-keyboard-response,376,3308770,0.0-19.0-1.2,42365,List2A,black,woman,,,,null,,,,
null,are dancing with each other,,html-keyboard-response,377,3310771,0.0-19.0-2.2,42365,List2A,black,woman,,,,null,,,,
18642,,,survey-text,378,3329414,0.0-19.0-3.2,42365,List2A,black,woman,,,,,"{""Q0"":""ruth and dave are dancing with each other""}","<img src=""stim_listA/dance2.gif""style=""height:400px;""></stim_listA>",are dancing with each other,
null,"<div style=""font-size:60px;"">+</div>",,html-keyboard-response,379,3329916,0.0-19.0-0.3,42365,List2A,black,woman,,,,null,,,,
null,"<img src=""stim_listA/fight5.gif""style=""height:400px;""></stim_listA>",,html-keyboard-response,380,3331919,0.0-19.0-1.3,42365,List2A,black,woman,,,,null,,,,
null,is fighting,,html-keyboard-response,381,3333932,0.0-19.0-2.3,42365,List2A,black,woman,,,,null,,,,
24934,,,survey-text,382,3358868,0.0-19.0-3.3,42365,List2A,black,woman,,,,,"{""Q0"":""mike and dave is touching""}","<img src=""stim_listA/fight5.gif""style=""height:400px;""></stim_listA>",is fighting,
null,"<div style=""font-size:60px;"">+</div>",,html-keyboard-response,383,3359378,0.0-19.0-0.4,42365,List2A,black,woman,,,,null,,,,
null,"<img src=""stim_listA/fight8.gif""style=""height:400px;""></stim_listA>",,html-keyboard-response,384,3361385,0.0-19.0-1.4,42365,List2A,black,woman,,,,null,,,,
null,are fighting each other,,html-keyboard-response,385,3363391,0.0-19.0-2.4,42365,List2A,black,woman,,,,null,,,,
16238,,,survey-text,386,3379630,0.0-19.0-3.4,42365,List2A,black,woman,,,,,"{""Q0"":""beth and ruth is fighting each other""}","<img src=""stim_listA/fight8.gif""style=""height:400px;""></stim_listA>",are fighting each other,
null,"<div style=""font-size:60px;"">+</div>",,html-keyboard-response,387,3380144,0.0-19.0-0.5,42365,List2A,black,woman,,,,null,,,,
null,"<img src=""stim_listA/argue1.gif""style=""height:400px;""></stim_listA>",,html-keyboard-response,388,3382151,0.0-19.0-1.5,42365,List2A,black,woman,,,,null,,,,
null,is arguing with,,html-keyboard-response,389,3384153,0.0-19.0-2.5,42365,List2A,black,woman,,,,null,,,,
15568,,,survey-text,390,3399724,0.0-19.0-3.5,42365,List2A,black,woman,,,,,"{""Q0"":""dave and ruth is arguing with""}","<img src=""stim_listA/argue1.gif""style=""height:400px;""></stim_listA>",is arguing with,
null,"<div style=""font-size:60px;"">+</div>",,html-keyboard-response,391,3400238,0.0-19.0-0.6,42365,List2A,black,woman,,,,null,,,,
null,"<img src=""stim_listA/play2.gif""style=""height:400px;""></stim_listA>",,html-keyboard-response,392,3402245,0.0-19.0-1.6,42365,List2A,black,woman,,,,null,,,,
null,are playing with each other,,html-keyboard-response,393,3404256,0.0-19.0-2.6,42365,List2A,black,woman,,,,null,,,,
20847,,,survey-text,394,3425104,0.0-19.0-3.6,42365,List2A,black,woman,,,,,"{""Q0"":""ruth and luke is playing with each other""}","<img src=""stim_listA/play2.gif""style=""height:400px;""></stim_listA>",are playing with each other,
null,"<div style=""font-size:60px;"">+</div>",,html-keyboard-response,395,3425608,0.0-19.0-0.7,42365,List2A,black,woman,,,,null,,,,
null,"<img src=""stim_listA/talk4.gif""style=""height:400px;""></stim_listA>",,html-keyboard-response,396,3427612,0.0-19.0-1.7,42365,List2A,black,woman,,,,null,,,,
null,are talking to each other,,html-keyboard-response,397,3429614,0.0-19.0-2.7,42365,List2A,black,woman,,,,null,,,,
17239,,,survey-text,398,3446854,0.0-19.0-3.7,42365,List2A,black,woman,,,,,"{""Q0"":""mike and beth are talking to each other""}","<img src=""stim_listA/talk4.gif""style=""height:400px;""></stim_listA>",are talking to each other,
null,"<div style=""font-size:60px;"">+</div>",,html-keyboard-response,399,3447359,0.0-19.0-0.8,42365,List2A,black,woman,,,,null,,,,
null,"<img src=""stim_listA/argue2.gif""style=""height:400px;""></stim_listA>",,html-keyboard-response,400,3449365,0.0-19.0-1.8,42365,List2A,black,woman,,,,null,,,,
null,are arguing with each other,,html-keyboard-response,401,3451371,0.0-19.0-2.8,42365,List2A,black,woman,,,,null,,,,
17173,,,survey-text,402,3468545,0.0-19.0-3.8,42365,List2A,black,woman,,,,,"{""Q0"":""jane and luke are arguing with each other""}","<img src=""stim_listA/argue2.gif""style=""height:400px;""></stim_listA>",are arguing with each other,
null,"<div style=""font-size:60px;"">+</div>",,html-keyboard-response,403,3469049,0.0-19.0-0.9,42365,List2A,black,woman,,,,null,,,,
null,"<img src=""stim_listA/flirt3.gif""style=""height:400px;""></stim_listA>",,html-keyboard-response,404,3471066,0.0-19.0-1.9,42365,List2A,black,woman,,,,null,,,,
null,is flirting with,,html-keyboard-response,405,3473070,0.0-19.0-2.9,42365,List2A,black,woman,,,,null,,,,
28786,,,survey-text,406,3501858,0.0-19.0-3.9,42365,List2A,black,woman,,,,,"{""Q0"":""kate and fred is flirting with""}","<img src=""stim_listA/flirt3.gif""style=""height:400px;""></stim_listA>",is flirting with,
null,"<div style=""font-size:60px;"">+</div>",,html-keyboard-response,407,3502361,0.0-19.0-0.10,42365,List2A,black,woman,,,,null,,,,
null,"<img src=""stim_listA/fight2.gif""style=""height:400px;""></stim_listA>",,html-keyboard-response,408,3504368,0.0-19.0-1.10,42365,List2A,black,woman,,,,null,,,,
null,are fighting each other,,html-keyboard-response,409,3506374,0.0-19.0-2.10,42365,List2A,black,woman,,,,null,,,,
17854,,,survey-text,410,3524230,0.0-19.0-3.10,42365,List2A,black,woman,,,,,"{""Q0"":""luke and ruth are fighting with each other""}","<img src=""stim_listA/fight2.gif""style=""height:400px;""></stim_listA>",are fighting each other,
null,"<div style=""font-size:60px;"">+</div>",,html-keyboard-response,411,3524734,0.0-19.0-0.11,42365,List2A,black,woman,,,,null,,,,
null,"<img src=""stim_listA/marry7.gif""style=""height:400px;""></stim_listA>",,html-keyboard-response,412,3526740,0.0-19.0-1.11,42365,List2A,black,woman,,,,null,,,,
null,is marrying,,html-keyboard-response,413,3528748,0.0-19.0-2.11,42365,List2A,black,woman,,,,null,,,,
14621,,,survey-text,414,3543370,0.0-19.0-3.11,42365,List2A,black,woman,,,,,"{""Q0"":""jane and beth is marrying""}","<img src=""stim_listA/marry7.gif""style=""height:400px;""></stim_listA>",is marrying,
null,"<div style=""font-size:60px;"">+</div>",,html-keyboard-response,415,3543885,0.0-19.0-0.12,42365,List2A,black,woman,,,,null,,,,
null,"<img src=""stim_listA/touch6.gif""style=""height:400px;""></stim_listA>",,html-keyboard-response,416,3545890,0.0-19.0-1.12,42365,List2A,black,woman,,,,null,,,,
null,are touching each other,,html-keyboard-response,417,3547896,0.0-19.0-2.12,42365,List2A,black,woman,,,,null,,,,
15731,,,survey-text,418,3563630,0.0-19.0-3.12,42365,List2A,black,woman,,,,,"{""Q0"":""fred and luke are touching each other""}","<img src=""stim_listA/touch6.gif""style=""height:400px;""></stim_listA>",are touching each other,
null,"<div style=""font-size:60px;"">+</div>",,html-keyboard-response,419,3564132,0.0-19.0-0.13,42365,List2A,black,woman,,,,null,,,,
null,"<img src=""stim_listA/marry6.gif""style=""height:400px;""></stim_listA>",,html-keyboard-response,420,3566138,0.0-19.0-1.13,42365,List2A,black,woman,,,,null,,,,
null,are marrying each other,,html-keyboard-response,421,3568153,0.0-19.0-2.13,42365,List2A,black,woman,,,,null,,,,
15019,,,survey-text,422,3583176,0.0-19.0-3.13,42365,List2A,black,woman,,,,,"{""Q0"":""mike and luke are marrying each other""}","<img src=""stim_listA/marry6.gif""style=""height:400px;""></stim_listA>",are marrying each other,
null,"<div style=""font-size:60px;"">+</div>",,html-keyboard-response,423,3583678,0.0-19.0-0.14,42365,List2A,black,woman,,,,null,,,,
null,"<img src=""stim_listA/argue5.gif""style=""height:400px;""></stim_listA>",,html-keyboard-response,424,3585681,0.0-19.0-1.14,42365,List2A,black,woman,,,,null,,,,
null,is arguing with,,html-keyboard-response,425,3587683,0.0-19.0-2.14,42365,List2A,black,woman,,,,null,,,,
22705,,,survey-text,426,3610389,0.0-19.0-3.14,42365,List2A,black,woman,,,,,"{""Q0"":""fred and dave is arguing with""}","<img src=""stim_listA/argue5.gif""style=""height:400px;""></stim_listA>",is arguing with,
null,"<div style=""font-size:60px;"">+</div>",,html-keyboard-response,427,3610902,0.0-19.0-0.15,42365,List2A,black,woman,,,,null,,,,
null,"<img src=""stim_listA/shout1.gif""style=""height:400px;""></stim_listA>",,html-keyboard-response,428,3612905,0.0-19.0-1.15,42365,List2A,black,woman,,,,null,,,,
null,is shouting at,,html-keyboard-response,429,3614912,0.0-19.0-2.15,42365,List2A,black,woman,,,,null,,,,
19514,,,survey-text,430,3634428,0.0-19.0-3.15,42365,List2A,black,woman,,,,,"{""Q0"":""ruth and luke is shouting at""}","<img src=""stim_listA/shout1.gif""style=""height:400px;""></stim_listA>",is shouting at,
null,"<div style=""font-size:60px;"">+</div>",,html-keyboard-response,431,3634938,0.0-19.0-0.16,42365,List2A,black,woman,,,,null,,,,
null,"<img src=""stim_listA/play8.gif""style=""height:400px;""></stim_listA>",,html-keyboard-response,432,3636944,0.0-19.0-1.16,42365,List2A,black,woman,,,,null,,,,
null,are playing with each other,,html-keyboard-response,433,3638946,0.0-19.0-2.16,42365,List2A,black,woman,,,,null,,,,
17182,,,survey-text,434,3656130,0.0-19.0-3.16,42365,List2A,black,woman,,,,,"{""Q0"":""beth and ruth are playing with each other""}","<img src=""stim_listA/play8.gif""style=""height:400px;""></stim_listA>",are playing with each other,
null,"<div style=""font-size:60px;"">+</div>",,html-keyboard-response,435,3656631,0.0-19.0-0.17,42365,List2A,black,woman,,,,null,,,,
null,"<img src=""stim_listA/flirt7.gif""style=""height:400px;""></stim_listA>",,html-keyboard-response,436,3658636,0.0-19.0-1.17,42365,List2A,black,woman,,,,null,,,,
null,is flirting with,,html-keyboard-response,437,3660638,0.0-19.0-2.17,42365,List2A,black,woman,,,,null,,,,
17187,,,survey-text,438,3677827,0.0-19.0-3.17,42365,List2A,black,woman,,,,,"{""Q0"":""kate and ruth is flirting with""}","<img src=""stim_listA/flirt7.gif""style=""height:400px;""></stim_listA>",is flirting with,
null,"<div style=""font-size:60px;"">+</div>",,html-keyboard-response,439,3678337,0.0-19.0-0.18,42365,List2A,black,woman,,,,null,,,,
null,"<img src=""stim_listA/dance8.gif""style=""height:400px;""></stim_listA>",,html-keyboard-response,440,3680345,0.0-19.0-1.18,42365,List2A,black,woman,,,,null,,,,
null,are dancing with each other,,html-keyboard-response,441,3682354,0.0-19.0-2.18,42365,List2A,black,woman,,,,null,,,,
19653,,,survey-text,442,3702008,0.0-19.0-3.18,42365,List2A,black,woman,,,,,"{""Q0"":""beth and jane are dancing with each other""}","<img src=""stim_listA/dance8.gif""style=""height:400px;""></stim_listA>",are dancing with each other,
null,"<div style=""font-size:60px;"">+</div>",,html-keyboard-response,443,3702517,0.0-19.0-0.19,42365,List2A,black,woman,,,,null,,,,
null,"<img src=""stim_listA/shout7.gif""style=""height:400px;""></stim_listA>",,html-keyboard-response,444,3704524,0.0-19.0-1.19,42365,List2A,black,woman,,,,null,,,,
null,is shouting at,,html-keyboard-response,445,3706526,0.0-19.0-2.19,42365,List2A,black,woman,,,,null,,,,
23032,,,survey-text,446,3729560,0.0-19.0-3.19,42365,List2A,black,woman,,,,,"{""Q0"":""beth and ruth is shouting at each other""}","<img src=""stim_listA/shout7.gif""style=""height:400px;""></stim_listA>",is shouting at,
3145,<p>Thank you for completing that task.</p><p>The final part of this session is a short questionnaire.</p><p>Press Continue.</p>,0,html-button-response,447,3732707,0.0-20.0,42365,List2A,black,woman,,,,,,,,
46278,,,survey-text,448,3779995,0.0-21.0,42365,List2A,black,woman,,,,,"{""Q0"":""27"",""Q1"":""English"",""Q2"":""English"",""Q3"":""England"",""Q4"":""black caribbean"",""Q5"":""female""}",,,demographics
11131,,,survey-likert,449,3791130,0.0-22.0,42365,List2A,black,woman,,,,,"{""Q0"":4}",,,likert_ESS
13841,,,survey-likert,450,3804972,0.0-23.0,42365,List2A,black,woman,,,,,"{""Q0"":4}",,,likert_NSSAL_Q1
7015,,,survey-likert,451,3811989,0.0-24.0,42365,List2A,black,woman,,,,,"{""Q0"":4}",,,likert_NSSAL_Q2
5177,,,survey-likert,452,3817168,0.0-25.0,42365,List2A,black,woman,,,,,"{""Q0"":4}",,,likert_CGRS_Q1
4816,,,survey-likert,453,3821987,0.0-26.0,42365,List2A,black,woman,,,,,"{""Q0"":4}",,,likert_CGRS_Q2
4163,,,survey-likert,454,3826151,0.0-27.0,42365,List2A,black,woman,,,,,"{""Q0"":4}",,,likert_CGRS_Q3
13008,,,survey-text,455,3839160,0.0-28.0,42365,List2A,black,woman,,,,,"{""Q0"":""ccc""}",,,worker_id
31413,,,external-html,456,3870672,0.0-29.0,42365,List2A,black,woman,debrief.html,,,,,,,
