rt,stimulus,button_pressed,trial_type,trial_index,time_elapsed,internal_node_id,subject,list,ppt_race,ppt_gender,url,first_guess,correct,key_press,responses,image_type,phrase_type,test_part
937,Welcome to the experiment. Press Continue to begin.,0,html-button-response,0,938,0.0-0.0,423,List1A,white,man,,,,,,,,
4043,,,external-html,1,6102,0.0-1.0,423,List1A,white,man,consent.html,,,,,,,
3895,"<p>On the next page, you will see portraits of 8 people and their names.</p><p>Your first task is to take a few minutes to memorise the names of these people.</p><p>You will have to recall their names during the rest of the experiment, so it is</p><p>essential that you try to memorise these people and their names as best as you can.</p><br><p><strong>You will then be tested on your memory of these names and portraits.</strong></p><br><p>The experiment will start after you have completed this memory test.</p><br><p>Ready?</p>",0,html-button-response,2,9998,0.0-2.0,423,List1A,white,man,,,,,,,,
14786,"<img src='img/portrait_matrix_list1.jpg' style='width:900px;height:500px;''></img><p>If you have memorised all the portraits and names and are ready to start, press Continue.</p><p><strong>Please note: Your memory of these faces will be tested 4 times during this experiment.</strong></p>",0,html-button-response,3,25786,0.0-3.0-0.0,423,List1A,white,man,,,,,,,,
2039,"<img src=""portrait/WM2.jpg""style=""height:400px;""></img>",7,html-button-response,4,28827,0.0-3.0-1.0,423,List1A,white,man,,TRUE,7,,,,,
null,CORRECT,,html-keyboard-response,5,30330,0.0-3.0-2.0-0.0,423,List1A,white,man,,,,null,,,,
2827,"<img src=""portrait/BW1.jpg""style=""height:400px;""></img>",0,html-button-response,6,33157,0.0-3.0-4.0,423,List1A,white,man,,TRUE,0,,,,,
null,CORRECT,,html-keyboard-response,7,34661,0.0-3.0-5.0-0.0,423,List1A,white,man,,,,null,,,,
2569,"<img src=""portrait/BW2.jpg""style=""height:400px;""></img>",2,html-button-response,8,37231,0.0-3.0-7.0,423,List1A,white,man,,TRUE,2,,,,,
null,CORRECT,,html-keyboard-response,9,38734,0.0-3.0-8.0-0.0,423,List1A,white,man,,,,null,,,,
1501,"<img src=""portrait/WW1.jpg""style=""height:400px;""></img>",1,html-button-response,10,40235,0.0-3.0-10.0,423,List1A,white,man,,TRUE,1,,,,,
null,CORRECT,,html-keyboard-response,11,41737,0.0-3.0-11.0-0.0,423,List1A,white,man,,,,null,,,,
2733,"<img src=""portrait/BM1.jpg""style=""height:400px;""></img>",5,html-button-response,12,44471,0.0-3.0-13.0,423,List1A,white,man,,TRUE,4,,,,,
1796,"<img src=""portrait/BM1.jpg""style=""height:400px;""></img>",4,html-button-response,13,47268,0.0-3.0-15.0-0.0,423,List1A,white,man,,FALSE,4,,,,,
null,CORRECT,,html-keyboard-response,14,48770,0.0-3.0-15.0-1.0-0.0,423,List1A,white,man,,,,null,,,,
1594,"<img src=""portrait/WM1.jpg""style=""height:400px;""></img>",6,html-button-response,15,50366,0.0-3.0-16.0,423,List1A,white,man,,TRUE,6,,,,,
null,CORRECT,,html-keyboard-response,16,51869,0.0-3.0-17.0-0.0,423,List1A,white,man,,,,null,,,,
1620,"<img src=""portrait/WW2.jpg""style=""height:400px;""></img>",3,html-button-response,17,53490,0.0-3.0-19.0,423,List1A,white,man,,TRUE,3,,,,,
null,CORRECT,,html-keyboard-response,18,54991,0.0-3.0-20.0-0.0,423,List1A,white,man,,,,null,,,,
1184,"<img src=""portrait/BM2.jpg""style=""height:400px;""></img>",5,html-button-response,19,56176,0.0-3.0-22.0,423,List1A,white,man,,TRUE,5,,,,,
null,CORRECT,,html-keyboard-response,20,57679,0.0-3.0-23.0-0.0,423,List1A,white,man,,,,null,,,,
679,<p>You got 7 out of 8 right first time. Press Continue.</p>,0,html-button-response,21,58360,0.0-3.0-25.0,423,List1A,white,man,,,,,,,,
1782,"As you did not score 100%, the memory game will repeat. Press Continue.",0,html-button-response,22,61144,0.0-3.0-26.0-0.0,423,List1A,white,man,,,,,,,,
1176,"<img src='img/portrait_matrix_list1.jpg' style='width:900px;height:500px;''></img><p>If you have memorised all the portraits and names and are ready to start, press Continue.</p><p><strong>Please note: Your memory of these faces will be tested 4 times during this experiment.</strong></p>",0,html-button-response,23,63323,0.0-3.1-0.1,423,List1A,white,man,,,,,,,,
816,"<img src=""portrait/WM2.jpg""style=""height:400px;""></img>",7,html-button-response,24,65143,0.0-3.1-1.1,423,List1A,white,man,,TRUE,7,,,,,
null,CORRECT,,html-keyboard-response,25,66645,0.0-3.1-2.1-0.1,423,List1A,white,man,,,,null,,,,
5747,"<img src=""portrait/BW1.jpg""style=""height:400px;""></img>",2,html-button-response,26,72393,0.0-3.1-4.1,423,List1A,white,man,,TRUE,0,,,,,
1107,"<img src=""portrait/BW1.jpg""style=""height:400px;""></img>",0,html-button-response,27,74502,0.0-3.1-6.1-0.1,423,List1A,white,man,,FALSE,0,,,,,
null,CORRECT,,html-keyboard-response,28,76004,0.0-3.1-6.1-1.1-0.1,423,List1A,white,man,,,,null,,,,
1244,"<img src=""portrait/BW2.jpg""style=""height:400px;""></img>",2,html-button-response,29,77249,0.0-3.1-7.1,423,List1A,white,man,,TRUE,2,,,,,
null,CORRECT,,html-keyboard-response,30,78750,0.0-3.1-8.1-0.1,423,List1A,white,man,,,,null,,,,
880,"<img src=""portrait/WW1.jpg""style=""height:400px;""></img>",1,html-button-response,31,79632,0.0-3.1-10.1,423,List1A,white,man,,TRUE,1,,,,,
null,CORRECT,,html-keyboard-response,32,81134,0.0-3.1-11.1-0.1,423,List1A,white,man,,,,null,,,,
1042,"<img src=""portrait/BM1.jpg""style=""height:400px;""></img>",4,html-button-response,33,82176,0.0-3.1-13.1,423,List1A,white,man,,TRUE,4,,,,,
null,CORRECT,,html-keyboard-response,34,83679,0.0-3.1-14.1-0.1,423,List1A,white,man,,,,null,,,,
1293,"<img src=""portrait/WM1.jpg""style=""height:400px;""></img>",6,html-button-response,35,84973,0.0-3.1-16.1,423,List1A,white,man,,TRUE,6,,,,,
null,CORRECT,,html-keyboard-response,36,86474,0.0-3.1-17.1-0.1,423,List1A,white,man,,,,null,,,,
1880,"<img src=""portrait/WW2.jpg""style=""height:400px;""></img>",3,html-button-response,37,88355,0.0-3.1-19.1,423,List1A,white,man,,TRUE,3,,,,,
null,CORRECT,,html-keyboard-response,38,89857,0.0-3.1-20.1-0.1,423,List1A,white,man,,,,null,,,,
529,"<img src=""portrait/BM2.jpg""style=""height:400px;""></img>",5,html-button-response,39,90387,0.0-3.1-22.1,423,List1A,white,man,,TRUE,5,,,,,
null,CORRECT,,html-keyboard-response,40,91889,0.0-3.1-23.1-0.1,423,List1A,white,man,,,,null,,,,
485,<p>You got 7 out of 8 right first time. Press Continue.</p>,0,html-button-response,41,92375,0.0-3.1-25.1,423,List1A,white,man,,,,,,,,
727,"As you did not score 100%, the memory game will repeat. Press Continue.",0,html-button-response,42,94104,0.0-3.1-26.1-0.1,423,List1A,white,man,,,,,,,,
649,"<img src='img/portrait_matrix_list1.jpg' style='width:900px;height:500px;''></img><p>If you have memorised all the portraits and names and are ready to start, press Continue.</p><p><strong>Please note: Your memory of these faces will be tested 4 times during this experiment.</strong></p>",0,html-button-response,43,95756,0.0-3.2-0.2,423,List1A,white,man,,,,,,,,
710,"<img src=""portrait/WM2.jpg""style=""height:400px;""></img>",7,html-button-response,44,97468,0.0-3.2-1.2,423,List1A,white,man,,TRUE,7,,,,,
null,CORRECT,,html-keyboard-response,45,98968,0.0-3.2-2.2-0.2,423,List1A,white,man,,,,null,,,,
4216,"<img src=""portrait/BW1.jpg""style=""height:400px;""></img>",2,html-button-response,46,103186,0.0-3.2-4.2,423,List1A,white,man,,TRUE,0,,,,,
2265,"<img src=""portrait/BW1.jpg""style=""height:400px;""></img>",0,html-button-response,47,106452,0.0-3.2-6.2-0.2,423,List1A,white,man,,FALSE,0,,,,,
null,CORRECT,,html-keyboard-response,48,107954,0.0-3.2-6.2-1.2-0.2,423,List1A,white,man,,,,null,,,,
957,"<img src=""portrait/BW2.jpg""style=""height:400px;""></img>",2,html-button-response,49,108912,0.0-3.2-7.2,423,List1A,white,man,,TRUE,2,,,,,
null,CORRECT,,html-keyboard-response,50,110415,0.0-3.2-8.2-0.2,423,List1A,white,man,,,,null,,,,
3121,"<img src=""portrait/WW1.jpg""style=""height:400px;""></img>",1,html-button-response,51,113537,0.0-3.2-10.2,423,List1A,white,man,,TRUE,1,,,,,
null,CORRECT,,html-keyboard-response,52,115039,0.0-3.2-11.2-0.2,423,List1A,white,man,,,,null,,,,
1523,"<img src=""portrait/BM1.jpg""style=""height:400px;""></img>",4,html-button-response,53,116564,0.0-3.2-13.2,423,List1A,white,man,,TRUE,4,,,,,
null,CORRECT,,html-keyboard-response,54,118065,0.0-3.2-14.2-0.2,423,List1A,white,man,,,,null,,,,
1346,"<img src=""portrait/WM1.jpg""style=""height:400px;""></img>",6,html-button-response,55,119411,0.0-3.2-16.2,423,List1A,white,man,,TRUE,6,,,,,
null,CORRECT,,html-keyboard-response,56,120912,0.0-3.2-17.2-0.2,423,List1A,white,man,,,,null,,,,
1000,"<img src=""portrait/WW2.jpg""style=""height:400px;""></img>",3,html-button-response,57,121913,0.0-3.2-19.2,423,List1A,white,man,,TRUE,3,,,,,
null,CORRECT,,html-keyboard-response,58,123414,0.0-3.2-20.2-0.2,423,List1A,white,man,,,,null,,,,
298,"<img src=""portrait/BM2.jpg""style=""height:400px;""></img>",5,html-button-response,59,123713,0.0-3.2-22.2,423,List1A,white,man,,TRUE,5,,,,,
null,CORRECT,,html-keyboard-response,60,125216,0.0-3.2-23.2-0.2,423,List1A,white,man,,,,null,,,,
421,<p>You got 7 out of 8 right first time. Press Continue.</p>,0,html-button-response,61,125637,0.0-3.2-25.2,423,List1A,white,man,,,,,,,,
271,"As you did not score 100%, the memory game will repeat. Press Continue.",0,html-button-response,62,126909,0.0-3.2-26.2-0.2,423,List1A,white,man,,,,,,,,
558,"<img src='img/portrait_matrix_list1.jpg' style='width:900px;height:500px;''></img><p>If you have memorised all the portraits and names and are ready to start, press Continue.</p><p><strong>Please note: Your memory of these faces will be tested 4 times during this experiment.</strong></p>",0,html-button-response,63,128469,0.0-3.3-0.3,423,List1A,white,man,,,,,,,,
406,"<img src=""portrait/WM2.jpg""style=""height:400px;""></img>",7,html-button-response,64,129876,0.0-3.3-1.3,423,List1A,white,man,,TRUE,7,,,,,
null,CORRECT,,html-keyboard-response,65,131378,0.0-3.3-2.3-0.3,423,List1A,white,man,,,,null,,,,
702,"<img src=""portrait/BW1.jpg""style=""height:400px;""></img>",0,html-button-response,66,132081,0.0-3.3-4.3,423,List1A,white,man,,TRUE,0,,,,,
null,CORRECT,,html-keyboard-response,67,133583,0.0-3.3-5.3-0.3,423,List1A,white,man,,,,null,,,,
372,"<img src=""portrait/BW2.jpg""style=""height:400px;""></img>",2,html-button-response,68,133957,0.0-3.3-7.3,423,List1A,white,man,,TRUE,2,,,,,
null,CORRECT,,html-keyboard-response,69,135459,0.0-3.3-8.3-0.3,423,List1A,white,man,,,,null,,,,
1027,"<img src=""portrait/WW1.jpg""style=""height:400px;""></img>",1,html-button-response,70,136486,0.0-3.3-10.3,423,List1A,white,man,,TRUE,1,,,,,
null,CORRECT,,html-keyboard-response,71,137989,0.0-3.3-11.3-0.3,423,List1A,white,man,,,,null,,,,
548,"<img src=""portrait/BM1.jpg""style=""height:400px;""></img>",4,html-button-response,72,138537,0.0-3.3-13.3,423,List1A,white,man,,TRUE,4,,,,,
null,CORRECT,,html-keyboard-response,73,140039,0.0-3.3-14.3-0.3,423,List1A,white,man,,,,null,,,,
1027,"<img src=""portrait/WM1.jpg""style=""height:400px;""></img>",6,html-button-response,74,141066,0.0-3.3-16.3,423,List1A,white,man,,TRUE,6,,,,,
null,CORRECT,,html-keyboard-response,75,142570,0.0-3.3-17.3-0.3,423,List1A,white,man,,,,null,,,,
950,"<img src=""portrait/WW2.jpg""style=""height:400px;""></img>",3,html-button-response,76,143520,0.0-3.3-19.3,423,List1A,white,man,,TRUE,3,,,,,
null,CORRECT,,html-keyboard-response,77,145023,0.0-3.3-20.3-0.3,423,List1A,white,man,,,,null,,,,
2586,"<img src=""portrait/BM2.jpg""style=""height:400px;""></img>",5,html-button-response,78,147610,0.0-3.3-22.3,423,List1A,white,man,,TRUE,5,,,,,
null,CORRECT,,html-keyboard-response,79,149112,0.0-3.3-23.3-0.3,423,List1A,white,man,,,,null,,,,
963,<p>You got 8 out of 8 right first time. Press Continue.</p>,0,html-button-response,80,150076,0.0-3.3-25.3,423,List1A,white,man,,,,,,,,
14991,"<p>In this experiment, you will view photographs of the people from the memory game interacting.</p><p>By using the <strong>exact</strong> phrase given <i>after</i> the photograph appears and recalling the correct names of the people in the photographs, form a sentence describing the interaction. You do not need to capitalise names.</p><p>Type your answer in the space provided. Please complete every sentence before moving onto the next trial.</p><p>You will only have a few seconds to memorise each given photograph and phrase before you can respond, so try your best to focus.</p><p>An example is given below. Press 'Continue' when you are ready.</p><img src='img/speaking_example.jpg' style='width:800px;height:460px;''></img>",0,html-button-response,81,166068,0.0-4.0,423,List1A,white,man,,,,,,,,
1099,"<p>Before the experiment starts, you will watch two example trials. Press 'Continue'.</p>",0,html-button-response,82,168167,0.0-5.0,423,List1A,white,man,,,,,,,,
null,<img src='img/meet_eg.gif' style='height:400px;''></img>,,html-keyboard-response,83,171170,0.0-6.0,423,List1A,white,man,,,,null,,,,
null,<p>is meeting</p>,,html-keyboard-response,84,173170,0.0-7.0,423,List1A,white,man,,,,null,,,,
1857,<p><b>Answer:</b> kate is meeting beth</p>,0,html-button-response,85,175028,0.0-8.0,423,List1A,white,man,,,,,,,,
null,<img src='img/look_eg.gif' style='height:400px;''></img>,,html-keyboard-response,86,178031,0.0-9.0,423,List1A,white,man,,,,null,,,,
null,<p>are looking at each other</p>,,html-keyboard-response,87,180032,0.0-10.0,423,List1A,white,man,,,,null,,,,
545,<p><b>Answer:</b> luke and dave are looking at each other</p>,0,html-button-response,88,180578,0.0-11.0,423,List1A,white,man,,,,,,,,
2680,"<p>Ready to start the experiment?</p><br><p><strong>Remember to describe the picture using a full sentence,</strong></p><p><strong>that combines the names of the people with the <i>exact</i> phrase given.</strong></p><p><strong>To receive full payment you must do this correctly.</strong></p><p><strong> You do not need to capitalise names or use punctuation.</strong></p><br><p>Press 'Continue' to begin.</p>",0,html-button-response,89,184259,0.0-12.0,423,List1A,white,man,,,,,,,,
null,"<div style=""font-size:60px;"">+</div>",,html-keyboard-response,90,185761,0.0-13.0-0.0,423,List1A,white,man,,,,null,,,,
null,"<img src=""stim_listA/play3.gif""style=""height:400px;""></stim_listA>",,html-keyboard-response,91,187762,0.0-13.0-1.0,423,List1A,white,man,,,,null,,,,
null,is playing with,,html-keyboard-response,92,189764,0.0-13.0-2.0,423,List1A,white,man,,,,null,,,,
2808,,,survey-text,93,192572,0.0-13.0-3.0,423,List1A,white,man,,,,,"{""Q0"":""dave""}","<img src=""stim_listA/play3.gif""style=""height:400px;""></stim_listA>",is playing with,
null,"<div style=""font-size:60px;"">+</div>",,html-keyboard-response,94,193073,0.0-13.0-0.1,423,List1A,white,man,,,,null,,,,
null,"<img src=""stim_listA/dance2.gif""style=""height:400px;""></stim_listA>",,html-keyboard-response,95,195074,0.0-13.0-1.1,423,List1A,white,man,,,,null,,,,
null,are dancing with each other,,html-keyboard-response,96,197075,0.0-13.0-2.1,423,List1A,white,man,,,,null,,,,
3451,,,survey-text,97,200527,0.0-13.0-3.1,423,List1A,white,man,,,,,"{""Q0"":""mike beth""}","<img src=""stim_listA/dance2.gif""style=""height:400px;""></stim_listA>",are dancing with each other,
null,"<div style=""font-size:60px;"">+</div>",,html-keyboard-response,98,201027,0.0-13.0-0.2,423,List1A,white,man,,,,null,,,,
null,"<img src=""stim_listA/argue3.gif""style=""height:400px;""></stim_listA>",,html-keyboard-response,99,203029,0.0-13.0-1.2,423,List1A,white,man,,,,null,,,,
null,is arguing with,,html-keyboard-response,100,205030,0.0-13.0-2.2,423,List1A,white,man,,,,null,,,,
3472,,,survey-text,101,208502,0.0-13.0-3.2,423,List1A,white,man,,,,,"{""Q0"":""dave ruth""}","<img src=""stim_listA/argue3.gif""style=""height:400px;""></stim_listA>",is arguing with,
null,"<div style=""font-size:60px;"">+</div>",,html-keyboard-response,102,209004,0.0-13.0-0.3,423,List1A,white,man,,,,null,,,,
null,"<img src=""stim_listA/argue2.gif""style=""height:400px;""></stim_listA>",,html-keyboard-response,103,211005,0.0-13.0-1.3,423,List1A,white,man,,,,null,,,,
null,are arguing with each other,,html-keyboard-response,104,213006,0.0-13.0-2.3,423,List1A,white,man,,,,null,,,,
2193,,,survey-text,105,215200,0.0-13.0-3.3,423,List1A,white,man,,,,,"{""Q0"":""kate fred""}","<img src=""stim_listA/argue2.gif""style=""height:400px;""></stim_listA>",are arguing with each other,
null,"<div style=""font-size:60px;"">+</div>",,html-keyboard-response,106,215701,0.0-13.0-0.4,423,List1A,white,man,,,,null,,,,
null,"<img src=""stim_listA/fight4.gif""style=""height:400px;""></stim_listA>",,html-keyboard-response,107,217702,0.0-13.0-1.4,423,List1A,white,man,,,,null,,,,
null,are fighting each other,,html-keyboard-response,108,219703,0.0-13.0-2.4,423,List1A,white,man,,,,null,,,,
10667,,,survey-text,109,230371,0.0-13.0-3.4,423,List1A,white,man,,,,,"{""Q0"":""luke ruth""}","<img src=""stim_listA/fight4.gif""style=""height:400px;""></stim_listA>",are fighting each other,
null,"<div style=""font-size:60px;"">+</div>",,html-keyboard-response,110,230872,0.0-13.0-0.5,423,List1A,white,man,,,,null,,,,
null,"<img src=""stim_listA/shout6.gif""style=""height:400px;""></stim_listA>",,html-keyboard-response,111,232875,0.0-13.0-1.5,423,List1A,white,man,,,,null,,,,
null,are shouting at each other,,html-keyboard-response,112,234877,0.0-13.0-2.5,423,List1A,white,man,,,,null,,,,
2721,,,survey-text,113,237598,0.0-13.0-3.5,423,List1A,white,man,,,,,"{""Q0"":""mike dave""}","<img src=""stim_listA/shout6.gif""style=""height:400px;""></stim_listA>",are shouting at each other,
null,"<div style=""font-size:60px;"">+</div>",,html-keyboard-response,114,238100,0.0-13.0-0.6,423,List1A,white,man,,,,null,,,,
null,"<img src=""stim_listA/play7.gif""style=""height:400px;""></stim_listA>",,html-keyboard-response,115,240101,0.0-13.0-1.6,423,List1A,white,man,,,,null,,,,
null,is playing with,,html-keyboard-response,116,242101,0.0-13.0-2.6,423,List1A,white,man,,,,null,,,,
2897,,,survey-text,117,244999,0.0-13.0-3.6,423,List1A,white,man,,,,,"{""Q0"":""kate jane""}","<img src=""stim_listA/play7.gif""style=""height:400px;""></stim_listA>",is playing with,
null,"<div style=""font-size:60px;"">+</div>",,html-keyboard-response,118,245501,0.0-13.0-0.7,423,List1A,white,man,,,,null,,,,
null,"<img src=""stim_listA/marry3.gif""style=""height:400px;""></stim_listA>",,html-keyboard-response,119,247502,0.0-13.0-1.7,423,List1A,white,man,,,,null,,,,
null,is marrying,,html-keyboard-response,120,249502,0.0-13.0-2.7,423,List1A,white,man,,,,null,,,,
2631,,,survey-text,121,252134,0.0-13.0-3.7,423,List1A,white,man,,,,,"{""Q0"":""ruth dave""}","<img src=""stim_listA/marry3.gif""style=""height:400px;""></stim_listA>",is marrying,
null,"<div style=""font-size:60px;"">+</div>",,html-keyboard-response,122,252635,0.0-13.0-0.8,423,List1A,white,man,,,,null,,,,
null,"<img src=""stim_listA/fight3.gif""style=""height:400px;""></stim_listA>",,html-keyboard-response,123,254636,0.0-13.0-1.8,423,List1A,white,man,,,,null,,,,
null,is fighting,,html-keyboard-response,124,256637,0.0-13.0-2.8,423,List1A,white,man,,,,null,,,,
6047,,,survey-text,125,262684,0.0-13.0-3.8,423,List1A,white,man,,,,,"{""Q0"":""dave jane""}","<img src=""stim_listA/fight3.gif""style=""height:400px;""></stim_listA>",is fighting,
null,"<div style=""font-size:60px;"">+</div>",,html-keyboard-response,126,263186,0.0-13.0-0.9,423,List1A,white,man,,,,null,,,,
null,"<img src=""stim_listA/fight8.gif""style=""height:400px;""></stim_listA>",,html-keyboard-response,127,265187,0.0-13.0-1.9,423,List1A,white,man,,,,null,,,,
null,are fighting each other,,html-keyboard-response,128,267188,0.0-13.0-2.9,423,List1A,white,man,,,,null,,,,
11536,,,survey-text,129,278726,0.0-13.0-3.9,423,List1A,white,man,,,,,"{""Q0"":""beth and jane are fighting""}","<img src=""stim_listA/fight8.gif""style=""height:400px;""></stim_listA>",are fighting each other,
null,"<div style=""font-size:60px;"">+</div>",,html-keyboard-response,130,279227,0.0-13.0-0.10,423,List1A,white,man,,,,null,,,,
null,"<img src=""stim_listA/play2.gif""style=""height:400px;""></stim_listA>",,html-keyboard-response,131,281230,0.0-13.0-1.10,423,List1A,white,man,,,,null,,,,
null,are playing with each other,,html-keyboard-response,132,283232,0.0-13.0-2.10,423,List1A,white,man,,,,null,,,,
7403,,,survey-text,133,290636,0.0-13.0-3.10,423,List1A,white,man,,,,,"{""Q0"":""mike and beth are playing with each other""}","<img src=""stim_listA/play2.gif""style=""height:400px;""></stim_listA>",are playing with each other,
null,"<div style=""font-size:60px;"">+</div>",,html-keyboard-response,134,291137,0.0-13.0-0.11,423,List1A,white,man,,,,null,,,,
null,"<img src=""stim_listA/play8.gif""style=""height:400px;""></stim_listA>",,html-keyboard-response,135,293139,0.0-13.0-1.11,423,List1A,white,man,,,,null,,,,
null,are playing with each other,,html-keyboard-response,136,295140,0.0-13.0-2.11,423,List1A,white,man,,,,null,,,,
6653,,,survey-text,137,301794,0.0-13.0-3.11,423,List1A,white,man,,,,,"{""Q0"":""ruth and beth are playing with each other""}","<img src=""stim_listA/play8.gif""style=""height:400px;""></stim_listA>",are playing with each other,
null,"<div style=""font-size:60px;"">+</div>",,html-keyboard-response,138,302294,0.0-13.0-0.12,423,List1A,white,man,,,,null,,,,
null,"<img src=""stim_listA/kiss7.gif""style=""height:400px;""></stim_listA>",,html-keyboard-response,139,304296,0.0-13.0-1.12,423,List1A,white,man,,,,null,,,,
null,is kissing,,html-keyboard-response,140,306296,0.0-13.0-2.12,423,List1A,white,man,,,,null,,,,
7505,,,survey-text,141,313802,0.0-13.0-3.12,423,List1A,white,man,,,,,"{""Q0"":""ruth and beth are kissing each other""}","<img src=""stim_listA/kiss7.gif""style=""height:400px;""></stim_listA>",is kissing,
null,"<div style=""font-size:60px;"">+</div>",,html-keyboard-response,142,314304,0.0-13.0-0.13,423,List1A,white,man,,,,null,,,,
null,"<img src=""stim_listA/touch1.gif""style=""height:400px;""></stim_listA>",,html-keyboard-response,143,316305,0.0-13.0-1.13,423,List1A,white,man,,,,null,,,,
null,is touching,,html-keyboard-response,144,318305,0.0-13.0-2.13,423,List1A,white,man,,,,null,,,,
5798,,,survey-text,145,324104,0.0-13.0-3.13,423,List1A,white,man,,,,,"{""Q0"":""mike is touching kate""}","<img src=""stim_listA/touch1.gif""style=""height:400px;""></stim_listA>",is touching,
null,"<div style=""font-size:60px;"">+</div>",,html-keyboard-response,146,324606,0.0-13.0-0.14,423,List1A,white,man,,,,null,,,,
null,"<img src=""stim_listA/argue5.gif""style=""height:400px;""></stim_listA>",,html-keyboard-response,147,326607,0.0-13.0-1.14,423,List1A,white,man,,,,null,,,,
null,is arguing with,,html-keyboard-response,148,328608,0.0-13.0-2.14,423,List1A,white,man,,,,null,,,,
4792,,,survey-text,149,333400,0.0-13.0-3.14,423,List1A,white,man,,,,,"{""Q0"":""mike is arguing with luke""}","<img src=""stim_listA/argue5.gif""style=""height:400px;""></stim_listA>",is arguing with,
null,"<div style=""font-size:60px;"">+</div>",,html-keyboard-response,150,333901,0.0-13.0-0.15,423,List1A,white,man,,,,null,,,,
null,"<img src=""stim_listA/shout2.gif""style=""height:400px;""></stim_listA>",,html-keyboard-response,151,335903,0.0-13.0-1.15,423,List1A,white,man,,,,null,,,,
null,are shouting at each other,,html-keyboard-response,152,337904,0.0-13.0-2.15,423,List1A,white,man,,,,null,,,,
13671,,,survey-text,153,351576,0.0-13.0-3.15,423,List1A,white,man,,,,,"{""Q0"":""kate and mike are shouting at each other""}","<img src=""stim_listA/shout2.gif""style=""height:400px;""></stim_listA>",are shouting at each other,
null,"<div style=""font-size:60px;"">+</div>",,html-keyboard-response,154,352077,0.0-13.0-0.16,423,List1A,white,man,,,,null,,,,
null,"<img src=""stim_listA/dance7.gif""style=""height:400px;""></stim_listA>",,html-keyboard-response,155,354079,0.0-13.0-1.16,423,List1A,white,man,,,,null,,,,
null,is dancing with,,html-keyboard-response,156,356080,0.0-13.0-2.16,423,List1A,white,man,,,,null,,,,
7164,,,survey-text,157,363244,0.0-13.0-3.16,423,List1A,white,man,,,,,"{""Q0"":""jane is dancing with beth""}","<img src=""stim_listA/dance7.gif""style=""height:400px;""></stim_listA>",is dancing with,
null,"<div style=""font-size:60px;"">+</div>",,html-keyboard-response,158,363746,0.0-13.0-0.17,423,List1A,white,man,,,,null,,,,
null,"<img src=""stim_listA/marry2.gif""style=""height:400px;""></stim_listA>",,html-keyboard-response,159,365747,0.0-13.0-1.17,423,List1A,white,man,,,,null,,,,
null,are marrying each other,,html-keyboard-response,160,367749,0.0-13.0-2.17,423,List1A,white,man,,,,null,,,,
6312,,,survey-text,161,374061,0.0-13.0-3.17,423,List1A,white,man,,,,,"{""Q0"":""beth and fred are marrying each other""}","<img src=""stim_listA/marry2.gif""style=""height:400px;""></stim_listA>",are marrying each other,
null,"<div style=""font-size:60px;"">+</div>",,html-keyboard-response,162,374563,0.0-13.0-0.18,423,List1A,white,man,,,,null,,,,
null,"<img src=""stim_listA/play1.gif""style=""height:400px;""></stim_listA>",,html-keyboard-response,163,376564,0.0-13.0-1.18,423,List1A,white,man,,,,null,,,,
null,is playing with,,html-keyboard-response,164,378565,0.0-13.0-2.18,423,List1A,white,man,,,,null,,,,
8928,,,survey-text,165,387495,0.0-13.0-3.18,423,List1A,white,man,,,,,"{""Q0"":""mike is playing with kate""}","<img src=""stim_listA/play1.gif""style=""height:400px;""></stim_listA>",is playing with,
null,"<div style=""font-size:60px;"">+</div>",,html-keyboard-response,166,387996,0.0-13.0-0.19,423,List1A,white,man,,,,null,,,,
null,"<img src=""stim_listA/kiss5.gif""style=""height:400px;""></stim_listA>",,html-keyboard-response,167,389998,0.0-13.0-1.19,423,List1A,white,man,,,,null,,,,
null,is kissing,,html-keyboard-response,168,391998,0.0-13.0-2.19,423,List1A,white,man,,,,null,,,,
5281,,,survey-text,169,397280,0.0-13.0-3.19,423,List1A,white,man,,,,,"{""Q0"":""dave is kissing fred""}","<img src=""stim_listA/kiss5.gif""style=""height:400px;""></stim_listA>",is kissing,
1697,"<img src='img/portrait_matrix_list1.jpg' style='width:900px;height:500px;''></img><p>If you have memorised all the portraits and names and are ready to start, press Continue.</p><p><strong>Please note: Your memory of these faces will be tested 4 times during this experiment.</strong></p>",0,html-button-response,170,398979,0.0-14.0-0.0,423,List1A,white,man,,,,,,,,
1849,"<img src=""portrait/WW1.jpg""style=""height:400px;""></img>",1,html-button-response,171,401831,0.0-14.0-1.0,423,List1A,white,man,,TRUE,1,,,,,
null,CORRECT,,html-keyboard-response,172,403333,0.0-14.0-2.0-0.0,423,List1A,white,man,,,,null,,,,
1247,"<img src=""portrait/WM1.jpg""style=""height:400px;""></img>",6,html-button-response,173,404581,0.0-14.0-4.0,423,List1A,white,man,,TRUE,6,,,,,
null,CORRECT,,html-keyboard-response,174,406083,0.0-14.0-5.0-0.0,423,List1A,white,man,,,,null,,,,
1057,"<img src=""portrait/WW2.jpg""style=""height:400px;""></img>",3,html-button-response,175,407141,0.0-14.0-7.0,423,List1A,white,man,,TRUE,3,,,,,
null,CORRECT,,html-keyboard-response,176,408643,0.0-14.0-8.0-0.0,423,List1A,white,man,,,,null,,,,
2318,"<img src=""portrait/BW1.jpg""style=""height:400px;""></img>",0,html-button-response,177,410961,0.0-14.0-10.0,423,List1A,white,man,,TRUE,0,,,,,
null,CORRECT,,html-keyboard-response,178,412463,0.0-14.0-11.0-0.0,423,List1A,white,man,,,,null,,,,
1007,"<img src=""portrait/WM2.jpg""style=""height:400px;""></img>",7,html-button-response,179,413470,0.0-14.0-13.0,423,List1A,white,man,,TRUE,7,,,,,
null,CORRECT,,html-keyboard-response,180,414973,0.0-14.0-14.0-0.0,423,List1A,white,man,,,,null,,,,
1303,"<img src=""portrait/BM1.jpg""style=""height:400px;""></img>",4,html-button-response,181,416277,0.0-14.0-16.0,423,List1A,white,man,,TRUE,4,,,,,
null,CORRECT,,html-keyboard-response,182,417780,0.0-14.0-17.0-0.0,423,List1A,white,man,,,,null,,,,
1596,"<img src=""portrait/BM2.jpg""style=""height:400px;""></img>",5,html-button-response,183,419377,0.0-14.0-19.0,423,List1A,white,man,,TRUE,5,,,,,
null,CORRECT,,html-keyboard-response,184,420879,0.0-14.0-20.0-0.0,423,List1A,white,man,,,,null,,,,
687,"<img src=""portrait/BW2.jpg""style=""height:400px;""></img>",2,html-button-response,185,421567,0.0-14.0-22.0,423,List1A,white,man,,TRUE,2,,,,,
null,CORRECT,,html-keyboard-response,186,423070,0.0-14.0-23.0-0.0,423,List1A,white,man,,,,null,,,,
738,<p>You got 8 out of 8 right first time. Press Continue.</p>,0,html-button-response,187,423810,0.0-14.0-25.0,423,List1A,white,man,,,,,,,,
null,"<div style=""font-size:60px;"">+</div>",,html-keyboard-response,188,425313,0.0-15.0-0.0,423,List1A,white,man,,,,null,,,,
null,"<img src=""stim_listA/flirt4.gif""style=""height:400px;""></stim_listA>",,html-keyboard-response,189,427315,0.0-15.0-1.0,423,List1A,white,man,,,,null,,,,
null,are flirting with each other,,html-keyboard-response,190,429316,0.0-15.0-2.0,423,List1A,white,man,,,,null,,,,
11170,,,survey-text,191,440486,0.0-15.0-3.0,423,List1A,white,man,,,,,"{""Q0"":""ruth and dave are flirting""}","<img src=""stim_listA/flirt4.gif""style=""height:400px;""></stim_listA>",are flirting with each other,
null,"<div style=""font-size:60px;"">+</div>",,html-keyboard-response,192,440987,0.0-15.0-0.1,423,List1A,white,man,,,,null,,,,
null,"<img src=""stim_listA/talk3.gif""style=""height:400px;""></stim_listA>",,html-keyboard-response,193,442988,0.0-15.0-1.1,423,List1A,white,man,,,,null,,,,
null,is talking to,,html-keyboard-response,194,444990,0.0-15.0-2.1,423,List1A,white,man,,,,null,,,,
8529,,,survey-text,195,453519,0.0-15.0-3.1,423,List1A,white,man,,,,,"{""Q0"":""luke is talking to jane""}","<img src=""stim_listA/talk3.gif""style=""height:400px;""></stim_listA>",is talking to,
null,"<div style=""font-size:60px;"">+</div>",,html-keyboard-response,196,454020,0.0-15.0-0.2,423,List1A,white,man,,,,null,,,,
null,"<img src=""stim_listA/play4.gif""style=""height:400px;""></stim_listA>",,html-keyboard-response,197,456021,0.0-15.0-1.2,423,List1A,white,man,,,,null,,,,
null,are playing with each other,,html-keyboard-response,198,458022,0.0-15.0-2.2,423,List1A,white,man,,,,null,,,,
9090,,,survey-text,199,467113,0.0-15.0-3.2,423,List1A,white,man,,,,,"{""Q0"":""ruth and luke are playing with each other""}","<img src=""stim_listA/play4.gif""style=""height:400px;""></stim_listA>",are playing with each other,
null,"<div style=""font-size:60px;"">+</div>",,html-keyboard-response,200,467615,0.0-15.0-0.3,423,List1A,white,man,,,,null,,,,
null,"<img src=""stim_listA/kiss6.gif""style=""height:400px;""></stim_listA>",,html-keyboard-response,201,469616,0.0-15.0-1.3,423,List1A,white,man,,,,null,,,,
null,are kissing each other,,html-keyboard-response,202,471616,0.0-15.0-2.3,423,List1A,white,man,,,,null,,,,
7146,,,survey-text,203,478763,0.0-15.0-3.3,423,List1A,white,man,,,,,"{""Q0"":""mike and dave are kissing each other""}","<img src=""stim_listA/kiss6.gif""style=""height:400px;""></stim_listA>",are kissing each other,
null,"<div style=""font-size:60px;"">+</div>",,html-keyboard-response,204,479264,0.0-15.0-0.4,423,List1A,white,man,,,,null,,,,
null,"<img src=""stim_listA/shout5.gif""style=""height:400px;""></stim_listA>",,html-keyboard-response,205,481265,0.0-15.0-1.4,423,List1A,white,man,,,,null,,,,
null,is shouting at,,html-keyboard-response,206,483266,0.0-15.0-2.4,423,List1A,white,man,,,,null,,,,
10050,,,survey-text,207,493317,0.0-15.0-3.4,423,List1A,white,man,,,,,"{""Q0"":""fred is shouting at luke""}","<img src=""stim_listA/shout5.gif""style=""height:400px;""></stim_listA>",is shouting at,
null,"<div style=""font-size:60px;"">+</div>",,html-keyboard-response,208,493818,0.0-15.0-0.5,423,List1A,white,man,,,,null,,,,
null,"<img src=""stim_listA/flirt6.gif""style=""height:400px;""></stim_listA>",,html-keyboard-response,209,495819,0.0-15.0-1.5,423,List1A,white,man,,,,null,,,,
null,are flirting with each other,,html-keyboard-response,210,497821,0.0-15.0-2.5,423,List1A,white,man,,,,null,,,,
5647,,,survey-text,211,503469,0.0-15.0-3.5,423,List1A,white,man,,,,,"{""Q0"":""luke and mike are flirting with each other""}","<img src=""stim_listA/flirt6.gif""style=""height:400px;""></stim_listA>",are flirting with each other,
null,"<div style=""font-size:60px;"">+</div>",,html-keyboard-response,212,503970,0.0-15.0-0.6,423,List1A,white,man,,,,null,,,,
null,"<img src=""stim_listA/marry6.gif""style=""height:400px;""></stim_listA>",,html-keyboard-response,213,505972,0.0-15.0-1.6,423,List1A,white,man,,,,null,,,,
null,are marrying each other,,html-keyboard-response,214,507973,0.0-15.0-2.6,423,List1A,white,man,,,,null,,,,
3976,,,survey-text,215,511949,0.0-15.0-3.6,423,List1A,white,man,,,,,"{""Q0"":""luke and fred are marrying each other""}","<img src=""stim_listA/marry6.gif""style=""height:400px;""></stim_listA>",are marrying each other,
null,"<div style=""font-size:60px;"">+</div>",,html-keyboard-response,216,512449,0.0-15.0-0.7,423,List1A,white,man,,,,null,,,,
null,"<img src=""stim_listA/shout3.gif""style=""height:400px;""></stim_listA>",,html-keyboard-response,217,514451,0.0-15.0-1.7,423,List1A,white,man,,,,null,,,,
null,is shouting at,,html-keyboard-response,218,516452,0.0-15.0-2.7,423,List1A,white,man,,,,null,,,,
6848,,,survey-text,219,523301,0.0-15.0-3.7,423,List1A,white,man,,,,,"{""Q0"":""ruth is shouting at luke""}","<img src=""stim_listA/shout3.gif""style=""height:400px;""></stim_listA>",is shouting at,
null,"<div style=""font-size:60px;"">+</div>",,html-keyboard-response,220,523802,0.0-15.0-0.8,423,List1A,white,man,,,,null,,,,
null,"<img src=""stim_listA/talk7.gif""style=""height:400px;""></stim_listA>",,html-keyboard-response,221,525804,0.0-15.0-1.8,423,List1A,white,man,,,,null,,,,
null,is talking to,,html-keyboard-response,222,527805,0.0-15.0-2.8,423,List1A,white,man,,,,null,,,,
5065,,,survey-text,223,532871,0.0-15.0-3.8,423,List1A,white,man,,,,,"{""Q0"":""beth is talking to jane""}","<img src=""stim_listA/talk7.gif""style=""height:400px;""></stim_listA>",is talking to,
null,"<div style=""font-size:60px;"">+</div>",,html-keyboard-response,224,533371,0.0-15.0-0.9,423,List1A,white,man,,,,null,,,,
null,"<img src=""stim_listA/talk8.gif""style=""height:400px;""></stim_listA>",,html-keyboard-response,225,535373,0.0-15.0-1.9,423,List1A,white,man,,,,null,,,,
null,are talking to each other,,html-keyboard-response,226,537374,0.0-15.0-2.9,423,List1A,white,man,,,,null,,,,
4919,,,survey-text,227,542295,0.0-15.0-3.9,423,List1A,white,man,,,,,"{""Q0"":""ruth and kate are talking to each other""}","<img src=""stim_listA/talk8.gif""style=""height:400px;""></stim_listA>",are talking to each other,
null,"<div style=""font-size:60px;"">+</div>",,html-keyboard-response,228,542796,0.0-15.0-0.10,423,List1A,white,man,,,,null,,,,
null,"<img src=""stim_listA/argue4.gif""style=""height:400px;""></stim_listA>",,html-keyboard-response,229,544798,0.0-15.0-1.10,423,List1A,white,man,,,,null,,,,
null,are arguing with each other,,html-keyboard-response,230,546799,0.0-15.0-2.10,423,List1A,white,man,,,,null,,,,
13425,,,survey-text,231,560224,0.0-15.0-3.10,423,List1A,white,man,,,,,"{""Q0"":""luke and ruth""}","<img src=""stim_listA/argue4.gif""style=""height:400px;""></stim_listA>",are arguing with each other,
null,"<div style=""font-size:60px;"">+</div>",,html-keyboard-response,232,560725,0.0-15.0-0.11,423,List1A,white,man,,,,null,,,,
null,"<img src=""stim_listA/touch6.gif""style=""height:400px;""></stim_listA>",,html-keyboard-response,233,562727,0.0-15.0-1.11,423,List1A,white,man,,,,null,,,,
null,are touching each other,,html-keyboard-response,234,564727,0.0-15.0-2.11,423,List1A,white,man,,,,null,,,,
7327,,,survey-text,235,572056,0.0-15.0-3.11,423,List1A,white,man,,,,,"{""Q0"":""luke and dave are touching each other""}","<img src=""stim_listA/touch6.gif""style=""height:400px;""></stim_listA>",are touching each other,
null,"<div style=""font-size:60px;"">+</div>",,html-keyboard-response,236,572556,0.0-15.0-0.12,423,List1A,white,man,,,,null,,,,
null,"<img src=""stim_listA/marry1.gif""style=""height:400px;""></stim_listA>",,html-keyboard-response,237,574558,0.0-15.0-1.12,423,List1A,white,man,,,,null,,,,
null,is marrying,,html-keyboard-response,238,576559,0.0-15.0-2.12,423,List1A,white,man,,,,null,,,,
4239,,,survey-text,239,580798,0.0-15.0-3.12,423,List1A,white,man,,,,,"{""Q0"":""mike is marrying beth""}","<img src=""stim_listA/marry1.gif""style=""height:400px;""></stim_listA>",is marrying,
null,"<div style=""font-size:60px;"">+</div>",,html-keyboard-response,240,581300,0.0-15.0-0.13,423,List1A,white,man,,,,null,,,,
null,"<img src=""stim_listA/shout8.gif""style=""height:400px;""></stim_listA>",,html-keyboard-response,241,583301,0.0-15.0-1.13,423,List1A,white,man,,,,null,,,,
null,are shouting at each other,,html-keyboard-response,242,585302,0.0-15.0-2.13,423,List1A,white,man,,,,null,,,,
6996,,,survey-text,243,592298,0.0-15.0-3.13,423,List1A,white,man,,,,,"{""Q0"":""kate and jane are shouting at each other""}","<img src=""stim_listA/shout8.gif""style=""height:400px;""></stim_listA>",are shouting at each other,
null,"<div style=""font-size:60px;"">+</div>",,html-keyboard-response,244,592799,0.0-15.0-0.14,423,List1A,white,man,,,,null,,,,
null,"<img src=""stim_listA/kiss2.gif""style=""height:400px;""></stim_listA>",,html-keyboard-response,245,594801,0.0-15.0-1.14,423,List1A,white,man,,,,null,,,,
null,are kissing each other,,html-keyboard-response,246,596802,0.0-15.0-2.14,423,List1A,white,man,,,,null,,,,
3695,,,survey-text,247,600498,0.0-15.0-3.14,423,List1A,white,man,,,,,"{""Q0"":""beth and mike are kissing each other""}","<img src=""stim_listA/kiss2.gif""style=""height:400px;""></stim_listA>",are kissing each other,
null,"<div style=""font-size:60px;"">+</div>",,html-keyboard-response,248,600999,0.0-15.0-0.15,423,List1A,white,man,,,,null,,,,
null,"<img src=""stim_listA/shout1.gif""style=""height:400px;""></stim_listA>",,html-keyboard-response,249,603001,0.0-15.0-1.15,423,List1A,white,man,,,,null,,,,
null,is shouting at,,html-keyboard-response,250,605002,0.0-15.0-2.15,423,List1A,white,man,,,,null,,,,
5271,,,survey-text,251,610273,0.0-15.0-3.15,423,List1A,white,man,,,,,"{""Q0"":""beth is shouting at fred""}","<img src=""stim_listA/shout1.gif""style=""height:400px;""></stim_listA>",is shouting at,
null,"<div style=""font-size:60px;"">+</div>",,html-keyboard-response,252,610775,0.0-15.0-0.16,423,List1A,white,man,,,,null,,,,
null,"<img src=""stim_listA/touch5.gif""style=""height:400px;""></stim_listA>",,html-keyboard-response,253,612777,0.0-15.0-1.16,423,List1A,white,man,,,,null,,,,
null,is touching,,html-keyboard-response,254,614778,0.0-15.0-2.16,423,List1A,white,man,,,,null,,,,
3231,,,survey-text,255,618010,0.0-15.0-3.16,423,List1A,white,man,,,,,"{""Q0"":""dave is touching mike""}","<img src=""stim_listA/touch5.gif""style=""height:400px;""></stim_listA>",is touching,
null,"<div style=""font-size:60px;"">+</div>",,html-keyboard-response,256,618510,0.0-15.0-0.17,423,List1A,white,man,,,,null,,,,
null,"<img src=""stim_listA/kiss8.gif""style=""height:400px;""></stim_listA>",,html-keyboard-response,257,620512,0.0-15.0-1.17,423,List1A,white,man,,,,null,,,,
null,are kissing each other,,html-keyboard-response,258,622514,0.0-15.0-2.17,423,List1A,white,man,,,,null,,,,
3681,,,survey-text,259,626195,0.0-15.0-3.17,423,List1A,white,man,,,,,"{""Q0"":""jane and beth are kissing each other""}","<img src=""stim_listA/kiss8.gif""style=""height:400px;""></stim_listA>",are kissing each other,
null,"<div style=""font-size:60px;"">+</div>",,html-keyboard-response,260,626696,0.0-15.0-0.18,423,List1A,white,man,,,,null,,,,
null,"<img src=""stim_listA/talk2.gif""style=""height:400px;""></stim_listA>",,html-keyboard-response,261,628698,0.0-15.0-1.18,423,List1A,white,man,,,,null,,,,
null,are talking to each other,,html-keyboard-response,262,630700,0.0-15.0-2.18,423,List1A,white,man,,,,null,,,,
4138,,,survey-text,263,634838,0.0-15.0-3.18,423,List1A,white,man,,,,,"{""Q0"":""beth and mike are talking to each other""}","<img src=""stim_listA/talk2.gif""style=""height:400px;""></stim_listA>",are talking to each other,
null,"<div style=""font-size:60px;"">+</div>",,html-keyboard-response,264,635340,0.0-15.0-0.19,423,List1A,white,man,,,,null,,,,
null,"<img src=""stim_listA/shout7.gif""style=""height:400px;""></stim_listA>",,html-keyboard-response,265,637341,0.0-15.0-1.19,423,List1A,white,man,,,,null,,,,
null,is shouting at,,html-keyboard-response,266,639342,0.0-15.0-2.19,423,List1A,white,man,,,,null,,,,
5642,,,survey-text,267,644985,0.0-15.0-3.19,423,List1A,white,man,,,,,"{""Q0"":""beth is shouting at ruth""}","<img src=""stim_listA/shout7.gif""style=""height:400px;""></stim_listA>",is shouting at,
1140,"<img src='img/portrait_matrix_list1.jpg' style='width:900px;height:500px;''></img><p>If you have memorised all the portraits and names and are ready to start, press Continue.</p><p><strong>Please note: Your memory of these faces will be tested 4 times during this experiment.</strong></p>",0,html-button-response,268,646127,0.0-16.0-0.0,423,List1A,white,man,,,,,,,,
896,"<img src=""portrait/WM2.jpg""style=""height:400px;""></img>",7,html-button-response,269,648024,0.0-16.0-1.0,423,List1A,white,man,,TRUE,7,,,,,
null,CORRECT,,html-keyboard-response,270,649528,0.0-16.0-2.0-0.0,423,List1A,white,man,,,,null,,,,
900,"<img src=""portrait/BW2.jpg""style=""height:400px;""></img>",2,html-button-response,271,650428,0.0-16.0-4.0,423,List1A,white,man,,TRUE,2,,,,,
null,CORRECT,,html-keyboard-response,272,651931,0.0-16.0-5.0-0.0,423,List1A,white,man,,,,null,,,,
816,"<img src=""portrait/WW2.jpg""style=""height:400px;""></img>",3,html-button-response,273,652747,0.0-16.0-7.0,423,List1A,white,man,,TRUE,3,,,,,
null,CORRECT,,html-keyboard-response,274,654250,0.0-16.0-8.0-0.0,423,List1A,white,man,,,,null,,,,
929,"<img src=""portrait/BM2.jpg""style=""height:400px;""></img>",5,html-button-response,275,655179,0.0-16.0-10.0,423,List1A,white,man,,TRUE,5,,,,,
null,CORRECT,,html-keyboard-response,276,656682,0.0-16.0-11.0-0.0,423,List1A,white,man,,,,null,,,,
951,"<img src=""portrait/WM1.jpg""style=""height:400px;""></img>",6,html-button-response,277,657633,0.0-16.0-13.0,423,List1A,white,man,,TRUE,6,,,,,
null,CORRECT,,html-keyboard-response,278,659136,0.0-16.0-14.0-0.0,423,List1A,white,man,,,,null,,,,
965,"<img src=""portrait/BM1.jpg""style=""height:400px;""></img>",4,html-button-response,279,660102,0.0-16.0-16.0,423,List1A,white,man,,TRUE,4,,,,,
null,CORRECT,,html-keyboard-response,280,661604,0.0-16.0-17.0-0.0,423,List1A,white,man,,,,null,,,,
772,"<img src=""portrait/WW1.jpg""style=""height:400px;""></img>",1,html-button-response,281,662378,0.0-16.0-19.0,423,List1A,white,man,,TRUE,1,,,,,
null,CORRECT,,html-keyboard-response,282,663881,0.0-16.0-20.0-0.0,423,List1A,white,man,,,,null,,,,
635,"<img src=""portrait/BW1.jpg""style=""height:400px;""></img>",0,html-button-response,283,664516,0.0-16.0-22.0,423,List1A,white,man,,TRUE,0,,,,,
null,CORRECT,,html-keyboard-response,284,666019,0.0-16.0-23.0-0.0,423,List1A,white,man,,,,null,,,,
457,<p>You got 8 out of 8 right first time. Press Continue.</p>,0,html-button-response,285,666477,0.0-16.0-25.0,423,List1A,white,man,,,,,,,,
null,"<div style=""font-size:60px;"">+</div>",,html-keyboard-response,286,667981,0.0-17.0-0.0,423,List1A,white,man,,,,null,,,,
null,"<img src=""stim_listA/play5.gif""style=""height:400px;""></stim_listA>",,html-keyboard-response,287,669983,0.0-17.0-1.0,423,List1A,white,man,,,,null,,,,
null,is playing with,,html-keyboard-response,288,671986,0.0-17.0-2.0,423,List1A,white,man,,,,null,,,,
3998,,,survey-text,289,675984,0.0-17.0-3.0,423,List1A,white,man,,,,,"{""Q0"":""mike is playing with dave""}","<img src=""stim_listA/play5.gif""style=""height:400px;""></stim_listA>",is playing with,
null,"<div style=""font-size:60px;"">+</div>",,html-keyboard-response,290,676486,0.0-17.0-0.1,423,List1A,white,man,,,,null,,,,
null,"<img src=""stim_listA/shout4.gif""style=""height:400px;""></stim_listA>",,html-keyboard-response,291,678487,0.0-17.0-1.1,423,List1A,white,man,,,,null,,,,
null,are shouting at each other,,html-keyboard-response,292,680488,0.0-17.0-2.1,423,List1A,white,man,,,,null,,,,
4779,,,survey-text,293,685267,0.0-17.0-3.1,423,List1A,white,man,,,,,"{""Q0"":""jane and dave are shouting at each other""}","<img src=""stim_listA/shout4.gif""style=""height:400px;""></stim_listA>",are shouting at each other,
null,"<div style=""font-size:60px;"">+</div>",,html-keyboard-response,294,685768,0.0-17.0-0.2,423,List1A,white,man,,,,null,,,,
null,"<img src=""stim_listA/argue6.gif""style=""height:400px;""></stim_listA>",,html-keyboard-response,295,687769,0.0-17.0-1.2,423,List1A,white,man,,,,null,,,,
null,are arguing with each other,,html-keyboard-response,296,689770,0.0-17.0-2.2,423,List1A,white,man,,,,null,,,,
4240,,,survey-text,297,694010,0.0-17.0-3.2,423,List1A,white,man,,,,,"{""Q0"":""dave and fred are arguing with each other""}","<img src=""stim_listA/argue6.gif""style=""height:400px;""></stim_listA>",are arguing with each other,
null,"<div style=""font-size:60px;"">+</div>",,html-keyboard-response,298,694511,0.0-17.0-0.3,423,List1A,white,man,,,,null,,,,
null,"<img src=""stim_listA/touch4.gif""style=""height:400px;""></stim_listA>",,html-keyboard-response,299,696513,0.0-17.0-1.3,423,List1A,white,man,,,,null,,,,
null,are touching each other,,html-keyboard-response,300,698514,0.0-17.0-2.3,423,List1A,white,man,,,,null,,,,
3313,,,survey-text,301,701827,0.0-17.0-3.3,423,List1A,white,man,,,,,"{""Q0"":""ruth and luke are touching each other""}","<img src=""stim_listA/touch4.gif""style=""height:400px;""></stim_listA>",are touching each other,
null,"<div style=""font-size:60px;"">+</div>",,html-keyboard-response,302,702329,0.0-17.0-0.4,423,List1A,white,man,,,,null,,,,
null,"<img src=""stim_listA/talk6.gif""style=""height:400px;""></stim_listA>",,html-keyboard-response,303,704329,0.0-17.0-1.4,423,List1A,white,man,,,,null,,,,
null,are talking to each other,,html-keyboard-response,304,706331,0.0-17.0-2.4,423,List1A,white,man,,,,null,,,,
5096,,,survey-text,305,711428,0.0-17.0-3.4,423,List1A,white,man,,,,,"{""Q0"":""mike and luke are talking to each other""}","<img src=""stim_listA/talk6.gif""style=""height:400px;""></stim_listA>",are talking to each other,
null,"<div style=""font-size:60px;"">+</div>",,html-keyboard-response,306,711929,0.0-17.0-0.5,423,List1A,white,man,,,,null,,,,
null,"<img src=""stim_listA/play6.gif""style=""height:400px;""></stim_listA>",,html-keyboard-response,307,713932,0.0-17.0-1.5,423,List1A,white,man,,,,null,,,,
null,are playing with each other,,html-keyboard-response,308,715933,0.0-17.0-2.5,423,List1A,white,man,,,,null,,,,
5953,,,survey-text,309,721886,0.0-17.0-3.5,423,List1A,white,man,,,,,"{""Q0"":""luke and fred are playing with each other""}","<img src=""stim_listA/play6.gif""style=""height:400px;""></stim_listA>",are playing with each other,
null,"<div style=""font-size:60px;"">+</div>",,html-keyboard-response,310,722387,0.0-17.0-0.6,423,List1A,white,man,,,,null,,,,
null,"<img src=""stim_listA/flirt3.gif""style=""height:400px;""></stim_listA>",,html-keyboard-response,311,724388,0.0-17.0-1.6,423,List1A,white,man,,,,null,,,,
null,is flirting with,,html-keyboard-response,312,726389,0.0-17.0-2.6,423,List1A,white,man,,,,null,,,,
4982,,,survey-text,313,731371,0.0-17.0-3.6,423,List1A,white,man,,,,,"{""Q0"":""luke is flirting with jane""}","<img src=""stim_listA/flirt3.gif""style=""height:400px;""></stim_listA>",is flirting with,
null,"<div style=""font-size:60px;"">+</div>",,html-keyboard-response,314,731873,0.0-17.0-0.7,423,List1A,white,man,,,,null,,,,
null,"<img src=""stim_listA/dance4.gif""style=""height:400px;""></stim_listA>",,html-keyboard-response,315,733875,0.0-17.0-1.7,423,List1A,white,man,,,,null,,,,
null,are dancing with each other,,html-keyboard-response,316,735877,0.0-17.0-2.7,423,List1A,white,man,,,,null,,,,
3693,,,survey-text,317,739571,0.0-17.0-3.7,423,List1A,white,man,,,,,"{""Q0"":""ruth and dave are dancing with each other""}","<img src=""stim_listA/dance4.gif""style=""height:400px;""></stim_listA>",are dancing with each other,
null,"<div style=""font-size:60px;"">+</div>",,html-keyboard-response,318,740073,0.0-17.0-0.8,423,List1A,white,man,,,,null,,,,
null,"<img src=""stim_listA/dance8.gif""style=""height:400px;""></stim_listA>",,html-keyboard-response,319,742076,0.0-17.0-1.8,423,List1A,white,man,,,,null,,,,
null,are dancing with each other,,html-keyboard-response,320,744077,0.0-17.0-2.8,423,List1A,white,man,,,,null,,,,
3319,,,survey-text,321,747397,0.0-17.0-3.8,423,List1A,white,man,,,,,"{""Q0"":""kate and ruth are dancing with each other""}","<img src=""stim_listA/dance8.gif""style=""height:400px;""></stim_listA>",are dancing with each other,
null,"<div style=""font-size:60px;"">+</div>",,html-keyboard-response,322,747898,0.0-17.0-0.9,423,List1A,white,man,,,,null,,,,
null,"<img src=""stim_listA/dance6.gif""style=""height:400px;""></stim_listA>",,html-keyboard-response,323,749899,0.0-17.0-1.9,423,List1A,white,man,,,,null,,,,
null,are dancing with each other,,html-keyboard-response,324,751901,0.0-17.0-2.9,423,List1A,white,man,,,,null,,,,
10621,,,survey-text,325,762523,0.0-17.0-3.9,423,List1A,white,man,,,,,"{""Q0"":""mike and luke are dancing with each other""}","<img src=""stim_listA/dance6.gif""style=""height:400px;""></stim_listA>",are dancing with each other,
null,"<div style=""font-size:60px;"">+</div>",,html-keyboard-response,326,763023,0.0-17.0-0.10,423,List1A,white,man,,,,null,,,,
null,"<img src=""stim_listA/argue1.gif""style=""height:400px;""></stim_listA>",,html-keyboard-response,327,765025,0.0-17.0-1.10,423,List1A,white,man,,,,null,,,,
null,is arguing with,,html-keyboard-response,328,767026,0.0-17.0-2.10,423,List1A,white,man,,,,null,,,,
3816,,,survey-text,329,770843,0.0-17.0-3.10,423,List1A,white,man,,,,,"{""Q0"":""beth is arguing with mike""}","<img src=""stim_listA/argue1.gif""style=""height:400px;""></stim_listA>",is arguing with,
null,"<div style=""font-size:60px;"">+</div>",,html-keyboard-response,330,771345,0.0-17.0-0.11,423,List1A,white,man,,,,null,,,,
null,"<img src=""stim_listA/flirt1.gif""style=""height:400px;""></stim_listA>",,html-keyboard-response,331,773346,0.0-17.0-1.11,423,List1A,white,man,,,,null,,,,
null,is flirting with,,html-keyboard-response,332,775348,0.0-17.0-2.11,423,List1A,white,man,,,,null,,,,
5134,,,survey-text,333,780482,0.0-17.0-3.11,423,List1A,white,man,,,,,"{""Q0"":""kate is flirting with fred""}","<img src=""stim_listA/flirt1.gif""style=""height:400px;""></stim_listA>",is flirting with,
null,"<div style=""font-size:60px;"">+</div>",,html-keyboard-response,334,780983,0.0-17.0-0.12,423,List1A,white,man,,,,null,,,,
null,"<img src=""stim_listA/flirt8.gif""style=""height:400px;""></stim_listA>",,html-keyboard-response,335,782985,0.0-17.0-1.12,423,List1A,white,man,,,,null,,,,
null,are flirting with each other,,html-keyboard-response,336,784986,0.0-17.0-2.12,423,List1A,white,man,,,,null,,,,
3189,,,survey-text,337,788176,0.0-17.0-3.12,423,List1A,white,man,,,,,"{""Q0"":""ruth and beth are flirting with each other""}","<img src=""stim_listA/flirt8.gif""style=""height:400px;""></stim_listA>",are flirting with each other,
null,"<div style=""font-size:60px;"">+</div>",,html-keyboard-response,338,788677,0.0-17.0-0.13,423,List1A,white,man,,,,null,,,,
null,"<img src=""stim_listA/touch3.gif""style=""height:400px;""></stim_listA>",,html-keyboard-response,339,790678,0.0-17.0-1.13,423,List1A,white,man,,,,null,,,,
null,is touching,,html-keyboard-response,340,792679,0.0-17.0-2.13,423,List1A,white,man,,,,null,,,,
3589,,,survey-text,341,796268,0.0-17.0-3.13,423,List1A,white,man,,,,,"{""Q0"":""dave is touching jane""}","<img src=""stim_listA/touch3.gif""style=""height:400px;""></stim_listA>",is touching,
null,"<div style=""font-size:60px;"">+</div>",,html-keyboard-response,342,796769,0.0-17.0-0.14,423,List1A,white,man,,,,null,,,,
null,"<img src=""stim_listA/fight1.gif""style=""height:400px;""></stim_listA>",,html-keyboard-response,343,798771,0.0-17.0-1.14,423,List1A,white,man,,,,null,,,,
null,is fighting,,html-keyboard-response,344,800772,0.0-17.0-2.14,423,List1A,white,man,,,,null,,,,
6609,,,survey-text,345,807381,0.0-17.0-3.14,423,List1A,white,man,,,,,"{""Q0"":""mike is fighting kate""}","<img src=""stim_listA/fight1.gif""style=""height:400px;""></stim_listA>",is fighting,
null,"<div style=""font-size:60px;"">+</div>",,html-keyboard-response,346,807881,0.0-17.0-0.15,423,List1A,white,man,,,,null,,,,
null,"<img src=""stim_listA/kiss3.gif""style=""height:400px;""></stim_listA>",,html-keyboard-response,347,809883,0.0-17.0-1.15,423,List1A,white,man,,,,null,,,,
null,is kissing,,html-keyboard-response,348,811884,0.0-17.0-2.15,423,List1A,white,man,,,,null,,,,
4055,,,survey-text,349,815939,0.0-17.0-3.15,423,List1A,white,man,,,,,"{""Q0"":""luke is kissing ruth""}","<img src=""stim_listA/kiss3.gif""style=""height:400px;""></stim_listA>",is kissing,
null,"<div style=""font-size:60px;"">+</div>",,html-keyboard-response,350,816441,0.0-17.0-0.16,423,List1A,white,man,,,,null,,,,
null,"<img src=""stim_listA/argue7.gif""style=""height:400px;""></stim_listA>",,html-keyboard-response,351,818442,0.0-17.0-1.16,423,List1A,white,man,,,,null,,,,
null,is arguing with,,html-keyboard-response,352,820443,0.0-17.0-2.16,423,List1A,white,man,,,,null,,,,
5720,,,survey-text,353,826163,0.0-17.0-3.16,423,List1A,white,man,,,,,"{""Q0"":""beth is arguing with ruth""}","<img src=""stim_listA/argue7.gif""style=""height:400px;""></stim_listA>",is arguing with,
null,"<div style=""font-size:60px;"">+</div>",,html-keyboard-response,354,826665,0.0-17.0-0.17,423,List1A,white,man,,,,null,,,,
null,"<img src=""stim_listA/kiss1.gif""style=""height:400px;""></stim_listA>",,html-keyboard-response,355,828667,0.0-17.0-1.17,423,List1A,white,man,,,,null,,,,
null,is kissing,,html-keyboard-response,356,830668,0.0-17.0-2.17,423,List1A,white,man,,,,null,,,,
3570,,,survey-text,357,834238,0.0-17.0-3.17,423,List1A,white,man,,,,,"{""Q0"":""fred is kissing beth""}","<img src=""stim_listA/kiss1.gif""style=""height:400px;""></stim_listA>",is kissing,
null,"<div style=""font-size:60px;"">+</div>",,html-keyboard-response,358,834739,0.0-17.0-0.18,423,List1A,white,man,,,,null,,,,
null,"<img src=""stim_listA/talk5.gif""style=""height:400px;""></stim_listA>",,html-keyboard-response,359,836740,0.0-17.0-1.18,423,List1A,white,man,,,,null,,,,
null,is talking to,,html-keyboard-response,360,838742,0.0-17.0-2.18,423,List1A,white,man,,,,null,,,,
2737,,,survey-text,361,841479,0.0-17.0-3.18,423,List1A,white,man,,,,,"{""Q0"":""dave is talking to fred""}","<img src=""stim_listA/talk5.gif""style=""height:400px;""></stim_listA>",is talking to,
null,"<div style=""font-size:60px;"">+</div>",,html-keyboard-response,362,841981,0.0-17.0-0.19,423,List1A,white,man,,,,null,,,,
null,"<img src=""stim_listA/touch2.gif""style=""height:400px;""></stim_listA>",,html-keyboard-response,363,843981,0.0-17.0-1.19,423,List1A,white,man,,,,null,,,,
null,are touching each other,,html-keyboard-response,364,845983,0.0-17.0-2.19,423,List1A,white,man,,,,null,,,,
4653,,,survey-text,365,850637,0.0-17.0-3.19,423,List1A,white,man,,,,,"{""Q0"":""beth and fred are touching each other""}","<img src=""stim_listA/touch2.gif""style=""height:400px;""></stim_listA>",are touching each other,
843,"<img src='img/portrait_matrix_list1.jpg' style='width:900px;height:500px;''></img><p>If you have memorised all the portraits and names and are ready to start, press Continue.</p><p><strong>Please note: Your memory of these faces will be tested 4 times during this experiment.</strong></p>",0,html-button-response,366,851481,0.0-18.0-0.0,423,List1A,white,man,,,,,,,,
862,"<img src=""portrait/WM2.jpg""style=""height:400px;""></img>",7,html-button-response,367,853344,0.0-18.0-1.0,423,List1A,white,man,,TRUE,7,,,,,
null,CORRECT,,html-keyboard-response,368,854847,0.0-18.0-2.0-0.0,423,List1A,white,man,,,,null,,,,
1031,"<img src=""portrait/BW1.jpg""style=""height:400px;""></img>",0,html-button-response,369,855879,0.0-18.0-4.0,423,List1A,white,man,,TRUE,0,,,,,
null,CORRECT,,html-keyboard-response,370,857381,0.0-18.0-5.0-0.0,423,List1A,white,man,,,,null,,,,
987,"<img src=""portrait/WW1.jpg""style=""height:400px;""></img>",1,html-button-response,371,858370,0.0-18.0-7.0,423,List1A,white,man,,TRUE,1,,,,,
null,CORRECT,,html-keyboard-response,372,859872,0.0-18.0-8.0-0.0,423,List1A,white,man,,,,null,,,,
1200,"<img src=""portrait/WM1.jpg""style=""height:400px;""></img>",6,html-button-response,373,861073,0.0-18.0-10.0,423,List1A,white,man,,TRUE,6,,,,,
null,CORRECT,,html-keyboard-response,374,862576,0.0-18.0-11.0-0.0,423,List1A,white,man,,,,null,,,,
833,"<img src=""portrait/WW2.jpg""style=""height:400px;""></img>",3,html-button-response,375,863409,0.0-18.0-13.0,423,List1A,white,man,,TRUE,3,,,,,
null,CORRECT,,html-keyboard-response,376,864911,0.0-18.0-14.0-0.0,423,List1A,white,man,,,,null,,,,
769,"<img src=""portrait/BW2.jpg""style=""height:400px;""></img>",2,html-button-response,377,865682,0.0-18.0-16.0,423,List1A,white,man,,TRUE,2,,,,,
null,CORRECT,,html-keyboard-response,378,867183,0.0-18.0-17.0-0.0,423,List1A,white,man,,,,null,,,,
785,"<img src=""portrait/BM1.jpg""style=""height:400px;""></img>",4,html-button-response,379,867969,0.0-18.0-19.0,423,List1A,white,man,,TRUE,4,,,,,
null,CORRECT,,html-keyboard-response,380,869472,0.0-18.0-20.0-0.0,423,List1A,white,man,,,,null,,,,
664,"<img src=""portrait/BM2.jpg""style=""height:400px;""></img>",5,html-button-response,381,870137,0.0-18.0-22.0,423,List1A,white,man,,TRUE,5,,,,,
null,CORRECT,,html-keyboard-response,382,871639,0.0-18.0-23.0-0.0,423,List1A,white,man,,,,null,,,,
715,<p>You got 8 out of 8 right first time. Press Continue.</p>,0,html-button-response,383,872355,0.0-18.0-25.0,423,List1A,white,man,,,,,,,,
null,"<div style=""font-size:60px;"">+</div>",,html-keyboard-response,384,873857,0.0-19.0-0.0,423,List1A,white,man,,,,null,,,,
null,"<img src=""stim_listA/fight7.gif""style=""height:400px;""></stim_listA>",,html-keyboard-response,385,875859,0.0-19.0-1.0,423,List1A,white,man,,,,null,,,,
null,is fighting,,html-keyboard-response,386,877860,0.0-19.0-2.0,423,List1A,white,man,,,,null,,,,
3477,,,survey-text,387,881338,0.0-19.0-3.0,423,List1A,white,man,,,,,"{""Q0"":""kate is fighting jane""}","<img src=""stim_listA/fight7.gif""style=""height:400px;""></stim_listA>",is fighting,
null,"<div style=""font-size:60px;"">+</div>",,html-keyboard-response,388,881838,0.0-19.0-0.1,423,List1A,white,man,,,,null,,,,
null,"<img src=""stim_listA/touch8.gif""style=""height:400px;""></stim_listA>",,html-keyboard-response,389,883840,0.0-19.0-1.1,423,List1A,white,man,,,,null,,,,
null,are touching each other,,html-keyboard-response,390,885840,0.0-19.0-2.1,423,List1A,white,man,,,,null,,,,
5858,,,survey-text,391,891699,0.0-19.0-3.1,423,List1A,white,man,,,,,"{""Q0"":""ruth and beth are touching each other""}","<img src=""stim_listA/touch8.gif""style=""height:400px;""></stim_listA>",are touching each other,
null,"<div style=""font-size:60px;"">+</div>",,html-keyboard-response,392,892201,0.0-19.0-0.2,423,List1A,white,man,,,,null,,,,
null,"<img src=""stim_listA/marry7.gif""style=""height:400px;""></stim_listA>",,html-keyboard-response,393,894202,0.0-19.0-1.2,423,List1A,white,man,,,,null,,,,
null,is marrying,,html-keyboard-response,394,896204,0.0-19.0-2.2,423,List1A,white,man,,,,null,,,,
4983,,,survey-text,395,901187,0.0-19.0-3.2,423,List1A,white,man,,,,,"{""Q0"":""kate is marrying ruth""}","<img src=""stim_listA/marry7.gif""style=""height:400px;""></stim_listA>",is marrying,
null,"<div style=""font-size:60px;"">+</div>",,html-keyboard-response,396,901688,0.0-19.0-0.3,423,List1A,white,man,,,,null,,,,
null,"<img src=""stim_listA/flirt2.gif""style=""height:400px;""></stim_listA>",,html-keyboard-response,397,903691,0.0-19.0-1.3,423,List1A,white,man,,,,null,,,,
null,are flirting with each other,,html-keyboard-response,398,905693,0.0-19.0-2.3,423,List1A,white,man,,,,null,,,,
3759,,,survey-text,399,909452,0.0-19.0-3.3,423,List1A,white,man,,,,,"{""Q0"":""beth and mike are flirting with each other""}","<img src=""stim_listA/flirt2.gif""style=""height:400px;""></stim_listA>",are flirting with each other,
null,"<div style=""font-size:60px;"">+</div>",,html-keyboard-response,400,909954,0.0-19.0-0.4,423,List1A,white,man,,,,null,,,,
null,"<img src=""stim_listA/flirt5.gif""style=""height:400px;""></stim_listA>",,html-keyboard-response,401,911957,0.0-19.0-1.4,423,List1A,white,man,,,,null,,,,
null,is flirting with,,html-keyboard-response,402,913958,0.0-19.0-2.4,423,List1A,white,man,,,,null,,,,
2541,,,survey-text,403,916500,0.0-19.0-3.4,423,List1A,white,man,,,,,"{""Q0"":""dave is flirting with fred""}","<img src=""stim_listA/flirt5.gif""style=""height:400px;""></stim_listA>",is flirting with,
null,"<div style=""font-size:60px;"">+</div>",,html-keyboard-response,404,917002,0.0-19.0-0.5,423,List1A,white,man,,,,null,,,,
null,"<img src=""stim_listA/dance3.gif""style=""height:400px;""></stim_listA>",,html-keyboard-response,405,919004,0.0-19.0-1.5,423,List1A,white,man,,,,null,,,,
null,is dancing with,,html-keyboard-response,406,921006,0.0-19.0-2.5,423,List1A,white,man,,,,null,,,,
4560,,,survey-text,407,925567,0.0-19.0-3.5,423,List1A,white,man,,,,,"{""Q0"":""jane is dancing with luke""}","<img src=""stim_listA/dance3.gif""style=""height:400px;""></stim_listA>",is dancing with,
null,"<div style=""font-size:60px;"">+</div>",,html-keyboard-response,408,926068,0.0-19.0-0.6,423,List1A,white,man,,,,null,,,,
null,"<img src=""stim_listA/argue8.gif""style=""height:400px;""></stim_listA>",,html-keyboard-response,409,928070,0.0-19.0-1.6,423,List1A,white,man,,,,null,,,,
null,are arguing with each other,,html-keyboard-response,410,930071,0.0-19.0-2.6,423,List1A,white,man,,,,null,,,,
5104,,,survey-text,411,935177,0.0-19.0-3.6,423,List1A,white,man,,,,,"{""Q0"":""beth and jane are arguing with each other""}","<img src=""stim_listA/argue8.gif""style=""height:400px;""></stim_listA>",are arguing with each other,
null,"<div style=""font-size:60px;"">+</div>",,html-keyboard-response,412,935678,0.0-19.0-0.7,423,List1A,white,man,,,,null,,,,
null,"<img src=""stim_listA/talk1.gif""style=""height:400px;""></stim_listA>",,html-keyboard-response,413,937681,0.0-19.0-1.7,423,List1A,white,man,,,,null,,,,
null,is talking to,,html-keyboard-response,414,939682,0.0-19.0-2.7,423,List1A,white,man,,,,null,,,,
3468,,,survey-text,415,943151,0.0-19.0-3.7,423,List1A,white,man,,,,,"{""Q0"":""kate is talking to fred""}","<img src=""stim_listA/talk1.gif""style=""height:400px;""></stim_listA>",is talking to,
null,"<div style=""font-size:60px;"">+</div>",,html-keyboard-response,416,943653,0.0-19.0-0.8,423,List1A,white,man,,,,null,,,,
null,"<img src=""stim_listA/touch7.gif""style=""height:400px;""></stim_listA>",,html-keyboard-response,417,945654,0.0-19.0-1.8,423,List1A,white,man,,,,null,,,,
null,is touching,,html-keyboard-response,418,947656,0.0-19.0-2.8,423,List1A,white,man,,,,null,,,,
3499,,,survey-text,419,951155,0.0-19.0-3.8,423,List1A,white,man,,,,,"{""Q0"":""kate is touching jane""}","<img src=""stim_listA/touch7.gif""style=""height:400px;""></stim_listA>",is touching,
null,"<div style=""font-size:60px;"">+</div>",,html-keyboard-response,420,951657,0.0-19.0-0.9,423,List1A,white,man,,,,null,,,,
null,"<img src=""stim_listA/dance1.gif""style=""height:400px;""></stim_listA>",,html-keyboard-response,421,953658,0.0-19.0-1.9,423,List1A,white,man,,,,null,,,,
null,is dancing with,,html-keyboard-response,422,955660,0.0-19.0-2.9,423,List1A,white,man,,,,null,,,,
4908,,,survey-text,423,960568,0.0-19.0-3.9,423,List1A,white,man,,,,,"{""Q0"":""kate is dancing with fred""}","<img src=""stim_listA/dance1.gif""style=""height:400px;""></stim_listA>",is dancing with,
null,"<div style=""font-size:60px;"">+</div>",,html-keyboard-response,424,961069,0.0-19.0-0.10,423,List1A,white,man,,,,null,,,,
null,"<img src=""stim_listA/dance5.gif""style=""height:400px;""></stim_listA>",,html-keyboard-response,425,963070,0.0-19.0-1.10,423,List1A,white,man,,,,null,,,,
null,is dancing with,,html-keyboard-response,426,965071,0.0-19.0-2.10,423,List1A,white,man,,,,null,,,,
2485,,,survey-text,427,967557,0.0-19.0-3.10,423,List1A,white,man,,,,,"{""Q0"":""dave is dancing with fred""}","<img src=""stim_listA/dance5.gif""style=""height:400px;""></stim_listA>",is dancing with,
null,"<div style=""font-size:60px;"">+</div>",,html-keyboard-response,428,968058,0.0-19.0-0.11,423,List1A,white,man,,,,null,,,,
null,"<img src=""stim_listA/flirt7.gif""style=""height:400px;""></stim_listA>",,html-keyboard-response,429,970060,0.0-19.0-1.11,423,List1A,white,man,,,,null,,,,
null,is flirting with,,html-keyboard-response,430,972061,0.0-19.0-2.11,423,List1A,white,man,,,,null,,,,
4095,,,survey-text,431,976156,0.0-19.0-3.11,423,List1A,white,man,,,,,"{""Q0"":""beth is flirting with jane""}","<img src=""stim_listA/flirt7.gif""style=""height:400px;""></stim_listA>",is flirting with,
null,"<div style=""font-size:60px;"">+</div>",,html-keyboard-response,432,976657,0.0-19.0-0.12,423,List1A,white,man,,,,null,,,,
null,"<img src=""stim_listA/marry4.gif""style=""height:400px;""></stim_listA>",,html-keyboard-response,433,978659,0.0-19.0-1.12,423,List1A,white,man,,,,null,,,,
null,are marrying each other,,html-keyboard-response,434,980661,0.0-19.0-2.12,423,List1A,white,man,,,,null,,,,
3455,,,survey-text,435,984116,0.0-19.0-3.12,423,List1A,white,man,,,,,"{""Q0"":""jane and luke are marrying each other""}","<img src=""stim_listA/marry4.gif""style=""height:400px;""></stim_listA>",are marrying each other,
null,"<div style=""font-size:60px;"">+</div>",,html-keyboard-response,436,984617,0.0-19.0-0.13,423,List1A,white,man,,,,null,,,,
null,"<img src=""stim_listA/fight6.gif""style=""height:400px;""></stim_listA>",,html-keyboard-response,437,986618,0.0-19.0-1.13,423,List1A,white,man,,,,null,,,,
null,are fighting each other,,html-keyboard-response,438,988620,0.0-19.0-2.13,423,List1A,white,man,,,,null,,,,
3277,,,survey-text,439,991898,0.0-19.0-3.13,423,List1A,white,man,,,,,"{""Q0"":""fred and luke are fighting each other""}","<img src=""stim_listA/fight6.gif""style=""height:400px;""></stim_listA>",are fighting each other,
null,"<div style=""font-size:60px;"">+</div>",,html-keyboard-response,440,992399,0.0-19.0-0.14,423,List1A,white,man,,,,null,,,,
null,"<img src=""stim_listA/talk4.gif""style=""height:400px;""></stim_listA>",,html-keyboard-response,441,994401,0.0-19.0-1.14,423,List1A,white,man,,,,null,,,,
null,are talking to each other,,html-keyboard-response,442,996402,0.0-19.0-2.14,423,List1A,white,man,,,,null,,,,
3610,,,survey-text,443,1000012,0.0-19.0-3.14,423,List1A,white,man,,,,,"{""Q0"":""ruth and dave are talking to each other""}","<img src=""stim_listA/talk4.gif""style=""height:400px;""></stim_listA>",are talking to each other,
null,"<div style=""font-size:60px;"">+</div>",,html-keyboard-response,444,1000514,0.0-19.0-0.15,423,List1A,white,man,,,,null,,,,
null,"<img src=""stim_listA/marry8.gif""style=""height:400px;""></stim_listA>",,html-keyboard-response,445,1002515,0.0-19.0-1.15,423,List1A,white,man,,,,null,,,,
null,are marrying each other,,html-keyboard-response,446,1004516,0.0-19.0-2.15,423,List1A,white,man,,,,null,,,,
3357,,,survey-text,447,1007874,0.0-19.0-3.15,423,List1A,white,man,,,,,"{""Q0"":""beth and jane are marrying each other""}","<img src=""stim_listA/marry8.gif""style=""height:400px;""></stim_listA>",are marrying each other,
null,"<div style=""font-size:60px;"">+</div>",,html-keyboard-response,448,1008375,0.0-19.0-0.16,423,List1A,white,man,,,,null,,,,
null,"<img src=""stim_listA/marry5.gif""style=""height:400px;""></stim_listA>",,html-keyboard-response,449,1010377,0.0-19.0-1.16,423,List1A,white,man,,,,null,,,,
null,is marrying,,html-keyboard-response,450,1012377,0.0-19.0-2.16,423,List1A,white,man,,,,null,,,,
3411,,,survey-text,451,1015788,0.0-19.0-3.16,423,List1A,white,man,,,,,"{""Q0"":""mike is marrying luke""}","<img src=""stim_listA/marry5.gif""style=""height:400px;""></stim_listA>",is marrying,
null,"<div style=""font-size:60px;"">+</div>",,html-keyboard-response,452,1016289,0.0-19.0-0.17,423,List1A,white,man,,,,null,,,,
null,"<img src=""stim_listA/fight5.gif""style=""height:400px;""></stim_listA>",,html-keyboard-response,453,1018291,0.0-19.0-1.17,423,List1A,white,man,,,,null,,,,
null,is fighting,,html-keyboard-response,454,1020291,0.0-19.0-2.17,423,List1A,white,man,,,,null,,,,
4350,,,survey-text,455,1024642,0.0-19.0-3.17,423,List1A,white,man,,,,,"{""Q0"":""mike is fighting dave""}","<img src=""stim_listA/fight5.gif""style=""height:400px;""></stim_listA>",is fighting,
null,"<div style=""font-size:60px;"">+</div>",,html-keyboard-response,456,1025143,0.0-19.0-0.18,423,List1A,white,man,,,,null,,,,
null,"<img src=""stim_listA/kiss4.gif""style=""height:400px;""></stim_listA>",,html-keyboard-response,457,1027145,0.0-19.0-1.18,423,List1A,white,man,,,,null,,,,
null,are kissing each other,,html-keyboard-response,458,1029146,0.0-19.0-2.18,423,List1A,white,man,,,,null,,,,
10633,,,survey-text,459,1039780,0.0-19.0-3.18,423,List1A,white,man,,,,,"{""Q0"":""dave and jane are kissing each other""}","<img src=""stim_listA/kiss4.gif""style=""height:400px;""></stim_listA>",are kissing each other,
null,"<div style=""font-size:60px;"">+</div>",,html-keyboard-response,460,1040281,0.0-19.0-0.19,423,List1A,white,man,,,,null,,,,
null,"<img src=""stim_listA/fight2.gif""style=""height:400px;""></stim_listA>",,html-keyboard-response,461,1042282,0.0-19.0-1.19,423,List1A,white,man,,,,null,,,,
null,are fighting each other,,html-keyboard-response,462,1044284,0.0-19.0-2.19,423,List1A,white,man,,,,null,,,,
4051,,,survey-text,463,1048336,0.0-19.0-3.19,423,List1A,white,man,,,,,"{""Q0"":""beth and fred are fighting each other""}","<img src=""stim_listA/fight2.gif""style=""height:400px;""></stim_listA>",are fighting each other,
816,<p>Thank you for completing that task.</p><p>The final part of this session is a short questionnaire.</p><p>Press Continue.</p>,0,html-button-response,464,1049152,0.0-20.0,423,List1A,white,man,,,,,,,,
15438,,,survey-text,465,1065594,0.0-21.0,423,List1A,white,man,,,,,"{""Q0"":""18"",""Q1"":""English"",""Q2"":""English"",""Q3"":""United States of America"",""Q4"":""White"",""Q5"":""Male""}",,,demographics
4595,,,survey-likert,466,1070190,0.0-22.0,423,List1A,white,man,,,,,"{""Q0"":4}",,,likert_ESS
5204,,,survey-likert,467,1075395,0.0-23.0,423,List1A,white,man,,,,,"{""Q0"":4}",,,likert_NSSAL_Q1
1504,,,survey-likert,468,1076900,0.0-24.0,423,List1A,white,man,,,,,"{""Q0"":4}",,,likert_NSSAL_Q2
7586,,,survey-likert,469,1084487,0.0-25.0,423,List1A,white,man,,,,,"{""Q0"":3}",,,likert_CGRS_Q1
1694,,,survey-likert,470,1086183,0.0-26.0,423,List1A,white,man,,,,,"{""Q0"":3}",,,likert_CGRS_Q2
1390,,,survey-likert,471,1087573,0.0-27.0,423,List1A,white,man,,,,,"{""Q0"":3}",,,likert_CGRS_Q3
6780,,,survey-text,472,1094354,0.0-28.0,423,List1A,white,man,,,,,"{""Q0"":""ccc""}",,,worker_id
11881,,,external-html,473,1106583,0.0-29.0,423,List1A,white,man,debrief.html,,,,,,,
