rt,stimulus,button_pressed,trial_type,trial_index,time_elapsed,internal_node_id,subject,list,ppt_race,ppt_gender,url,first_guess,correct,key_press,responses,image_type,phrase_type,test_part
1944,Welcome to the experiment. Press Continue to begin.,0,html-button-response,0,1948,0.0-0.0,43148,List1A,white,man,,,,,,,,
5467,,,external-html,1,8460,0.0-1.0,43148,List1A,white,man,consent.html,,,,,,,
15172,"<p>On the next page, you will see portraits of 8 people and their names.</p><p>Your first task is to take a few minutes to memorise the names of these people.</p><p>You will have to recall their names during the rest of the experiment, so it is</p><p>essential that you try to memorise these people and their names as best as you can.</p><br><p><strong>You will then be tested on your memory of these names and portraits.</strong></p><br><p>The experiment will start after you have completed this memory test.</p><br><p>Ready?</p>",0,html-button-response,2,23635,0.0-2.0,43148,List1A,white,man,,,,,,,,
44071,"<img src='img/portrait_matrix_list1.jpg' style='width:900px;height:500px;''></img><p>If you have memorised all the portraits and names and are ready to start, press Continue.</p><p><strong>Please note: Your memory of these faces will be tested 4 times during this experiment.</strong></p>",0,html-button-response,3,68710,0.0-3.0-0.0,43148,List1A,white,man,,,,,,,,
2509,"<img src=""portrait/BM2.jpg""style=""height:400px;""></img>",5,html-button-response,4,72223,0.0-3.0-1.0,43148,List1A,white,man,,TRUE,5,,,,,
null,CORRECT,,html-keyboard-response,5,73727,0.0-3.0-2.0-0.0,43148,List1A,white,man,,,,null,,,,
4772,"<img src=""portrait/WW1.jpg""style=""height:400px;""></img>",1,html-button-response,6,78502,0.0-3.0-4.0,43148,List1A,white,man,,TRUE,1,,,,,
null,CORRECT,,html-keyboard-response,7,80006,0.0-3.0-5.0-0.0,43148,List1A,white,man,,,,null,,,,
4334,"<img src=""portrait/WM1.jpg""style=""height:400px;""></img>",6,html-button-response,8,84343,0.0-3.0-7.0,43148,List1A,white,man,,TRUE,6,,,,,
null,CORRECT,,html-keyboard-response,9,85845,0.0-3.0-8.0-0.0,43148,List1A,white,man,,,,null,,,,
2431,"<img src=""portrait/BM1.jpg""style=""height:400px;""></img>",4,html-button-response,10,88279,0.0-3.0-10.0,43148,List1A,white,man,,TRUE,4,,,,,
null,CORRECT,,html-keyboard-response,11,89780,0.0-3.0-11.0-0.0,43148,List1A,white,man,,,,null,,,,
2575,"<img src=""portrait/BW2.jpg""style=""height:400px;""></img>",2,html-button-response,12,92358,0.0-3.0-13.0,43148,List1A,white,man,,TRUE,2,,,,,
null,CORRECT,,html-keyboard-response,13,93861,0.0-3.0-14.0-0.0,43148,List1A,white,man,,,,null,,,,
7536,"<img src=""portrait/WW2.jpg""style=""height:400px;""></img>",3,html-button-response,14,101399,0.0-3.0-16.0,43148,List1A,white,man,,TRUE,3,,,,,
null,CORRECT,,html-keyboard-response,15,102901,0.0-3.0-17.0-0.0,43148,List1A,white,man,,,,null,,,,
2616,"<img src=""portrait/WM2.jpg""style=""height:400px;""></img>",7,html-button-response,16,105519,0.0-3.0-19.0,43148,List1A,white,man,,TRUE,7,,,,,
null,CORRECT,,html-keyboard-response,17,107021,0.0-3.0-20.0-0.0,43148,List1A,white,man,,,,null,,,,
2648,"<img src=""portrait/BW1.jpg""style=""height:400px;""></img>",0,html-button-response,18,109670,0.0-3.0-22.0,43148,List1A,white,man,,TRUE,0,,,,,
null,CORRECT,,html-keyboard-response,19,111172,0.0-3.0-23.0-0.0,43148,List1A,white,man,,,,null,,,,
1463,<p>You got 8 out of 8 right first time. Press Continue.</p>,0,html-button-response,20,112638,0.0-3.0-25.0,43148,List1A,white,man,,,,,,,,
30590,"<p>In this experiment, you will view photographs of the people from the memory game interacting.</p><p>By using the <strong>exact</strong> phrase given <i>after</i> the photograph appears and recalling the correct names of the people in the photographs, form a sentence describing the interaction. You do not need to capitalise names.</p><p>Type your answer in the space provided. Please complete every sentence before moving onto the next trial.</p><p>You will only have a few seconds to memorise each given photograph and phrase before you can respond, so try your best to focus.</p><p>An example is given below. Press 'Continue' when you are ready.</p><img src='img/speaking_example.jpg' style='width:800px;height:460px;''></img>",0,html-button-response,21,144233,0.0-4.0,43148,List1A,white,man,,,,,,,,
3870,"<p>Before the experiment starts, you will watch two example trials. Press 'Continue'.</p>",0,html-button-response,22,149105,0.0-5.0,43148,List1A,white,man,,,,,,,,
null,<img src='img/meet_eg.gif' style='height:400px;''></img>,,html-keyboard-response,23,152107,0.0-6.0,43148,List1A,white,man,,,,null,,,,
null,<p>is meeting</p>,,html-keyboard-response,24,154109,0.0-7.0,43148,List1A,white,man,,,,null,,,,
3098,<p><b>Answer:</b> kate is meeting beth</p>,0,html-button-response,25,157209,0.0-8.0,43148,List1A,white,man,,,,,,,,
null,<img src='img/look_eg.gif' style='height:400px;''></img>,,html-keyboard-response,26,160212,0.0-9.0,43148,List1A,white,man,,,,null,,,,
null,<p>are looking at each other</p>,,html-keyboard-response,27,162213,0.0-10.0,43148,List1A,white,man,,,,null,,,,
1563,<p><b>Answer:</b> luke and dave are looking at each other</p>,0,html-button-response,28,163777,0.0-11.0,43148,List1A,white,man,,,,,,,,
7837,"<p>Ready to start the experiment?</p><br><p><strong>Remember to describe the picture using a full sentence,</strong></p><p><strong>that combines the names of the people with the <i>exact</i> phrase given.</strong></p><p><strong>To receive full payment you must do this correctly.</strong></p><p><strong> You do not need to capitalise names or use punctuation.</strong></p><br><p>Press 'Continue' to begin.</p>",0,html-button-response,29,172617,0.0-12.0,43148,List1A,white,man,,,,,,,,
null,"<div style=""font-size:60px;"">+</div>",,html-keyboard-response,30,174118,0.0-13.0-0.0,43148,List1A,white,man,,,,null,,,,
null,"<img src=""stim_listA/argue4.gif""style=""height:400px;""></stim_listA>",,html-keyboard-response,31,176121,0.0-13.0-1.0,43148,List1A,white,man,,,,null,,,,
null,are arguing with each other,,html-keyboard-response,32,178122,0.0-13.0-2.0,43148,List1A,white,man,,,,null,,,,
7901,,,survey-text,33,186025,0.0-13.0-3.0,43148,List1A,white,man,,,,,"{""Q0"":""jane and luke""}","<img src=""stim_listA/argue4.gif""style=""height:400px;""></stim_listA>",are arguing with each other,
null,"<div style=""font-size:60px;"">+</div>",,html-keyboard-response,34,186527,0.0-13.0-0.1,43148,List1A,white,man,,,,null,,,,
null,"<img src=""stim_listA/shout8.gif""style=""height:400px;""></stim_listA>",,html-keyboard-response,35,188528,0.0-13.0-1.1,43148,List1A,white,man,,,,null,,,,
null,are shouting at each other,,html-keyboard-response,36,190530,0.0-13.0-2.1,43148,List1A,white,man,,,,null,,,,
11926,,,survey-text,37,202457,0.0-13.0-3.1,43148,List1A,white,man,,,,,"{""Q0"":""Jane and kate are shouting at each other""}","<img src=""stim_listA/shout8.gif""style=""height:400px;""></stim_listA>",are shouting at each other,
null,"<div style=""font-size:60px;"">+</div>",,html-keyboard-response,38,202958,0.0-13.0-0.2,43148,List1A,white,man,,,,null,,,,
null,"<img src=""stim_listA/dance3.gif""style=""height:400px;""></stim_listA>",,html-keyboard-response,39,204957,0.0-13.0-1.2,43148,List1A,white,man,,,,null,,,,
null,is dancing with,,html-keyboard-response,40,206960,0.0-13.0-2.2,43148,List1A,white,man,,,,null,,,,
10780,,,survey-text,41,217741,0.0-13.0-3.2,43148,List1A,white,man,,,,,"{""Q0"":""Jane is dancing with luke.""}","<img src=""stim_listA/dance3.gif""style=""height:400px;""></stim_listA>",is dancing with,
null,"<div style=""font-size:60px;"">+</div>",,html-keyboard-response,42,218243,0.0-13.0-0.3,43148,List1A,white,man,,,,null,,,,
null,"<img src=""stim_listA/shout6.gif""style=""height:400px;""></stim_listA>",,html-keyboard-response,43,220247,0.0-13.0-1.3,43148,List1A,white,man,,,,null,,,,
null,are shouting at each other,,html-keyboard-response,44,222248,0.0-13.0-2.3,43148,List1A,white,man,,,,null,,,,
15051,,,survey-text,45,237301,0.0-13.0-3.3,43148,List1A,white,man,,,,,"{""Q0"":""dave and mike are shouting at each other""}","<img src=""stim_listA/shout6.gif""style=""height:400px;""></stim_listA>",are shouting at each other,
null,"<div style=""font-size:60px;"">+</div>",,html-keyboard-response,46,237802,0.0-13.0-0.4,43148,List1A,white,man,,,,null,,,,
null,"<img src=""stim_listA/fight3.gif""style=""height:400px;""></stim_listA>",,html-keyboard-response,47,239805,0.0-13.0-1.4,43148,List1A,white,man,,,,null,,,,
null,is fighting,,html-keyboard-response,48,241807,0.0-13.0-2.4,43148,List1A,white,man,,,,null,,,,
7597,,,survey-text,49,249406,0.0-13.0-3.4,43148,List1A,white,man,,,,,"{""Q0"":""dave is fighting jane""}","<img src=""stim_listA/fight3.gif""style=""height:400px;""></stim_listA>",is fighting,
null,"<div style=""font-size:60px;"">+</div>",,html-keyboard-response,50,249908,0.0-13.0-0.5,43148,List1A,white,man,,,,null,,,,
null,"<img src=""stim_listA/touch2.gif""style=""height:400px;""></stim_listA>",,html-keyboard-response,51,251910,0.0-13.0-1.5,43148,List1A,white,man,,,,null,,,,
null,are touching each other,,html-keyboard-response,52,253911,0.0-13.0-2.5,43148,List1A,white,man,,,,null,,,,
15169,,,survey-text,53,269081,0.0-13.0-3.5,43148,List1A,white,man,,,,,"{""Q0"":""fred is touching kate""}","<img src=""stim_listA/touch2.gif""style=""height:400px;""></stim_listA>",are touching each other,
null,"<div style=""font-size:60px;"">+</div>",,html-keyboard-response,54,269583,0.0-13.0-0.6,43148,List1A,white,man,,,,null,,,,
null,"<img src=""stim_listA/argue3.gif""style=""height:400px;""></stim_listA>",,html-keyboard-response,55,271587,0.0-13.0-1.6,43148,List1A,white,man,,,,null,,,,
null,is arguing with,,html-keyboard-response,56,273588,0.0-13.0-2.6,43148,List1A,white,man,,,,null,,,,
6700,,,survey-text,57,280289,0.0-13.0-3.6,43148,List1A,white,man,,,,,"{""Q0"":""ruth is arguing with dave""}","<img src=""stim_listA/argue3.gif""style=""height:400px;""></stim_listA>",is arguing with,
null,"<div style=""font-size:60px;"">+</div>",,html-keyboard-response,58,280790,0.0-13.0-0.7,43148,List1A,white,man,,,,null,,,,
null,"<img src=""stim_listA/argue8.gif""style=""height:400px;""></stim_listA>",,html-keyboard-response,59,282793,0.0-13.0-1.7,43148,List1A,white,man,,,,null,,,,
null,are arguing with each other,,html-keyboard-response,60,284794,0.0-13.0-2.7,43148,List1A,white,man,,,,null,,,,
11686,,,survey-text,61,296481,0.0-13.0-3.7,43148,List1A,white,man,,,,,"{""Q0"":""kate and jane are arguing with each other""}","<img src=""stim_listA/argue8.gif""style=""height:400px;""></stim_listA>",are arguing with each other,
null,"<div style=""font-size:60px;"">+</div>",,html-keyboard-response,62,296982,0.0-13.0-0.8,43148,List1A,white,man,,,,null,,,,
null,"<img src=""stim_listA/fight4.gif""style=""height:400px;""></stim_listA>",,html-keyboard-response,63,298983,0.0-13.0-1.8,43148,List1A,white,man,,,,null,,,,
null,are fighting each other,,html-keyboard-response,64,300985,0.0-13.0-2.8,43148,List1A,white,man,,,,null,,,,
10775,,,survey-text,65,311761,0.0-13.0-3.8,43148,List1A,white,man,,,,,"{""Q0"":""ruth and luke are fighting each other""}","<img src=""stim_listA/fight4.gif""style=""height:400px;""></stim_listA>",are fighting each other,
null,"<div style=""font-size:60px;"">+</div>",,html-keyboard-response,66,312264,0.0-13.0-0.9,43148,List1A,white,man,,,,null,,,,
null,"<img src=""stim_listA/fight2.gif""style=""height:400px;""></stim_listA>",,html-keyboard-response,67,314267,0.0-13.0-1.9,43148,List1A,white,man,,,,null,,,,
null,are fighting each other,,html-keyboard-response,68,316268,0.0-13.0-2.9,43148,List1A,white,man,,,,null,,,,
12664,,,survey-text,69,328933,0.0-13.0-3.9,43148,List1A,white,man,,,,,"{""Q0"":""fred and kate are fighting each other""}","<img src=""stim_listA/fight2.gif""style=""height:400px;""></stim_listA>",are fighting each other,
null,"<div style=""font-size:60px;"">+</div>",,html-keyboard-response,70,329434,0.0-13.0-0.10,43148,List1A,white,man,,,,null,,,,
null,"<img src=""stim_listA/fight6.gif""style=""height:400px;""></stim_listA>",,html-keyboard-response,71,331435,0.0-13.0-1.10,43148,List1A,white,man,,,,null,,,,
null,are fighting each other,,html-keyboard-response,72,333435,0.0-13.0-2.10,43148,List1A,white,man,,,,null,,,,
11233,,,survey-text,73,344669,0.0-13.0-3.10,43148,List1A,white,man,,,,,"{""Q0"":""fred and luke are fighting each other""}","<img src=""stim_listA/fight6.gif""style=""height:400px;""></stim_listA>",are fighting each other,
null,"<div style=""font-size:60px;"">+</div>",,html-keyboard-response,74,345170,0.0-13.0-0.11,43148,List1A,white,man,,,,null,,,,
null,"<img src=""stim_listA/marry5.gif""style=""height:400px;""></stim_listA>",,html-keyboard-response,75,347171,0.0-13.0-1.11,43148,List1A,white,man,,,,null,,,,
null,is marrying,,html-keyboard-response,76,349172,0.0-13.0-2.11,43148,List1A,white,man,,,,null,,,,
16144,,,survey-text,77,365317,0.0-13.0-3.11,43148,List1A,white,man,,,,,"{""Q0"":""luke is meeting mike""}","<img src=""stim_listA/marry5.gif""style=""height:400px;""></stim_listA>",is marrying,
null,"<div style=""font-size:60px;"">+</div>",,html-keyboard-response,78,365818,0.0-13.0-0.12,43148,List1A,white,man,,,,null,,,,
null,"<img src=""stim_listA/marry8.gif""style=""height:400px;""></stim_listA>",,html-keyboard-response,79,367820,0.0-13.0-1.12,43148,List1A,white,man,,,,null,,,,
null,are marrying each other,,html-keyboard-response,80,369820,0.0-13.0-2.12,43148,List1A,white,man,,,,null,,,,
11096,,,survey-text,81,380918,0.0-13.0-3.12,43148,List1A,white,man,,,,,"{""Q0"":""jane and kate are marrying each other""}","<img src=""stim_listA/marry8.gif""style=""height:400px;""></stim_listA>",are marrying each other,
null,"<div style=""font-size:60px;"">+</div>",,html-keyboard-response,82,381418,0.0-13.0-0.13,43148,List1A,white,man,,,,null,,,,
null,"<img src=""stim_listA/dance2.gif""style=""height:400px;""></stim_listA>",,html-keyboard-response,83,383419,0.0-13.0-1.13,43148,List1A,white,man,,,,null,,,,
null,are dancing with each other,,html-keyboard-response,84,385416,0.0-13.0-2.13,43148,List1A,white,man,,,,null,,,,
14439,,,survey-text,85,399856,0.0-13.0-3.13,43148,List1A,white,man,,,,,"{""Q0"":""mike and kate are dancing with each other""}","<img src=""stim_listA/dance2.gif""style=""height:400px;""></stim_listA>",are dancing with each other,
null,"<div style=""font-size:60px;"">+</div>",,html-keyboard-response,86,400357,0.0-13.0-0.14,43148,List1A,white,man,,,,null,,,,
null,"<img src=""stim_listA/shout1.gif""style=""height:400px;""></stim_listA>",,html-keyboard-response,87,402358,0.0-13.0-1.14,43148,List1A,white,man,,,,null,,,,
null,is shouting at,,html-keyboard-response,88,404358,0.0-13.0-2.14,43148,List1A,white,man,,,,null,,,,
7184,,,survey-text,89,411544,0.0-13.0-3.14,43148,List1A,white,man,,,,,"{""Q0"":""fred is shouting at kate""}","<img src=""stim_listA/shout1.gif""style=""height:400px;""></stim_listA>",is shouting at,
null,"<div style=""font-size:60px;"">+</div>",,html-keyboard-response,90,412044,0.0-13.0-0.15,43148,List1A,white,man,,,,null,,,,
null,"<img src=""stim_listA/kiss3.gif""style=""height:400px;""></stim_listA>",,html-keyboard-response,91,414046,0.0-13.0-1.15,43148,List1A,white,man,,,,null,,,,
null,is kissing,,html-keyboard-response,92,416047,0.0-13.0-2.15,43148,List1A,white,man,,,,null,,,,
6695,,,survey-text,93,422744,0.0-13.0-3.15,43148,List1A,white,man,,,,,"{""Q0"":""ruth is kissing luke""}","<img src=""stim_listA/kiss3.gif""style=""height:400px;""></stim_listA>",is kissing,
null,"<div style=""font-size:60px;"">+</div>",,html-keyboard-response,94,423245,0.0-13.0-0.16,43148,List1A,white,man,,,,null,,,,
null,"<img src=""stim_listA/marry1.gif""style=""height:400px;""></stim_listA>",,html-keyboard-response,95,425246,0.0-13.0-1.16,43148,List1A,white,man,,,,null,,,,
null,is marrying,,html-keyboard-response,96,427247,0.0-13.0-2.16,43148,List1A,white,man,,,,null,,,,
6464,,,survey-text,97,433712,0.0-13.0-3.16,43148,List1A,white,man,,,,,"{""Q0"":""mike is marrying kate""}","<img src=""stim_listA/marry1.gif""style=""height:400px;""></stim_listA>",is marrying,
null,"<div style=""font-size:60px;"">+</div>",,html-keyboard-response,98,434213,0.0-13.0-0.17,43148,List1A,white,man,,,,null,,,,
null,"<img src=""stim_listA/play1.gif""style=""height:400px;""></stim_listA>",,html-keyboard-response,99,436215,0.0-13.0-1.17,43148,List1A,white,man,,,,null,,,,
null,is playing with,,html-keyboard-response,100,438216,0.0-13.0-2.17,43148,List1A,white,man,,,,null,,,,
7420,,,survey-text,101,445638,0.0-13.0-3.17,43148,List1A,white,man,,,,,"{""Q0"":""mike is playing with beth""}","<img src=""stim_listA/play1.gif""style=""height:400px;""></stim_listA>",is playing with,
null,"<div style=""font-size:60px;"">+</div>",,html-keyboard-response,102,446140,0.0-13.0-0.18,43148,List1A,white,man,,,,null,,,,
null,"<img src=""stim_listA/talk7.gif""style=""height:400px;""></stim_listA>",,html-keyboard-response,103,448141,0.0-13.0-1.18,43148,List1A,white,man,,,,null,,,,
null,is talking to,,html-keyboard-response,104,450142,0.0-13.0-2.18,43148,List1A,white,man,,,,null,,,,
9503,,,survey-text,105,459646,0.0-13.0-3.18,43148,List1A,white,man,,,,,"{""Q0"":""jane is talking to kate""}","<img src=""stim_listA/talk7.gif""style=""height:400px;""></stim_listA>",is talking to,
null,"<div style=""font-size:60px;"">+</div>",,html-keyboard-response,106,460147,0.0-13.0-0.19,43148,List1A,white,man,,,,null,,,,
null,"<img src=""stim_listA/shout4.gif""style=""height:400px;""></stim_listA>",,html-keyboard-response,107,462148,0.0-13.0-1.19,43148,List1A,white,man,,,,null,,,,
null,are shouting at each other,,html-keyboard-response,108,464149,0.0-13.0-2.19,43148,List1A,white,man,,,,null,,,,
9887,,,survey-text,109,474038,0.0-13.0-3.19,43148,List1A,white,man,,,,,"{""Q0"":""jane and dave are shouting at each other""}","<img src=""stim_listA/shout4.gif""style=""height:400px;""></stim_listA>",are shouting at each other,
10927,"<img src='img/portrait_matrix_list1.jpg' style='width:900px;height:500px;''></img><p>If you have memorised all the portraits and names and are ready to start, press Continue.</p><p><strong>Please note: Your memory of these faces will be tested 4 times during this experiment.</strong></p>",0,html-button-response,110,484966,0.0-14.0-0.0,43148,List1A,white,man,,,,,,,,
1958,"<img src=""portrait/WW1.jpg""style=""height:400px;""></img>",1,html-button-response,111,487926,0.0-14.0-1.0,43148,List1A,white,man,,TRUE,1,,,,,
null,CORRECT,,html-keyboard-response,112,489426,0.0-14.0-2.0-0.0,43148,List1A,white,man,,,,null,,,,
6586,"<img src=""portrait/BW1.jpg""style=""height:400px;""></img>",0,html-button-response,113,496014,0.0-14.0-4.0,43148,List1A,white,man,,TRUE,0,,,,,
null,CORRECT,,html-keyboard-response,114,497515,0.0-14.0-5.0-0.0,43148,List1A,white,man,,,,null,,,,
3235,"<img src=""portrait/BM1.jpg""style=""height:400px;""></img>",4,html-button-response,115,500752,0.0-14.0-7.0,43148,List1A,white,man,,TRUE,4,,,,,
null,CORRECT,,html-keyboard-response,116,502252,0.0-14.0-8.0-0.0,43148,List1A,white,man,,,,null,,,,
3152,"<img src=""portrait/WW2.jpg""style=""height:400px;""></img>",3,html-button-response,117,505406,0.0-14.0-10.0,43148,List1A,white,man,,TRUE,3,,,,,
null,CORRECT,,html-keyboard-response,118,506904,0.0-14.0-11.0-0.0,43148,List1A,white,man,,,,null,,,,
1665,"<img src=""portrait/WM2.jpg""style=""height:400px;""></img>",7,html-button-response,119,508571,0.0-14.0-13.0,43148,List1A,white,man,,TRUE,7,,,,,
null,CORRECT,,html-keyboard-response,120,510071,0.0-14.0-14.0-0.0,43148,List1A,white,man,,,,null,,,,
1546,"<img src=""portrait/BW2.jpg""style=""height:400px;""></img>",2,html-button-response,121,511619,0.0-14.0-16.0,43148,List1A,white,man,,TRUE,2,,,,,
null,CORRECT,,html-keyboard-response,122,513119,0.0-14.0-17.0-0.0,43148,List1A,white,man,,,,null,,,,
2147,"<img src=""portrait/WM1.jpg""style=""height:400px;""></img>",6,html-button-response,123,515268,0.0-14.0-19.0,43148,List1A,white,man,,TRUE,6,,,,,
null,CORRECT,,html-keyboard-response,124,516768,0.0-14.0-20.0-0.0,43148,List1A,white,man,,,,null,,,,
1993,"<img src=""portrait/BM2.jpg""style=""height:400px;""></img>",5,html-button-response,125,518763,0.0-14.0-22.0,43148,List1A,white,man,,TRUE,5,,,,,
null,CORRECT,,html-keyboard-response,126,520263,0.0-14.0-23.0-0.0,43148,List1A,white,man,,,,null,,,,
1210,<p>You got 8 out of 8 right first time. Press Continue.</p>,0,html-button-response,127,521475,0.0-14.0-25.0,43148,List1A,white,man,,,,,,,,
null,"<div style=""font-size:60px;"">+</div>",,html-keyboard-response,128,522976,0.0-15.0-0.0,43148,List1A,white,man,,,,null,,,,
null,"<img src=""stim_listA/marry2.gif""style=""height:400px;""></stim_listA>",,html-keyboard-response,129,524977,0.0-15.0-1.0,43148,List1A,white,man,,,,null,,,,
null,are marrying each other,,html-keyboard-response,130,526978,0.0-15.0-2.0,43148,List1A,white,man,,,,null,,,,
14039,,,survey-text,131,541019,0.0-15.0-3.0,43148,List1A,white,man,,,,,"{""Q0"":""kate and fred are marrying each other""}","<img src=""stim_listA/marry2.gif""style=""height:400px;""></stim_listA>",are marrying each other,
null,"<div style=""font-size:60px;"">+</div>",,html-keyboard-response,132,541520,0.0-15.0-0.1,43148,List1A,white,man,,,,null,,,,
null,"<img src=""stim_listA/marry7.gif""style=""height:400px;""></stim_listA>",,html-keyboard-response,133,543550,0.0-15.0-1.1,43148,List1A,white,man,,,,null,,,,
null,is marrying,,html-keyboard-response,134,545550,0.0-15.0-2.1,43148,List1A,white,man,,,,null,,,,
5436,,,survey-text,135,550988,0.0-15.0-3.1,43148,List1A,white,man,,,,,"{""Q0"":""kate is marrying ruth""}","<img src=""stim_listA/marry7.gif""style=""height:400px;""></stim_listA>",is marrying,
null,"<div style=""font-size:60px;"">+</div>",,html-keyboard-response,136,551489,0.0-15.0-0.2,43148,List1A,white,man,,,,null,,,,
null,"<img src=""stim_listA/play7.gif""style=""height:400px;""></stim_listA>",,html-keyboard-response,137,553490,0.0-15.0-1.2,43148,List1A,white,man,,,,null,,,,
null,is playing with,,html-keyboard-response,138,555491,0.0-15.0-2.2,43148,List1A,white,man,,,,null,,,,
5598,,,survey-text,139,561091,0.0-15.0-3.2,43148,List1A,white,man,,,,,"{""Q0"":""kate is playing with jane""}","<img src=""stim_listA/play7.gif""style=""height:400px;""></stim_listA>",is playing with,
null,"<div style=""font-size:60px;"">+</div>",,html-keyboard-response,140,561592,0.0-15.0-0.3,43148,List1A,white,man,,,,null,,,,
null,"<img src=""stim_listA/play4.gif""style=""height:400px;""></stim_listA>",,html-keyboard-response,141,563594,0.0-15.0-1.3,43148,List1A,white,man,,,,null,,,,
null,are playing with each other,,html-keyboard-response,142,565596,0.0-15.0-2.3,43148,List1A,white,man,,,,null,,,,
8179,,,survey-text,143,573777,0.0-15.0-3.3,43148,List1A,white,man,,,,,"{""Q0"":""luke and ruth are playing with each other""}","<img src=""stim_listA/play4.gif""style=""height:400px;""></stim_listA>",are playing with each other,
null,"<div style=""font-size:60px;"">+</div>",,html-keyboard-response,144,574278,0.0-15.0-0.4,43148,List1A,white,man,,,,null,,,,
null,"<img src=""stim_listA/shout2.gif""style=""height:400px;""></stim_listA>",,html-keyboard-response,145,576279,0.0-15.0-1.4,43148,List1A,white,man,,,,null,,,,
null,are shouting at each other,,html-keyboard-response,146,578279,0.0-15.0-2.4,43148,List1A,white,man,,,,null,,,,
10857,,,survey-text,147,589137,0.0-15.0-3.4,43148,List1A,white,man,,,,,"{""Q0"":""kate and mike are shouting with each other""}","<img src=""stim_listA/shout2.gif""style=""height:400px;""></stim_listA>",are shouting at each other,
null,"<div style=""font-size:60px;"">+</div>",,html-keyboard-response,148,589638,0.0-15.0-0.5,43148,List1A,white,man,,,,null,,,,
null,"<img src=""stim_listA/argue6.gif""style=""height:400px;""></stim_listA>",,html-keyboard-response,149,591640,0.0-15.0-1.5,43148,List1A,white,man,,,,null,,,,
null,are arguing with each other,,html-keyboard-response,150,593641,0.0-15.0-2.5,43148,List1A,white,man,,,,null,,,,
8695,,,survey-text,151,602337,0.0-15.0-3.5,43148,List1A,white,man,,,,,"{""Q0"":""fred and dave are arguing with each other""}","<img src=""stim_listA/argue6.gif""style=""height:400px;""></stim_listA>",are arguing with each other,
null,"<div style=""font-size:60px;"">+</div>",,html-keyboard-response,152,602838,0.0-15.0-0.6,43148,List1A,white,man,,,,null,,,,
null,"<img src=""stim_listA/talk3.gif""style=""height:400px;""></stim_listA>",,html-keyboard-response,153,604841,0.0-15.0-1.6,43148,List1A,white,man,,,,null,,,,
null,is talking to,,html-keyboard-response,154,606842,0.0-15.0-2.6,43148,List1A,white,man,,,,null,,,,
6350,,,survey-text,155,613193,0.0-15.0-3.6,43148,List1A,white,man,,,,,"{""Q0"":""jane is talking to luke""}","<img src=""stim_listA/talk3.gif""style=""height:400px;""></stim_listA>",is talking to,
null,"<div style=""font-size:60px;"">+</div>",,html-keyboard-response,156,613694,0.0-15.0-0.7,43148,List1A,white,man,,,,null,,,,
null,"<img src=""stim_listA/play8.gif""style=""height:400px;""></stim_listA>",,html-keyboard-response,157,615697,0.0-15.0-1.7,43148,List1A,white,man,,,,null,,,,
null,are playing with each other,,html-keyboard-response,158,617698,0.0-15.0-2.7,43148,List1A,white,man,,,,null,,,,
10401,,,survey-text,159,628101,0.0-15.0-3.7,43148,List1A,white,man,,,,,"{""Q0"":""ruth and beth are playing with each other""}","<img src=""stim_listA/play8.gif""style=""height:400px;""></stim_listA>",are playing with each other,
null,"<div style=""font-size:60px;"">+</div>",,html-keyboard-response,160,628603,0.0-15.0-0.8,43148,List1A,white,man,,,,null,,,,
null,"<img src=""stim_listA/talk6.gif""style=""height:400px;""></stim_listA>",,html-keyboard-response,161,630607,0.0-15.0-1.8,43148,List1A,white,man,,,,null,,,,
null,are talking to each other,,html-keyboard-response,162,632609,0.0-15.0-2.8,43148,List1A,white,man,,,,null,,,,
8619,,,survey-text,163,641230,0.0-15.0-3.8,43148,List1A,white,man,,,,,"{""Q0"":""mike and luke are talking to each other""}","<img src=""stim_listA/talk6.gif""style=""height:400px;""></stim_listA>",are talking to each other,
null,"<div style=""font-size:60px;"">+</div>",,html-keyboard-response,164,641730,0.0-15.0-0.9,43148,List1A,white,man,,,,null,,,,
null,"<img src=""stim_listA/fight5.gif""style=""height:400px;""></stim_listA>",,html-keyboard-response,165,643734,0.0-15.0-1.9,43148,List1A,white,man,,,,null,,,,
null,is fighting,,html-keyboard-response,166,645735,0.0-15.0-2.9,43148,List1A,white,man,,,,null,,,,
5516,,,survey-text,167,651253,0.0-15.0-3.9,43148,List1A,white,man,,,,,"{""Q0"":""mike is fighting dave""}","<img src=""stim_listA/fight5.gif""style=""height:400px;""></stim_listA>",is fighting,
null,"<div style=""font-size:60px;"">+</div>",,html-keyboard-response,168,651755,0.0-15.0-0.10,43148,List1A,white,man,,,,null,,,,
null,"<img src=""stim_listA/flirt6.gif""style=""height:400px;""></stim_listA>",,html-keyboard-response,169,653758,0.0-15.0-1.10,43148,List1A,white,man,,,,null,,,,
null,are flirting with each other,,html-keyboard-response,170,655760,0.0-15.0-2.10,43148,List1A,white,man,,,,null,,,,
8140,,,survey-text,171,663901,0.0-15.0-3.10,43148,List1A,white,man,,,,,"{""Q0"":""luke and mike are flirting with each other""}","<img src=""stim_listA/flirt6.gif""style=""height:400px;""></stim_listA>",are flirting with each other,
null,"<div style=""font-size:60px;"">+</div>",,html-keyboard-response,172,664402,0.0-15.0-0.11,43148,List1A,white,man,,,,null,,,,
null,"<img src=""stim_listA/touch8.gif""style=""height:400px;""></stim_listA>",,html-keyboard-response,173,666406,0.0-15.0-1.11,43148,List1A,white,man,,,,null,,,,
null,are touching each other,,html-keyboard-response,174,668407,0.0-15.0-2.11,43148,List1A,white,man,,,,null,,,,
7901,,,survey-text,175,676309,0.0-15.0-3.11,43148,List1A,white,man,,,,,"{""Q0"":""ruth and beth are touching each other""}","<img src=""stim_listA/touch8.gif""style=""height:400px;""></stim_listA>",are touching each other,
null,"<div style=""font-size:60px;"">+</div>",,html-keyboard-response,176,676811,0.0-15.0-0.12,43148,List1A,white,man,,,,null,,,,
null,"<img src=""stim_listA/dance8.gif""style=""height:400px;""></stim_listA>",,html-keyboard-response,177,678814,0.0-15.0-1.12,43148,List1A,white,man,,,,null,,,,
null,are dancing with each other,,html-keyboard-response,178,680815,0.0-15.0-2.12,43148,List1A,white,man,,,,null,,,,
9659,,,survey-text,179,690475,0.0-15.0-3.12,43148,List1A,white,man,,,,,"{""Q0"":""kate and jane are dancing with each other""}","<img src=""stim_listA/dance8.gif""style=""height:400px;""></stim_listA>",are dancing with each other,
null,"<div style=""font-size:60px;"">+</div>",,html-keyboard-response,180,690977,0.0-15.0-0.13,43148,List1A,white,man,,,,null,,,,
null,"<img src=""stim_listA/flirt5.gif""style=""height:400px;""></stim_listA>",,html-keyboard-response,181,692981,0.0-15.0-1.13,43148,List1A,white,man,,,,null,,,,
null,is flirting with,,html-keyboard-response,182,694982,0.0-15.0-2.13,43148,List1A,white,man,,,,null,,,,
6355,,,survey-text,183,701339,0.0-15.0-3.13,43148,List1A,white,man,,,,,"{""Q0"":""fred is flirting with dave""}","<img src=""stim_listA/flirt5.gif""style=""height:400px;""></stim_listA>",is flirting with,
null,"<div style=""font-size:60px;"">+</div>",,html-keyboard-response,184,701841,0.0-15.0-0.14,43148,List1A,white,man,,,,null,,,,
null,"<img src=""stim_listA/talk8.gif""style=""height:400px;""></stim_listA>",,html-keyboard-response,185,703845,0.0-15.0-1.14,43148,List1A,white,man,,,,null,,,,
null,are talking to each other,,html-keyboard-response,186,705846,0.0-15.0-2.14,43148,List1A,white,man,,,,null,,,,
7340,,,survey-text,187,713187,0.0-15.0-3.14,43148,List1A,white,man,,,,,"{""Q0"":""ruth and kate are talking to each other""}","<img src=""stim_listA/talk8.gif""style=""height:400px;""></stim_listA>",are talking to each other,
null,"<div style=""font-size:60px;"">+</div>",,html-keyboard-response,188,713688,0.0-15.0-0.15,43148,List1A,white,man,,,,null,,,,
null,"<img src=""stim_listA/shout5.gif""style=""height:400px;""></stim_listA>",,html-keyboard-response,189,715692,0.0-15.0-1.15,43148,List1A,white,man,,,,null,,,,
null,is shouting at,,html-keyboard-response,190,717692,0.0-15.0-2.15,43148,List1A,white,man,,,,null,,,,
5902,,,survey-text,191,723595,0.0-15.0-3.15,43148,List1A,white,man,,,,,"{""Q0"":""mike is shouting at luke""}","<img src=""stim_listA/shout5.gif""style=""height:400px;""></stim_listA>",is shouting at,
null,"<div style=""font-size:60px;"">+</div>",,html-keyboard-response,192,724097,0.0-15.0-0.16,43148,List1A,white,man,,,,null,,,,
null,"<img src=""stim_listA/kiss4.gif""style=""height:400px;""></stim_listA>",,html-keyboard-response,193,726099,0.0-15.0-1.16,43148,List1A,white,man,,,,null,,,,
null,are kissing each other,,html-keyboard-response,194,728101,0.0-15.0-2.16,43148,List1A,white,man,,,,null,,,,
9373,,,survey-text,195,737475,0.0-15.0-3.16,43148,List1A,white,man,,,,,"{""Q0"":""jane and dave are kissing each other""}","<img src=""stim_listA/kiss4.gif""style=""height:400px;""></stim_listA>",are kissing each other,
null,"<div style=""font-size:60px;"">+</div>",,html-keyboard-response,196,737976,0.0-15.0-0.17,43148,List1A,white,man,,,,null,,,,
null,"<img src=""stim_listA/touch6.gif""style=""height:400px;""></stim_listA>",,html-keyboard-response,197,739979,0.0-15.0-1.17,43148,List1A,white,man,,,,null,,,,
null,are touching each other,,html-keyboard-response,198,741981,0.0-15.0-2.17,43148,List1A,white,man,,,,null,,,,
8675,,,survey-text,199,750658,0.0-15.0-3.17,43148,List1A,white,man,,,,,"{""Q0"":""luke and fred are touching each other""}","<img src=""stim_listA/touch6.gif""style=""height:400px;""></stim_listA>",are touching each other,
null,"<div style=""font-size:60px;"">+</div>",,html-keyboard-response,200,751161,0.0-15.0-0.18,43148,List1A,white,man,,,,null,,,,
null,"<img src=""stim_listA/argue2.gif""style=""height:400px;""></stim_listA>",,html-keyboard-response,201,753166,0.0-15.0-1.18,43148,List1A,white,man,,,,null,,,,
null,are arguing with each other,,html-keyboard-response,202,755166,0.0-15.0-2.18,43148,List1A,white,man,,,,null,,,,
11979,,,survey-text,203,767146,0.0-15.0-3.18,43148,List1A,white,man,,,,,"{""Q0"":""kate and fred are arguing with each other""}","<img src=""stim_listA/argue2.gif""style=""height:400px;""></stim_listA>",are arguing with each other,
null,"<div style=""font-size:60px;"">+</div>",,html-keyboard-response,204,767648,0.0-15.0-0.19,43148,List1A,white,man,,,,null,,,,
null,"<img src=""stim_listA/flirt2.gif""style=""height:400px;""></stim_listA>",,html-keyboard-response,205,769652,0.0-15.0-1.19,43148,List1A,white,man,,,,null,,,,
null,are flirting with each other,,html-keyboard-response,206,771654,0.0-15.0-2.19,43148,List1A,white,man,,,,null,,,,
8178,,,survey-text,207,779834,0.0-15.0-3.19,43148,List1A,white,man,,,,,"{""Q0"":""beth and mike are flirting with each other""}","<img src=""stim_listA/flirt2.gif""style=""height:400px;""></stim_listA>",are flirting with each other,
2431,"<img src='img/portrait_matrix_list1.jpg' style='width:900px;height:500px;''></img><p>If you have memorised all the portraits and names and are ready to start, press Continue.</p><p><strong>Please note: Your memory of these faces will be tested 4 times during this experiment.</strong></p>",0,html-button-response,208,782266,0.0-16.0-0.0,43148,List1A,white,man,,,,,,,,
1710,"<img src=""portrait/WM2.jpg""style=""height:400px;""></img>",7,html-button-response,209,784978,0.0-16.0-1.0,43148,List1A,white,man,,TRUE,7,,,,,
null,CORRECT,,html-keyboard-response,210,786481,0.0-16.0-2.0-0.0,43148,List1A,white,man,,,,null,,,,
1135,"<img src=""portrait/WM1.jpg""style=""height:400px;""></img>",6,html-button-response,211,787619,0.0-16.0-4.0,43148,List1A,white,man,,TRUE,6,,,,,
null,CORRECT,,html-keyboard-response,212,789121,0.0-16.0-5.0-0.0,43148,List1A,white,man,,,,null,,,,
1358,"<img src=""portrait/WW2.jpg""style=""height:400px;""></img>",3,html-button-response,213,790482,0.0-16.0-7.0,43148,List1A,white,man,,TRUE,3,,,,,
null,CORRECT,,html-keyboard-response,214,791983,0.0-16.0-8.0-0.0,43148,List1A,white,man,,,,null,,,,
1137,"<img src=""portrait/BM1.jpg""style=""height:400px;""></img>",4,html-button-response,215,793123,0.0-16.0-10.0,43148,List1A,white,man,,TRUE,4,,,,,
null,CORRECT,,html-keyboard-response,216,794625,0.0-16.0-11.0-0.0,43148,List1A,white,man,,,,null,,,,
1495,"<img src=""portrait/WW1.jpg""style=""height:400px;""></img>",1,html-button-response,217,796122,0.0-16.0-13.0,43148,List1A,white,man,,TRUE,1,,,,,
null,CORRECT,,html-keyboard-response,218,797624,0.0-16.0-14.0-0.0,43148,List1A,white,man,,,,null,,,,
1224,"<img src=""portrait/BW1.jpg""style=""height:400px;""></img>",0,html-button-response,219,798850,0.0-16.0-16.0,43148,List1A,white,man,,TRUE,0,,,,,
null,CORRECT,,html-keyboard-response,220,800352,0.0-16.0-17.0-0.0,43148,List1A,white,man,,,,null,,,,
1104,"<img src=""portrait/BW2.jpg""style=""height:400px;""></img>",2,html-button-response,221,801459,0.0-16.0-19.0,43148,List1A,white,man,,TRUE,2,,,,,
null,CORRECT,,html-keyboard-response,222,802963,0.0-16.0-20.0-0.0,43148,List1A,white,man,,,,null,,,,
1357,"<img src=""portrait/BM2.jpg""style=""height:400px;""></img>",5,html-button-response,223,804322,0.0-16.0-22.0,43148,List1A,white,man,,TRUE,5,,,,,
null,CORRECT,,html-keyboard-response,224,805824,0.0-16.0-23.0-0.0,43148,List1A,white,man,,,,null,,,,
1039,<p>You got 8 out of 8 right first time. Press Continue.</p>,0,html-button-response,225,806866,0.0-16.0-25.0,43148,List1A,white,man,,,,,,,,
null,"<div style=""font-size:60px;"">+</div>",,html-keyboard-response,226,808367,0.0-17.0-0.0,43148,List1A,white,man,,,,null,,,,
null,"<img src=""stim_listA/fight1.gif""style=""height:400px;""></stim_listA>",,html-keyboard-response,227,810370,0.0-17.0-1.0,43148,List1A,white,man,,,,null,,,,
null,is fighting,,html-keyboard-response,228,812371,0.0-17.0-2.0,43148,List1A,white,man,,,,null,,,,
4661,,,survey-text,229,817033,0.0-17.0-3.0,43148,List1A,white,man,,,,,"{""Q0"":""mike is fighting kate""}","<img src=""stim_listA/fight1.gif""style=""height:400px;""></stim_listA>",is fighting,
null,"<div style=""font-size:60px;"">+</div>",,html-keyboard-response,230,817535,0.0-17.0-0.1,43148,List1A,white,man,,,,null,,,,
null,"<img src=""stim_listA/touch4.gif""style=""height:400px;""></stim_listA>",,html-keyboard-response,231,819538,0.0-17.0-1.1,43148,List1A,white,man,,,,null,,,,
null,are touching each other,,html-keyboard-response,232,821539,0.0-17.0-2.1,43148,List1A,white,man,,,,null,,,,
8021,,,survey-text,233,829561,0.0-17.0-3.1,43148,List1A,white,man,,,,,"{""Q0"":""ruth and luke are touching each other""}","<img src=""stim_listA/touch4.gif""style=""height:400px;""></stim_listA>",are touching each other,
null,"<div style=""font-size:60px;"">+</div>",,html-keyboard-response,234,830064,0.0-17.0-0.2,43148,List1A,white,man,,,,null,,,,
null,"<img src=""stim_listA/argue1.gif""style=""height:400px;""></stim_listA>",,html-keyboard-response,235,832069,0.0-17.0-1.2,43148,List1A,white,man,,,,null,,,,
null,is arguing with,,html-keyboard-response,236,834071,0.0-17.0-2.2,43148,List1A,white,man,,,,null,,,,
5769,,,survey-text,237,839841,0.0-17.0-3.2,43148,List1A,white,man,,,,,"{""Q0"":""mike is arguing with beth""}","<img src=""stim_listA/argue1.gif""style=""height:400px;""></stim_listA>",is arguing with,
null,"<div style=""font-size:60px;"">+</div>",,html-keyboard-response,238,840342,0.0-17.0-0.3,43148,List1A,white,man,,,,null,,,,
null,"<img src=""stim_listA/kiss2.gif""style=""height:400px;""></stim_listA>",,html-keyboard-response,239,842346,0.0-17.0-1.3,43148,List1A,white,man,,,,null,,,,
null,are kissing each other,,html-keyboard-response,240,844349,0.0-17.0-2.3,43148,List1A,white,man,,,,null,,,,
6882,,,survey-text,241,851233,0.0-17.0-3.3,43148,List1A,white,man,,,,,"{""Q0"":""kate and mike are kissing each other""}","<img src=""stim_listA/kiss2.gif""style=""height:400px;""></stim_listA>",are kissing each other,
null,"<div style=""font-size:60px;"">+</div>",,html-keyboard-response,242,851734,0.0-17.0-0.4,43148,List1A,white,man,,,,null,,,,
null,"<img src=""stim_listA/touch1.gif""style=""height:400px;""></stim_listA>",,html-keyboard-response,243,853738,0.0-17.0-1.4,43148,List1A,white,man,,,,null,,,,
null,is touching,,html-keyboard-response,244,855740,0.0-17.0-2.4,43148,List1A,white,man,,,,null,,,,
4748,,,survey-text,245,860489,0.0-17.0-3.4,43148,List1A,white,man,,,,,"{""Q0"":""mike is touching kate""}","<img src=""stim_listA/touch1.gif""style=""height:400px;""></stim_listA>",is touching,
null,"<div style=""font-size:60px;"">+</div>",,html-keyboard-response,246,860991,0.0-17.0-0.5,43148,List1A,white,man,,,,null,,,,
null,"<img src=""stim_listA/kiss6.gif""style=""height:400px;""></stim_listA>",,html-keyboard-response,247,863001,0.0-17.0-1.5,43148,List1A,white,man,,,,null,,,,
null,are kissing each other,,html-keyboard-response,248,865003,0.0-17.0-2.5,43148,List1A,white,man,,,,null,,,,
7387,,,survey-text,249,872391,0.0-17.0-3.5,43148,List1A,white,man,,,,,"{""Q0"":""dave and mike are kissing each other""}","<img src=""stim_listA/kiss6.gif""style=""height:400px;""></stim_listA>",are kissing each other,
null,"<div style=""font-size:60px;"">+</div>",,html-keyboard-response,250,872893,0.0-17.0-0.6,43148,List1A,white,man,,,,null,,,,
null,"<img src=""stim_listA/touch5.gif""style=""height:400px;""></stim_listA>",,html-keyboard-response,251,874897,0.0-17.0-1.6,43148,List1A,white,man,,,,null,,,,
null,is touching,,html-keyboard-response,252,876900,0.0-17.0-2.6,43148,List1A,white,man,,,,null,,,,
7202,,,survey-text,253,884104,0.0-17.0-3.6,43148,List1A,white,man,,,,,"{""Q0"":""dave is touching mike""}","<img src=""stim_listA/touch5.gif""style=""height:400px;""></stim_listA>",is touching,
null,"<div style=""font-size:60px;"">+</div>",,html-keyboard-response,254,884604,0.0-17.0-0.7,43148,List1A,white,man,,,,null,,,,
null,"<img src=""stim_listA/play5.gif""style=""height:400px;""></stim_listA>",,html-keyboard-response,255,886608,0.0-17.0-1.7,43148,List1A,white,man,,,,null,,,,
null,is playing with,,html-keyboard-response,256,888609,0.0-17.0-2.7,43148,List1A,white,man,,,,null,,,,
6093,,,survey-text,257,894704,0.0-17.0-3.7,43148,List1A,white,man,,,,,"{""Q0"":""mike is playing with dave""}","<img src=""stim_listA/play5.gif""style=""height:400px;""></stim_listA>",is playing with,
null,"<div style=""font-size:60px;"">+</div>",,html-keyboard-response,258,895204,0.0-17.0-0.8,43148,List1A,white,man,,,,null,,,,
null,"<img src=""stim_listA/dance7.gif""style=""height:400px;""></stim_listA>",,html-keyboard-response,259,897207,0.0-17.0-1.8,43148,List1A,white,man,,,,null,,,,
null,is dancing with,,html-keyboard-response,260,899209,0.0-17.0-2.8,43148,List1A,white,man,,,,null,,,,
6773,,,survey-text,261,905983,0.0-17.0-3.8,43148,List1A,white,man,,,,,"{""Q0"":""beth is dancing with jane""}","<img src=""stim_listA/dance7.gif""style=""height:400px;""></stim_listA>",is dancing with,
null,"<div style=""font-size:60px;"">+</div>",,html-keyboard-response,262,906485,0.0-17.0-0.9,43148,List1A,white,man,,,,null,,,,
null,"<img src=""stim_listA/play6.gif""style=""height:400px;""></stim_listA>",,html-keyboard-response,263,908489,0.0-17.0-1.9,43148,List1A,white,man,,,,null,,,,
null,are playing with each other,,html-keyboard-response,264,910491,0.0-17.0-2.9,43148,List1A,white,man,,,,null,,,,
8258,,,survey-text,265,918751,0.0-17.0-3.9,43148,List1A,white,man,,,,,"{""Q0"":""luke and fred are playing with each other""}","<img src=""stim_listA/play6.gif""style=""height:400px;""></stim_listA>",are playing with each other,
null,"<div style=""font-size:60px;"">+</div>",,html-keyboard-response,266,919252,0.0-17.0-0.10,43148,List1A,white,man,,,,null,,,,
null,"<img src=""stim_listA/talk1.gif""style=""height:400px;""></stim_listA>",,html-keyboard-response,267,921257,0.0-17.0-1.10,43148,List1A,white,man,,,,null,,,,
null,is talking to,,html-keyboard-response,268,923258,0.0-17.0-2.10,43148,List1A,white,man,,,,null,,,,
6386,,,survey-text,269,929645,0.0-17.0-3.10,43148,List1A,white,man,,,,,"{""Q0"":""fred is talking to kate""}","<img src=""stim_listA/talk1.gif""style=""height:400px;""></stim_listA>",is talking to,
null,"<div style=""font-size:60px;"">+</div>",,html-keyboard-response,270,930147,0.0-17.0-0.11,43148,List1A,white,man,,,,null,,,,
null,"<img src=""stim_listA/shout3.gif""style=""height:400px;""></stim_listA>",,html-keyboard-response,271,932150,0.0-17.0-1.11,43148,List1A,white,man,,,,null,,,,
null,is shouting at,,html-keyboard-response,272,934152,0.0-17.0-2.11,43148,List1A,white,man,,,,null,,,,
6211,,,survey-text,273,940366,0.0-17.0-3.11,43148,List1A,white,man,,,,,"{""Q0"":""luke is shouting at ruth""}","<img src=""stim_listA/shout3.gif""style=""height:400px;""></stim_listA>",is shouting at,
null,"<div style=""font-size:60px;"">+</div>",,html-keyboard-response,274,940867,0.0-17.0-0.12,43148,List1A,white,man,,,,null,,,,
null,"<img src=""stim_listA/argue5.gif""style=""height:400px;""></stim_listA>",,html-keyboard-response,275,942870,0.0-17.0-1.12,43148,List1A,white,man,,,,null,,,,
null,is arguing with,,html-keyboard-response,276,944871,0.0-17.0-2.12,43148,List1A,white,man,,,,null,,,,
8508,,,survey-text,277,953381,0.0-17.0-3.12,43148,List1A,white,man,,,,,"{""Q0"":""mike is arguing with luke""}","<img src=""stim_listA/argue5.gif""style=""height:400px;""></stim_listA>",is arguing with,
null,"<div style=""font-size:60px;"">+</div>",,html-keyboard-response,278,953882,0.0-17.0-0.13,43148,List1A,white,man,,,,null,,,,
null,"<img src=""stim_listA/talk4.gif""style=""height:400px;""></stim_listA>",,html-keyboard-response,279,955885,0.0-17.0-1.13,43148,List1A,white,man,,,,null,,,,
null,are talking to each other,,html-keyboard-response,280,957886,0.0-17.0-2.13,43148,List1A,white,man,,,,null,,,,
7797,,,survey-text,281,965685,0.0-17.0-3.13,43148,List1A,white,man,,,,,"{""Q0"":""ruth and dave are talking to each other""}","<img src=""stim_listA/talk4.gif""style=""height:400px;""></stim_listA>",are talking to each other,
null,"<div style=""font-size:60px;"">+</div>",,html-keyboard-response,282,966186,0.0-17.0-0.14,43148,List1A,white,man,,,,null,,,,
null,"<img src=""stim_listA/flirt8.gif""style=""height:400px;""></stim_listA>",,html-keyboard-response,283,968189,0.0-17.0-1.14,43148,List1A,white,man,,,,null,,,,
null,are flirting with each other,,html-keyboard-response,284,970190,0.0-17.0-2.14,43148,List1A,white,man,,,,null,,,,
8653,,,survey-text,285,978845,0.0-17.0-3.14,43148,List1A,white,man,,,,,"{""Q0"":""ruth and kate are flirting with each other""}","<img src=""stim_listA/flirt8.gif""style=""height:400px;""></stim_listA>",are flirting with each other,
null,"<div style=""font-size:60px;"">+</div>",,html-keyboard-response,286,979346,0.0-17.0-0.15,43148,List1A,white,man,,,,null,,,,
null,"<img src=""stim_listA/play3.gif""style=""height:400px;""></stim_listA>",,html-keyboard-response,287,981349,0.0-17.0-1.15,43148,List1A,white,man,,,,null,,,,
null,is playing with,,html-keyboard-response,288,983350,0.0-17.0-2.15,43148,List1A,white,man,,,,null,,,,
7940,,,survey-text,289,991292,0.0-17.0-3.15,43148,List1A,white,man,,,,,"{""Q0"":""jane is playing with dave""}","<img src=""stim_listA/play3.gif""style=""height:400px;""></stim_listA>",is playing with,
null,"<div style=""font-size:60px;"">+</div>",,html-keyboard-response,290,991794,0.0-17.0-0.16,43148,List1A,white,man,,,,null,,,,
null,"<img src=""stim_listA/marry4.gif""style=""height:400px;""></stim_listA>",,html-keyboard-response,291,993796,0.0-17.0-1.16,43148,List1A,white,man,,,,null,,,,
null,are marrying each other,,html-keyboard-response,292,995797,0.0-17.0-2.16,43148,List1A,white,man,,,,null,,,,
7773,,,survey-text,293,1003572,0.0-17.0-3.16,43148,List1A,white,man,,,,,"{""Q0"":""jane and luke are marrying each other""}","<img src=""stim_listA/marry4.gif""style=""height:400px;""></stim_listA>",are marrying each other,
null,"<div style=""font-size:60px;"">+</div>",,html-keyboard-response,294,1004073,0.0-17.0-0.17,43148,List1A,white,man,,,,null,,,,
null,"<img src=""stim_listA/kiss1.gif""style=""height:400px;""></stim_listA>",,html-keyboard-response,295,1006076,0.0-17.0-1.17,43148,List1A,white,man,,,,null,,,,
null,is kissing,,html-keyboard-response,296,1008078,0.0-17.0-2.17,43148,List1A,white,man,,,,null,,,,
4685,,,survey-text,297,1012764,0.0-17.0-3.17,43148,List1A,white,man,,,,,"{""Q0"":""fred is kissing beth""}","<img src=""stim_listA/kiss1.gif""style=""height:400px;""></stim_listA>",is kissing,
null,"<div style=""font-size:60px;"">+</div>",,html-keyboard-response,298,1013265,0.0-17.0-0.18,43148,List1A,white,man,,,,null,,,,
null,"<img src=""stim_listA/shout7.gif""style=""height:400px;""></stim_listA>",,html-keyboard-response,299,1015268,0.0-17.0-1.18,43148,List1A,white,man,,,,null,,,,
null,is shouting at,,html-keyboard-response,300,1017270,0.0-17.0-2.18,43148,List1A,white,man,,,,null,,,,
5285,,,survey-text,301,1022556,0.0-17.0-3.18,43148,List1A,white,man,,,,,"{""Q0"":""beth is shouting at ruth""}","<img src=""stim_listA/shout7.gif""style=""height:400px;""></stim_listA>",is shouting at,
null,"<div style=""font-size:60px;"">+</div>",,html-keyboard-response,302,1023057,0.0-17.0-0.19,43148,List1A,white,man,,,,null,,,,
null,"<img src=""stim_listA/flirt3.gif""style=""height:400px;""></stim_listA>",,html-keyboard-response,303,1025062,0.0-17.0-1.19,43148,List1A,white,man,,,,null,,,,
null,is flirting with,,html-keyboard-response,304,1027064,0.0-17.0-2.19,43148,List1A,white,man,,,,null,,,,
6267,,,survey-text,305,1033332,0.0-17.0-3.19,43148,List1A,white,man,,,,,"{""Q0"":""luke is flirting with jane""}","<img src=""stim_listA/flirt3.gif""style=""height:400px;""></stim_listA>",is flirting with,
1629,"<img src='img/portrait_matrix_list1.jpg' style='width:900px;height:500px;''></img><p>If you have memorised all the portraits and names and are ready to start, press Continue.</p><p><strong>Please note: Your memory of these faces will be tested 4 times during this experiment.</strong></p>",0,html-button-response,306,1034964,0.0-18.0-0.0,43148,List1A,white,man,,,,,,,,
1350,"<img src=""portrait/WW1.jpg""style=""height:400px;""></img>",1,html-button-response,307,1037317,0.0-18.0-1.0,43148,List1A,white,man,,TRUE,1,,,,,
null,CORRECT,,html-keyboard-response,308,1038819,0.0-18.0-2.0-0.0,43148,List1A,white,man,,,,null,,,,
1479,"<img src=""portrait/BM2.jpg""style=""height:400px;""></img>",5,html-button-response,309,1040300,0.0-18.0-4.0,43148,List1A,white,man,,TRUE,5,,,,,
null,CORRECT,,html-keyboard-response,310,1041804,0.0-18.0-5.0-0.0,43148,List1A,white,man,,,,null,,,,
1558,"<img src=""portrait/BW2.jpg""style=""height:400px;""></img>",2,html-button-response,311,1043364,0.0-18.0-7.0,43148,List1A,white,man,,TRUE,2,,,,,
null,CORRECT,,html-keyboard-response,312,1044866,0.0-18.0-8.0-0.0,43148,List1A,white,man,,,,null,,,,
1599,"<img src=""portrait/WW2.jpg""style=""height:400px;""></img>",3,html-button-response,313,1046468,0.0-18.0-10.0,43148,List1A,white,man,,TRUE,3,,,,,
null,CORRECT,,html-keyboard-response,314,1047970,0.0-18.0-11.0-0.0,43148,List1A,white,man,,,,null,,,,
1415,"<img src=""portrait/BW1.jpg""style=""height:400px;""></img>",0,html-button-response,315,1049388,0.0-18.0-13.0,43148,List1A,white,man,,TRUE,0,,,,,
null,CORRECT,,html-keyboard-response,316,1050889,0.0-18.0-14.0-0.0,43148,List1A,white,man,,,,null,,,,
1455,"<img src=""portrait/WM1.jpg""style=""height:400px;""></img>",6,html-button-response,317,1052348,0.0-18.0-16.0,43148,List1A,white,man,,TRUE,6,,,,,
null,CORRECT,,html-keyboard-response,318,1053850,0.0-18.0-17.0-0.0,43148,List1A,white,man,,,,null,,,,
1373,"<img src=""portrait/BM1.jpg""style=""height:400px;""></img>",4,html-button-response,319,1055227,0.0-18.0-19.0,43148,List1A,white,man,,TRUE,4,,,,,
null,CORRECT,,html-keyboard-response,320,1056729,0.0-18.0-20.0-0.0,43148,List1A,white,man,,,,null,,,,
1208,"<img src=""portrait/WM2.jpg""style=""height:400px;""></img>",7,html-button-response,321,1057940,0.0-18.0-22.0,43148,List1A,white,man,,TRUE,7,,,,,
null,CORRECT,,html-keyboard-response,322,1059443,0.0-18.0-23.0-0.0,43148,List1A,white,man,,,,null,,,,
1215,<p>You got 8 out of 8 right first time. Press Continue.</p>,0,html-button-response,323,1060659,0.0-18.0-25.0,43148,List1A,white,man,,,,,,,,
null,"<div style=""font-size:60px;"">+</div>",,html-keyboard-response,324,1062160,0.0-19.0-0.0,43148,List1A,white,man,,,,null,,,,
null,"<img src=""stim_listA/flirt4.gif""style=""height:400px;""></stim_listA>",,html-keyboard-response,325,1064163,0.0-19.0-1.0,43148,List1A,white,man,,,,null,,,,
null,are flirting with each other,,html-keyboard-response,326,1066164,0.0-19.0-2.0,43148,List1A,white,man,,,,null,,,,
8326,,,survey-text,327,1074491,0.0-19.0-3.0,43148,List1A,white,man,,,,,"{""Q0"":""ruth and dave are flirting with each other""}","<img src=""stim_listA/flirt4.gif""style=""height:400px;""></stim_listA>",are flirting with each other,
null,"<div style=""font-size:60px;"">+</div>",,html-keyboard-response,328,1074992,0.0-19.0-0.1,43148,List1A,white,man,,,,null,,,,
null,"<img src=""stim_listA/talk5.gif""style=""height:400px;""></stim_listA>",,html-keyboard-response,329,1076995,0.0-19.0-1.1,43148,List1A,white,man,,,,null,,,,
null,is talking to,,html-keyboard-response,330,1078996,0.0-19.0-2.1,43148,List1A,white,man,,,,null,,,,
5117,,,survey-text,331,1084115,0.0-19.0-3.1,43148,List1A,white,man,,,,,"{""Q0"":""fred is talking to dave""}","<img src=""stim_listA/talk5.gif""style=""height:400px;""></stim_listA>",is talking to,
null,"<div style=""font-size:60px;"">+</div>",,html-keyboard-response,332,1084616,0.0-19.0-0.2,43148,List1A,white,man,,,,null,,,,
null,"<img src=""stim_listA/flirt1.gif""style=""height:400px;""></stim_listA>",,html-keyboard-response,333,1086621,0.0-19.0-1.2,43148,List1A,white,man,,,,null,,,,
null,is flirting with,,html-keyboard-response,334,1088622,0.0-19.0-2.2,43148,List1A,white,man,,,,null,,,,
5964,,,survey-text,335,1094587,0.0-19.0-3.2,43148,List1A,white,man,,,,,"{""Q0"":""fred is flirting with kate""}","<img src=""stim_listA/flirt1.gif""style=""height:400px;""></stim_listA>",is flirting with,
null,"<div style=""font-size:60px;"">+</div>",,html-keyboard-response,336,1095088,0.0-19.0-0.3,43148,List1A,white,man,,,,null,,,,
null,"<img src=""stim_listA/marry3.gif""style=""height:400px;""></stim_listA>",,html-keyboard-response,337,1097090,0.0-19.0-1.3,43148,List1A,white,man,,,,null,,,,
null,is marrying,,html-keyboard-response,338,1099091,0.0-19.0-2.3,43148,List1A,white,man,,,,null,,,,
5094,,,survey-text,339,1104187,0.0-19.0-3.3,43148,List1A,white,man,,,,,"{""Q0"":""dave is marrying ruth""}","<img src=""stim_listA/marry3.gif""style=""height:400px;""></stim_listA>",is marrying,
null,"<div style=""font-size:60px;"">+</div>",,html-keyboard-response,340,1104690,0.0-19.0-0.4,43148,List1A,white,man,,,,null,,,,
null,"<img src=""stim_listA/kiss5.gif""style=""height:400px;""></stim_listA>",,html-keyboard-response,341,1106692,0.0-19.0-1.4,43148,List1A,white,man,,,,null,,,,
null,is kissing,,html-keyboard-response,342,1108695,0.0-19.0-2.4,43148,List1A,white,man,,,,null,,,,
4946,,,survey-text,343,1113642,0.0-19.0-3.4,43148,List1A,white,man,,,,,"{""Q0"":""fred is kissing luke""}","<img src=""stim_listA/kiss5.gif""style=""height:400px;""></stim_listA>",is kissing,
null,"<div style=""font-size:60px;"">+</div>",,html-keyboard-response,344,1114145,0.0-19.0-0.5,43148,List1A,white,man,,,,null,,,,
null,"<img src=""stim_listA/fight7.gif""style=""height:400px;""></stim_listA>",,html-keyboard-response,345,1116148,0.0-19.0-1.5,43148,List1A,white,man,,,,null,,,,
null,is fighting,,html-keyboard-response,346,1118149,0.0-19.0-2.5,43148,List1A,white,man,,,,null,,,,
5108,,,survey-text,347,1123259,0.0-19.0-3.5,43148,List1A,white,man,,,,,"{""Q0"":""jane is fighting kate""}","<img src=""stim_listA/fight7.gif""style=""height:400px;""></stim_listA>",is fighting,
null,"<div style=""font-size:60px;"">+</div>",,html-keyboard-response,348,1123759,0.0-19.0-0.6,43148,List1A,white,man,,,,null,,,,
null,"<img src=""stim_listA/fight8.gif""style=""height:400px;""></stim_listA>",,html-keyboard-response,349,1125762,0.0-19.0-1.6,43148,List1A,white,man,,,,null,,,,
null,are fighting each other,,html-keyboard-response,350,1127764,0.0-19.0-2.6,43148,List1A,white,man,,,,null,,,,
7276,,,survey-text,351,1135042,0.0-19.0-3.6,43148,List1A,white,man,,,,,"{""Q0"":""ruth and beth are fighting each other""}","<img src=""stim_listA/fight8.gif""style=""height:400px;""></stim_listA>",are fighting each other,
null,"<div style=""font-size:60px;"">+</div>",,html-keyboard-response,352,1135544,0.0-19.0-0.7,43148,List1A,white,man,,,,null,,,,
null,"<img src=""stim_listA/kiss8.gif""style=""height:400px;""></stim_listA>",,html-keyboard-response,353,1137548,0.0-19.0-1.7,43148,List1A,white,man,,,,null,,,,
null,are kissing each other,,html-keyboard-response,354,1139548,0.0-19.0-2.7,43148,List1A,white,man,,,,null,,,,
7388,,,survey-text,355,1146938,0.0-19.0-3.7,43148,List1A,white,man,,,,,"{""Q0"":""jane and kate are kissing each other""}","<img src=""stim_listA/kiss8.gif""style=""height:400px;""></stim_listA>",are kissing each other,
null,"<div style=""font-size:60px;"">+</div>",,html-keyboard-response,356,1147441,0.0-19.0-0.8,43148,List1A,white,man,,,,null,,,,
null,"<img src=""stim_listA/talk2.gif""style=""height:400px;""></stim_listA>",,html-keyboard-response,357,1149445,0.0-19.0-1.8,43148,List1A,white,man,,,,null,,,,
null,are talking to each other,,html-keyboard-response,358,1151447,0.0-19.0-2.8,43148,List1A,white,man,,,,null,,,,
7401,,,survey-text,359,1158850,0.0-19.0-3.8,43148,List1A,white,man,,,,,"{""Q0"":""beth and mike are talking to each other""}","<img src=""stim_listA/talk2.gif""style=""height:400px;""></stim_listA>",are talking to each other,
null,"<div style=""font-size:60px;"">+</div>",,html-keyboard-response,360,1159351,0.0-19.0-0.9,43148,List1A,white,man,,,,null,,,,
null,"<img src=""stim_listA/flirt7.gif""style=""height:400px;""></stim_listA>",,html-keyboard-response,361,1161354,0.0-19.0-1.9,43148,List1A,white,man,,,,null,,,,
null,is flirting with,,html-keyboard-response,362,1163355,0.0-19.0-2.9,43148,List1A,white,man,,,,null,,,,
5517,,,survey-text,363,1168874,0.0-19.0-3.9,43148,List1A,white,man,,,,,"{""Q0"":""beth is flirting with jane""}","<img src=""stim_listA/flirt7.gif""style=""height:400px;""></stim_listA>",is flirting with,
null,"<div style=""font-size:60px;"">+</div>",,html-keyboard-response,364,1169374,0.0-19.0-0.10,43148,List1A,white,man,,,,null,,,,
null,"<img src=""stim_listA/marry6.gif""style=""height:400px;""></stim_listA>",,html-keyboard-response,365,1171381,0.0-19.0-1.10,43148,List1A,white,man,,,,null,,,,
null,are marrying each other,,html-keyboard-response,366,1173383,0.0-19.0-2.10,43148,List1A,white,man,,,,null,,,,
7480,,,survey-text,367,1180864,0.0-19.0-3.10,43148,List1A,white,man,,,,,"{""Q0"":""dave and fred are marrying each other""}","<img src=""stim_listA/marry6.gif""style=""height:400px;""></stim_listA>",are marrying each other,
null,"<div style=""font-size:60px;"">+</div>",,html-keyboard-response,368,1181366,0.0-19.0-0.11,43148,List1A,white,man,,,,null,,,,
null,"<img src=""stim_listA/dance4.gif""style=""height:400px;""></stim_listA>",,html-keyboard-response,369,1183368,0.0-19.0-1.11,43148,List1A,white,man,,,,null,,,,
null,are dancing with each other,,html-keyboard-response,370,1185369,0.0-19.0-2.11,43148,List1A,white,man,,,,null,,,,
8182,,,survey-text,371,1193552,0.0-19.0-3.11,43148,List1A,white,man,,,,,"{""Q0"":""dave and ruth are dancing with each other""}","<img src=""stim_listA/dance4.gif""style=""height:400px;""></stim_listA>",are dancing with each other,
null,"<div style=""font-size:60px;"">+</div>",,html-keyboard-response,372,1194054,0.0-19.0-0.12,43148,List1A,white,man,,,,null,,,,
null,"<img src=""stim_listA/argue7.gif""style=""height:400px;""></stim_listA>",,html-keyboard-response,373,1196058,0.0-19.0-1.12,43148,List1A,white,man,,,,null,,,,
null,is arguing with,,html-keyboard-response,374,1198060,0.0-19.0-2.12,43148,List1A,white,man,,,,null,,,,
5922,,,survey-text,375,1203984,0.0-19.0-3.12,43148,List1A,white,man,,,,,"{""Q0"":""kate is arguing with ruth""}","<img src=""stim_listA/argue7.gif""style=""height:400px;""></stim_listA>",is arguing with,
null,"<div style=""font-size:60px;"">+</div>",,html-keyboard-response,376,1204485,0.0-19.0-0.13,43148,List1A,white,man,,,,null,,,,
null,"<img src=""stim_listA/play2.gif""style=""height:400px;""></stim_listA>",,html-keyboard-response,377,1206488,0.0-19.0-1.13,43148,List1A,white,man,,,,null,,,,
null,are playing with each other,,html-keyboard-response,378,1208489,0.0-19.0-2.13,43148,List1A,white,man,,,,null,,,,
7662,,,survey-text,379,1216152,0.0-19.0-3.13,43148,List1A,white,man,,,,,"{""Q0"":""beth and fred are playing with each other""}","<img src=""stim_listA/play2.gif""style=""height:400px;""></stim_listA>",are playing with each other,
null,"<div style=""font-size:60px;"">+</div>",,html-keyboard-response,380,1216653,0.0-19.0-0.14,43148,List1A,white,man,,,,null,,,,
null,"<img src=""stim_listA/dance6.gif""style=""height:400px;""></stim_listA>",,html-keyboard-response,381,1218657,0.0-19.0-1.14,43148,List1A,white,man,,,,null,,,,
null,are dancing with each other,,html-keyboard-response,382,1220659,0.0-19.0-2.14,43148,List1A,white,man,,,,null,,,,
8538,,,survey-text,383,1229200,0.0-19.0-3.14,43148,List1A,white,man,,,,,"{""Q0"":""mike and luke are dancing with each other""}","<img src=""stim_listA/dance6.gif""style=""height:400px;""></stim_listA>",are dancing with each other,
null,"<div style=""font-size:60px;"">+</div>",,html-keyboard-response,384,1229702,0.0-19.0-0.15,43148,List1A,white,man,,,,null,,,,
null,"<img src=""stim_listA/dance5.gif""style=""height:400px;""></stim_listA>",,html-keyboard-response,385,1231706,0.0-19.0-1.15,43148,List1A,white,man,,,,null,,,,
null,is dancing with,,html-keyboard-response,386,1233706,0.0-19.0-2.15,43148,List1A,white,man,,,,null,,,,
6262,,,survey-text,387,1239968,0.0-19.0-3.15,43148,List1A,white,man,,,,,"{""Q0"":""dave is dancing with fred""}","<img src=""stim_listA/dance5.gif""style=""height:400px;""></stim_listA>",is dancing with,
null,"<div style=""font-size:60px;"">+</div>",,html-keyboard-response,388,1240470,0.0-19.0-0.16,43148,List1A,white,man,,,,null,,,,
null,"<img src=""stim_listA/touch7.gif""style=""height:400px;""></stim_listA>",,html-keyboard-response,389,1242473,0.0-19.0-1.16,43148,List1A,white,man,,,,null,,,,
null,is touching,,html-keyboard-response,390,1244474,0.0-19.0-2.16,43148,List1A,white,man,,,,null,,,,
5117,,,survey-text,391,1249592,0.0-19.0-3.16,43148,List1A,white,man,,,,,"{""Q0"":""kate is touching jane""}","<img src=""stim_listA/touch7.gif""style=""height:400px;""></stim_listA>",is touching,
null,"<div style=""font-size:60px;"">+</div>",,html-keyboard-response,392,1250094,0.0-19.0-0.17,43148,List1A,white,man,,,,null,,,,
null,"<img src=""stim_listA/touch3.gif""style=""height:400px;""></stim_listA>",,html-keyboard-response,393,1252099,0.0-19.0-1.17,43148,List1A,white,man,,,,null,,,,
null,is touching,,html-keyboard-response,394,1254100,0.0-19.0-2.17,43148,List1A,white,man,,,,null,,,,
5154,,,survey-text,395,1259256,0.0-19.0-3.17,43148,List1A,white,man,,,,,"{""Q0"":""dave is touching jane""}","<img src=""stim_listA/touch3.gif""style=""height:400px;""></stim_listA>",is touching,
null,"<div style=""font-size:60px;"">+</div>",,html-keyboard-response,396,1259757,0.0-19.0-0.18,43148,List1A,white,man,,,,null,,,,
null,"<img src=""stim_listA/dance1.gif""style=""height:400px;""></stim_listA>",,html-keyboard-response,397,1261760,0.0-19.0-1.18,43148,List1A,white,man,,,,null,,,,
null,is dancing with,,html-keyboard-response,398,1263762,0.0-19.0-2.18,43148,List1A,white,man,,,,null,,,,
5661,,,survey-text,399,1269424,0.0-19.0-3.18,43148,List1A,white,man,,,,,"{""Q0"":""fred is dancing with kate""}","<img src=""stim_listA/dance1.gif""style=""height:400px;""></stim_listA>",is dancing with,
null,"<div style=""font-size:60px;"">+</div>",,html-keyboard-response,400,1269925,0.0-19.0-0.19,43148,List1A,white,man,,,,null,,,,
null,"<img src=""stim_listA/kiss7.gif""style=""height:400px;""></stim_listA>",,html-keyboard-response,401,1271929,0.0-19.0-1.19,43148,List1A,white,man,,,,null,,,,
null,is kissing,,html-keyboard-response,402,1273930,0.0-19.0-2.19,43148,List1A,white,man,,,,null,,,,
4589,,,survey-text,403,1278520,0.0-19.0-3.19,43148,List1A,white,man,,,,,"{""Q0"":""beth is kissing ruth""}","<img src=""stim_listA/kiss7.gif""style=""height:400px;""></stim_listA>",is kissing,
1519,<p>Thank you for completing that task.</p><p>The final part of this session is a short questionnaire.</p><p>Press Continue.</p>,0,html-button-response,404,1280040,0.0-20.0,43148,List1A,white,man,,,,,,,,
17771,,,survey-text,405,1298815,0.0-21.0,43148,List1A,white,man,,,,,"{""Q0"":""33"",""Q1"":""English"",""Q2"":""English"",""Q3"":""UK"",""Q4"":""White"",""Q5"":""Male""}",,,demographics
6636,,,survey-likert,406,1305456,0.0-22.0,43148,List1A,white,man,,,,,"{""Q0"":4}",,,likert_ESS
7621,,,survey-likert,407,1313080,0.0-23.0,43148,List1A,white,man,,,,,"{""Q0"":4}",,,likert_NSSAL_Q1
3061,,,survey-likert,408,1316144,0.0-24.0,43148,List1A,white,man,,,,,"{""Q0"":4}",,,likert_NSSAL_Q2
5101,,,survey-likert,409,1321248,0.0-25.0,43148,List1A,white,man,,,,,"{""Q0"":4}",,,likert_CGRS_Q1
3565,,,survey-likert,410,1324816,0.0-26.0,43148,List1A,white,man,,,,,"{""Q0"":4}",,,likert_CGRS_Q2
2237,,,survey-likert,411,1327056,0.0-27.0,43148,List1A,white,man,,,,,"{""Q0"":4}",,,likert_CGRS_Q3
10476,,,survey-text,412,1337535,0.0-28.0,43148,List1A,white,man,,,,,"{""Q0"":""ccc""}",,,worker_id
1834,,,external-html,413,1339423,0.0-29.0,43148,List1A,white,man,debrief.html,,,,,,,
