"rt","stimulus","button_pressed","trial_type","trial_index","time_elapsed","internal_node_id","subject","list","ppt_race","ppt_gender","url","first_guess","correct","key_press","responses","image_type","phrase_type","test_part"
"4793","Welcome to the experiment. Press Continue to begin.","0","html-button-response","0","4797","0.0-0.0","43493","List1A","black","woman","","","","","","","",""
"16213","","","external-html","1","22381","0.0-1.0","43493","List1A","black","woman","consent.html","","","","","","",""
"2238","<p>On the next page, you will see portraits of 8 people and their names.</p><p>Your first task is to take a few minutes to memorise the names of these people.</p><p>You will have to recall their names during the rest of the experiment, so it is</p><p>essential that you try to memorise these people and their names as best as you can.</p><br><p><strong>You will then be tested on your memory of these names and portraits.</strong></p><br><p>The experiment will start after you have completed this memory test.</p><br><p>Ready?</p>","0","html-button-response","2","24620","0.0-2.0","43493","List1A","black","woman","","","","","","","",""
"35421","<img src='img/portrait_matrix_list1.jpg' style='width:900px;height:500px;''></img><p>If you have memorised all the portraits and names and are ready to start, press Continue.</p><p><strong>Please note: Your memory of these faces will be tested 4 times during this experiment.</strong></p>","0","html-button-response","3","61044","0.0-3.0-0.0","43493","List1A","black","woman","","","","","","","",""
"3902","<img src=""portrait/BM2.jpg""style=""height:400px;""></img>","5","html-button-response","4","65949","0.0-3.0-1.0","43493","List1A","black","woman","","true","5","","","","",""
"null","CORRECT","","html-keyboard-response","5","67454","0.0-3.0-2.0-0.0","43493","List1A","black","woman","","","","null","","","",""
"56131","<img src=""portrait/WW2.jpg""style=""height:400px;""></img>","2","html-button-response","6","123590","0.0-3.0-4.0","43493","List1A","black","woman","","true","3","","","","",""
"7173","<img src=""portrait/WW2.jpg""style=""height:400px;""></img>","3","html-button-response","7","131769","0.0-3.0-6.0-0.0","43493","List1A","black","woman","","false","3","","","","",""
"null","CORRECT","","html-keyboard-response","8","133290","0.0-3.0-6.0-1.0-0.0","43493","List1A","black","woman","","","","null","","","",""
"8044","<img src=""portrait/BW2.jpg""style=""height:400px;""></img>","2","html-button-response","9","141334","0.0-3.0-7.0","43493","List1A","black","woman","","true","2","","","","",""
"null","CORRECT","","html-keyboard-response","10","142836","0.0-3.0-8.0-0.0","43493","List1A","black","woman","","","","null","","","",""
"9912","<img src=""portrait/WM1.jpg""style=""height:400px;""></img>","6","html-button-response","11","152750","0.0-3.0-10.0","43493","List1A","black","woman","","true","6","","","","",""
"null","CORRECT","","html-keyboard-response","12","154259","0.0-3.0-11.0-0.0","43493","List1A","black","woman","","","","null","","","",""
"2673","<img src=""portrait/BW1.jpg""style=""height:400px;""></img>","0","html-button-response","13","156934","0.0-3.0-13.0","43493","List1A","black","woman","","true","0","","","","",""
"null","CORRECT","","html-keyboard-response","14","158436","0.0-3.0-14.0-0.0","43493","List1A","black","woman","","","","null","","","",""
"2369","<img src=""portrait/BM1.jpg""style=""height:400px;""></img>","4","html-button-response","15","160806","0.0-3.0-16.0","43493","List1A","black","woman","","true","4","","","","",""
"null","CORRECT","","html-keyboard-response","16","162315","0.0-3.0-17.0-0.0","43493","List1A","black","woman","","","","null","","","",""
"2466","<img src=""portrait/WW1.jpg""style=""height:400px;""></img>","1","html-button-response","17","164782","0.0-3.0-19.0","43493","List1A","black","woman","","true","1","","","","",""
"null","CORRECT","","html-keyboard-response","18","166286","0.0-3.0-20.0-0.0","43493","List1A","black","woman","","","","null","","","",""
"36176","<img src=""portrait/WM2.jpg""style=""height:400px;""></img>","7","html-button-response","19","202463","0.0-3.0-22.0","43493","List1A","black","woman","","true","7","","","","",""
"null","CORRECT","","html-keyboard-response","20","203970","0.0-3.0-23.0-0.0","43493","List1A","black","woman","","","","null","","","",""
"3202","<p>You got 7 out of 8 right first time. Press Continue.</p>","0","html-button-response","21","207174","0.0-3.0-25.0","43493","List1A","black","woman","","","","","","","",""
"3870","As you did not score 100%, the memory game will repeat. Press Continue.","0","html-button-response","22","212047","0.0-3.0-26.0-0.0","43493","List1A","black","woman","","","","","","","",""
"28137","<img src='img/portrait_matrix_list1.jpg' style='width:900px;height:500px;''></img><p>If you have memorised all the portraits and names and are ready to start, press Continue.</p><p><strong>Please note: Your memory of these faces will be tested 4 times during this experiment.</strong></p>","0","html-button-response","23","241191","0.0-3.1-0.1","43493","List1A","black","woman","","","","","","","",""
"2965","<img src=""portrait/BM2.jpg""style=""height:400px;""></img>","5","html-button-response","24","245159","0.0-3.1-1.1","43493","List1A","black","woman","","true","5","","","","",""
"null","CORRECT","","html-keyboard-response","25","246674","0.0-3.1-2.1-0.1","43493","List1A","black","woman","","","","null","","","",""
"6947","<img src=""portrait/WW2.jpg""style=""height:400px;""></img>","3","html-button-response","26","253623","0.0-3.1-4.1","43493","List1A","black","woman","","true","3","","","","",""
"null","CORRECT","","html-keyboard-response","27","255133","0.0-3.1-5.1-0.1","43493","List1A","black","woman","","","","null","","","",""
"11148","<img src=""portrait/BW2.jpg""style=""height:400px;""></img>","2","html-button-response","28","266283","0.0-3.1-7.1","43493","List1A","black","woman","","true","2","","","","",""
"null","CORRECT","","html-keyboard-response","29","267784","0.0-3.1-8.1-0.1","43493","List1A","black","woman","","","","null","","","",""
"6801","<img src=""portrait/WM1.jpg""style=""height:400px;""></img>","6","html-button-response","30","274586","0.0-3.1-10.1","43493","List1A","black","woman","","true","6","","","","",""
"null","CORRECT","","html-keyboard-response","31","276095","0.0-3.1-11.1-0.1","43493","List1A","black","woman","","","","null","","","",""
"2522","<img src=""portrait/BW1.jpg""style=""height:400px;""></img>","0","html-button-response","32","278618","0.0-3.1-13.1","43493","List1A","black","woman","","true","0","","","","",""
"null","CORRECT","","html-keyboard-response","33","280143","0.0-3.1-14.1-0.1","43493","List1A","black","woman","","","","null","","","",""
"2114","<img src=""portrait/BM1.jpg""style=""height:400px;""></img>","4","html-button-response","34","282259","0.0-3.1-16.1","43493","List1A","black","woman","","true","4","","","","",""
"null","CORRECT","","html-keyboard-response","35","283773","0.0-3.1-17.1-0.1","43493","List1A","black","woman","","","","null","","","",""
"3853","<img src=""portrait/WW1.jpg""style=""height:400px;""></img>","1","html-button-response","36","287626","0.0-3.1-19.1","43493","List1A","black","woman","","true","1","","","","",""
"null","CORRECT","","html-keyboard-response","37","289132","0.0-3.1-20.1-0.1","43493","List1A","black","woman","","","","null","","","",""
"2020","<img src=""portrait/WM2.jpg""style=""height:400px;""></img>","7","html-button-response","38","291154","0.0-3.1-22.1","43493","List1A","black","woman","","true","7","","","","",""
"null","CORRECT","","html-keyboard-response","39","292663","0.0-3.1-23.1-0.1","43493","List1A","black","woman","","","","null","","","",""
"1978","<p>You got 8 out of 8 right first time. Press Continue.</p>","0","html-button-response","40","294642","0.0-3.1-25.1","43493","List1A","black","woman","","","","","","","",""
"32663","<p>In this experiment, you will view photographs of the people from the memory game interacting.</p><p>By using the <strong>exact</strong> phrase given <i>after</i> the photograph appears and recalling the correct names of the people in the photographs, form a sentence describing the interaction. You do not need to capitalise names.</p><p>Type your answer in the space provided. Please complete every sentence before moving onto the next trial.</p><p>You will only have a few seconds to memorise each given photograph and phrase before you can respond, so try your best to focus.</p><p>An example is given below. Press 'Continue' when you are ready.</p><img src='img/speaking_example.jpg' style='width:800px;height:460px;''></img>","0","html-button-response","41","328308","0.0-4.0","43493","List1A","black","woman","","","","","","","",""
"2815","<p>Before the experiment starts, you will watch two example trials. Press 'Continue'.</p>","0","html-button-response","42","332140","0.0-5.0","43493","List1A","black","woman","","","","","","","",""
"null","<img src='img/meet_eg.gif' style='height:400px;''></img>","","html-keyboard-response","43","335143","0.0-6.0","43493","List1A","black","woman","","","","null","","","",""
"null","<p>is meeting</p>","","html-keyboard-response","44","337147","0.0-7.0","43493","List1A","black","woman","","","","null","","","",""
"7407","<p><b>Answer:</b> kate is meeting beth</p>","0","html-button-response","45","344556","0.0-8.0","43493","List1A","black","woman","","","","","","","",""
"null","<img src='img/look_eg.gif' style='height:400px;''></img>","","html-keyboard-response","46","347564","0.0-9.0","43493","List1A","black","woman","","","","null","","","",""
"null","<p>are looking at each other</p>","","html-keyboard-response","47","349571","0.0-10.0","43493","List1A","black","woman","","","","null","","","",""
"4928","<p><b>Answer:</b> luke and dave are looking at each other</p>","0","html-button-response","48","354499","0.0-11.0","43493","List1A","black","woman","","","","","","","",""
"11371","<p>Ready to start the experiment?</p><br><p><strong>Remember to describe the picture using a full sentence,</strong></p><p><strong>that combines the names of the people with the <i>exact</i> phrase given.</strong></p><p><strong>To receive full payment you must do this correctly.</strong></p><p><strong> You do not need to capitalise names or use punctuation.</strong></p><br><p>Press 'Continue' to begin.</p>","0","html-button-response","49","366876","0.0-12.0","43493","List1A","black","woman","","","","","","","",""
"null","<div style=""font-size:60px;"">+</div>","","html-keyboard-response","50","368405","0.0-13.0-0.0","43493","List1A","black","woman","","","","null","","","",""
"null","<img src=""stim_listA/argue1.gif""style=""height:400px;""></stim_listA>","","html-keyboard-response","51","370407","0.0-13.0-1.0","43493","List1A","black","woman","","","","null","","","",""
"null","is arguing with","","html-keyboard-response","52","372413","0.0-13.0-2.0","43493","List1A","black","woman","","","","null","","","",""
"16559","","","survey-text","53","388975","0.0-13.0-3.0","43493","List1A","black","woman","","","","","{""Q0"":""Mike is arguing with Beth""}","<img src=""stim_listA/argue1.gif""style=""height:400px;""></stim_listA>","is arguing with",""
"null","<div style=""font-size:60px;"">+</div>","","html-keyboard-response","54","389477","0.0-13.0-0.1","43493","List1A","black","woman","","","","null","","","",""
"null","<img src=""stim_listA/talk3.gif""style=""height:400px;""></stim_listA>","","html-keyboard-response","55","391479","0.0-13.0-1.1","43493","List1A","black","woman","","","","null","","","",""
"null","is talking to","","html-keyboard-response","56","393481","0.0-13.0-2.1","43493","List1A","black","woman","","","","null","","","",""
"41245","","","survey-text","57","434727","0.0-13.0-3.1","43493","List1A","black","woman","","","","","{""Q0"":""Kate is talking to Luke""}","<img src=""stim_listA/talk3.gif""style=""height:400px;""></stim_listA>","is talking to",""
"null","<div style=""font-size:60px;"">+</div>","","html-keyboard-response","58","435228","0.0-13.0-0.2","43493","List1A","black","woman","","","","null","","","",""
"null","<img src=""stim_listA/play4.gif""style=""height:400px;""></stim_listA>","","html-keyboard-response","59","437235","0.0-13.0-1.2","43493","List1A","black","woman","","","","null","","","",""
"null","are playing with each other","","html-keyboard-response","60","439236","0.0-13.0-2.2","43493","List1A","black","woman","","","","null","","","",""
"17538","","","survey-text","61","456776","0.0-13.0-3.2","43493","List1A","black","woman","","","","","{""Q0"":""Ruth and Luke are playing with each other.""}","<img src=""stim_listA/play4.gif""style=""height:400px;""></stim_listA>","are playing with each other",""
"null","<div style=""font-size:60px;"">+</div>","","html-keyboard-response","62","457277","0.0-13.0-0.3","43493","List1A","black","woman","","","","null","","","",""
"null","<img src=""stim_listA/touch1.gif""style=""height:400px;""></stim_listA>","","html-keyboard-response","63","459279","0.0-13.0-1.3","43493","List1A","black","woman","","","","null","","","",""
"null","is touching","","html-keyboard-response","64","461281","0.0-13.0-2.3","43493","List1A","black","woman","","","","null","","","",""
"27326","","","survey-text","65","488607","0.0-13.0-3.3","43493","List1A","black","woman","","","","","{""Q0"":""Mike is touching Jane.""}","<img src=""stim_listA/touch1.gif""style=""height:400px;""></stim_listA>","is touching",""
"null","<div style=""font-size:60px;"">+</div>","","html-keyboard-response","66","489110","0.0-13.0-0.4","43493","List1A","black","woman","","","","null","","","",""
"null","<img src=""stim_listA/play5.gif""style=""height:400px;""></stim_listA>","","html-keyboard-response","67","491112","0.0-13.0-1.4","43493","List1A","black","woman","","","","null","","","",""
"null","is playing with","","html-keyboard-response","68","493114","0.0-13.0-2.4","43493","List1A","black","woman","","","","null","","","",""
"13139","","","survey-text","69","506255","0.0-13.0-3.4","43493","List1A","black","woman","","","","","{""Q0"":""Mike is playing with Dave.""}","<img src=""stim_listA/play5.gif""style=""height:400px;""></stim_listA>","is playing with",""
"null","<div style=""font-size:60px;"">+</div>","","html-keyboard-response","70","506755","0.0-13.0-0.5","43493","List1A","black","woman","","","","null","","","",""
"null","<img src=""stim_listA/shout5.gif""style=""height:400px;""></stim_listA>","","html-keyboard-response","71","508757","0.0-13.0-1.5","43493","List1A","black","woman","","","","null","","","",""
"null","is shouting at","","html-keyboard-response","72","510759","0.0-13.0-2.5","43493","List1A","black","woman","","","","null","","","",""
"38600","","","survey-text","73","549360","0.0-13.0-3.5","43493","List1A","black","woman","","","","","{""Q0"":""Dave is shouting at Luke""}","<img src=""stim_listA/shout5.gif""style=""height:400px;""></stim_listA>","is shouting at",""
"null","<div style=""font-size:60px;"">+</div>","","html-keyboard-response","74","549861","0.0-13.0-0.6","43493","List1A","black","woman","","","","null","","","",""
"null","<img src=""stim_listA/kiss1.gif""style=""height:400px;""></stim_listA>","","html-keyboard-response","75","551864","0.0-13.0-1.6","43493","List1A","black","woman","","","","null","","","",""
"null","is kissing","","html-keyboard-response","76","553866","0.0-13.0-2.6","43493","List1A","black","woman","","","","null","","","",""
"22976","","","survey-text","77","576844","0.0-13.0-3.6","43493","List1A","black","woman","","","","","{""Q0"":""Beth is kissing Fred.""}","<img src=""stim_listA/kiss1.gif""style=""height:400px;""></stim_listA>","is kissing",""
"null","<div style=""font-size:60px;"">+</div>","","html-keyboard-response","78","577345","0.0-13.0-0.7","43493","List1A","black","woman","","","","null","","","",""
"null","<img src=""stim_listA/shout3.gif""style=""height:400px;""></stim_listA>","","html-keyboard-response","79","579347","0.0-13.0-1.7","43493","List1A","black","woman","","","","null","","","",""
"null","is shouting at","","html-keyboard-response","80","581349","0.0-13.0-2.7","43493","List1A","black","woman","","","","null","","","",""
"102435","","","survey-text","81","683784","0.0-13.0-3.7","43493","List1A","black","woman","","","","","{""Q0"":""Ruth is shouting at Luke""}","<img src=""stim_listA/shout3.gif""style=""height:400px;""></stim_listA>","is shouting at",""
"null","<div style=""font-size:60px;"">+</div>","","html-keyboard-response","82","684286","0.0-13.0-0.8","43493","List1A","black","woman","","","","null","","","",""
"null","<img src=""stim_listA/dance6.gif""style=""height:400px;""></stim_listA>","","html-keyboard-response","83","686287","0.0-13.0-1.8","43493","List1A","black","woman","","","","null","","","",""
"null","are dancing with each other","","html-keyboard-response","84","688294","0.0-13.0-2.8","43493","List1A","black","woman","","","","null","","","",""
"80068","","","survey-text","85","768362","0.0-13.0-3.8","43493","List1A","black","woman","","","","","{""Q0"":""Mike and Luke are dancing with each other""}","<img src=""stim_listA/dance6.gif""style=""height:400px;""></stim_listA>","are dancing with each other",""
"null","<div style=""font-size:60px;"">+</div>","","html-keyboard-response","86","768863","0.0-13.0-0.9","43493","List1A","black","woman","","","","null","","","",""
"null","<img src=""stim_listA/fight6.gif""style=""height:400px;""></stim_listA>","","html-keyboard-response","87","770866","0.0-13.0-1.9","43493","List1A","black","woman","","","","null","","","",""
"null","are fighting each other","","html-keyboard-response","88","772868","0.0-13.0-2.9","43493","List1A","black","woman","","","","null","","","",""
"36687","","","survey-text","89","809555","0.0-13.0-3.9","43493","List1A","black","woman","","","","","{""Q0"":""Luke and Fred are fighting each other""}","<img src=""stim_listA/fight6.gif""style=""height:400px;""></stim_listA>","are fighting each other",""
"null","<div style=""font-size:60px;"">+</div>","","html-keyboard-response","90","810057","0.0-13.0-0.10","43493","List1A","black","woman","","","","null","","","",""
"null","<img src=""stim_listA/kiss3.gif""style=""height:400px;""></stim_listA>","","html-keyboard-response","91","812061","0.0-13.0-1.10","43493","List1A","black","woman","","","","null","","","",""
"null","is kissing","","html-keyboard-response","92","814063","0.0-13.0-2.10","43493","List1A","black","woman","","","","null","","","",""
"52059","","","survey-text","93","866123","0.0-13.0-3.10","43493","List1A","black","woman","","","","","{""Q0"":""Ruth is kissing Luke""}","<img src=""stim_listA/kiss3.gif""style=""height:400px;""></stim_listA>","is kissing",""
"null","<div style=""font-size:60px;"">+</div>","","html-keyboard-response","94","866625","0.0-13.0-0.11","43493","List1A","black","woman","","","","null","","","",""
"null","<img src=""stim_listA/marry3.gif""style=""height:400px;""></stim_listA>","","html-keyboard-response","95","868627","0.0-13.0-1.11","43493","List1A","black","woman","","","","null","","","",""
"null","is marrying","","html-keyboard-response","96","870629","0.0-13.0-2.11","43493","List1A","black","woman","","","","null","","","",""
"15198","","","survey-text","97","885828","0.0-13.0-3.11","43493","List1A","black","woman","","","","","{""Q0"":""Dave is marrying Ruth""}","<img src=""stim_listA/marry3.gif""style=""height:400px;""></stim_listA>","is marrying",""
"null","<div style=""font-size:60px;"">+</div>","","html-keyboard-response","98","886330","0.0-13.0-0.12","43493","List1A","black","woman","","","","null","","","",""
"null","<img src=""stim_listA/touch8.gif""style=""height:400px;""></stim_listA>","","html-keyboard-response","99","888332","0.0-13.0-1.12","43493","List1A","black","woman","","","","null","","","",""
"null","are touching each other","","html-keyboard-response","100","890334","0.0-13.0-2.12","43493","List1A","black","woman","","","","null","","","",""
"27781","","","survey-text","101","918116","0.0-13.0-3.12","43493","List1A","black","woman","","","","","{""Q0"":""Beth and Ruth are touching each other""}","<img src=""stim_listA/touch8.gif""style=""height:400px;""></stim_listA>","are touching each other",""
"null","<div style=""font-size:60px;"">+</div>","","html-keyboard-response","102","918619","0.0-13.0-0.13","43493","List1A","black","woman","","","","null","","","",""
"null","<img src=""stim_listA/fight1.gif""style=""height:400px;""></stim_listA>","","html-keyboard-response","103","920622","0.0-13.0-1.13","43493","List1A","black","woman","","","","null","","","",""
"null","is fighting","","html-keyboard-response","104","922623","0.0-13.0-2.13","43493","List1A","black","woman","","","","null","","","",""
"65413","","","survey-text","105","988037","0.0-13.0-3.13","43493","List1A","black","woman","","","","","{""Q0"":""Mike is fighting Kate""}","<img src=""stim_listA/fight1.gif""style=""height:400px;""></stim_listA>","is fighting",""
"null","<div style=""font-size:60px;"">+</div>","","html-keyboard-response","106","988538","0.0-13.0-0.14","43493","List1A","black","woman","","","","null","","","",""
"null","<img src=""stim_listA/fight7.gif""style=""height:400px;""></stim_listA>","","html-keyboard-response","107","990541","0.0-13.0-1.14","43493","List1A","black","woman","","","","null","","","",""
"null","is fighting","","html-keyboard-response","108","992544","0.0-13.0-2.14","43493","List1A","black","woman","","","","null","","","",""
"63222","","","survey-text","109","1055766","0.0-13.0-3.14","43493","List1A","black","woman","","","","","{""Q0"":""Kate is fighting Jane""}","<img src=""stim_listA/fight7.gif""style=""height:400px;""></stim_listA>","is fighting",""
"null","<div style=""font-size:60px;"">+</div>","","html-keyboard-response","110","1056273","0.0-13.0-0.15","43493","List1A","black","woman","","","","null","","","",""
"null","<img src=""stim_listA/argue8.gif""style=""height:400px;""></stim_listA>","","html-keyboard-response","111","1058275","0.0-13.0-1.15","43493","List1A","black","woman","","","","null","","","",""
"null","are arguing with each other","","html-keyboard-response","112","1060287","0.0-13.0-2.15","43493","List1A","black","woman","","","","null","","","",""
"51766","","","survey-text","113","1112054","0.0-13.0-3.15","43493","List1A","black","woman","","","","","{""Q0"":""Beth and Jane are arguing with each other""}","<img src=""stim_listA/argue8.gif""style=""height:400px;""></stim_listA>","are arguing with each other",""
"null","<div style=""font-size:60px;"">+</div>","","html-keyboard-response","114","1112560","0.0-13.0-0.16","43493","List1A","black","woman","","","","null","","","",""
"null","<img src=""stim_listA/flirt2.gif""style=""height:400px;""></stim_listA>","","html-keyboard-response","115","1114563","0.0-13.0-1.16","43493","List1A","black","woman","","","","null","","","",""
"null","are flirting with each other","","html-keyboard-response","116","1116565","0.0-13.0-2.16","43493","List1A","black","woman","","","","null","","","",""
"13537","","","survey-text","117","1130102","0.0-13.0-3.16","43493","List1A","black","woman","","","","","{""Q0"":""Mike and Beth are flirting with each other""}","<img src=""stim_listA/flirt2.gif""style=""height:400px;""></stim_listA>","are flirting with each other",""
"null","<div style=""font-size:60px;"">+</div>","","html-keyboard-response","118","1130603","0.0-13.0-0.17","43493","List1A","black","woman","","","","null","","","",""
"null","<img src=""stim_listA/play2.gif""style=""height:400px;""></stim_listA>","","html-keyboard-response","119","1132607","0.0-13.0-1.17","43493","List1A","black","woman","","","","null","","","",""
"null","are playing with each other","","html-keyboard-response","120","1134609","0.0-13.0-2.17","43493","List1A","black","woman","","","","null","","","",""
"13029","","","survey-text","121","1147639","0.0-13.0-3.17","43493","List1A","black","woman","","","","","{""Q0"":""Fred and Beth are playing with each other""}","<img src=""stim_listA/play2.gif""style=""height:400px;""></stim_listA>","are playing with each other",""
"null","<div style=""font-size:60px;"">+</div>","","html-keyboard-response","122","1148140","0.0-13.0-0.18","43493","List1A","black","woman","","","","null","","","",""
"null","<img src=""stim_listA/play8.gif""style=""height:400px;""></stim_listA>","","html-keyboard-response","123","1150143","0.0-13.0-1.18","43493","List1A","black","woman","","","","null","","","",""
"null","are playing with each other","","html-keyboard-response","124","1152144","0.0-13.0-2.18","43493","List1A","black","woman","","","","null","","","",""
"11405","","","survey-text","125","1163550","0.0-13.0-3.18","43493","List1A","black","woman","","","","","{""Q0"":""Beth and Ruth are playing with each other""}","<img src=""stim_listA/play8.gif""style=""height:400px;""></stim_listA>","are playing with each other",""
"null","<div style=""font-size:60px;"">+</div>","","html-keyboard-response","126","1164052","0.0-13.0-0.19","43493","List1A","black","woman","","","","null","","","",""
"null","<img src=""stim_listA/marry8.gif""style=""height:400px;""></stim_listA>","","html-keyboard-response","127","1166054","0.0-13.0-1.19","43493","List1A","black","woman","","","","null","","","",""
"null","are marrying each other","","html-keyboard-response","128","1168063","0.0-13.0-2.19","43493","List1A","black","woman","","","","null","","","",""
"11941","","","survey-text","129","1180005","0.0-13.0-3.19","43493","List1A","black","woman","","","","","{""Q0"":""Beth and Jane are marrying each other""}","<img src=""stim_listA/marry8.gif""style=""height:400px;""></stim_listA>","are marrying each other",""
"102785","<img src='img/portrait_matrix_list1.jpg' style='width:900px;height:500px;''></img><p>If you have memorised all the portraits and names and are ready to start, press Continue.</p><p><strong>Please note: Your memory of these faces will be tested 4 times during this experiment.</strong></p>","0","html-button-response","130","1282792","0.0-14.0-0.0","43493","List1A","black","woman","","","","","","","",""
"20787","<img src=""portrait/WW2.jpg""style=""height:400px;""></img>","3","html-button-response","131","1304585","0.0-14.0-1.0","43493","List1A","black","woman","","true","3","","","","",""
"null","CORRECT","","html-keyboard-response","132","1306092","0.0-14.0-2.0-0.0","43493","List1A","black","woman","","","","null","","","",""
"7539","<img src=""portrait/BM1.jpg""style=""height:400px;""></img>","4","html-button-response","133","1313633","0.0-14.0-4.0","43493","List1A","black","woman","","true","4","","","","",""
"null","CORRECT","","html-keyboard-response","134","1315137","0.0-14.0-5.0-0.0","43493","List1A","black","woman","","","","null","","","",""
"6341","<img src=""portrait/BW2.jpg""style=""height:400px;""></img>","2","html-button-response","135","1321480","0.0-14.0-7.0","43493","List1A","black","woman","","true","2","","","","",""
"null","CORRECT","","html-keyboard-response","136","1322994","0.0-14.0-8.0-0.0","43493","List1A","black","woman","","","","null","","","",""
"2565","<img src=""portrait/WM1.jpg""style=""height:400px;""></img>","6","html-button-response","137","1325561","0.0-14.0-10.0","43493","List1A","black","woman","","true","6","","","","",""
"null","CORRECT","","html-keyboard-response","138","1327070","0.0-14.0-11.0-0.0","43493","List1A","black","woman","","","","null","","","",""
"1514","<img src=""portrait/WM2.jpg""style=""height:400px;""></img>","7","html-button-response","139","1328585","0.0-14.0-13.0","43493","List1A","black","woman","","true","7","","","","",""
"null","CORRECT","","html-keyboard-response","140","1330096","0.0-14.0-14.0-0.0","43493","List1A","black","woman","","","","null","","","",""
"1696","<img src=""portrait/BW1.jpg""style=""height:400px;""></img>","0","html-button-response","141","1331793","0.0-14.0-16.0","43493","List1A","black","woman","","true","0","","","","",""
"null","CORRECT","","html-keyboard-response","142","1333302","0.0-14.0-17.0-0.0","43493","List1A","black","woman","","","","null","","","",""
"4697","<img src=""portrait/BM2.jpg""style=""height:400px;""></img>","5","html-button-response","143","1338001","0.0-14.0-19.0","43493","List1A","black","woman","","true","5","","","","",""
"null","CORRECT","","html-keyboard-response","144","1339510","0.0-14.0-20.0-0.0","43493","List1A","black","woman","","","","null","","","",""
"1737","<img src=""portrait/WW1.jpg""style=""height:400px;""></img>","1","html-button-response","145","1341248","0.0-14.0-22.0","43493","List1A","black","woman","","true","1","","","","",""
"null","CORRECT","","html-keyboard-response","146","1342752","0.0-14.0-23.0-0.0","43493","List1A","black","woman","","","","null","","","",""
"2103","<p>You got 8 out of 8 right first time. Press Continue.</p>","0","html-button-response","147","1344857","0.0-14.0-25.0","43493","List1A","black","woman","","","","","","","",""
"null","<div style=""font-size:60px;"">+</div>","","html-keyboard-response","148","1346360","0.0-15.0-0.0","43493","List1A","black","woman","","","","null","","","",""
"null","<img src=""stim_listA/play3.gif""style=""height:400px;""></stim_listA>","","html-keyboard-response","149","1348363","0.0-15.0-1.0","43493","List1A","black","woman","","","","null","","","",""
"null","is playing with","","html-keyboard-response","150","1350365","0.0-15.0-2.0","43493","List1A","black","woman","","","","null","","","",""
"14786","","","survey-text","151","1365153","0.0-15.0-3.0","43493","List1A","black","woman","","","","","{""Q0"":""Dave is playing with Jane""}","<img src=""stim_listA/play3.gif""style=""height:400px;""></stim_listA>","is playing with",""
"null","<div style=""font-size:60px;"">+</div>","","html-keyboard-response","152","1365660","0.0-15.0-0.1","43493","List1A","black","woman","","","","null","","","",""
"null","<img src=""stim_listA/flirt4.gif""style=""height:400px;""></stim_listA>","","html-keyboard-response","153","1367663","0.0-15.0-1.1","43493","List1A","black","woman","","","","null","","","",""
"null","are flirting with each other","","html-keyboard-response","154","1369665","0.0-15.0-2.1","43493","List1A","black","woman","","","","null","","","",""
"11791","","","survey-text","155","1381457","0.0-15.0-3.1","43493","List1A","black","woman","","","","","{""Q0"":""Ruth and Dave are flirting with each other""}","<img src=""stim_listA/flirt4.gif""style=""height:400px;""></stim_listA>","are flirting with each other",""
"null","<div style=""font-size:60px;"">+</div>","","html-keyboard-response","156","1381958","0.0-15.0-0.2","43493","List1A","black","woman","","","","null","","","",""
"null","<img src=""stim_listA/shout2.gif""style=""height:400px;""></stim_listA>","","html-keyboard-response","157","1383961","0.0-15.0-1.2","43493","List1A","black","woman","","","","null","","","",""
"null","are shouting at each other","","html-keyboard-response","158","1385963","0.0-15.0-2.2","43493","List1A","black","woman","","","","null","","","",""
"16645","","","survey-text","159","1402609","0.0-15.0-3.2","43493","List1A","black","woman","","","","","{""Q0"":""Kate and Mike are shouting at each other""}","<img src=""stim_listA/shout2.gif""style=""height:400px;""></stim_listA>","are shouting at each other",""
"null","<div style=""font-size:60px;"">+</div>","","html-keyboard-response","160","1403111","0.0-15.0-0.3","43493","List1A","black","woman","","","","null","","","",""
"null","<img src=""stim_listA/touch6.gif""style=""height:400px;""></stim_listA>","","html-keyboard-response","161","1405114","0.0-15.0-1.3","43493","List1A","black","woman","","","","null","","","",""
"null","are touching each other","","html-keyboard-response","162","1407115","0.0-15.0-2.3","43493","List1A","black","woman","","","","null","","","",""
"12349","","","survey-text","163","1419466","0.0-15.0-3.3","43493","List1A","black","woman","","","","","{""Q0"":""Fred and Luke are touching each other""}","<img src=""stim_listA/touch6.gif""style=""height:400px;""></stim_listA>","are touching each other",""
"null","<div style=""font-size:60px;"">+</div>","","html-keyboard-response","164","1419967","0.0-15.0-0.4","43493","List1A","black","woman","","","","null","","","",""
"null","<img src=""stim_listA/kiss7.gif""style=""height:400px;""></stim_listA>","","html-keyboard-response","165","1421969","0.0-15.0-1.4","43493","List1A","black","woman","","","","null","","","",""
"null","is kissing","","html-keyboard-response","166","1423971","0.0-15.0-2.4","43493","List1A","black","woman","","","","null","","","",""
"7477","","","survey-text","167","1431450","0.0-15.0-3.4","43493","List1A","black","woman","","","","","{""Q0"":""Ruth is kissing Beth""}","<img src=""stim_listA/kiss7.gif""style=""height:400px;""></stim_listA>","is kissing",""
"null","<div style=""font-size:60px;"">+</div>","","html-keyboard-response","168","1431962","0.0-15.0-0.5","43493","List1A","black","woman","","","","null","","","",""
"null","<img src=""stim_listA/flirt5.gif""style=""height:400px;""></stim_listA>","","html-keyboard-response","169","1433964","0.0-15.0-1.5","43493","List1A","black","woman","","","","null","","","",""
"null","is flirting with","","html-keyboard-response","170","1435967","0.0-15.0-2.5","43493","List1A","black","woman","","","","null","","","",""
"9761","","","survey-text","171","1445729","0.0-15.0-3.5","43493","List1A","black","woman","","","","","{""Q0"":""Dave is flirting with Fred""}","<img src=""stim_listA/flirt5.gif""style=""height:400px;""></stim_listA>","is flirting with",""
"null","<div style=""font-size:60px;"">+</div>","","html-keyboard-response","172","1446231","0.0-15.0-0.6","43493","List1A","black","woman","","","","null","","","",""
"null","<img src=""stim_listA/talk4.gif""style=""height:400px;""></stim_listA>","","html-keyboard-response","173","1448234","0.0-15.0-1.6","43493","List1A","black","woman","","","","null","","","",""
"null","are talking to each other","","html-keyboard-response","174","1450235","0.0-15.0-2.6","43493","List1A","black","woman","","","","null","","","",""
"9414","","","survey-text","175","1459650","0.0-15.0-3.6","43493","List1A","black","woman","","","","","{""Q0"":""Ruth and Dave are talking to each other""}","<img src=""stim_listA/talk4.gif""style=""height:400px;""></stim_listA>","are talking to each other",""
"null","<div style=""font-size:60px;"">+</div>","","html-keyboard-response","176","1460152","0.0-15.0-0.7","43493","List1A","black","woman","","","","null","","","",""
"null","<img src=""stim_listA/argue7.gif""style=""height:400px;""></stim_listA>","","html-keyboard-response","177","1462154","0.0-15.0-1.7","43493","List1A","black","woman","","","","null","","","",""
"null","is arguing with","","html-keyboard-response","178","1464157","0.0-15.0-2.7","43493","List1A","black","woman","","","","null","","","",""
"29173","","","survey-text","179","1493330","0.0-15.0-3.7","43493","List1A","black","woman","","","","","{""Q0"":""Ruth is arguing with Kate""}","<img src=""stim_listA/argue7.gif""style=""height:400px;""></stim_listA>","is arguing with",""
"null","<div style=""font-size:60px;"">+</div>","","html-keyboard-response","180","1493842","0.0-15.0-0.8","43493","List1A","black","woman","","","","null","","","",""
"null","<img src=""stim_listA/play6.gif""style=""height:400px;""></stim_listA>","","html-keyboard-response","181","1495845","0.0-15.0-1.8","43493","List1A","black","woman","","","","null","","","",""
"null","are playing with each other","","html-keyboard-response","182","1497846","0.0-15.0-2.8","43493","List1A","black","woman","","","","null","","","",""
"27530","","","survey-text","183","1525377","0.0-15.0-3.8","43493","List1A","black","woman","","","","","{""Q0"":""Luke and Fred are playing with each other""}","<img src=""stim_listA/play6.gif""style=""height:400px;""></stim_listA>","are playing with each other",""
"null","<div style=""font-size:60px;"">+</div>","","html-keyboard-response","184","1525885","0.0-15.0-0.9","43493","List1A","black","woman","","","","null","","","",""
"null","<img src=""stim_listA/shout8.gif""style=""height:400px;""></stim_listA>","","html-keyboard-response","185","1527887","0.0-15.0-1.9","43493","List1A","black","woman","","","","null","","","",""
"null","are shouting at each other","","html-keyboard-response","186","1529889","0.0-15.0-2.9","43493","List1A","black","woman","","","","null","","","",""
"15078","","","survey-text","187","1544969","0.0-15.0-3.9","43493","List1A","black","woman","","","","","{""Q0"":""Jane and Kate are shouting at each other""}","<img src=""stim_listA/shout8.gif""style=""height:400px;""></stim_listA>","are shouting at each other",""
"null","<div style=""font-size:60px;"">+</div>","","html-keyboard-response","188","1545475","0.0-15.0-0.10","43493","List1A","black","woman","","","","null","","","",""
"null","<img src=""stim_listA/fight2.gif""style=""height:400px;""></stim_listA>","","html-keyboard-response","189","1547477","0.0-15.0-1.10","43493","List1A","black","woman","","","","null","","","",""
"null","are fighting each other","","html-keyboard-response","190","1549481","0.0-15.0-2.10","43493","List1A","black","woman","","","","null","","","",""
"35488","","","survey-text","191","1584970","0.0-15.0-3.10","43493","List1A","black","woman","","","","","{""Q0"":""Fred and Beth are fighting each other""}","<img src=""stim_listA/fight2.gif""style=""height:400px;""></stim_listA>","are fighting each other",""
"null","<div style=""font-size:60px;"">+</div>","","html-keyboard-response","192","1585472","0.0-15.0-0.11","43493","List1A","black","woman","","","","null","","","",""
"null","<img src=""stim_listA/touch5.gif""style=""height:400px;""></stim_listA>","","html-keyboard-response","193","1587475","0.0-15.0-1.11","43493","List1A","black","woman","","","","null","","","",""
"null","is touching","","html-keyboard-response","194","1589477","0.0-15.0-2.11","43493","List1A","black","woman","","","","null","","","",""
"7341","","","survey-text","195","1596820","0.0-15.0-3.11","43493","List1A","black","woman","","","","","{""Q0"":""Dave is touching Mike""}","<img src=""stim_listA/touch5.gif""style=""height:400px;""></stim_listA>","is touching",""
"null","<div style=""font-size:60px;"">+</div>","","html-keyboard-response","196","1597326","0.0-15.0-0.12","43493","List1A","black","woman","","","","null","","","",""
"null","<img src=""stim_listA/dance5.gif""style=""height:400px;""></stim_listA>","","html-keyboard-response","197","1599329","0.0-15.0-1.12","43493","List1A","black","woman","","","","null","","","",""
"null","is dancing with","","html-keyboard-response","198","1601332","0.0-15.0-2.12","43493","List1A","black","woman","","","","null","","","",""
"8270","","","survey-text","199","1609603","0.0-15.0-3.12","43493","List1A","black","woman","","","","","{""Q0"":""Dave is dancing with Fred""}","<img src=""stim_listA/dance5.gif""style=""height:400px;""></stim_listA>","is dancing with",""
"null","<div style=""font-size:60px;"">+</div>","","html-keyboard-response","200","1610115","0.0-15.0-0.13","43493","List1A","black","woman","","","","null","","","",""
"null","<img src=""stim_listA/talk7.gif""style=""height:400px;""></stim_listA>","","html-keyboard-response","201","1612118","0.0-15.0-1.13","43493","List1A","black","woman","","","","null","","","",""
"null","is talking to","","html-keyboard-response","202","1614120","0.0-15.0-2.13","43493","List1A","black","woman","","","","null","","","",""
"10306","","","survey-text","203","1624427","0.0-15.0-3.13","43493","List1A","black","woman","","","","","{""Q0"":""Kate is talking to Jane""}","<img src=""stim_listA/talk7.gif""style=""height:400px;""></stim_listA>","is talking to",""
"null","<div style=""font-size:60px;"">+</div>","","html-keyboard-response","204","1624929","0.0-15.0-0.14","43493","List1A","black","woman","","","","null","","","",""
"null","<img src=""stim_listA/marry1.gif""style=""height:400px;""></stim_listA>","","html-keyboard-response","205","1626932","0.0-15.0-1.14","43493","List1A","black","woman","","","","null","","","",""
"null","is marrying","","html-keyboard-response","206","1628933","0.0-15.0-2.14","43493","List1A","black","woman","","","","null","","","",""
"30805","","","survey-text","207","1659740","0.0-15.0-3.14","43493","List1A","black","woman","","","","","{""Q0"":""Mike is marrying Beth""}","<img src=""stim_listA/marry1.gif""style=""height:400px;""></stim_listA>","is marrying",""
"null","<div style=""font-size:60px;"">+</div>","","html-keyboard-response","208","1660254","0.0-15.0-0.15","43493","List1A","black","woman","","","","null","","","",""
"null","<img src=""stim_listA/fight5.gif""style=""height:400px;""></stim_listA>","","html-keyboard-response","209","1662256","0.0-15.0-1.15","43493","List1A","black","woman","","","","null","","","",""
"null","is fighting","","html-keyboard-response","210","1664258","0.0-15.0-2.15","43493","List1A","black","woman","","","","null","","","",""
"8753","","","survey-text","211","1673012","0.0-15.0-3.15","43493","List1A","black","woman","","","","","{""Q0"":""Dave is fighting Mike""}","<img src=""stim_listA/fight5.gif""style=""height:400px;""></stim_listA>","is fighting",""
"null","<div style=""font-size:60px;"">+</div>","","html-keyboard-response","212","1673514","0.0-15.0-0.16","43493","List1A","black","woman","","","","null","","","",""
"null","<img src=""stim_listA/kiss4.gif""style=""height:400px;""></stim_listA>","","html-keyboard-response","213","1675517","0.0-15.0-1.16","43493","List1A","black","woman","","","","null","","","",""
"null","are kissing each other","","html-keyboard-response","214","1677518","0.0-15.0-2.16","43493","List1A","black","woman","","","","null","","","",""
"9693","","","survey-text","215","1687212","0.0-15.0-3.16","43493","List1A","black","woman","","","","","{""Q0"":""Dave and Jane are kissing each other""}","<img src=""stim_listA/kiss4.gif""style=""height:400px;""></stim_listA>","are kissing each other",""
"null","<div style=""font-size:60px;"">+</div>","","html-keyboard-response","216","1687714","0.0-15.0-0.17","43493","List1A","black","woman","","","","null","","","",""
"null","<img src=""stim_listA/dance4.gif""style=""height:400px;""></stim_listA>","","html-keyboard-response","217","1689717","0.0-15.0-1.17","43493","List1A","black","woman","","","","null","","","",""
"null","are dancing with each other","","html-keyboard-response","218","1691718","0.0-15.0-2.17","43493","List1A","black","woman","","","","null","","","",""
"17386","","","survey-text","219","1709106","0.0-15.0-3.17","43493","List1A","black","woman","","","","","{""Q0"":""Dave and Ruth are dancing with each other""}","<img src=""stim_listA/dance4.gif""style=""height:400px;""></stim_listA>","are dancing with each other",""
"null","<div style=""font-size:60px;"">+</div>","","html-keyboard-response","220","1709607","0.0-15.0-0.18","43493","List1A","black","woman","","","","null","","","",""
"null","<img src=""stim_listA/kiss8.gif""style=""height:400px;""></stim_listA>","","html-keyboard-response","221","1711610","0.0-15.0-1.18","43493","List1A","black","woman","","","","null","","","",""
"null","are kissing each other","","html-keyboard-response","222","1713611","0.0-15.0-2.18","43493","List1A","black","woman","","","","null","","","",""
"11613","","","survey-text","223","1725226","0.0-15.0-3.18","43493","List1A","black","woman","","","","","{""Q0"":""Jane and Kate are kissing each other""}","<img src=""stim_listA/kiss8.gif""style=""height:400px;""></stim_listA>","are kissing each other",""
"null","<div style=""font-size:60px;"">+</div>","","html-keyboard-response","224","1725727","0.0-15.0-0.19","43493","List1A","black","woman","","","","null","","","",""
"null","<img src=""stim_listA/dance3.gif""style=""height:400px;""></stim_listA>","","html-keyboard-response","225","1727730","0.0-15.0-1.19","43493","List1A","black","woman","","","","null","","","",""
"null","is dancing with","","html-keyboard-response","226","1729731","0.0-15.0-2.19","43493","List1A","black","woman","","","","null","","","",""
"16053","","","survey-text","227","1745785","0.0-15.0-3.19","43493","List1A","black","woman","","","","","{""Q0"":""Luke is dancing with Jane""}","<img src=""stim_listA/dance3.gif""style=""height:400px;""></stim_listA>","is dancing with",""
"34185","<img src='img/portrait_matrix_list1.jpg' style='width:900px;height:500px;''></img><p>If you have memorised all the portraits and names and are ready to start, press Continue.</p><p><strong>Please note: Your memory of these faces will be tested 4 times during this experiment.</strong></p>","0","html-button-response","228","1779971","0.0-16.0-0.0","43493","List1A","black","woman","","","","","","","",""
"4414","<img src=""portrait/BW2.jpg""style=""height:400px;""></img>","2","html-button-response","229","1785387","0.0-16.0-1.0","43493","List1A","black","woman","","true","2","","","","",""
"null","CORRECT","","html-keyboard-response","230","1786910","0.0-16.0-2.0-0.0","43493","List1A","black","woman","","","","null","","","",""
"2100","<img src=""portrait/BW1.jpg""style=""height:400px;""></img>","0","html-button-response","231","1789011","0.0-16.0-4.0","43493","List1A","black","woman","","true","0","","","","",""
"null","CORRECT","","html-keyboard-response","232","1790529","0.0-16.0-5.0-0.0","43493","List1A","black","woman","","","","null","","","",""
"2791","<img src=""portrait/WW2.jpg""style=""height:400px;""></img>","3","html-button-response","233","1793323","0.0-16.0-7.0","43493","List1A","black","woman","","true","3","","","","",""
"null","CORRECT","","html-keyboard-response","234","1794830","0.0-16.0-8.0-0.0","43493","List1A","black","woman","","","","null","","","",""
"2323","<img src=""portrait/WW1.jpg""style=""height:400px;""></img>","1","html-button-response","235","1797155","0.0-16.0-10.0","43493","List1A","black","woman","","true","1","","","","",""
"null","CORRECT","","html-keyboard-response","236","1798679","0.0-16.0-11.0-0.0","43493","List1A","black","woman","","","","null","","","",""
"3299","<img src=""portrait/WM1.jpg""style=""height:400px;""></img>","6","html-button-response","237","1801979","0.0-16.0-13.0","43493","List1A","black","woman","","true","6","","","","",""
"null","CORRECT","","html-keyboard-response","238","1803488","0.0-16.0-14.0-0.0","43493","List1A","black","woman","","","","null","","","",""
"1386","<img src=""portrait/WM2.jpg""style=""height:400px;""></img>","7","html-button-response","239","1804875","0.0-16.0-16.0","43493","List1A","black","woman","","true","7","","","","",""
"null","CORRECT","","html-keyboard-response","240","1806390","0.0-16.0-17.0-0.0","43493","List1A","black","woman","","","","null","","","",""
"1572","<img src=""portrait/BM1.jpg""style=""height:400px;""></img>","4","html-button-response","241","1807963","0.0-16.0-19.0","43493","List1A","black","woman","","true","4","","","","",""
"null","CORRECT","","html-keyboard-response","242","1809472","0.0-16.0-20.0-0.0","43493","List1A","black","woman","","","","null","","","",""
"2714","<img src=""portrait/BM2.jpg""style=""height:400px;""></img>","5","html-button-response","243","1812187","0.0-16.0-22.0","43493","List1A","black","woman","","true","5","","","","",""
"null","CORRECT","","html-keyboard-response","244","1813696","0.0-16.0-23.0-0.0","43493","List1A","black","woman","","","","null","","","",""
"1562","<p>You got 8 out of 8 right first time. Press Continue.</p>","0","html-button-response","245","1815259","0.0-16.0-25.0","43493","List1A","black","woman","","","","","","","",""
"null","<div style=""font-size:60px;"">+</div>","","html-keyboard-response","246","1816776","0.0-17.0-0.0","43493","List1A","black","woman","","","","null","","","",""
"null","<img src=""stim_listA/shout7.gif""style=""height:400px;""></stim_listA>","","html-keyboard-response","247","1818778","0.0-17.0-1.0","43493","List1A","black","woman","","","","null","","","",""
"null","is shouting at","","html-keyboard-response","248","1820780","0.0-17.0-2.0","43493","List1A","black","woman","","","","null","","","",""
"25324","","","survey-text","249","1846107","0.0-17.0-3.0","43493","List1A","black","woman","","","","","{""Q0"":""Ruth is shouting at Beth""}","<img src=""stim_listA/shout7.gif""style=""height:400px;""></stim_listA>","is shouting at",""
"null","<div style=""font-size:60px;"">+</div>","","html-keyboard-response","250","1846608","0.0-17.0-0.1","43493","List1A","black","woman","","","","null","","","",""
"null","<img src=""stim_listA/flirt1.gif""style=""height:400px;""></stim_listA>","","html-keyboard-response","251","1848611","0.0-17.0-1.1","43493","List1A","black","woman","","","","null","","","",""
"null","is flirting with","","html-keyboard-response","252","1850613","0.0-17.0-2.1","43493","List1A","black","woman","","","","null","","","",""
"29525","","","survey-text","253","1880139","0.0-17.0-3.1","43493","List1A","black","woman","","","","","{""Q0"":""Kate is flirting with Fred""}","<img src=""stim_listA/flirt1.gif""style=""height:400px;""></stim_listA>","is flirting with",""
"null","<div style=""font-size:60px;"">+</div>","","html-keyboard-response","254","1880640","0.0-17.0-0.2","43493","List1A","black","woman","","","","null","","","",""
"null","<img src=""stim_listA/argue4.gif""style=""height:400px;""></stim_listA>","","html-keyboard-response","255","1882643","0.0-17.0-1.2","43493","List1A","black","woman","","","","null","","","",""
"null","are arguing with each other","","html-keyboard-response","256","1884645","0.0-17.0-2.2","43493","List1A","black","woman","","","","null","","","",""
"14052","","","survey-text","257","1898699","0.0-17.0-3.2","43493","List1A","black","woman","","","","","{""Q0"":""Luke and Jane are arguing with each other""}","<img src=""stim_listA/argue4.gif""style=""height:400px;""></stim_listA>","are arguing with each other",""
"null","<div style=""font-size:60px;"">+</div>","","html-keyboard-response","258","1899200","0.0-17.0-0.3","43493","List1A","black","woman","","","","null","","","",""
"null","<img src=""stim_listA/fight4.gif""style=""height:400px;""></stim_listA>","","html-keyboard-response","259","1901214","0.0-17.0-1.3","43493","List1A","black","woman","","","","null","","","",""
"null","are fighting each other","","html-keyboard-response","260","1903217","0.0-17.0-2.3","43493","List1A","black","woman","","","","null","","","",""
"11862","","","survey-text","261","1915079","0.0-17.0-3.3","43493","List1A","black","woman","","","","","{""Q0"":""Luke and Ruth are fighting each other""}","<img src=""stim_listA/fight4.gif""style=""height:400px;""></stim_listA>","are fighting each other",""
"null","<div style=""font-size:60px;"">+</div>","","html-keyboard-response","262","1915581","0.0-17.0-0.4","43493","List1A","black","woman","","","","null","","","",""
"null","<img src=""stim_listA/flirt8.gif""style=""height:400px;""></stim_listA>","","html-keyboard-response","263","1917584","0.0-17.0-1.4","43493","List1A","black","woman","","","","null","","","",""
"null","are flirting with each other","","html-keyboard-response","264","1919586","0.0-17.0-2.4","43493","List1A","black","woman","","","","null","","","",""
"14060","","","survey-text","265","1933647","0.0-17.0-3.4","43493","List1A","black","woman","","","","","{""Q0"":""Jane and Ruth are flirting with each other""}","<img src=""stim_listA/flirt8.gif""style=""height:400px;""></stim_listA>","are flirting with each other",""
"null","<div style=""font-size:60px;"">+</div>","","html-keyboard-response","266","1934148","0.0-17.0-0.5","43493","List1A","black","woman","","","","null","","","",""
"null","<img src=""stim_listA/flirt3.gif""style=""height:400px;""></stim_listA>","","html-keyboard-response","267","1936152","0.0-17.0-1.5","43493","List1A","black","woman","","","","null","","","",""
"null","is flirting with","","html-keyboard-response","268","1938153","0.0-17.0-2.5","43493","List1A","black","woman","","","","null","","","",""
"11373","","","survey-text","269","1949527","0.0-17.0-3.5","43493","List1A","black","woman","","","","","{""Q0"":""Jane is flirting with Luke""}","<img src=""stim_listA/flirt3.gif""style=""height:400px;""></stim_listA>","is flirting with",""
"null","<div style=""font-size:60px;"">+</div>","","html-keyboard-response","270","1950034","0.0-17.0-0.6","43493","List1A","black","woman","","","","null","","","",""
"null","<img src=""stim_listA/play7.gif""style=""height:400px;""></stim_listA>","","html-keyboard-response","271","1952037","0.0-17.0-1.6","43493","List1A","black","woman","","","","null","","","",""
"null","is playing with","","html-keyboard-response","272","1954039","0.0-17.0-2.6","43493","List1A","black","woman","","","","null","","","",""
"8964","","","survey-text","273","1963005","0.0-17.0-3.6","43493","List1A","black","woman","","","","","{""Q0"":""Jane is playing with Kate""}","<img src=""stim_listA/play7.gif""style=""height:400px;""></stim_listA>","is playing with",""
"null","<div style=""font-size:60px;"">+</div>","","html-keyboard-response","274","1963506","0.0-17.0-0.7","43493","List1A","black","woman","","","","null","","","",""
"null","<img src=""stim_listA/talk6.gif""style=""height:400px;""></stim_listA>","","html-keyboard-response","275","1965509","0.0-17.0-1.7","43493","List1A","black","woman","","","","null","","","",""
"null","are talking to each other","","html-keyboard-response","276","1967510","0.0-17.0-2.7","43493","List1A","black","woman","","","","null","","","",""
"14677","","","survey-text","277","1982188","0.0-17.0-3.7","43493","List1A","black","woman","","","","","{""Q0"":""Mike and Luke are talking to each other""}","<img src=""stim_listA/talk6.gif""style=""height:400px;""></stim_listA>","are talking to each other",""
"null","<div style=""font-size:60px;"">+</div>","","html-keyboard-response","278","1982690","0.0-17.0-0.8","43493","List1A","black","woman","","","","null","","","",""
"null","<img src=""stim_listA/fight8.gif""style=""height:400px;""></stim_listA>","","html-keyboard-response","279","1984692","0.0-17.0-1.8","43493","List1A","black","woman","","","","null","","","",""
"null","are fighting each other","","html-keyboard-response","280","1986694","0.0-17.0-2.8","43493","List1A","black","woman","","","","null","","","",""
"10502","","","survey-text","281","1997196","0.0-17.0-3.8","43493","List1A","black","woman","","","","","{""Q0"":""Beth and Ruth are fighting each other""}","<img src=""stim_listA/fight8.gif""style=""height:400px;""></stim_listA>","are fighting each other",""
"null","<div style=""font-size:60px;"">+</div>","","html-keyboard-response","282","1997698","0.0-17.0-0.9","43493","List1A","black","woman","","","","null","","","",""
"null","<img src=""stim_listA/touch2.gif""style=""height:400px;""></stim_listA>","","html-keyboard-response","283","1999701","0.0-17.0-1.9","43493","List1A","black","woman","","","","null","","","",""
"null","are touching each other","","html-keyboard-response","284","2001703","0.0-17.0-2.9","43493","List1A","black","woman","","","","null","","","",""
"14684","","","survey-text","285","2016388","0.0-17.0-3.9","43493","List1A","black","woman","","","","","{""Q0"":""Beth and Fred are touching each other""}","<img src=""stim_listA/touch2.gif""style=""height:400px;""></stim_listA>","are touching each other",""
"null","<div style=""font-size:60px;"">+</div>","","html-keyboard-response","286","2016889","0.0-17.0-0.10","43493","List1A","black","woman","","","","null","","","",""
"null","<img src=""stim_listA/talk2.gif""style=""height:400px;""></stim_listA>","","html-keyboard-response","287","2018892","0.0-17.0-1.10","43493","List1A","black","woman","","","","null","","","",""
"null","are talking to each other","","html-keyboard-response","288","2020893","0.0-17.0-2.10","43493","List1A","black","woman","","","","null","","","",""
"35624","","","survey-text","289","2056518","0.0-17.0-3.10","43493","List1A","black","woman","","","","","{""Q0"":""Beth and Kate are talking to each other""}","<img src=""stim_listA/talk2.gif""style=""height:400px;""></stim_listA>","are talking to each other",""
"null","<div style=""font-size:60px;"">+</div>","","html-keyboard-response","290","2057020","0.0-17.0-0.11","43493","List1A","black","woman","","","","null","","","",""
"null","<img src=""stim_listA/touch7.gif""style=""height:400px;""></stim_listA>","","html-keyboard-response","291","2059023","0.0-17.0-1.11","43493","List1A","black","woman","","","","null","","","",""
"null","is touching","","html-keyboard-response","292","2061024","0.0-17.0-2.11","43493","List1A","black","woman","","","","null","","","",""
"13885","","","survey-text","293","2074911","0.0-17.0-3.11","43493","List1A","black","woman","","","","","{""Q0"":""Jane is touching Kate""}","<img src=""stim_listA/touch7.gif""style=""height:400px;""></stim_listA>","is touching",""
"null","<div style=""font-size:60px;"">+</div>","","html-keyboard-response","294","2075415","0.0-17.0-0.12","43493","List1A","black","woman","","","","null","","","",""
"null","<img src=""stim_listA/shout1.gif""style=""height:400px;""></stim_listA>","","html-keyboard-response","295","2077416","0.0-17.0-1.12","43493","List1A","black","woman","","","","null","","","",""
"null","is shouting at","","html-keyboard-response","296","2079417","0.0-17.0-2.12","43493","List1A","black","woman","","","","null","","","",""
"12907","","","survey-text","297","2092325","0.0-17.0-3.12","43493","List1A","black","woman","","","","","{""Q0"":""Beth is shouting at Fred""}","<img src=""stim_listA/shout1.gif""style=""height:400px;""></stim_listA>","is shouting at",""
"null","<div style=""font-size:60px;"">+</div>","","html-keyboard-response","298","2092829","0.0-17.0-0.13","43493","List1A","black","woman","","","","null","","","",""
"null","<img src=""stim_listA/flirt6.gif""style=""height:400px;""></stim_listA>","","html-keyboard-response","299","2094831","0.0-17.0-1.13","43493","List1A","black","woman","","","","null","","","",""
"null","are flirting with each other","","html-keyboard-response","300","2096833","0.0-17.0-2.13","43493","List1A","black","woman","","","","null","","","",""
"12756","","","survey-text","301","2109589","0.0-17.0-3.13","43493","List1A","black","woman","","","","","{""Q0"":""Mike and Luke are flirting with each other""}","<img src=""stim_listA/flirt6.gif""style=""height:400px;""></stim_listA>","are flirting with each other",""
"null","<div style=""font-size:60px;"">+</div>","","html-keyboard-response","302","2110092","0.0-17.0-0.14","43493","List1A","black","woman","","","","null","","","",""
"null","<img src=""stim_listA/argue3.gif""style=""height:400px;""></stim_listA>","","html-keyboard-response","303","2112094","0.0-17.0-1.14","43493","List1A","black","woman","","","","null","","","",""
"null","is arguing with","","html-keyboard-response","304","2114096","0.0-17.0-2.14","43493","List1A","black","woman","","","","null","","","",""
"10452","","","survey-text","305","2124549","0.0-17.0-3.14","43493","List1A","black","woman","","","","","{""Q0"":""Dave is arguing with Ruth""}","<img src=""stim_listA/argue3.gif""style=""height:400px;""></stim_listA>","is arguing with",""
"null","<div style=""font-size:60px;"">+</div>","","html-keyboard-response","306","2125051","0.0-17.0-0.15","43493","List1A","black","woman","","","","null","","","",""
"null","<img src=""stim_listA/fight3.gif""style=""height:400px;""></stim_listA>","","html-keyboard-response","307","2127054","0.0-17.0-1.15","43493","List1A","black","woman","","","","null","","","",""
"null","is fighting","","html-keyboard-response","308","2129057","0.0-17.0-2.15","43493","List1A","black","woman","","","","null","","","",""
"12763","","","survey-text","309","2141821","0.0-17.0-3.15","43493","List1A","black","woman","","","","","{""Q0"":""Jane is fighting Dave""}","<img src=""stim_listA/fight3.gif""style=""height:400px;""></stim_listA>","is fighting",""
"null","<div style=""font-size:60px;"">+</div>","","html-keyboard-response","310","2142322","0.0-17.0-0.16","43493","List1A","black","woman","","","","null","","","",""
"null","<img src=""stim_listA/dance2.gif""style=""height:400px;""></stim_listA>","","html-keyboard-response","311","2144325","0.0-17.0-1.16","43493","List1A","black","woman","","","","null","","","",""
"null","are dancing with each other","","html-keyboard-response","312","2146326","0.0-17.0-2.16","43493","List1A","black","woman","","","","null","","","",""
"11654","","","survey-text","313","2157981","0.0-17.0-3.16","43493","List1A","black","woman","","","","","{""Q0"":""Mike and Beth are dancing with each other""}","<img src=""stim_listA/dance2.gif""style=""height:400px;""></stim_listA>","are dancing with each other",""
"null","<div style=""font-size:60px;"">+</div>","","html-keyboard-response","314","2158482","0.0-17.0-0.17","43493","List1A","black","woman","","","","null","","","",""
"null","<img src=""stim_listA/argue5.gif""style=""height:400px;""></stim_listA>","","html-keyboard-response","315","2160485","0.0-17.0-1.17","43493","List1A","black","woman","","","","null","","","",""
"null","is arguing with","","html-keyboard-response","316","2162486","0.0-17.0-2.17","43493","List1A","black","woman","","","","null","","","",""
"8190","","","survey-text","317","2170677","0.0-17.0-3.17","43493","List1A","black","woman","","","","","{""Q0"":""Mike is arguing with Luke""}","<img src=""stim_listA/argue5.gif""style=""height:400px;""></stim_listA>","is arguing with",""
"null","<div style=""font-size:60px;"">+</div>","","html-keyboard-response","318","2171184","0.0-17.0-0.18","43493","List1A","black","woman","","","","null","","","",""
"null","<img src=""stim_listA/kiss5.gif""style=""height:400px;""></stim_listA>","","html-keyboard-response","319","2173186","0.0-17.0-1.18","43493","List1A","black","woman","","","","null","","","",""
"null","is kissing","","html-keyboard-response","320","2175188","0.0-17.0-2.18","43493","List1A","black","woman","","","","null","","","",""
"14511","","","survey-text","321","2189701","0.0-17.0-3.18","43493","List1A","black","woman","","","","","{""Q0"":""Fred is kissing Luke""}","<img src=""stim_listA/kiss5.gif""style=""height:400px;""></stim_listA>","is kissing",""
"null","<div style=""font-size:60px;"">+</div>","","html-keyboard-response","322","2190214","0.0-17.0-0.19","43493","List1A","black","woman","","","","null","","","",""
"null","<img src=""stim_listA/touch3.gif""style=""height:400px;""></stim_listA>","","html-keyboard-response","323","2192218","0.0-17.0-1.19","43493","List1A","black","woman","","","","null","","","",""
"null","is touching","","html-keyboard-response","324","2194219","0.0-17.0-2.19","43493","List1A","black","woman","","","","null","","","",""
"9322","","","survey-text","325","2203543","0.0-17.0-3.19","43493","List1A","black","woman","","","","","{""Q0"":""Jane is touching Dave""}","<img src=""stim_listA/touch3.gif""style=""height:400px;""></stim_listA>","is touching",""
"14135","<img src='img/portrait_matrix_list1.jpg' style='width:900px;height:500px;''></img><p>If you have memorised all the portraits and names and are ready to start, press Continue.</p><p><strong>Please note: Your memory of these faces will be tested 4 times during this experiment.</strong></p>","0","html-button-response","326","2217679","0.0-18.0-0.0","43493","List1A","black","woman","","","","","","","",""
"11879","<img src=""portrait/WW2.jpg""style=""height:400px;""></img>","3","html-button-response","327","2230567","0.0-18.0-1.0","43493","List1A","black","woman","","true","3","","","","",""
"null","CORRECT","","html-keyboard-response","328","2232075","0.0-18.0-2.0-0.0","43493","List1A","black","woman","","","","null","","","",""
"1530","<img src=""portrait/BW2.jpg""style=""height:400px;""></img>","2","html-button-response","329","2233606","0.0-18.0-4.0","43493","List1A","black","woman","","true","2","","","","",""
"null","CORRECT","","html-keyboard-response","330","2235115","0.0-18.0-5.0-0.0","43493","List1A","black","woman","","","","null","","","",""
"1458","<img src=""portrait/BW1.jpg""style=""height:400px;""></img>","0","html-button-response","331","2236574","0.0-18.0-7.0","43493","List1A","black","woman","","true","0","","","","",""
"null","CORRECT","","html-keyboard-response","332","2238087","0.0-18.0-8.0-0.0","43493","List1A","black","woman","","","","null","","","",""
"1477","<img src=""portrait/WM1.jpg""style=""height:400px;""></img>","6","html-button-response","333","2239567","0.0-18.0-10.0","43493","List1A","black","woman","","true","6","","","","",""
"null","CORRECT","","html-keyboard-response","334","2241076","0.0-18.0-11.0-0.0","43493","List1A","black","woman","","","","null","","","",""
"2089","<img src=""portrait/BM2.jpg""style=""height:400px;""></img>","5","html-button-response","335","2243166","0.0-18.0-13.0","43493","List1A","black","woman","","true","5","","","","",""
"null","CORRECT","","html-keyboard-response","336","2244669","0.0-18.0-14.0-0.0","43493","List1A","black","woman","","","","null","","","",""
"3905","<img src=""portrait/WW1.jpg""style=""height:400px;""></img>","1","html-button-response","337","2248575","0.0-18.0-16.0","43493","List1A","black","woman","","true","1","","","","",""
"null","CORRECT","","html-keyboard-response","338","2250083","0.0-18.0-17.0-0.0","43493","List1A","black","woman","","","","null","","","",""
"2154","<img src=""portrait/BM1.jpg""style=""height:400px;""></img>","4","html-button-response","339","2252239","0.0-18.0-19.0","43493","List1A","black","woman","","true","4","","","","",""
"null","CORRECT","","html-keyboard-response","340","2253744","0.0-18.0-20.0-0.0","43493","List1A","black","woman","","","","null","","","",""
"1419","<img src=""portrait/WM2.jpg""style=""height:400px;""></img>","7","html-button-response","341","2255167","0.0-18.0-22.0","43493","List1A","black","woman","","true","7","","","","",""
"null","CORRECT","","html-keyboard-response","342","2256686","0.0-18.0-23.0-0.0","43493","List1A","black","woman","","","","null","","","",""
"1671","<p>You got 8 out of 8 right first time. Press Continue.</p>","0","html-button-response","343","2258358","0.0-18.0-25.0","43493","List1A","black","woman","","","","","","","",""
"null","<div style=""font-size:60px;"">+</div>","","html-keyboard-response","344","2259873","0.0-19.0-0.0","43493","List1A","black","woman","","","","null","","","",""
"null","<img src=""stim_listA/touch4.gif""style=""height:400px;""></stim_listA>","","html-keyboard-response","345","2261876","0.0-19.0-1.0","43493","List1A","black","woman","","","","null","","","",""
"null","are touching each other","","html-keyboard-response","346","2263898","0.0-19.0-2.0","43493","List1A","black","woman","","","","null","","","",""
"18626","","","survey-text","347","2282525","0.0-19.0-3.0","43493","List1A","black","woman","","","","","{""Q0"":""Luke and Ruth are touching each other""}","<img src=""stim_listA/touch4.gif""style=""height:400px;""></stim_listA>","are touching each other",""
"null","<div style=""font-size:60px;"">+</div>","","html-keyboard-response","348","2283026","0.0-19.0-0.1","43493","List1A","black","woman","","","","null","","","",""
"null","<img src=""stim_listA/dance7.gif""style=""height:400px;""></stim_listA>","","html-keyboard-response","349","2285030","0.0-19.0-1.1","43493","List1A","black","woman","","","","null","","","",""
"null","is dancing with","","html-keyboard-response","350","2287033","0.0-19.0-2.1","43493","List1A","black","woman","","","","null","","","",""
"10714","","","survey-text","351","2297747","0.0-19.0-3.1","43493","List1A","black","woman","","","","","{""Q0"":""Jane is dancing with Beth""}","<img src=""stim_listA/dance7.gif""style=""height:400px;""></stim_listA>","is dancing with",""
"null","<div style=""font-size:60px;"">+</div>","","html-keyboard-response","352","2298249","0.0-19.0-0.2","43493","List1A","black","woman","","","","null","","","",""
"null","<img src=""stim_listA/talk8.gif""style=""height:400px;""></stim_listA>","","html-keyboard-response","353","2300255","0.0-19.0-1.2","43493","List1A","black","woman","","","","null","","","",""
"null","are talking to each other","","html-keyboard-response","354","2302257","0.0-19.0-2.2","43493","List1A","black","woman","","","","null","","","",""
"12490","","","survey-text","355","2314747","0.0-19.0-3.2","43493","List1A","black","woman","","","","","{""Q0"":""Beth and Ruth are talking to each other""}","<img src=""stim_listA/talk8.gif""style=""height:400px;""></stim_listA>","are talking to each other",""
"null","<div style=""font-size:60px;"">+</div>","","html-keyboard-response","356","2315248","0.0-19.0-0.3","43493","List1A","black","woman","","","","null","","","",""
"null","<img src=""stim_listA/kiss2.gif""style=""height:400px;""></stim_listA>","","html-keyboard-response","357","2317252","0.0-19.0-1.3","43493","List1A","black","woman","","","","null","","","",""
"null","are kissing each other","","html-keyboard-response","358","2319264","0.0-19.0-2.3","43493","List1A","black","woman","","","","null","","","",""
"24199","","","survey-text","359","2343464","0.0-19.0-3.3","43493","List1A","black","woman","","","","","{""Q0"":""Mike and Kate are kissing each other""}","<img src=""stim_listA/kiss2.gif""style=""height:400px;""></stim_listA>","are kissing each other",""
"null","<div style=""font-size:60px;"">+</div>","","html-keyboard-response","360","2343965","0.0-19.0-0.4","43493","List1A","black","woman","","","","null","","","",""
"null","<img src=""stim_listA/marry5.gif""style=""height:400px;""></stim_listA>","","html-keyboard-response","361","2345969","0.0-19.0-1.4","43493","List1A","black","woman","","","","null","","","",""
"null","is marrying","","html-keyboard-response","362","2347970","0.0-19.0-2.4","43493","List1A","black","woman","","","","null","","","",""
"7820","","","survey-text","363","2355791","0.0-19.0-3.4","43493","List1A","black","woman","","","","","{""Q0"":""Luke is marrying Mike""}","<img src=""stim_listA/marry5.gif""style=""height:400px;""></stim_listA>","is marrying",""
"null","<div style=""font-size:60px;"">+</div>","","html-keyboard-response","364","2356299","0.0-19.0-0.5","43493","List1A","black","woman","","","","null","","","",""
"null","<img src=""stim_listA/marry7.gif""style=""height:400px;""></stim_listA>","","html-keyboard-response","365","2358302","0.0-19.0-1.5","43493","List1A","black","woman","","","","null","","","",""
"null","is marrying","","html-keyboard-response","366","2360303","0.0-19.0-2.5","43493","List1A","black","woman","","","","null","","","",""
"10703","","","survey-text","367","2371007","0.0-19.0-3.5","43493","List1A","black","woman","","","","","{""Q0"":""Ruth is marrying Kate""}","<img src=""stim_listA/marry7.gif""style=""height:400px;""></stim_listA>","is marrying",""
"null","<div style=""font-size:60px;"">+</div>","","html-keyboard-response","368","2371508","0.0-19.0-0.6","43493","List1A","black","woman","","","","null","","","",""
"null","<img src=""stim_listA/kiss6.gif""style=""height:400px;""></stim_listA>","","html-keyboard-response","369","2373511","0.0-19.0-1.6","43493","List1A","black","woman","","","","null","","","",""
"null","are kissing each other","","html-keyboard-response","370","2375512","0.0-19.0-2.6","43493","List1A","black","woman","","","","null","","","",""
"9411","","","survey-text","371","2384924","0.0-19.0-3.6","43493","List1A","black","woman","","","","","{""Q0"":""Mike and Dave are kissing each other""}","<img src=""stim_listA/kiss6.gif""style=""height:400px;""></stim_listA>","are kissing each other",""
"null","<div style=""font-size:60px;"">+</div>","","html-keyboard-response","372","2385426","0.0-19.0-0.7","43493","List1A","black","woman","","","","null","","","",""
"null","<img src=""stim_listA/argue2.gif""style=""height:400px;""></stim_listA>","","html-keyboard-response","373","2387429","0.0-19.0-1.7","43493","List1A","black","woman","","","","null","","","",""
"null","are arguing with each other","","html-keyboard-response","374","2389430","0.0-19.0-2.7","43493","List1A","black","woman","","","","null","","","",""
"20725","","","survey-text","375","2410157","0.0-19.0-3.7","43493","List1A","black","woman","","","","","{""Q0"":""Kate and Fred are arguing with each other""}","<img src=""stim_listA/argue2.gif""style=""height:400px;""></stim_listA>","are arguing with each other",""
"null","<div style=""font-size:60px;"">+</div>","","html-keyboard-response","376","2410658","0.0-19.0-0.8","43493","List1A","black","woman","","","","null","","","",""
"null","<img src=""stim_listA/talk5.gif""style=""height:400px;""></stim_listA>","","html-keyboard-response","377","2412661","0.0-19.0-1.8","43493","List1A","black","woman","","","","null","","","",""
"null","is talking to","","html-keyboard-response","378","2414662","0.0-19.0-2.8","43493","List1A","black","woman","","","","null","","","",""
"7709","","","survey-text","379","2422373","0.0-19.0-3.8","43493","List1A","black","woman","","","","","{""Q0"":""Fred is talking to Dave""}","<img src=""stim_listA/talk5.gif""style=""height:400px;""></stim_listA>","is talking to",""
"null","<div style=""font-size:60px;"">+</div>","","html-keyboard-response","380","2422874","0.0-19.0-0.9","43493","List1A","black","woman","","","","null","","","",""
"null","<img src=""stim_listA/argue6.gif""style=""height:400px;""></stim_listA>","","html-keyboard-response","381","2424876","0.0-19.0-1.9","43493","List1A","black","woman","","","","null","","","",""
"null","are arguing with each other","","html-keyboard-response","382","2426877","0.0-19.0-2.9","43493","List1A","black","woman","","","","null","","","",""
"13398","","","survey-text","383","2440277","0.0-19.0-3.9","43493","List1A","black","woman","","","","","{""Q0"":""Fred and Dave are arguing with each other""}","<img src=""stim_listA/argue6.gif""style=""height:400px;""></stim_listA>","are arguing with each other",""
"null","<div style=""font-size:60px;"">+</div>","","html-keyboard-response","384","2440779","0.0-19.0-0.10","43493","List1A","black","woman","","","","null","","","",""
"null","<img src=""stim_listA/shout6.gif""style=""height:400px;""></stim_listA>","","html-keyboard-response","385","2442781","0.0-19.0-1.10","43493","List1A","black","woman","","","","null","","","",""
"null","are shouting at each other","","html-keyboard-response","386","2444783","0.0-19.0-2.10","43493","List1A","black","woman","","","","null","","","",""
"11229","","","survey-text","387","2456013","0.0-19.0-3.10","43493","List1A","black","woman","","","","","{""Q0"":""Mike and Dave are shouting at each other""}","<img src=""stim_listA/shout6.gif""style=""height:400px;""></stim_listA>","are shouting at each other",""
"null","<div style=""font-size:60px;"">+</div>","","html-keyboard-response","388","2456521","0.0-19.0-0.11","43493","List1A","black","woman","","","","null","","","",""
"null","<img src=""stim_listA/dance8.gif""style=""height:400px;""></stim_listA>","","html-keyboard-response","389","2458525","0.0-19.0-1.11","43493","List1A","black","woman","","","","null","","","",""
"null","are dancing with each other","","html-keyboard-response","390","2460539","0.0-19.0-2.11","43493","List1A","black","woman","","","","null","","","",""
"15729","","","survey-text","391","2476269","0.0-19.0-3.11","43493","List1A","black","woman","","","","","{""Q0"":""Ruth and Kate are dancing with each other""}","<img src=""stim_listA/dance8.gif""style=""height:400px;""></stim_listA>","are dancing with each other",""
"null","<div style=""font-size:60px;"">+</div>","","html-keyboard-response","392","2476771","0.0-19.0-0.12","43493","List1A","black","woman","","","","null","","","",""
"null","<img src=""stim_listA/play1.gif""style=""height:400px;""></stim_listA>","","html-keyboard-response","393","2478774","0.0-19.0-1.12","43493","List1A","black","woman","","","","null","","","",""
"null","is playing with","","html-keyboard-response","394","2480776","0.0-19.0-2.12","43493","List1A","black","woman","","","","null","","","",""
"7708","","","survey-text","395","2488485","0.0-19.0-3.12","43493","List1A","black","woman","","","","","{""Q0"":""Mike is playing with Kate""}","<img src=""stim_listA/play1.gif""style=""height:400px;""></stim_listA>","is playing with",""
"null","<div style=""font-size:60px;"">+</div>","","html-keyboard-response","396","2488990","0.0-19.0-0.13","43493","List1A","black","woman","","","","null","","","",""
"null","<img src=""stim_listA/dance1.gif""style=""height:400px;""></stim_listA>","","html-keyboard-response","397","2490993","0.0-19.0-1.13","43493","List1A","black","woman","","","","null","","","",""
"null","is dancing with","","html-keyboard-response","398","2492994","0.0-19.0-2.13","43493","List1A","black","woman","","","","null","","","",""
"6673","","","survey-text","399","2499668","0.0-19.0-3.13","43493","List1A","black","woman","","","","","{""Q0"":""Kate is dancing with Fred""}","<img src=""stim_listA/dance1.gif""style=""height:400px;""></stim_listA>","is dancing with",""
"null","<div style=""font-size:60px;"">+</div>","","html-keyboard-response","400","2500182","0.0-19.0-0.14","43493","List1A","black","woman","","","","null","","","",""
"null","<img src=""stim_listA/marry4.gif""style=""height:400px;""></stim_listA>","","html-keyboard-response","401","2502186","0.0-19.0-1.14","43493","List1A","black","woman","","","","null","","","",""
"null","are marrying each other","","html-keyboard-response","402","2504196","0.0-19.0-2.14","43493","List1A","black","woman","","","","null","","","",""
"16869","","","survey-text","403","2521066","0.0-19.0-3.14","43493","List1A","black","woman","","","","","{""Q0"":""Jane and Luke are marrying each other""}","<img src=""stim_listA/marry4.gif""style=""height:400px;""></stim_listA>","are marrying each other",""
"null","<div style=""font-size:60px;"">+</div>","","html-keyboard-response","404","2521568","0.0-19.0-0.15","43493","List1A","black","woman","","","","null","","","",""
"null","<img src=""stim_listA/shout4.gif""style=""height:400px;""></stim_listA>","","html-keyboard-response","405","2523571","0.0-19.0-1.15","43493","List1A","black","woman","","","","null","","","",""
"null","are shouting at each other","","html-keyboard-response","406","2525573","0.0-19.0-2.15","43493","List1A","black","woman","","","","null","","","",""
"10100","","","survey-text","407","2535674","0.0-19.0-3.15","43493","List1A","black","woman","","","","","{""Q0"":""Dave and Jane are shouting at each other""}","<img src=""stim_listA/shout4.gif""style=""height:400px;""></stim_listA>","are shouting at each other",""
"null","<div style=""font-size:60px;"">+</div>","","html-keyboard-response","408","2536175","0.0-19.0-0.16","43493","List1A","black","woman","","","","null","","","",""
"null","<img src=""stim_listA/flirt7.gif""style=""height:400px;""></stim_listA>","","html-keyboard-response","409","2538178","0.0-19.0-1.16","43493","List1A","black","woman","","","","null","","","",""
"null","is flirting with","","html-keyboard-response","410","2540180","0.0-19.0-2.16","43493","List1A","black","woman","","","","null","","","",""
"11116","","","survey-text","411","2551297","0.0-19.0-3.16","43493","List1A","black","woman","","","","","{""Q0"":""Beth is flirting with Jane""}","<img src=""stim_listA/flirt7.gif""style=""height:400px;""></stim_listA>","is flirting with",""
"null","<div style=""font-size:60px;"">+</div>","","html-keyboard-response","412","2551798","0.0-19.0-0.17","43493","List1A","black","woman","","","","null","","","",""
"null","<img src=""stim_listA/marry2.gif""style=""height:400px;""></stim_listA>","","html-keyboard-response","413","2553801","0.0-19.0-1.17","43493","List1A","black","woman","","","","null","","","",""
"null","are marrying each other","","html-keyboard-response","414","2555808","0.0-19.0-2.17","43493","List1A","black","woman","","","","null","","","",""
"11733","","","survey-text","415","2567542","0.0-19.0-3.17","43493","List1A","black","woman","","","","","{""Q0"":""Fred and Kate are marrying each other""}","<img src=""stim_listA/marry2.gif""style=""height:400px;""></stim_listA>","are marrying each other",""
"null","<div style=""font-size:60px;"">+</div>","","html-keyboard-response","416","2568045","0.0-19.0-0.18","43493","List1A","black","woman","","","","null","","","",""
"null","<img src=""stim_listA/marry6.gif""style=""height:400px;""></stim_listA>","","html-keyboard-response","417","2570049","0.0-19.0-1.18","43493","List1A","black","woman","","","","null","","","",""
"null","are marrying each other","","html-keyboard-response","418","2572050","0.0-19.0-2.18","43493","List1A","black","woman","","","","null","","","",""
"12147","","","survey-text","419","2584199","0.0-19.0-3.18","43493","List1A","black","woman","","","","","{""Q0"":""Dave and Fred are marrying each other""}","<img src=""stim_listA/marry6.gif""style=""height:400px;""></stim_listA>","are marrying each other",""
"null","<div style=""font-size:60px;"">+</div>","","html-keyboard-response","420","2584700","0.0-19.0-0.19","43493","List1A","black","woman","","","","null","","","",""
"null","<img src=""stim_listA/talk1.gif""style=""height:400px;""></stim_listA>","","html-keyboard-response","421","2586702","0.0-19.0-1.19","43493","List1A","black","woman","","","","null","","","",""
"null","is talking to","","html-keyboard-response","422","2588703","0.0-19.0-2.19","43493","List1A","black","woman","","","","null","","","",""
"6614","","","survey-text","423","2595318","0.0-19.0-3.19","43493","List1A","black","woman","","","","","{""Q0"":""Fred is talking to Kate""}","<img src=""stim_listA/talk1.gif""style=""height:400px;""></stim_listA>","is talking to",""
"4343","<p>Thank you for completing that task.</p><p>The final part of this session is a short questionnaire.</p><p>Press Continue.</p>","0","html-button-response","424","2599662","0.0-20.0","43493","List1A","black","woman","","","","","","","",""
"27563","","","survey-text","425","2628231","0.0-21.0","43493","List1A","black","woman","","","","","{""Q0"":""32"",""Q1"":""English"",""Q2"":""English"",""Q3"":""United States"",""Q4"":""Black"",""Q5"":""Female""}","","","demographics"
"8759","","","survey-likert","426","2636992","0.0-22.0","43493","List1A","black","woman","","","","","{""Q0"":3}","","","likert_ESS"
"11589","","","survey-likert","427","2648583","0.0-23.0","43493","List1A","black","woman","","","","","{""Q0"":4}","","","likert_NSSAL_Q1"
"2727","","","survey-likert","428","2651311","0.0-24.0","43493","List1A","black","woman","","","","","{""Q0"":4}","","","likert_NSSAL_Q2"
"6975","","","survey-likert","429","2658288","0.0-25.0","43493","List1A","black","woman","","","","","{""Q0"":3}","","","likert_CGRS_Q1"
"2782","","","survey-likert","430","2661072","0.0-26.0","43493","List1A","black","woman","","","","","{""Q0"":3}","","","likert_CGRS_Q2"
"3815","","","survey-likert","431","2664887","0.0-27.0","43493","List1A","black","woman","","","","","{""Q0"":3}","","","likert_CGRS_Q3"
"4775","","","survey-text","432","2669663","0.0-28.0","43493","List1A","black","woman","","","","","{""Q0"":""5c9c1a1c54d2830016af50ad""}","","","worker_id"
"35592","","","external-html","433","2705712","0.0-29.0","43493","List1A","black","woman","debrief.html","","","","","","",""
