rt,stimulus,button_pressed,trial_type,trial_index,time_elapsed,internal_node_id,subject,list,ppt_race,ppt_gender,url,first_guess,correct,key_press,responses,image_type,phrase_type,test_part
1474,Welcome to the experiment. Press Continue to begin.,0,html-button-response,0,1476,0.0-0.0,44163,List2A,black,woman,,,,,,,,
8815,,,external-html,1,11323,0.0-1.0,44163,List2A,black,woman,consent.html,,,,,,,
15667,"<p>On the next page, you will see portraits of 8 people and their names.</p><p>Your first task is to take a few minutes to memorise the names of these people.</p><p>You will have to recall their names during the rest of the experiment, so it is</p><p>essential that you try to memorise these people and their names as best as you can.</p><br><p><strong>You will then be tested on your memory of these names and portraits.</strong></p><br><p>The experiment will start after you have completed this memory test.</p><br><p>Ready?</p>",0,html-button-response,2,26991,0.0-2.0,44163,List2A,black,woman,,,,,,,,
107254,"<img src='img/portrait_matrix_list2.jpg' style='width:900px;height:500px;''></img><p>If you have memorised all the portraits and names and are ready to start, press Continue.</p><p><strong>Please note: Your memory of these faces will be tested 4 times during this experiment.</strong></p>",0,html-button-response,3,135259,0.0-3.0-0.0,44163,List2A,black,woman,,,,,,,,
3240,"<img src=""portrait/BW2.jpg""style=""height:400px;""></img>",2,html-button-response,4,139515,0.0-3.0-1.0,44163,List2A,black,woman,,TRUE,2,,,,,
null,CORRECT,,html-keyboard-response,5,141040,0.0-3.0-2.0-0.0,44163,List2A,black,woman,,,,null,,,,
2373,"<img src=""portrait/WM1.jpg""style=""height:400px;""></img>",6,html-button-response,6,143415,0.0-3.0-4.0,44163,List2A,black,woman,,TRUE,6,,,,,
null,CORRECT,,html-keyboard-response,7,144928,0.0-3.0-5.0-0.0,44163,List2A,black,woman,,,,null,,,,
2951,"<img src=""portrait/BW1.jpg""style=""height:400px;""></img>",0,html-button-response,8,147881,0.0-3.0-7.0,44163,List2A,black,woman,,TRUE,0,,,,,
null,CORRECT,,html-keyboard-response,9,149395,0.0-3.0-8.0-0.0,44163,List2A,black,woman,,,,null,,,,
2606,"<img src=""portrait/WM2.jpg""style=""height:400px;""></img>",7,html-button-response,10,152002,0.0-3.0-10.0,44163,List2A,black,woman,,TRUE,7,,,,,
null,CORRECT,,html-keyboard-response,11,153509,0.0-3.0-11.0-0.0,44163,List2A,black,woman,,,,null,,,,
1851,"<img src=""portrait/BM2.jpg""style=""height:400px;""></img>",5,html-button-response,12,155360,0.0-3.0-13.0,44163,List2A,black,woman,,TRUE,5,,,,,
null,CORRECT,,html-keyboard-response,13,156887,0.0-3.0-14.0-0.0,44163,List2A,black,woman,,,,null,,,,
3299,"<img src=""portrait/WW1.jpg""style=""height:400px;""></img>",1,html-button-response,14,160187,0.0-3.0-16.0,44163,List2A,black,woman,,TRUE,1,,,,,
null,CORRECT,,html-keyboard-response,15,161703,0.0-3.0-17.0-0.0,44163,List2A,black,woman,,,,null,,,,
2261,"<img src=""portrait/BM1.jpg""style=""height:400px;""></img>",4,html-button-response,16,163965,0.0-3.0-19.0,44163,List2A,black,woman,,TRUE,4,,,,,
null,CORRECT,,html-keyboard-response,17,165478,0.0-3.0-20.0-0.0,44163,List2A,black,woman,,,,null,,,,
2217,"<img src=""portrait/WW2.jpg""style=""height:400px;""></img>",3,html-button-response,18,167696,0.0-3.0-22.0,44163,List2A,black,woman,,TRUE,3,,,,,
null,CORRECT,,html-keyboard-response,19,169208,0.0-3.0-23.0-0.0,44163,List2A,black,woman,,,,null,,,,
2312,<p>You got 8 out of 8 right first time. Press Continue.</p>,0,html-button-response,20,171521,0.0-3.0-25.0,44163,List2A,black,woman,,,,,,,,
30273,"<p>In this experiment, you will view photographs of the people from the memory game interacting.</p><p>By using the <strong>exact</strong> phrase given <i>after</i> the photograph appears and recalling the correct names of the people in the photographs, form a sentence describing the interaction. You do not need to capitalise names.</p><p>Type your answer in the space provided. Please complete every sentence before moving onto the next trial.</p><p>You will only have a few seconds to memorise each given photograph and phrase before you can respond, so try your best to focus.</p><p>An example is given below. Press 'Continue' when you are ready.</p><img src='img/speaking_example.jpg' style='width:800px;height:460px;''></img>",0,html-button-response,21,202799,0.0-4.0,44163,List2A,black,woman,,,,,,,,
2310,"<p>Before the experiment starts, you will watch two example trials. Press 'Continue'.</p>",0,html-button-response,22,206111,0.0-5.0,44163,List2A,black,woman,,,,,,,,
null,<img src='img/meet_eg.gif' style='height:400px;''></img>,,html-keyboard-response,23,209121,0.0-6.0,44163,List2A,black,woman,,,,null,,,,
null,<p>is meeting</p>,,html-keyboard-response,24,211131,0.0-7.0,44163,List2A,black,woman,,,,null,,,,
8088,<p><b>Answer:</b> jane is meeting ruth</p>,0,html-button-response,25,219222,0.0-8.0,44163,List2A,black,woman,,,,,,,,
null,<img src='img/look_eg.gif' style='height:400px;''></img>,,html-keyboard-response,26,222229,0.0-9.0,44163,List2A,black,woman,,,,null,,,,
null,<p>are looking at each other</p>,,html-keyboard-response,27,224240,0.0-10.0,44163,List2A,black,woman,,,,null,,,,
3386,<p><b>Answer:</b> fred and mike are looking at each other</p>,0,html-button-response,28,227627,0.0-11.0,44163,List2A,black,woman,,,,,,,,
2712,"<p>Ready to start the experiment?</p><br><p><strong>Remember to describe the picture using a full sentence,</strong></p><p><strong>that combines the names of the people with the <i>exact</i> phrase given.</strong></p><p><strong>To receive full payment you must do this correctly.</strong></p><p><strong> You do not need to capitalise names or use punctuation.</strong></p><br><p>Press 'Continue' to begin.</p>",0,html-button-response,29,231343,0.0-12.0,44163,List2A,black,woman,,,,,,,,
null,"<div style=""font-size:60px;"">+</div>",,html-keyboard-response,30,232864,0.0-13.0-0.0,44163,List2A,black,woman,,,,null,,,,
null,"<img src=""stim_listA/touch6.gif""style=""height:400px;""></stim_listA>",,html-keyboard-response,31,234867,0.0-13.0-1.0,44163,List2A,black,woman,,,,null,,,,
null,are touching each other,,html-keyboard-response,32,236873,0.0-13.0-2.0,44163,List2A,black,woman,,,,null,,,,
12073,,,survey-text,33,248948,0.0-13.0-3.0,44163,List2A,black,woman,,,,,"{""Q0"":""luke and fred are touching each other""}","<img src=""stim_listA/touch6.gif""style=""height:400px;""></stim_listA>",are touching each other,
null,"<div style=""font-size:60px;"">+</div>",,html-keyboard-response,34,249453,0.0-13.0-0.1,44163,List2A,black,woman,,,,null,,,,
null,"<img src=""stim_listA/marry7.gif""style=""height:400px;""></stim_listA>",,html-keyboard-response,35,251455,0.0-13.0-1.1,44163,List2A,black,woman,,,,null,,,,
null,is marrying,,html-keyboard-response,36,253459,0.0-13.0-2.1,44163,List2A,black,woman,,,,null,,,,
10518,,,survey-text,37,263978,0.0-13.0-3.1,44163,List2A,black,woman,,,,,"{""Q0"":""beth is marrying jane""}","<img src=""stim_listA/marry7.gif""style=""height:400px;""></stim_listA>",is marrying,
null,"<div style=""font-size:60px;"">+</div>",,html-keyboard-response,38,264479,0.0-13.0-0.2,44163,List2A,black,woman,,,,null,,,,
null,"<img src=""stim_listA/shout4.gif""style=""height:400px;""></stim_listA>",,html-keyboard-response,39,266492,0.0-13.0-1.2,44163,List2A,black,woman,,,,null,,,,
null,are shouting at each other,,html-keyboard-response,40,268506,0.0-13.0-2.2,44163,List2A,black,woman,,,,null,,,,
12334,,,survey-text,41,280840,0.0-13.0-3.2,44163,List2A,black,woman,,,,,"{""Q0"":""kate and mike are shouting at each other""}","<img src=""stim_listA/shout4.gif""style=""height:400px;""></stim_listA>",are shouting at each other,
null,"<div style=""font-size:60px;"">+</div>",,html-keyboard-response,42,281346,0.0-13.0-0.3,44163,List2A,black,woman,,,,null,,,,
null,"<img src=""stim_listA/kiss2.gif""style=""height:400px;""></stim_listA>",,html-keyboard-response,43,283353,0.0-13.0-1.3,44163,List2A,black,woman,,,,null,,,,
null,are kissing each other,,html-keyboard-response,44,285359,0.0-13.0-2.3,44163,List2A,black,woman,,,,null,,,,
11730,,,survey-text,45,297091,0.0-13.0-3.3,44163,List2A,black,woman,,,,,"{""Q0"":""jane and dave are kissing each other""}","<img src=""stim_listA/kiss2.gif""style=""height:400px;""></stim_listA>",are kissing each other,
null,"<div style=""font-size:60px;"">+</div>",,html-keyboard-response,46,297604,0.0-13.0-0.4,44163,List2A,black,woman,,,,null,,,,
null,"<img src=""stim_listA/shout1.gif""style=""height:400px;""></stim_listA>",,html-keyboard-response,47,299606,0.0-13.0-1.4,44163,List2A,black,woman,,,,null,,,,
null,is shouting at,,html-keyboard-response,48,301612,0.0-13.0-2.4,44163,List2A,black,woman,,,,null,,,,
15076,,,survey-text,49,316690,0.0-13.0-3.4,44163,List2A,black,woman,,,,,"{""Q0"":""luke is shouting at ruth""}","<img src=""stim_listA/shout1.gif""style=""height:400px;""></stim_listA>",is shouting at,
null,"<div style=""font-size:60px;"">+</div>",,html-keyboard-response,50,317197,0.0-13.0-0.5,44163,List2A,black,woman,,,,null,,,,
null,"<img src=""stim_listA/touch8.gif""style=""height:400px;""></stim_listA>",,html-keyboard-response,51,319198,0.0-13.0-1.5,44163,List2A,black,woman,,,,null,,,,
null,are touching each other,,html-keyboard-response,52,321205,0.0-13.0-2.5,44163,List2A,black,woman,,,,null,,,,
11582,,,survey-text,53,332788,0.0-13.0-3.5,44163,List2A,black,woman,,,,,"{""Q0"":""ruth and beth are touching each other""}","<img src=""stim_listA/touch8.gif""style=""height:400px;""></stim_listA>",are touching each other,
null,"<div style=""font-size:60px;"">+</div>",,html-keyboard-response,54,333304,0.0-13.0-0.6,44163,List2A,black,woman,,,,null,,,,
null,"<img src=""stim_listA/fight1.gif""style=""height:400px;""></stim_listA>",,html-keyboard-response,55,335311,0.0-13.0-1.6,44163,List2A,black,woman,,,,null,,,,
null,is fighting,,html-keyboard-response,56,337317,0.0-13.0-2.6,44163,List2A,black,woman,,,,null,,,,
10332,,,survey-text,57,347650,0.0-13.0-3.6,44163,List2A,black,woman,,,,,"{""Q0"":""jane is fighting dave""}","<img src=""stim_listA/fight1.gif""style=""height:400px;""></stim_listA>",is fighting,
null,"<div style=""font-size:60px;"">+</div>",,html-keyboard-response,58,348167,0.0-13.0-0.7,44163,List2A,black,woman,,,,null,,,,
null,"<img src=""stim_listA/flirt1.gif""style=""height:400px;""></stim_listA>",,html-keyboard-response,59,350168,0.0-13.0-1.7,44163,List2A,black,woman,,,,null,,,,
null,is flirting with,,html-keyboard-response,60,352172,0.0-13.0-2.7,44163,List2A,black,woman,,,,null,,,,
11753,,,survey-text,61,363927,0.0-13.0-3.7,44163,List2A,black,woman,,,,,"{""Q0"":""luke is flirting with jane""}","<img src=""stim_listA/flirt1.gif""style=""height:400px;""></stim_listA>",is flirting with,
null,"<div style=""font-size:60px;"">+</div>",,html-keyboard-response,62,364442,0.0-13.0-0.8,44163,List2A,black,woman,,,,null,,,,
null,"<img src=""stim_listA/shout5.gif""style=""height:400px;""></stim_listA>",,html-keyboard-response,63,366447,0.0-13.0-1.8,44163,List2A,black,woman,,,,null,,,,
null,is shouting at,,html-keyboard-response,64,368456,0.0-13.0-2.8,44163,List2A,black,woman,,,,null,,,,
9736,,,survey-text,65,378193,0.0-13.0-3.8,44163,List2A,black,woman,,,,,"{""Q0"":""luke is shouting at fred""}","<img src=""stim_listA/shout5.gif""style=""height:400px;""></stim_listA>",is shouting at,
null,"<div style=""font-size:60px;"">+</div>",,html-keyboard-response,66,378697,0.0-13.0-0.9,44163,List2A,black,woman,,,,null,,,,
null,"<img src=""stim_listA/kiss7.gif""style=""height:400px;""></stim_listA>",,html-keyboard-response,67,380698,0.0-13.0-1.9,44163,List2A,black,woman,,,,null,,,,
null,is kissing,,html-keyboard-response,68,382710,0.0-13.0-2.9,44163,List2A,black,woman,,,,null,,,,
7395,,,survey-text,69,390106,0.0-13.0-3.9,44163,List2A,black,woman,,,,,"{""Q0"":""beth is kissing ruth""}","<img src=""stim_listA/kiss7.gif""style=""height:400px;""></stim_listA>",is kissing,
null,"<div style=""font-size:60px;"">+</div>",,html-keyboard-response,70,390612,0.0-13.0-0.10,44163,List2A,black,woman,,,,null,,,,
null,"<img src=""stim_listA/dance8.gif""style=""height:400px;""></stim_listA>",,html-keyboard-response,71,392614,0.0-13.0-1.10,44163,List2A,black,woman,,,,null,,,,
null,are dancing with each other,,html-keyboard-response,72,394625,0.0-13.0-2.10,44163,List2A,black,woman,,,,null,,,,
11814,,,survey-text,73,406440,0.0-13.0-3.10,44163,List2A,black,woman,,,,,"{""Q0"":""jane and beth are dancing with each other""}","<img src=""stim_listA/dance8.gif""style=""height:400px;""></stim_listA>",are dancing with each other,
null,"<div style=""font-size:60px;"">+</div>",,html-keyboard-response,74,406955,0.0-13.0-0.11,44163,List2A,black,woman,,,,null,,,,
null,"<img src=""stim_listA/talk4.gif""style=""height:400px;""></stim_listA>",,html-keyboard-response,75,408957,0.0-13.0-1.11,44163,List2A,black,woman,,,,null,,,,
null,are talking to each other,,html-keyboard-response,76,410966,0.0-13.0-2.11,44163,List2A,black,woman,,,,null,,,,
11936,,,survey-text,77,422902,0.0-13.0-3.11,44163,List2A,black,woman,,,,,"{""Q0"":""beth and mike are talking to each other""}","<img src=""stim_listA/talk4.gif""style=""height:400px;""></stim_listA>",are talking to each other,
null,"<div style=""font-size:60px;"">+</div>",,html-keyboard-response,78,423410,0.0-13.0-0.12,44163,List2A,black,woman,,,,null,,,,
null,"<img src=""stim_listA/fight4.gif""style=""height:400px;""></stim_listA>",,html-keyboard-response,79,425414,0.0-13.0-1.12,44163,List2A,black,woman,,,,null,,,,
null,are fighting each other,,html-keyboard-response,80,427421,0.0-13.0-2.12,44163,List2A,black,woman,,,,null,,,,
11356,,,survey-text,81,438779,0.0-13.0-3.12,44163,List2A,black,woman,,,,,"{""Q0"":""beth and fred are fighting each other""}","<img src=""stim_listA/fight4.gif""style=""height:400px;""></stim_listA>",are fighting each other,
null,"<div style=""font-size:60px;"">+</div>",,html-keyboard-response,82,439284,0.0-13.0-0.13,44163,List2A,black,woman,,,,null,,,,
null,"<img src=""stim_listA/argue2.gif""style=""height:400px;""></stim_listA>",,html-keyboard-response,83,441286,0.0-13.0-1.13,44163,List2A,black,woman,,,,null,,,,
null,are arguing with each other,,html-keyboard-response,84,443291,0.0-13.0-2.13,44163,List2A,black,woman,,,,null,,,,
11359,,,survey-text,85,454651,0.0-13.0-3.13,44163,List2A,black,woman,,,,,"{""Q0"":""luke and jane are arguing with each other""}","<img src=""stim_listA/argue2.gif""style=""height:400px;""></stim_listA>",are arguing with each other,
null,"<div style=""font-size:60px;"">+</div>",,html-keyboard-response,86,455164,0.0-13.0-0.14,44163,List2A,black,woman,,,,null,,,,
null,"<img src=""stim_listA/marry8.gif""style=""height:400px;""></stim_listA>",,html-keyboard-response,87,457165,0.0-13.0-1.14,44163,List2A,black,woman,,,,null,,,,
null,are marrying each other,,html-keyboard-response,88,459174,0.0-13.0-2.14,44163,List2A,black,woman,,,,null,,,,
9407,,,survey-text,89,468582,0.0-13.0-3.14,44163,List2A,black,woman,,,,,"{""Q0"":""kate and ruth are marrying each other""}","<img src=""stim_listA/marry8.gif""style=""height:400px;""></stim_listA>",are marrying each other,
null,"<div style=""font-size:60px;"">+</div>",,html-keyboard-response,90,469091,0.0-13.0-0.15,44163,List2A,black,woman,,,,null,,,,
null,"<img src=""stim_listA/talk5.gif""style=""height:400px;""></stim_listA>",,html-keyboard-response,91,471092,0.0-13.0-1.15,44163,List2A,black,woman,,,,null,,,,
null,is talking to,,html-keyboard-response,92,473110,0.0-13.0-2.15,44163,List2A,black,woman,,,,null,,,,
10225,,,survey-text,93,483336,0.0-13.0-3.15,44163,List2A,black,woman,,,,,"{""Q0"":""mike is talking to luke""}","<img src=""stim_listA/talk5.gif""style=""height:400px;""></stim_listA>",is talking to,
null,"<div style=""font-size:60px;"">+</div>",,html-keyboard-response,94,483838,0.0-13.0-0.16,44163,List2A,black,woman,,,,null,,,,
null,"<img src=""stim_listA/touch7.gif""style=""height:400px;""></stim_listA>",,html-keyboard-response,95,485840,0.0-13.0-1.16,44163,List2A,black,woman,,,,null,,,,
null,is touching,,html-keyboard-response,96,487856,0.0-13.0-2.16,44163,List2A,black,woman,,,,null,,,,
6801,,,survey-text,97,494658,0.0-13.0-3.16,44163,List2A,black,woman,,,,,"{""Q0"":""kate is touching jane""}","<img src=""stim_listA/touch7.gif""style=""height:400px;""></stim_listA>",is touching,
null,"<div style=""font-size:60px;"">+</div>",,html-keyboard-response,98,495173,0.0-13.0-0.17,44163,List2A,black,woman,,,,null,,,,
null,"<img src=""stim_listA/kiss4.gif""style=""height:400px;""></stim_listA>",,html-keyboard-response,99,497175,0.0-13.0-1.17,44163,List2A,black,woman,,,,null,,,,
null,are kissing each other,,html-keyboard-response,100,499183,0.0-13.0-2.17,44163,List2A,black,woman,,,,null,,,,
12166,,,survey-text,101,511349,0.0-13.0-3.17,44163,List2A,black,woman,,,,,"{""Q0"":""mike and kate are kissing each other""}","<img src=""stim_listA/kiss4.gif""style=""height:400px;""></stim_listA>",are kissing each other,
null,"<div style=""font-size:60px;"">+</div>",,html-keyboard-response,102,511853,0.0-13.0-0.18,44163,List2A,black,woman,,,,null,,,,
null,"<img src=""stim_listA/touch5.gif""style=""height:400px;""></stim_listA>",,html-keyboard-response,103,513855,0.0-13.0-1.18,44163,List2A,black,woman,,,,null,,,,
null,is touching,,html-keyboard-response,104,515871,0.0-13.0-2.18,44163,List2A,black,woman,,,,null,,,,
6913,,,survey-text,105,522785,0.0-13.0-3.18,44163,List2A,black,woman,,,,,"{""Q0"":""dave is touching mike""}","<img src=""stim_listA/touch5.gif""style=""height:400px;""></stim_listA>",is touching,
null,"<div style=""font-size:60px;"">+</div>",,html-keyboard-response,106,523299,0.0-13.0-0.19,44163,List2A,black,woman,,,,null,,,,
null,"<img src=""stim_listA/touch1.gif""style=""height:400px;""></stim_listA>",,html-keyboard-response,107,525301,0.0-13.0-1.19,44163,List2A,black,woman,,,,null,,,,
null,is touching,,html-keyboard-response,108,527305,0.0-13.0-2.19,44163,List2A,black,woman,,,,null,,,,
6996,,,survey-text,109,534303,0.0-13.0-3.19,44163,List2A,black,woman,,,,,"{""Q0"":""dave is touching jane""}","<img src=""stim_listA/touch1.gif""style=""height:400px;""></stim_listA>",is touching,
16162,"<img src='img/portrait_matrix_list2.jpg' style='width:900px;height:500px;''></img><p>If you have memorised all the portraits and names and are ready to start, press Continue.</p><p><strong>Please note: Your memory of these faces will be tested 4 times during this experiment.</strong></p>",0,html-button-response,110,550466,0.0-14.0-0.0,44163,List2A,black,woman,,,,,,,,
2252,"<img src=""portrait/WW1.jpg""style=""height:400px;""></img>",1,html-button-response,111,553719,0.0-14.0-1.0,44163,List2A,black,woman,,TRUE,1,,,,,
null,CORRECT,,html-keyboard-response,112,555233,0.0-14.0-2.0-0.0,44163,List2A,black,woman,,,,null,,,,
2640,"<img src=""portrait/BW1.jpg""style=""height:400px;""></img>",0,html-button-response,113,557873,0.0-14.0-4.0,44163,List2A,black,woman,,TRUE,0,,,,,
null,CORRECT,,html-keyboard-response,114,559385,0.0-14.0-5.0-0.0,44163,List2A,black,woman,,,,null,,,,
2066,"<img src=""portrait/BM2.jpg""style=""height:400px;""></img>",5,html-button-response,115,561452,0.0-14.0-7.0,44163,List2A,black,woman,,TRUE,5,,,,,
null,CORRECT,,html-keyboard-response,116,562965,0.0-14.0-8.0-0.0,44163,List2A,black,woman,,,,null,,,,
2005,"<img src=""portrait/BW2.jpg""style=""height:400px;""></img>",2,html-button-response,117,564971,0.0-14.0-10.0,44163,List2A,black,woman,,TRUE,2,,,,,
null,CORRECT,,html-keyboard-response,118,566477,0.0-14.0-11.0-0.0,44163,List2A,black,woman,,,,null,,,,
1911,"<img src=""portrait/WM2.jpg""style=""height:400px;""></img>",7,html-button-response,119,568389,0.0-14.0-13.0,44163,List2A,black,woman,,TRUE,7,,,,,
null,CORRECT,,html-keyboard-response,120,569901,0.0-14.0-14.0-0.0,44163,List2A,black,woman,,,,null,,,,
1827,"<img src=""portrait/BM1.jpg""style=""height:400px;""></img>",4,html-button-response,121,571730,0.0-14.0-16.0,44163,List2A,black,woman,,TRUE,4,,,,,
null,CORRECT,,html-keyboard-response,122,573261,0.0-14.0-17.0-0.0,44163,List2A,black,woman,,,,null,,,,
1738,"<img src=""portrait/WW2.jpg""style=""height:400px;""></img>",3,html-button-response,123,574999,0.0-14.0-19.0,44163,List2A,black,woman,,TRUE,3,,,,,
null,CORRECT,,html-keyboard-response,124,576528,0.0-14.0-20.0-0.0,44163,List2A,black,woman,,,,null,,,,
2321,"<img src=""portrait/WM1.jpg""style=""height:400px;""></img>",6,html-button-response,125,578850,0.0-14.0-22.0,44163,List2A,black,woman,,TRUE,6,,,,,
null,CORRECT,,html-keyboard-response,126,580364,0.0-14.0-23.0-0.0,44163,List2A,black,woman,,,,null,,,,
3952,<p>You got 8 out of 8 right first time. Press Continue.</p>,0,html-button-response,127,584317,0.0-14.0-25.0,44163,List2A,black,woman,,,,,,,,
null,"<div style=""font-size:60px;"">+</div>",,html-keyboard-response,128,585842,0.0-15.0-0.0,44163,List2A,black,woman,,,,null,,,,
null,"<img src=""stim_listA/argue8.gif""style=""height:400px;""></stim_listA>",,html-keyboard-response,129,587854,0.0-15.0-1.0,44163,List2A,black,woman,,,,null,,,,
null,are arguing with each other,,html-keyboard-response,130,589868,0.0-15.0-2.0,44163,List2A,black,woman,,,,null,,,,
17883,,,survey-text,131,607752,0.0-15.0-3.0,44163,List2A,black,woman,,,,,"{""Q0"":""kate and ruth are arguing with each other""}","<img src=""stim_listA/argue8.gif""style=""height:400px;""></stim_listA>",are arguing with each other,
null,"<div style=""font-size:60px;"">+</div>",,html-keyboard-response,132,608262,0.0-15.0-0.1,44163,List2A,black,woman,,,,null,,,,
null,"<img src=""stim_listA/kiss1.gif""style=""height:400px;""></stim_listA>",,html-keyboard-response,133,610268,0.0-15.0-1.1,44163,List2A,black,woman,,,,null,,,,
null,is kissing,,html-keyboard-response,134,612276,0.0-15.0-2.1,44163,List2A,black,woman,,,,null,,,,
11568,,,survey-text,135,623845,0.0-15.0-3.1,44163,List2A,black,woman,,,,,"{""Q0"":""luke is kissing ruth""}","<img src=""stim_listA/kiss1.gif""style=""height:400px;""></stim_listA>",is kissing,
null,"<div style=""font-size:60px;"">+</div>",,html-keyboard-response,136,624353,0.0-15.0-0.2,44163,List2A,black,woman,,,,null,,,,
null,"<img src=""stim_listA/play2.gif""style=""height:400px;""></stim_listA>",,html-keyboard-response,137,626360,0.0-15.0-1.2,44163,List2A,black,woman,,,,null,,,,
null,are playing with each other,,html-keyboard-response,138,628366,0.0-15.0-2.2,44163,List2A,black,woman,,,,null,,,,
13423,,,survey-text,139,641789,0.0-15.0-3.2,44163,List2A,black,woman,,,,,"{""Q0"":""luke and ruth are playing with each other""}","<img src=""stim_listA/play2.gif""style=""height:400px;""></stim_listA>",are playing with each other,
null,"<div style=""font-size:60px;"">+</div>",,html-keyboard-response,140,642292,0.0-15.0-0.3,44163,List2A,black,woman,,,,null,,,,
null,"<img src=""stim_listA/flirt2.gif""style=""height:400px;""></stim_listA>",,html-keyboard-response,141,644294,0.0-15.0-1.3,44163,List2A,black,woman,,,,null,,,,
null,are flirting with each other,,html-keyboard-response,142,646295,0.0-15.0-2.3,44163,List2A,black,woman,,,,null,,,,
10904,,,survey-text,143,657200,0.0-15.0-3.3,44163,List2A,black,woman,,,,,"{""Q0"":""ruth and dave are flirting with each other""}","<img src=""stim_listA/flirt2.gif""style=""height:400px;""></stim_listA>",are flirting with each other,
null,"<div style=""font-size:60px;"">+</div>",,html-keyboard-response,144,657717,0.0-15.0-0.4,44163,List2A,black,woman,,,,null,,,,
null,"<img src=""stim_listA/talk8.gif""style=""height:400px;""></stim_listA>",,html-keyboard-response,145,659719,0.0-15.0-1.4,44163,List2A,black,woman,,,,null,,,,
null,are talking to each other,,html-keyboard-response,146,661730,0.0-15.0-2.4,44163,List2A,black,woman,,,,null,,,,
15482,,,survey-text,147,677213,0.0-15.0-3.4,44163,List2A,black,woman,,,,,"{""Q0"":""beth and jane are talking to each other""}","<img src=""stim_listA/talk8.gif""style=""height:400px;""></stim_listA>",are talking to each other,
null,"<div style=""font-size:60px;"">+</div>",,html-keyboard-response,148,677715,0.0-15.0-0.5,44163,List2A,black,woman,,,,null,,,,
null,"<img src=""stim_listA/marry6.gif""style=""height:400px;""></stim_listA>",,html-keyboard-response,149,679717,0.0-15.0-1.5,44163,List2A,black,woman,,,,null,,,,
null,are marrying each other,,html-keyboard-response,150,681727,0.0-15.0-2.5,44163,List2A,black,woman,,,,null,,,,
11820,,,survey-text,151,693548,0.0-15.0-3.5,44163,List2A,black,woman,,,,,"{""Q0"":""mike and luke are marrying each other""}","<img src=""stim_listA/marry6.gif""style=""height:400px;""></stim_listA>",are marrying each other,
null,"<div style=""font-size:60px;"">+</div>",,html-keyboard-response,152,694049,0.0-15.0-0.6,44163,List2A,black,woman,,,,null,,,,
null,"<img src=""stim_listA/talk1.gif""style=""height:400px;""></stim_listA>",,html-keyboard-response,153,696050,0.0-15.0-1.6,44163,List2A,black,woman,,,,null,,,,
null,is talking to,,html-keyboard-response,154,698063,0.0-15.0-2.6,44163,List2A,black,woman,,,,null,,,,
8649,,,survey-text,155,706713,0.0-15.0-3.6,44163,List2A,black,woman,,,,,"{""Q0"":""luke is talking to jane""}","<img src=""stim_listA/talk1.gif""style=""height:400px;""></stim_listA>",is talking to,
null,"<div style=""font-size:60px;"">+</div>",,html-keyboard-response,156,707227,0.0-15.0-0.7,44163,List2A,black,woman,,,,null,,,,
null,"<img src=""stim_listA/flirt4.gif""style=""height:400px;""></stim_listA>",,html-keyboard-response,157,709229,0.0-15.0-1.7,44163,List2A,black,woman,,,,null,,,,
null,are flirting with each other,,html-keyboard-response,158,711255,0.0-15.0-2.7,44163,List2A,black,woman,,,,null,,,,
16155,,,survey-text,159,727410,0.0-15.0-3.7,44163,List2A,black,woman,,,,,"{""Q0"":""beth and mike a re flirting with each other""}","<img src=""stim_listA/flirt4.gif""style=""height:400px;""></stim_listA>",are flirting with each other,
null,"<div style=""font-size:60px;"">+</div>",,html-keyboard-response,160,727916,0.0-15.0-0.8,44163,List2A,black,woman,,,,null,,,,
null,"<img src=""stim_listA/fight8.gif""style=""height:400px;""></stim_listA>",,html-keyboard-response,161,729918,0.0-15.0-1.8,44163,List2A,black,woman,,,,null,,,,
null,are fighting each other,,html-keyboard-response,162,731919,0.0-15.0-2.8,44163,List2A,black,woman,,,,null,,,,
13346,,,survey-text,163,745266,0.0-15.0-3.8,44163,List2A,black,woman,,,,,"{""Q0"":""beth and ruth are fighting each other""}","<img src=""stim_listA/fight8.gif""style=""height:400px;""></stim_listA>",are fighting each other,
null,"<div style=""font-size:60px;"">+</div>",,html-keyboard-response,164,745772,0.0-15.0-0.9,44163,List2A,black,woman,,,,null,,,,
null,"<img src=""stim_listA/talk6.gif""style=""height:400px;""></stim_listA>",,html-keyboard-response,165,747780,0.0-15.0-1.9,44163,List2A,black,woman,,,,null,,,,
null,are talking to each other,,html-keyboard-response,166,749788,0.0-15.0-2.9,44163,List2A,black,woman,,,,null,,,,
13637,,,survey-text,167,763426,0.0-15.0-3.9,44163,List2A,black,woman,,,,,"{""Q0"":""fred and dave are talking to each other""}","<img src=""stim_listA/talk6.gif""style=""height:400px;""></stim_listA>",are talking to each other,
null,"<div style=""font-size:60px;"">+</div>",,html-keyboard-response,168,763931,0.0-15.0-0.10,44163,List2A,black,woman,,,,null,,,,
null,"<img src=""stim_listA/play8.gif""style=""height:400px;""></stim_listA>",,html-keyboard-response,169,765933,0.0-15.0-1.10,44163,List2A,black,woman,,,,null,,,,
null,are playing with each other,,html-keyboard-response,170,767944,0.0-15.0-2.10,44163,List2A,black,woman,,,,null,,,,
14198,,,survey-text,171,782142,0.0-15.0-3.10,44163,List2A,black,woman,,,,,"{""Q0"":""beth and ruth are playing with each other""}","<img src=""stim_listA/play8.gif""style=""height:400px;""></stim_listA>",are playing with each other,
null,"<div style=""font-size:60px;"">+</div>",,html-keyboard-response,172,782647,0.0-15.0-0.11,44163,List2A,black,woman,,,,null,,,,
null,"<img src=""stim_listA/kiss6.gif""style=""height:400px;""></stim_listA>",,html-keyboard-response,173,784649,0.0-15.0-1.11,44163,List2A,black,woman,,,,null,,,,
null,are kissing each other,,html-keyboard-response,174,786652,0.0-15.0-2.11,44163,List2A,black,woman,,,,null,,,,
16534,,,survey-text,175,803187,0.0-15.0-3.11,44163,List2A,black,woman,,,,,"{""Q0"":""mike and dave are kissing each other""}","<img src=""stim_listA/kiss6.gif""style=""height:400px;""></stim_listA>",are kissing each other,
null,"<div style=""font-size:60px;"">+</div>",,html-keyboard-response,176,803703,0.0-15.0-0.12,44163,List2A,black,woman,,,,null,,,,
null,"<img src=""stim_listA/flirt8.gif""style=""height:400px;""></stim_listA>",,html-keyboard-response,177,805712,0.0-15.0-1.12,44163,List2A,black,woman,,,,null,,,,
null,are flirting with each other,,html-keyboard-response,178,807723,0.0-15.0-2.12,44163,List2A,black,woman,,,,null,,,,
11158,,,survey-text,179,818883,0.0-15.0-3.12,44163,List2A,black,woman,,,,,"{""Q0"":""beth and jane are flirting with each other""}","<img src=""stim_listA/flirt8.gif""style=""height:400px;""></stim_listA>",are flirting with each other,
null,"<div style=""font-size:60px;"">+</div>",,html-keyboard-response,180,819398,0.0-15.0-0.13,44163,List2A,black,woman,,,,null,,,,
null,"<img src=""stim_listA/touch4.gif""style=""height:400px;""></stim_listA>",,html-keyboard-response,181,821401,0.0-15.0-1.13,44163,List2A,black,woman,,,,null,,,,
null,are touching each other,,html-keyboard-response,182,823430,0.0-15.0-2.13,44163,List2A,black,woman,,,,null,,,,
12953,,,survey-text,183,836384,0.0-15.0-3.13,44163,List2A,black,woman,,,,,"{""Q0"":""fred and beth are touching each other""}","<img src=""stim_listA/touch4.gif""style=""height:400px;""></stim_listA>",are touching each other,
null,"<div style=""font-size:60px;"">+</div>",,html-keyboard-response,184,836898,0.0-15.0-0.14,44163,List2A,black,woman,,,,null,,,,
null,"<img src=""stim_listA/dance5.gif""style=""height:400px;""></stim_listA>",,html-keyboard-response,185,838900,0.0-15.0-1.14,44163,List2A,black,woman,,,,null,,,,
null,is dancing with,,html-keyboard-response,186,840915,0.0-15.0-2.14,44163,List2A,black,woman,,,,null,,,,
7188,,,survey-text,187,848104,0.0-15.0-3.14,44163,List2A,black,woman,,,,,"{""Q0"":""mike is dancing with luke""}","<img src=""stim_listA/dance5.gif""style=""height:400px;""></stim_listA>",is dancing with,
null,"<div style=""font-size:60px;"">+</div>",,html-keyboard-response,188,848611,0.0-15.0-0.15,44163,List2A,black,woman,,,,null,,,,
null,"<img src=""stim_listA/shout7.gif""style=""height:400px;""></stim_listA>",,html-keyboard-response,189,850614,0.0-15.0-1.15,44163,List2A,black,woman,,,,null,,,,
null,is shouting at,,html-keyboard-response,190,852624,0.0-15.0-2.15,44163,List2A,black,woman,,,,null,,,,
7997,,,survey-text,191,860622,0.0-15.0-3.15,44163,List2A,black,woman,,,,,"{""Q0"":""beth is shouting at ruth""}","<img src=""stim_listA/shout7.gif""style=""height:400px;""></stim_listA>",is shouting at,
null,"<div style=""font-size:60px;"">+</div>",,html-keyboard-response,192,861135,0.0-15.0-0.16,44163,List2A,black,woman,,,,null,,,,
null,"<img src=""stim_listA/shout8.gif""style=""height:400px;""></stim_listA>",,html-keyboard-response,193,863137,0.0-15.0-1.16,44163,List2A,black,woman,,,,null,,,,
null,are shouting at each other,,html-keyboard-response,194,865139,0.0-15.0-2.16,44163,List2A,black,woman,,,,null,,,,
11273,,,survey-text,195,876412,0.0-15.0-3.16,44163,List2A,black,woman,,,,,"{""Q0"":""kate and jane are shouting at each other""}","<img src=""stim_listA/shout8.gif""style=""height:400px;""></stim_listA>",are shouting at each other,
null,"<div style=""font-size:60px;"">+</div>",,html-keyboard-response,196,876920,0.0-15.0-0.17,44163,List2A,black,woman,,,,null,,,,
null,"<img src=""stim_listA/play5.gif""style=""height:400px;""></stim_listA>",,html-keyboard-response,197,878922,0.0-15.0-1.17,44163,List2A,black,woman,,,,null,,,,
null,is playing with,,html-keyboard-response,198,880929,0.0-15.0-2.17,44163,List2A,black,woman,,,,null,,,,
18217,,,survey-text,199,899146,0.0-15.0-3.17,44163,List2A,black,woman,,,,,"{""Q0"":""dave is playing with mike""}","<img src=""stim_listA/play5.gif""style=""height:400px;""></stim_listA>",is playing with,
null,"<div style=""font-size:60px;"">+</div>",,html-keyboard-response,200,899653,0.0-15.0-0.18,44163,List2A,black,woman,,,,null,,,,
null,"<img src=""stim_listA/dance6.gif""style=""height:400px;""></stim_listA>",,html-keyboard-response,201,901657,0.0-15.0-1.18,44163,List2A,black,woman,,,,null,,,,
null,are dancing with each other,,html-keyboard-response,202,903658,0.0-15.0-2.18,44163,List2A,black,woman,,,,null,,,,
10927,,,survey-text,203,914586,0.0-15.0-3.18,44163,List2A,black,woman,,,,,"{""Q0"":""dave and fred are dancing with each other""}","<img src=""stim_listA/dance6.gif""style=""height:400px;""></stim_listA>",are dancing with each other,
null,"<div style=""font-size:60px;"">+</div>",,html-keyboard-response,204,915091,0.0-15.0-0.19,44163,List2A,black,woman,,,,null,,,,
null,"<img src=""stim_listA/argue6.gif""style=""height:400px;""></stim_listA>",,html-keyboard-response,205,917093,0.0-15.0-1.19,44163,List2A,black,woman,,,,null,,,,
null,are arguing with each other,,html-keyboard-response,206,919108,0.0-15.0-2.19,44163,List2A,black,woman,,,,null,,,,
15523,,,survey-text,207,934632,0.0-15.0-3.19,44163,List2A,black,woman,,,,,"{""Q0"":""mike and luke are arguing with each other""}","<img src=""stim_listA/argue6.gif""style=""height:400px;""></stim_listA>",are arguing with each other,
32646,"<img src='img/portrait_matrix_list2.jpg' style='width:900px;height:500px;''></img><p>If you have memorised all the portraits and names and are ready to start, press Continue.</p><p><strong>Please note: Your memory of these faces will be tested 4 times during this experiment.</strong></p>",0,html-button-response,208,967280,0.0-16.0-0.0,44163,List2A,black,woman,,,,,,,,
2071,"<img src=""portrait/BM1.jpg""style=""height:400px;""></img>",4,html-button-response,209,970367,0.0-16.0-1.0,44163,List2A,black,woman,,TRUE,4,,,,,
null,CORRECT,,html-keyboard-response,210,971870,0.0-16.0-2.0-0.0,44163,List2A,black,woman,,,,null,,,,
1586,"<img src=""portrait/WW2.jpg""style=""height:400px;""></img>",3,html-button-response,211,973456,0.0-16.0-4.0,44163,List2A,black,woman,,TRUE,3,,,,,
null,CORRECT,,html-keyboard-response,212,974974,0.0-16.0-5.0-0.0,44163,List2A,black,woman,,,,null,,,,
2130,"<img src=""portrait/BW1.jpg""style=""height:400px;""></img>",0,html-button-response,213,977105,0.0-16.0-7.0,44163,List2A,black,woman,,TRUE,0,,,,,
null,CORRECT,,html-keyboard-response,214,978618,0.0-16.0-8.0-0.0,44163,List2A,black,woman,,,,null,,,,
3046,"<img src=""portrait/WM2.jpg""style=""height:400px;""></img>",7,html-button-response,215,981666,0.0-16.0-10.0,44163,List2A,black,woman,,TRUE,7,,,,,
null,CORRECT,,html-keyboard-response,216,983175,0.0-16.0-11.0-0.0,44163,List2A,black,woman,,,,null,,,,
2905,"<img src=""portrait/WM1.jpg""style=""height:400px;""></img>",6,html-button-response,217,986081,0.0-16.0-13.0,44163,List2A,black,woman,,TRUE,6,,,,,
null,CORRECT,,html-keyboard-response,218,987596,0.0-16.0-14.0-0.0,44163,List2A,black,woman,,,,null,,,,
1919,"<img src=""portrait/BM2.jpg""style=""height:400px;""></img>",5,html-button-response,219,989515,0.0-16.0-16.0,44163,List2A,black,woman,,TRUE,5,,,,,
null,CORRECT,,html-keyboard-response,220,991037,0.0-16.0-17.0-0.0,44163,List2A,black,woman,,,,null,,,,
2248,"<img src=""portrait/BW2.jpg""style=""height:400px;""></img>",2,html-button-response,221,993286,0.0-16.0-19.0,44163,List2A,black,woman,,TRUE,2,,,,,
null,CORRECT,,html-keyboard-response,222,994800,0.0-16.0-20.0-0.0,44163,List2A,black,woman,,,,null,,,,
2293,"<img src=""portrait/WW1.jpg""style=""height:400px;""></img>",1,html-button-response,223,997094,0.0-16.0-22.0,44163,List2A,black,woman,,TRUE,1,,,,,
null,CORRECT,,html-keyboard-response,224,998616,0.0-16.0-23.0-0.0,44163,List2A,black,woman,,,,null,,,,
2427,<p>You got 8 out of 8 right first time. Press Continue.</p>,0,html-button-response,225,1001044,0.0-16.0-25.0,44163,List2A,black,woman,,,,,,,,
null,"<div style=""font-size:60px;"">+</div>",,html-keyboard-response,226,1002559,0.0-17.0-0.0,44163,List2A,black,woman,,,,null,,,,
null,"<img src=""stim_listA/play6.gif""style=""height:400px;""></stim_listA>",,html-keyboard-response,227,1004561,0.0-17.0-1.0,44163,List2A,black,woman,,,,null,,,,
null,are playing with each other,,html-keyboard-response,228,1006563,0.0-17.0-2.0,44163,List2A,black,woman,,,,null,,,,
12331,,,survey-text,229,1018896,0.0-17.0-3.0,44163,List2A,black,woman,,,,,"{""Q0"":""fred and luke are playing with each other""}","<img src=""stim_listA/play6.gif""style=""height:400px;""></stim_listA>",are playing with each other,
null,"<div style=""font-size:60px;"">+</div>",,html-keyboard-response,230,1019406,0.0-17.0-0.1,44163,List2A,black,woman,,,,null,,,,
null,"<img src=""stim_listA/play4.gif""style=""height:400px;""></stim_listA>",,html-keyboard-response,231,1021408,0.0-17.0-1.1,44163,List2A,black,woman,,,,null,,,,
null,are playing with each other,,html-keyboard-response,232,1023414,0.0-17.0-2.1,44163,List2A,black,woman,,,,null,,,,
12815,,,survey-text,233,1036231,0.0-17.0-3.1,44163,List2A,black,woman,,,,,"{""Q0"":""beth and fred are playing with each other""}","<img src=""stim_listA/play4.gif""style=""height:400px;""></stim_listA>",are playing with each other,
null,"<div style=""font-size:60px;"">+</div>",,html-keyboard-response,234,1036734,0.0-17.0-0.2,44163,List2A,black,woman,,,,null,,,,
null,"<img src=""stim_listA/shout2.gif""style=""height:400px;""></stim_listA>",,html-keyboard-response,235,1038739,0.0-17.0-1.2,44163,List2A,black,woman,,,,null,,,,
null,are shouting at each other,,html-keyboard-response,236,1040741,0.0-17.0-2.2,44163,List2A,black,woman,,,,null,,,,
18628,,,survey-text,237,1059370,0.0-17.0-3.2,44163,List2A,black,woman,,,,,"{""Q0"":""jane and dave are shouting at each other""}","<img src=""stim_listA/shout2.gif""style=""height:400px;""></stim_listA>",are shouting at each other,
null,"<div style=""font-size:60px;"">+</div>",,html-keyboard-response,238,1059872,0.0-17.0-0.3,44163,List2A,black,woman,,,,null,,,,
null,"<img src=""stim_listA/fight5.gif""style=""height:400px;""></stim_listA>",,html-keyboard-response,239,1061873,0.0-17.0-1.3,44163,List2A,black,woman,,,,null,,,,
null,is fighting,,html-keyboard-response,240,1063885,0.0-17.0-2.3,44163,List2A,black,woman,,,,null,,,,
6799,,,survey-text,241,1070684,0.0-17.0-3.3,44163,List2A,black,woman,,,,,"{""Q0"":""dave is fighting mike""}","<img src=""stim_listA/fight5.gif""style=""height:400px;""></stim_listA>",is fighting,
null,"<div style=""font-size:60px;"">+</div>",,html-keyboard-response,242,1071188,0.0-17.0-0.4,44163,List2A,black,woman,,,,null,,,,
null,"<img src=""stim_listA/flirt6.gif""style=""height:400px;""></stim_listA>",,html-keyboard-response,243,1073191,0.0-17.0-1.4,44163,List2A,black,woman,,,,null,,,,
null,are flirting with each other,,html-keyboard-response,244,1075202,0.0-17.0-2.4,44163,List2A,black,woman,,,,null,,,,
13031,,,survey-text,245,1088235,0.0-17.0-3.4,44163,List2A,black,woman,,,,,"{""Q0"":""fred and dave are flirting with each other""}","<img src=""stim_listA/flirt6.gif""style=""height:400px;""></stim_listA>",are flirting with each other,
null,"<div style=""font-size:60px;"">+</div>",,html-keyboard-response,246,1088756,0.0-17.0-0.5,44163,List2A,black,woman,,,,null,,,,
null,"<img src=""stim_listA/marry4.gif""style=""height:400px;""></stim_listA>",,html-keyboard-response,247,1090761,0.0-17.0-1.5,44163,List2A,black,woman,,,,null,,,,
null,are marrying each other,,html-keyboard-response,248,1092776,0.0-17.0-2.5,44163,List2A,black,woman,,,,null,,,,
8168,,,survey-text,249,1100945,0.0-17.0-3.5,44163,List2A,black,woman,,,,,"{""Q0"":""kate and fred are marrying each other""}","<img src=""stim_listA/marry4.gif""style=""height:400px;""></stim_listA>",are marrying each other,
null,"<div style=""font-size:60px;"">+</div>",,html-keyboard-response,250,1101460,0.0-17.0-0.6,44163,List2A,black,woman,,,,null,,,,
null,"<img src=""stim_listA/argue4.gif""style=""height:400px;""></stim_listA>",,html-keyboard-response,251,1103472,0.0-17.0-1.6,44163,List2A,black,woman,,,,null,,,,
null,are arguing with each other,,html-keyboard-response,252,1105475,0.0-17.0-2.6,44163,List2A,black,woman,,,,null,,,,
12239,,,survey-text,253,1117715,0.0-17.0-3.6,44163,List2A,black,woman,,,,,"{""Q0"":""kate and fred are arguing with each other""}","<img src=""stim_listA/argue4.gif""style=""height:400px;""></stim_listA>",are arguing with each other,
null,"<div style=""font-size:60px;"">+</div>",,html-keyboard-response,254,1118235,0.0-17.0-0.7,44163,List2A,black,woman,,,,null,,,,
null,"<img src=""stim_listA/marry2.gif""style=""height:400px;""></stim_listA>",,html-keyboard-response,255,1120237,0.0-17.0-1.7,44163,List2A,black,woman,,,,null,,,,
null,are marrying each other,,html-keyboard-response,256,1122244,0.0-17.0-2.7,44163,List2A,black,woman,,,,null,,,,
10678,,,survey-text,257,1132923,0.0-17.0-3.7,44163,List2A,black,woman,,,,,"{""Q0"":""jane and luke are marrying each other""}","<img src=""stim_listA/marry2.gif""style=""height:400px;""></stim_listA>",are marrying each other,
null,"<div style=""font-size:60px;"">+</div>",,html-keyboard-response,258,1133429,0.0-17.0-0.8,44163,List2A,black,woman,,,,null,,,,
null,"<img src=""stim_listA/argue3.gif""style=""height:400px;""></stim_listA>",,html-keyboard-response,259,1135431,0.0-17.0-1.8,44163,List2A,black,woman,,,,null,,,,
null,is arguing with,,html-keyboard-response,260,1137447,0.0-17.0-2.8,44163,List2A,black,woman,,,,null,,,,
11444,,,survey-text,261,1148891,0.0-17.0-3.8,44163,List2A,black,woman,,,,,"{""Q0"":""mike is arguing with beth""}","<img src=""stim_listA/argue3.gif""style=""height:400px;""></stim_listA>",is arguing with,
null,"<div style=""font-size:60px;"">+</div>",,html-keyboard-response,262,1149395,0.0-17.0-0.9,44163,List2A,black,woman,,,,null,,,,
null,"<img src=""stim_listA/play1.gif""style=""height:400px;""></stim_listA>",,html-keyboard-response,263,1151396,0.0-17.0-1.9,44163,List2A,black,woman,,,,null,,,,
null,is playing with,,html-keyboard-response,264,1153397,0.0-17.0-2.9,44163,List2A,black,woman,,,,null,,,,
10608,,,survey-text,265,1164005,0.0-17.0-3.9,44163,List2A,black,woman,,,,,"{""Q0"":""dave is playing with jane""}","<img src=""stim_listA/play1.gif""style=""height:400px;""></stim_listA>",is playing with,
null,"<div style=""font-size:60px;"">+</div>",,html-keyboard-response,266,1164520,0.0-17.0-0.10,44163,List2A,black,woman,,,,null,,,,
null,"<img src=""stim_listA/talk2.gif""style=""height:400px;""></stim_listA>",,html-keyboard-response,267,1166529,0.0-17.0-1.10,44163,List2A,black,woman,,,,null,,,,
null,are talking to each other,,html-keyboard-response,268,1168535,0.0-17.0-2.10,44163,List2A,black,woman,,,,null,,,,
13868,,,survey-text,269,1182404,0.0-17.0-3.10,44163,List2A,black,woman,,,,,"{""Q0"":""ruth and dave are talking to each other""}","<img src=""stim_listA/talk2.gif""style=""height:400px;""></stim_listA>",are talking to each other,
null,"<div style=""font-size:60px;"">+</div>",,html-keyboard-response,270,1182931,0.0-17.0-0.11,44163,List2A,black,woman,,,,null,,,,
null,"<img src=""stim_listA/argue7.gif""style=""height:400px;""></stim_listA>",,html-keyboard-response,271,1184937,0.0-17.0-1.11,44163,List2A,black,woman,,,,null,,,,
null,is arguing with,,html-keyboard-response,272,1186947,0.0-17.0-2.11,44163,List2A,black,woman,,,,null,,,,
14167,,,survey-text,273,1201114,0.0-17.0-3.11,44163,List2A,black,woman,,,,,"{""Q0"":""jane is arguing with beth""}","<img src=""stim_listA/argue7.gif""style=""height:400px;""></stim_listA>",is arguing with,
null,"<div style=""font-size:60px;"">+</div>",,html-keyboard-response,274,1201620,0.0-17.0-0.12,44163,List2A,black,woman,,,,null,,,,
null,"<img src=""stim_listA/kiss8.gif""style=""height:400px;""></stim_listA>",,html-keyboard-response,275,1203623,0.0-17.0-1.12,44163,List2A,black,woman,,,,null,,,,
null,are kissing each other,,html-keyboard-response,276,1205636,0.0-17.0-2.12,44163,List2A,black,woman,,,,null,,,,
8966,,,survey-text,277,1214604,0.0-17.0-3.12,44163,List2A,black,woman,,,,,"{""Q0"":""kate and jane are kissing each other""}","<img src=""stim_listA/kiss8.gif""style=""height:400px;""></stim_listA>",are kissing each other,
null,"<div style=""font-size:60px;"">+</div>",,html-keyboard-response,278,1215105,0.0-17.0-0.13,44163,List2A,black,woman,,,,null,,,,
null,"<img src=""stim_listA/shout3.gif""style=""height:400px;""></stim_listA>",,html-keyboard-response,279,1217107,0.0-17.0-1.13,44163,List2A,black,woman,,,,null,,,,
null,is shouting at,,html-keyboard-response,280,1219123,0.0-17.0-2.13,44163,List2A,black,woman,,,,null,,,,
10920,,,survey-text,281,1230043,0.0-17.0-3.13,44163,List2A,black,woman,,,,,"{""Q0"":""fred is shouting at beth""}","<img src=""stim_listA/shout3.gif""style=""height:400px;""></stim_listA>",is shouting at,
null,"<div style=""font-size:60px;"">+</div>",,html-keyboard-response,282,1230551,0.0-17.0-0.14,44163,List2A,black,woman,,,,null,,,,
null,"<img src=""stim_listA/talk7.gif""style=""height:400px;""></stim_listA>",,html-keyboard-response,283,1232552,0.0-17.0-1.14,44163,List2A,black,woman,,,,null,,,,
null,is talking to,,html-keyboard-response,284,1234554,0.0-17.0-2.14,44163,List2A,black,woman,,,,null,,,,
7977,,,survey-text,285,1242531,0.0-17.0-3.14,44163,List2A,black,woman,,,,,"{""Q0"":""ruth is talking to kate""}","<img src=""stim_listA/talk7.gif""style=""height:400px;""></stim_listA>",is talking to,
null,"<div style=""font-size:60px;"">+</div>",,html-keyboard-response,286,1243032,0.0-17.0-0.15,44163,List2A,black,woman,,,,null,,,,
null,"<img src=""stim_listA/touch2.gif""style=""height:400px;""></stim_listA>",,html-keyboard-response,287,1245035,0.0-17.0-1.15,44163,List2A,black,woman,,,,null,,,,
null,are touching each other,,html-keyboard-response,288,1247048,0.0-17.0-2.15,44163,List2A,black,woman,,,,null,,,,
10770,,,survey-text,289,1257819,0.0-17.0-3.15,44163,List2A,black,woman,,,,,"{""Q0"":""ruth and luke are touching each other""}","<img src=""stim_listA/touch2.gif""style=""height:400px;""></stim_listA>",are touching each other,
null,"<div style=""font-size:60px;"">+</div>",,html-keyboard-response,290,1258331,0.0-17.0-0.16,44163,List2A,black,woman,,,,null,,,,
null,"<img src=""stim_listA/fight7.gif""style=""height:400px;""></stim_listA>",,html-keyboard-response,291,1260334,0.0-17.0-1.16,44163,List2A,black,woman,,,,null,,,,
null,is fighting,,html-keyboard-response,292,1262335,0.0-17.0-2.16,44163,List2A,black,woman,,,,null,,,,
9198,,,survey-text,293,1271533,0.0-17.0-3.16,44163,List2A,black,woman,,,,,"{""Q0"":""kate is fighting jane""}","<img src=""stim_listA/fight7.gif""style=""height:400px;""></stim_listA>",is fighting,
null,"<div style=""font-size:60px;"">+</div>",,html-keyboard-response,294,1272035,0.0-17.0-0.17,44163,List2A,black,woman,,,,null,,,,
null,"<img src=""stim_listA/play3.gif""style=""height:400px;""></stim_listA>",,html-keyboard-response,295,1274040,0.0-17.0-1.17,44163,List2A,black,woman,,,,null,,,,
null,is playing with,,html-keyboard-response,296,1276045,0.0-17.0-2.17,44163,List2A,black,woman,,,,null,,,,
12857,,,survey-text,297,1288903,0.0-17.0-3.17,44163,List2A,black,woman,,,,,"{""Q0"":""mike is playing with kate""}","<img src=""stim_listA/play3.gif""style=""height:400px;""></stim_listA>",is playing with,
null,"<div style=""font-size:60px;"">+</div>",,html-keyboard-response,298,1289407,0.0-17.0-0.18,44163,List2A,black,woman,,,,null,,,,
null,"<img src=""stim_listA/touch3.gif""style=""height:400px;""></stim_listA>",,html-keyboard-response,299,1291409,0.0-17.0-1.18,44163,List2A,black,woman,,,,null,,,,
null,is touching,,html-keyboard-response,300,1293420,0.0-17.0-2.18,44163,List2A,black,woman,,,,null,,,,
6776,,,survey-text,301,1300196,0.0-17.0-3.18,44163,List2A,black,woman,,,,,"{""Q0"":""kate is touching mike""}","<img src=""stim_listA/touch3.gif""style=""height:400px;""></stim_listA>",is touching,
null,"<div style=""font-size:60px;"">+</div>",,html-keyboard-response,302,1300707,0.0-17.0-0.19,44163,List2A,black,woman,,,,null,,,,
null,"<img src=""stim_listA/shout6.gif""style=""height:400px;""></stim_listA>",,html-keyboard-response,303,1302710,0.0-17.0-1.19,44163,List2A,black,woman,,,,null,,,,
null,are shouting at each other,,html-keyboard-response,304,1304716,0.0-17.0-2.19,44163,List2A,black,woman,,,,null,,,,
8970,,,survey-text,305,1313686,0.0-17.0-3.19,44163,List2A,black,woman,,,,,"{""Q0"":""mike and dave are shouting at each other""}","<img src=""stim_listA/shout6.gif""style=""height:400px;""></stim_listA>",are shouting at each other,
4163,"<img src='img/portrait_matrix_list2.jpg' style='width:900px;height:500px;''></img><p>If you have memorised all the portraits and names and are ready to start, press Continue.</p><p><strong>Please note: Your memory of these faces will be tested 4 times during this experiment.</strong></p>",0,html-button-response,306,1317850,0.0-18.0-0.0,44163,List2A,black,woman,,,,,,,,
2725,"<img src=""portrait/BM2.jpg""style=""height:400px;""></img>",5,html-button-response,307,1321577,0.0-18.0-1.0,44163,List2A,black,woman,,TRUE,5,,,,,
null,CORRECT,,html-keyboard-response,308,1323093,0.0-18.0-2.0-0.0,44163,List2A,black,woman,,,,null,,,,
2123,"<img src=""portrait/WM1.jpg""style=""height:400px;""></img>",6,html-button-response,309,1325217,0.0-18.0-4.0,44163,List2A,black,woman,,TRUE,6,,,,,
null,CORRECT,,html-keyboard-response,310,1326743,0.0-18.0-5.0-0.0,44163,List2A,black,woman,,,,null,,,,
4094,"<img src=""portrait/BM1.jpg""style=""height:400px;""></img>",4,html-button-response,311,1330838,0.0-18.0-7.0,44163,List2A,black,woman,,TRUE,4,,,,,
null,CORRECT,,html-keyboard-response,312,1332354,0.0-18.0-8.0-0.0,44163,List2A,black,woman,,,,null,,,,
1786,"<img src=""portrait/WW2.jpg""style=""height:400px;""></img>",3,html-button-response,313,1334141,0.0-18.0-10.0,44163,List2A,black,woman,,TRUE,3,,,,,
null,CORRECT,,html-keyboard-response,314,1335670,0.0-18.0-11.0-0.0,44163,List2A,black,woman,,,,null,,,,
2350,"<img src=""portrait/BW1.jpg""style=""height:400px;""></img>",0,html-button-response,315,1338022,0.0-18.0-13.0,44163,List2A,black,woman,,TRUE,0,,,,,
null,CORRECT,,html-keyboard-response,316,1339554,0.0-18.0-14.0-0.0,44163,List2A,black,woman,,,,null,,,,
3188,"<img src=""portrait/WM2.jpg""style=""height:400px;""></img>",7,html-button-response,317,1342742,0.0-18.0-16.0,44163,List2A,black,woman,,TRUE,7,,,,,
null,CORRECT,,html-keyboard-response,318,1344260,0.0-18.0-17.0-0.0,44163,List2A,black,woman,,,,null,,,,
2011,"<img src=""portrait/BW2.jpg""style=""height:400px;""></img>",2,html-button-response,319,1346273,0.0-18.0-19.0,44163,List2A,black,woman,,TRUE,2,,,,,
null,CORRECT,,html-keyboard-response,320,1347791,0.0-18.0-20.0-0.0,44163,List2A,black,woman,,,,null,,,,
2030,"<img src=""portrait/WW1.jpg""style=""height:400px;""></img>",1,html-button-response,321,1349821,0.0-18.0-22.0,44163,List2A,black,woman,,TRUE,1,,,,,
null,CORRECT,,html-keyboard-response,322,1351349,0.0-18.0-23.0-0.0,44163,List2A,black,woman,,,,null,,,,
2319,<p>You got 8 out of 8 right first time. Press Continue.</p>,0,html-button-response,323,1353669,0.0-18.0-25.0,44163,List2A,black,woman,,,,,,,,
null,"<div style=""font-size:60px;"">+</div>",,html-keyboard-response,324,1355177,0.0-19.0-0.0,44163,List2A,black,woman,,,,null,,,,
null,"<img src=""stim_listA/dance4.gif""style=""height:400px;""></stim_listA>",,html-keyboard-response,325,1357179,0.0-19.0-1.0,44163,List2A,black,woman,,,,null,,,,
null,are dancing with each other,,html-keyboard-response,326,1359186,0.0-19.0-2.0,44163,List2A,black,woman,,,,null,,,,
12841,,,survey-text,327,1372028,0.0-19.0-3.0,44163,List2A,black,woman,,,,,"{""Q0"":""mike and beth are dancing with each other""}","<img src=""stim_listA/dance4.gif""style=""height:400px;""></stim_listA>",are dancing with each other,
null,"<div style=""font-size:60px;"">+</div>",,html-keyboard-response,328,1372534,0.0-19.0-0.1,44163,List2A,black,woman,,,,null,,,,
null,"<img src=""stim_listA/fight6.gif""style=""height:400px;""></stim_listA>",,html-keyboard-response,329,1374536,0.0-19.0-1.1,44163,List2A,black,woman,,,,null,,,,
null,are fighting each other,,html-keyboard-response,330,1376543,0.0-19.0-2.1,44163,List2A,black,woman,,,,null,,,,
12947,,,survey-text,331,1389490,0.0-19.0-3.1,44163,List2A,black,woman,,,,,"{""Q0"":""fred and luke are fighting with each other""}","<img src=""stim_listA/fight6.gif""style=""height:400px;""></stim_listA>",are fighting each other,
null,"<div style=""font-size:60px;"">+</div>",,html-keyboard-response,332,1389992,0.0-19.0-0.2,44163,List2A,black,woman,,,,null,,,,
null,"<img src=""stim_listA/flirt5.gif""style=""height:400px;""></stim_listA>",,html-keyboard-response,333,1391996,0.0-19.0-1.2,44163,List2A,black,woman,,,,null,,,,
null,is flirting with,,html-keyboard-response,334,1394012,0.0-19.0-2.2,44163,List2A,black,woman,,,,null,,,,
8605,,,survey-text,335,1402618,0.0-19.0-3.2,44163,List2A,black,woman,,,,,"{""Q0"":""Mike is flirting with luke""}","<img src=""stim_listA/flirt5.gif""style=""height:400px;""></stim_listA>",is flirting with,
null,"<div style=""font-size:60px;"">+</div>",,html-keyboard-response,336,1403127,0.0-19.0-0.3,44163,List2A,black,woman,,,,null,,,,
null,"<img src=""stim_listA/talk3.gif""style=""height:400px;""></stim_listA>",,html-keyboard-response,337,1405128,0.0-19.0-1.3,44163,List2A,black,woman,,,,null,,,,
null,is talking to,,html-keyboard-response,338,1407144,0.0-19.0-2.3,44163,List2A,black,woman,,,,null,,,,
6999,,,survey-text,339,1414145,0.0-19.0-3.3,44163,List2A,black,woman,,,,,"{""Q0"":""Fred is talking to kate""}","<img src=""stim_listA/talk3.gif""style=""height:400px;""></stim_listA>",is talking to,
null,"<div style=""font-size:60px;"">+</div>",,html-keyboard-response,340,1414649,0.0-19.0-0.4,44163,List2A,black,woman,,,,null,,,,
null,"<img src=""stim_listA/dance7.gif""style=""height:400px;""></stim_listA>",,html-keyboard-response,341,1416652,0.0-19.0-1.4,44163,List2A,black,woman,,,,null,,,,
null,is dancing with,,html-keyboard-response,342,1418653,0.0-19.0-2.4,44163,List2A,black,woman,,,,null,,,,
8642,,,survey-text,343,1427295,0.0-19.0-3.4,44163,List2A,black,woman,,,,,"{""Q0"":""Ruth is dancing with kate""}","<img src=""stim_listA/dance7.gif""style=""height:400px;""></stim_listA>",is dancing with,
null,"<div style=""font-size:60px;"">+</div>",,html-keyboard-response,344,1427811,0.0-19.0-0.5,44163,List2A,black,woman,,,,null,,,,
null,"<img src=""stim_listA/argue1.gif""style=""height:400px;""></stim_listA>",,html-keyboard-response,345,1429814,0.0-19.0-1.5,44163,List2A,black,woman,,,,null,,,,
null,is arguing with,,html-keyboard-response,346,1431819,0.0-19.0-2.5,44163,List2A,black,woman,,,,null,,,,
12014,,,survey-text,347,1443833,0.0-19.0-3.5,44163,List2A,black,woman,,,,,"{""Q0"":""Dave is arguing with ruth""}","<img src=""stim_listA/argue1.gif""style=""height:400px;""></stim_listA>",is arguing with,
null,"<div style=""font-size:60px;"">+</div>",,html-keyboard-response,348,1444342,0.0-19.0-0.6,44163,List2A,black,woman,,,,null,,,,
null,"<img src=""stim_listA/dance2.gif""style=""height:400px;""></stim_listA>",,html-keyboard-response,349,1446350,0.0-19.0-1.6,44163,List2A,black,woman,,,,null,,,,
null,are dancing with each other,,html-keyboard-response,350,1448364,0.0-19.0-2.6,44163,List2A,black,woman,,,,null,,,,
12981,,,survey-text,351,1461346,0.0-19.0-3.6,44163,List2A,black,woman,,,,,"{""Q0"":""Dave and ruth are dancing with each other""}","<img src=""stim_listA/dance2.gif""style=""height:400px;""></stim_listA>",are dancing with each other,
null,"<div style=""font-size:60px;"">+</div>",,html-keyboard-response,352,1461849,0.0-19.0-0.7,44163,List2A,black,woman,,,,null,,,,
null,"<img src=""stim_listA/dance3.gif""style=""height:400px;""></stim_listA>",,html-keyboard-response,353,1463850,0.0-19.0-1.7,44163,List2A,black,woman,,,,null,,,,
null,is dancing with,,html-keyboard-response,354,1465867,0.0-19.0-2.7,44163,List2A,black,woman,,,,null,,,,
10124,,,survey-text,355,1475992,0.0-19.0-3.7,44163,List2A,black,woman,,,,,"{""Q0"":""Kate is dancing with fred""}","<img src=""stim_listA/dance3.gif""style=""height:400px;""></stim_listA>",is dancing with,
null,"<div style=""font-size:60px;"">+</div>",,html-keyboard-response,356,1476502,0.0-19.0-0.8,44163,List2A,black,woman,,,,null,,,,
null,"<img src=""stim_listA/flirt3.gif""style=""height:400px;""></stim_listA>",,html-keyboard-response,357,1478504,0.0-19.0-1.8,44163,List2A,black,woman,,,,null,,,,
null,is flirting with,,html-keyboard-response,358,1480505,0.0-19.0-2.8,44163,List2A,black,woman,,,,null,,,,
11092,,,survey-text,359,1491598,0.0-19.0-3.8,44163,List2A,black,woman,,,,,"{""Q0"":""Kate is flirting with fred""}","<img src=""stim_listA/flirt3.gif""style=""height:400px;""></stim_listA>",is flirting with,
null,"<div style=""font-size:60px;"">+</div>",,html-keyboard-response,360,1492113,0.0-19.0-0.9,44163,List2A,black,woman,,,,null,,,,
null,"<img src=""stim_listA/kiss5.gif""style=""height:400px;""></stim_listA>",,html-keyboard-response,361,1494118,0.0-19.0-1.9,44163,List2A,black,woman,,,,null,,,,
null,is kissing,,html-keyboard-response,362,1496121,0.0-19.0-2.9,44163,List2A,black,woman,,,,null,,,,
6897,,,survey-text,363,1503018,0.0-19.0-3.9,44163,List2A,black,woman,,,,,"{""Q0"":""Luke is kissing fred""}","<img src=""stim_listA/kiss5.gif""style=""height:400px;""></stim_listA>",is kissing,
null,"<div style=""font-size:60px;"">+</div>",,html-keyboard-response,364,1503527,0.0-19.0-0.10,44163,List2A,black,woman,,,,null,,,,
null,"<img src=""stim_listA/flirt7.gif""style=""height:400px;""></stim_listA>",,html-keyboard-response,365,1505530,0.0-19.0-1.10,44163,List2A,black,woman,,,,null,,,,
null,is flirting with,,html-keyboard-response,366,1507541,0.0-19.0-2.10,44163,List2A,black,woman,,,,null,,,,
9505,,,survey-text,367,1517047,0.0-19.0-3.10,44163,List2A,black,woman,,,,,"{""Q0"":""Kate is flirting with ruth""}","<img src=""stim_listA/flirt7.gif""style=""height:400px;""></stim_listA>",is flirting with,
null,"<div style=""font-size:60px;"">+</div>",,html-keyboard-response,368,1517561,0.0-19.0-0.11,44163,List2A,black,woman,,,,null,,,,
null,"<img src=""stim_listA/dance1.gif""style=""height:400px;""></stim_listA>",,html-keyboard-response,369,1519562,0.0-19.0-1.11,44163,List2A,black,woman,,,,null,,,,
null,is dancing with,,html-keyboard-response,370,1521575,0.0-19.0-2.11,44163,List2A,black,woman,,,,null,,,,
9848,,,survey-text,371,1531425,0.0-19.0-3.11,44163,List2A,black,woman,,,,,"{""Q0"":""Luke is dancing with jane""}","<img src=""stim_listA/dance1.gif""style=""height:400px;""></stim_listA>",is dancing with,
null,"<div style=""font-size:60px;"">+</div>",,html-keyboard-response,372,1531931,0.0-19.0-0.12,44163,List2A,black,woman,,,,null,,,,
null,"<img src=""stim_listA/marry1.gif""style=""height:400px;""></stim_listA>",,html-keyboard-response,373,1533932,0.0-19.0-1.12,44163,List2A,black,woman,,,,null,,,,
null,is marrying,,html-keyboard-response,374,1535941,0.0-19.0-2.12,44163,List2A,black,woman,,,,null,,,,
8097,,,survey-text,375,1544039,0.0-19.0-3.12,44163,List2A,black,woman,,,,,"{""Q0"":""Dave is marrying ruth""}","<img src=""stim_listA/marry1.gif""style=""height:400px;""></stim_listA>",is marrying,
null,"<div style=""font-size:60px;"">+</div>",,html-keyboard-response,376,1544548,0.0-19.0-0.13,44163,List2A,black,woman,,,,null,,,,
null,"<img src=""stim_listA/fight3.gif""style=""height:400px;""></stim_listA>",,html-keyboard-response,377,1546555,0.0-19.0-1.13,44163,List2A,black,woman,,,,null,,,,
null,is fighting,,html-keyboard-response,378,1548561,0.0-19.0-2.13,44163,List2A,black,woman,,,,null,,,,
8171,,,survey-text,379,1556734,0.0-19.0-3.13,44163,List2A,black,woman,,,,,"{""Q0"":""Mike is fighting kate""}","<img src=""stim_listA/fight3.gif""style=""height:400px;""></stim_listA>",is fighting,
null,"<div style=""font-size:60px;"">+</div>",,html-keyboard-response,380,1557250,0.0-19.0-0.14,44163,List2A,black,woman,,,,null,,,,
null,"<img src=""stim_listA/marry3.gif""style=""height:400px;""></stim_listA>",,html-keyboard-response,381,1559251,0.0-19.0-1.14,44163,List2A,black,woman,,,,null,,,,
null,is marrying,,html-keyboard-response,382,1561261,0.0-19.0-2.14,44163,List2A,black,woman,,,,null,,,,
5668,,,survey-text,383,1566930,0.0-19.0-3.14,44163,List2A,black,woman,,,,,"{""Q0"":""Mike is marrying beth""}","<img src=""stim_listA/marry3.gif""style=""height:400px;""></stim_listA>",is marrying,
null,"<div style=""font-size:60px;"">+</div>",,html-keyboard-response,384,1567437,0.0-19.0-0.15,44163,List2A,black,woman,,,,null,,,,
null,"<img src=""stim_listA/fight2.gif""style=""height:400px;""></stim_listA>",,html-keyboard-response,385,1569438,0.0-19.0-1.15,44163,List2A,black,woman,,,,null,,,,
null,are fighting each other,,html-keyboard-response,386,1571440,0.0-19.0-2.15,44163,List2A,black,woman,,,,null,,,,
10948,,,survey-text,387,1582389,0.0-19.0-3.15,44163,List2A,black,woman,,,,,"{""Q0"":""Ruth and luke are fighting each other""}","<img src=""stim_listA/fight2.gif""style=""height:400px;""></stim_listA>",are fighting each other,
null,"<div style=""font-size:60px;"">+</div>",,html-keyboard-response,388,1582895,0.0-19.0-0.16,44163,List2A,black,woman,,,,null,,,,
null,"<img src=""stim_listA/argue5.gif""style=""height:400px;""></stim_listA>",,html-keyboard-response,389,1584896,0.0-19.0-1.16,44163,List2A,black,woman,,,,null,,,,
null,is arguing with,,html-keyboard-response,390,1586906,0.0-19.0-2.16,44163,List2A,black,woman,,,,null,,,,
8761,,,survey-text,391,1595667,0.0-19.0-3.16,44163,List2A,black,woman,,,,,"{""Q0"":""Dave is arguing with fred""}","<img src=""stim_listA/argue5.gif""style=""height:400px;""></stim_listA>",is arguing with,
null,"<div style=""font-size:60px;"">+</div>",,html-keyboard-response,392,1596169,0.0-19.0-0.17,44163,List2A,black,woman,,,,null,,,,
null,"<img src=""stim_listA/play7.gif""style=""height:400px;""></stim_listA>",,html-keyboard-response,393,1598170,0.0-19.0-1.17,44163,List2A,black,woman,,,,null,,,,
null,is playing with,,html-keyboard-response,394,1600176,0.0-19.0-2.17,44163,List2A,black,woman,,,,null,,,,
8612,,,survey-text,395,1608789,0.0-19.0-3.17,44163,List2A,black,woman,,,,,"{""Q0"":""Jane is playing with kate""}","<img src=""stim_listA/play7.gif""style=""height:400px;""></stim_listA>",is playing with,
null,"<div style=""font-size:60px;"">+</div>",,html-keyboard-response,396,1609301,0.0-19.0-0.18,44163,List2A,black,woman,,,,null,,,,
null,"<img src=""stim_listA/kiss3.gif""style=""height:400px;""></stim_listA>",,html-keyboard-response,397,1611313,0.0-19.0-1.18,44163,List2A,black,woman,,,,null,,,,
null,is kissing,,html-keyboard-response,398,1613328,0.0-19.0-2.18,44163,List2A,black,woman,,,,null,,,,
8091,,,survey-text,399,1621419,0.0-19.0-3.18,44163,List2A,black,woman,,,,,"{""Q0"":""Beth is kissing fred""}","<img src=""stim_listA/kiss3.gif""style=""height:400px;""></stim_listA>",is kissing,
null,"<div style=""font-size:60px;"">+</div>",,html-keyboard-response,400,1621921,0.0-19.0-0.19,44163,List2A,black,woman,,,,null,,,,
null,"<img src=""stim_listA/marry5.gif""style=""height:400px;""></stim_listA>",,html-keyboard-response,401,1623922,0.0-19.0-1.19,44163,List2A,black,woman,,,,null,,,,
null,is marrying,,html-keyboard-response,402,1625923,0.0-19.0-2.19,44163,List2A,black,woman,,,,null,,,,
7080,,,survey-text,403,1633003,0.0-19.0-3.19,44163,List2A,black,woman,,,,,"{""Q0"":""Fred is marrying dave""}","<img src=""stim_listA/marry5.gif""style=""height:400px;""></stim_listA>",is marrying,
2791,<p>Thank you for completing that task.</p><p>The final part of this session is a short questionnaire.</p><p>Press Continue.</p>,0,html-button-response,404,1635795,0.0-20.0,44163,List2A,black,woman,,,,,,,,
18978,,,survey-text,405,1655782,0.0-21.0,44163,List2A,black,woman,,,,,"{""Q0"":""31"",""Q1"":""English"",""Q2"":""English"",""Q3"":""UK"",""Q4"":""Black"",""Q5"":""Female""}",,,demographics
8979,,,survey-likert,406,1664763,0.0-22.0,44163,List2A,black,woman,,,,,"{""Q0"":4}",,,likert_ESS
11751,,,survey-likert,407,1676515,0.0-23.0,44163,List2A,black,woman,,,,,"{""Q0"":0}",,,likert_NSSAL_Q1
5806,,,survey-likert,408,1682322,0.0-24.0,44163,List2A,black,woman,,,,,"{""Q0"":0}",,,likert_NSSAL_Q2
5532,,,survey-likert,409,1687855,0.0-25.0,44163,List2A,black,woman,,,,,"{""Q0"":3}",,,likert_CGRS_Q1
3997,,,survey-likert,410,1691853,0.0-26.0,44163,List2A,black,woman,,,,,"{""Q0"":3}",,,likert_CGRS_Q2
3956,,,survey-likert,411,1695810,0.0-27.0,44163,List2A,black,woman,,,,,"{""Q0"":3}",,,likert_CGRS_Q3
4534,,,survey-text,412,1700345,0.0-28.0,44163,List2A,black,woman,,,,,"{""Q0"":""ccc""}",,,worker_id
3444,,,external-html,413,1703839,0.0-29.0,44163,List2A,black,woman,debrief.html,,,,,,,
