rt,stimulus,button_pressed,trial_type,trial_index,time_elapsed,internal_node_id,subject,list,ppt_race,ppt_gender,url,first_guess,correct,key_press,responses,image_type,phrase_type,test_part
16183,Welcome to the experiment. Press Continue to begin.,0,html-button-response,0,16185,0.0-0.0,44602,List2B,white,woman,,,,,,,,
41114,,,external-html,1,58420,0.0-1.0,44602,List2B,white,woman,consent.html,,,,,,,
9496,"<p>On the next page, you will see portraits of 8 people and their names.</p><p>Your first task is to take a few minutes to memorise the names of these people.</p><p>You will have to recall their names during the rest of the experiment, so it is</p><p>essential that you try to memorise these people and their names as best as you can.</p><br><p><strong>You will then be tested on your memory of these names and portraits.</strong></p><br><p>The experiment will start after you have completed this memory test.</p><br><p>Ready?</p>",0,html-button-response,2,67918,0.0-2.0,44602,List2B,white,woman,,,,,,,,
127576,"<img src='img/portrait_matrix_list2.jpg' style='width:900px;height:500px;''></img><p>If you have memorised all the portraits and names and are ready to start, press Continue.</p><p><strong>Please note: Your memory of these faces will be tested 4 times during this experiment.</strong></p>",0,html-button-response,3,196496,0.0-3.0-0.0,44602,List2B,white,woman,,,,,,,,
23349,"<img src=""portrait/BW1.jpg""style=""height:400px;""></img>",2,html-button-response,4,220848,0.0-3.0-1.0,44602,List2B,white,woman,,TRUE,0,,,,,
3229,"<img src=""portrait/BW1.jpg""style=""height:400px;""></img>",0,html-button-response,5,225081,0.0-3.0-3.0-0.0,44602,List2B,white,woman,,FALSE,0,,,,,
null,CORRECT,,html-keyboard-response,6,226584,0.0-3.0-3.0-1.0-0.0,44602,List2B,white,woman,,,,null,,,,
2020,"<img src=""portrait/WW2.jpg""style=""height:400px;""></img>",3,html-button-response,7,228610,0.0-3.0-4.0,44602,List2B,white,woman,,TRUE,3,,,,,
null,CORRECT,,html-keyboard-response,8,230112,0.0-3.0-5.0-0.0,44602,List2B,white,woman,,,,null,,,,
6722,"<img src=""portrait/BW2.jpg""style=""height:400px;""></img>",1,html-button-response,9,236836,0.0-3.0-7.0,44602,List2B,white,woman,,TRUE,2,,,,,
3446,"<img src=""portrait/BW2.jpg""style=""height:400px;""></img>",2,html-button-response,10,241284,0.0-3.0-9.0-0.0,44602,List2B,white,woman,,FALSE,2,,,,,
null,CORRECT,,html-keyboard-response,11,242785,0.0-3.0-9.0-1.0-0.0,44602,List2B,white,woman,,,,null,,,,
2457,"<img src=""portrait/WM1.jpg""style=""height:400px;""></img>",6,html-button-response,12,245244,0.0-3.0-10.0,44602,List2B,white,woman,,TRUE,6,,,,,
null,CORRECT,,html-keyboard-response,13,246745,0.0-3.0-11.0-0.0,44602,List2B,white,woman,,,,null,,,,
2659,"<img src=""portrait/WM2.jpg""style=""height:400px;""></img>",7,html-button-response,14,249406,0.0-3.0-13.0,44602,List2B,white,woman,,TRUE,7,,,,,
null,CORRECT,,html-keyboard-response,15,250908,0.0-3.0-14.0-0.0,44602,List2B,white,woman,,,,null,,,,
8328,"<img src=""portrait/BM1.jpg""style=""height:400px;""></img>",4,html-button-response,16,259236,0.0-3.0-16.0,44602,List2B,white,woman,,TRUE,4,,,,,
null,CORRECT,,html-keyboard-response,17,260739,0.0-3.0-17.0-0.0,44602,List2B,white,woman,,,,null,,,,
5285,"<img src=""portrait/BM2.jpg""style=""height:400px;""></img>",5,html-button-response,18,266024,0.0-3.0-19.0,44602,List2B,white,woman,,TRUE,5,,,,,
null,CORRECT,,html-keyboard-response,19,267526,0.0-3.0-20.0-0.0,44602,List2B,white,woman,,,,null,,,,
5151,"<img src=""portrait/WW1.jpg""style=""height:400px;""></img>",1,html-button-response,20,272678,0.0-3.0-22.0,44602,List2B,white,woman,,TRUE,1,,,,,
null,CORRECT,,html-keyboard-response,21,274179,0.0-3.0-23.0-0.0,44602,List2B,white,woman,,,,null,,,,
2048,<p>You got 6 out of 8 right first time. Press Continue.</p>,0,html-button-response,22,276228,0.0-3.0-25.0,44602,List2B,white,woman,,,,,,,,
1657,"As you did not score 100%, the memory game will repeat. Press Continue.",0,html-button-response,23,278886,0.0-3.0-26.0-0.0,44602,List2B,white,woman,,,,,,,,
64678,"<img src='img/portrait_matrix_list2.jpg' style='width:900px;height:500px;''></img><p>If you have memorised all the portraits and names and are ready to start, press Continue.</p><p><strong>Please note: Your memory of these faces will be tested 4 times during this experiment.</strong></p>",0,html-button-response,24,344567,0.0-3.1-0.1,44602,List2B,white,woman,,,,,,,,
8742,"<img src=""portrait/BW1.jpg""style=""height:400px;""></img>",0,html-button-response,25,354311,0.0-3.1-1.1,44602,List2B,white,woman,,TRUE,0,,,,,
null,CORRECT,,html-keyboard-response,26,355812,0.0-3.1-2.1-0.1,44602,List2B,white,woman,,,,null,,,,
1997,"<img src=""portrait/WW2.jpg""style=""height:400px;""></img>",3,html-button-response,27,357811,0.0-3.1-4.1,44602,List2B,white,woman,,TRUE,3,,,,,
null,CORRECT,,html-keyboard-response,28,359313,0.0-3.1-5.1-0.1,44602,List2B,white,woman,,,,null,,,,
3491,"<img src=""portrait/BW2.jpg""style=""height:400px;""></img>",2,html-button-response,29,362805,0.0-3.1-7.1,44602,List2B,white,woman,,TRUE,2,,,,,
null,CORRECT,,html-keyboard-response,30,364308,0.0-3.1-8.1-0.1,44602,List2B,white,woman,,,,null,,,,
2252,"<img src=""portrait/WM1.jpg""style=""height:400px;""></img>",6,html-button-response,31,366561,0.0-3.1-10.1,44602,List2B,white,woman,,TRUE,6,,,,,
null,CORRECT,,html-keyboard-response,32,368063,0.0-3.1-11.1-0.1,44602,List2B,white,woman,,,,null,,,,
2132,"<img src=""portrait/WM2.jpg""style=""height:400px;""></img>",7,html-button-response,33,370197,0.0-3.1-13.1,44602,List2B,white,woman,,TRUE,7,,,,,
null,CORRECT,,html-keyboard-response,34,371699,0.0-3.1-14.1-0.1,44602,List2B,white,woman,,,,null,,,,
2138,"<img src=""portrait/BM1.jpg""style=""height:400px;""></img>",4,html-button-response,35,373839,0.0-3.1-16.1,44602,List2B,white,woman,,TRUE,4,,,,,
null,CORRECT,,html-keyboard-response,36,375342,0.0-3.1-17.1-0.1,44602,List2B,white,woman,,,,null,,,,
2051,"<img src=""portrait/BM2.jpg""style=""height:400px;""></img>",5,html-button-response,37,377395,0.0-3.1-19.1,44602,List2B,white,woman,,TRUE,5,,,,,
null,CORRECT,,html-keyboard-response,38,378898,0.0-3.1-20.1-0.1,44602,List2B,white,woman,,,,null,,,,
2005,"<img src=""portrait/WW1.jpg""style=""height:400px;""></img>",1,html-button-response,39,380905,0.0-3.1-22.1,44602,List2B,white,woman,,TRUE,1,,,,,
null,CORRECT,,html-keyboard-response,40,382407,0.0-3.1-23.1-0.1,44602,List2B,white,woman,,,,null,,,,
1555,<p>You got 8 out of 8 right first time. Press Continue.</p>,0,html-button-response,41,383963,0.0-3.1-25.1,44602,List2B,white,woman,,,,,,,,
25738,"<p>In this experiment, you will view photographs of the people from the memory game interacting.</p><p>By using the <strong>exact</strong> phrase given <i>after</i> the photograph appears and recalling the correct names of the people in the photographs, form a sentence describing the interaction. You do not need to capitalise names.</p><p>Type your answer in the space provided. Please complete every sentence before moving onto the next trial.</p><p>You will only have a few seconds to memorise each given photograph and phrase before you can respond, so try your best to focus.</p><p>An example is given below. Press 'Continue' when you are ready.</p><img src='img/speaking_example.jpg' style='width:800px;height:460px;''></img>",0,html-button-response,42,410702,0.0-4.0,44602,List2B,white,woman,,,,,,,,
2071,"<p>Before the experiment starts, you will watch two example trials. Press 'Continue'.</p>",0,html-button-response,43,413774,0.0-5.0,44602,List2B,white,woman,,,,,,,,
null,<img src='img/meet_eg.gif' style='height:400px;''></img>,,html-keyboard-response,44,416777,0.0-6.0,44602,List2B,white,woman,,,,null,,,,
null,<p>is meeting</p>,,html-keyboard-response,45,418778,0.0-7.0,44602,List2B,white,woman,,,,null,,,,
2959,<p><b>Answer:</b> jane is meeting ruth</p>,0,html-button-response,46,421738,0.0-8.0,44602,List2B,white,woman,,,,,,,,
null,<img src='img/look_eg.gif' style='height:400px;''></img>,,html-keyboard-response,47,424741,0.0-9.0,44602,List2B,white,woman,,,,null,,,,
null,<p>are looking at each other</p>,,html-keyboard-response,48,426742,0.0-10.0,44602,List2B,white,woman,,,,null,,,,
6041,<p><b>Answer:</b> fred and mike are looking at each other</p>,0,html-button-response,49,432784,0.0-11.0,44602,List2B,white,woman,,,,,,,,
5995,"<p>Ready to start the experiment?</p><br><p><strong>Remember to describe the picture using a full sentence,</strong></p><p><strong>that combines the names of the people with the <i>exact</i> phrase given.</strong></p><p><strong>To receive full payment you must do this correctly.</strong></p><p><strong> You do not need to capitalise names or use punctuation.</strong></p><br><p>Press 'Continue' to begin.</p>",0,html-button-response,50,439780,0.0-12.0,44602,List2B,white,woman,,,,,,,,
null,"<div style=""font-size:60px;"">+</div>",,html-keyboard-response,51,441282,0.0-13.0-0.0,44602,List2B,white,woman,,,,null,,,,
null,"<img src=""stim_listB/marry5.gif""style=""height:400px;""></stim_listB>",,html-keyboard-response,52,443283,0.0-13.0-1.0,44602,List2B,white,woman,,,,null,,,,
null,is marrying,,html-keyboard-response,53,445284,0.0-13.0-2.0,44602,List2B,white,woman,,,,null,,,,
16067,,,survey-text,54,461352,0.0-13.0-3.0,44602,List2B,white,woman,,,,,"{""Q0"":""dave is marrying fred""}","<img src=""stim_listB/marry5.gif""style=""height:400px;""></stim_listB>",is marrying,
null,"<div style=""font-size:60px;"">+</div>",,html-keyboard-response,55,461860,0.0-13.0-0.1,44602,List2B,white,woman,,,,null,,,,
null,"<img src=""stim_listB/touch1.gif""style=""height:400px;""></stim_listB>",,html-keyboard-response,56,463861,0.0-13.0-1.1,44602,List2B,white,woman,,,,null,,,,
null,is touching,,html-keyboard-response,57,465864,0.0-13.0-2.1,44602,List2B,white,woman,,,,null,,,,
9812,,,survey-text,58,475676,0.0-13.0-3.1,44602,List2B,white,woman,,,,,"{""Q0"":""dave is touching jane""}","<img src=""stim_listB/touch1.gif""style=""height:400px;""></stim_listB>",is touching,
null,"<div style=""font-size:60px;"">+</div>",,html-keyboard-response,59,476179,0.0-13.0-0.2,44602,List2B,white,woman,,,,null,,,,
null,"<img src=""stim_listB/play6.gif""style=""height:400px;""></stim_listB>",,html-keyboard-response,60,478180,0.0-13.0-1.2,44602,List2B,white,woman,,,,null,,,,
null,are playing with each other,,html-keyboard-response,61,480181,0.0-13.0-2.2,44602,List2B,white,woman,,,,null,,,,
14156,,,survey-text,62,494338,0.0-13.0-3.2,44602,List2B,white,woman,,,,,"{""Q0"":""luke is playing with fred""}","<img src=""stim_listB/play6.gif""style=""height:400px;""></stim_listB>",are playing with each other,
null,"<div style=""font-size:60px;"">+</div>",,html-keyboard-response,63,494844,0.0-13.0-0.3,44602,List2B,white,woman,,,,null,,,,
null,"<img src=""stim_listB/shout1.gif""style=""height:400px;""></stim_listB>",,html-keyboard-response,64,496845,0.0-13.0-1.3,44602,List2B,white,woman,,,,null,,,,
null,is shouting at,,html-keyboard-response,65,498847,0.0-13.0-2.3,44602,List2B,white,woman,,,,null,,,,
12855,,,survey-text,66,511702,0.0-13.0-3.3,44602,List2B,white,woman,,,,,"{""Q0"":""ruth is shouting at luke""}","<img src=""stim_listB/shout1.gif""style=""height:400px;""></stim_listB>",is shouting at,
null,"<div style=""font-size:60px;"">+</div>",,html-keyboard-response,67,512203,0.0-13.0-0.4,44602,List2B,white,woman,,,,null,,,,
null,"<img src=""stim_listB/dance6.gif""style=""height:400px;""></stim_listB>",,html-keyboard-response,68,514205,0.0-13.0-1.4,44602,List2B,white,woman,,,,null,,,,
null,are dancing with each other,,html-keyboard-response,69,516206,0.0-13.0-2.4,44602,List2B,white,woman,,,,null,,,,
20693,,,survey-text,70,536899,0.0-13.0-3.4,44602,List2B,white,woman,,,,,"{""Q0"":""fred and dave are dancing with each other""}","<img src=""stim_listB/dance6.gif""style=""height:400px;""></stim_listB>",are dancing with each other,
null,"<div style=""font-size:60px;"">+</div>",,html-keyboard-response,71,537401,0.0-13.0-0.5,44602,List2B,white,woman,,,,null,,,,
null,"<img src=""stim_listB/shout6.gif""style=""height:400px;""></stim_listB>",,html-keyboard-response,72,539402,0.0-13.0-1.5,44602,List2B,white,woman,,,,null,,,,
null,are shouting at each other,,html-keyboard-response,73,541403,0.0-13.0-2.5,44602,List2B,white,woman,,,,null,,,,
23934,,,survey-text,74,565337,0.0-13.0-3.5,44602,List2B,white,woman,,,,,"{""Q0"":""dave and mike are shouting at each other""}","<img src=""stim_listB/shout6.gif""style=""height:400px;""></stim_listB>",are shouting at each other,
null,"<div style=""font-size:60px;"">+</div>",,html-keyboard-response,75,565851,0.0-13.0-0.6,44602,List2B,white,woman,,,,null,,,,
null,"<img src=""stim_listB/talk4.gif""style=""height:400px;""></stim_listB>",,html-keyboard-response,76,567852,0.0-13.0-1.6,44602,List2B,white,woman,,,,null,,,,
null,are talking to each other,,html-keyboard-response,77,569853,0.0-13.0-2.6,44602,List2B,white,woman,,,,null,,,,
10920,,,survey-text,78,580775,0.0-13.0-3.6,44602,List2B,white,woman,,,,,"{""Q0"":""mike and beth ""}","<img src=""stim_listB/talk4.gif""style=""height:400px;""></stim_listB>",are talking to each other,
null,"<div style=""font-size:60px;"">+</div>",,html-keyboard-response,79,581276,0.0-13.0-0.7,44602,List2B,white,woman,,,,null,,,,
null,"<img src=""stim_listB/kiss7.gif""style=""height:400px;""></stim_listB>",,html-keyboard-response,80,583278,0.0-13.0-1.7,44602,List2B,white,woman,,,,null,,,,
null,is kissing,,html-keyboard-response,81,585278,0.0-13.0-2.7,44602,List2B,white,woman,,,,null,,,,
13499,,,survey-text,82,598779,0.0-13.0-3.7,44602,List2B,white,woman,,,,,"{""Q0"":""ruth is kissing beth""}","<img src=""stim_listB/kiss7.gif""style=""height:400px;""></stim_listB>",is kissing,
null,"<div style=""font-size:60px;"">+</div>",,html-keyboard-response,83,599280,0.0-13.0-0.8,44602,List2B,white,woman,,,,null,,,,
null,"<img src=""stim_listB/shout3.gif""style=""height:400px;""></stim_listB>",,html-keyboard-response,84,601281,0.0-13.0-1.8,44602,List2B,white,woman,,,,null,,,,
null,is shouting at,,html-keyboard-response,85,603283,0.0-13.0-2.8,44602,List2B,white,woman,,,,null,,,,
11459,,,survey-text,86,614743,0.0-13.0-3.8,44602,List2B,white,woman,,,,,"{""Q0"":""beth is shouting at fred""}","<img src=""stim_listB/shout3.gif""style=""height:400px;""></stim_listB>",is shouting at,
null,"<div style=""font-size:60px;"">+</div>",,html-keyboard-response,87,615244,0.0-13.0-0.9,44602,List2B,white,woman,,,,null,,,,
null,"<img src=""stim_listB/touch5.gif""style=""height:400px;""></stim_listB>",,html-keyboard-response,88,617247,0.0-13.0-1.9,44602,List2B,white,woman,,,,null,,,,
null,is touching,,html-keyboard-response,89,619247,0.0-13.0-2.9,44602,List2B,white,woman,,,,null,,,,
11128,,,survey-text,90,630376,0.0-13.0-3.9,44602,List2B,white,woman,,,,,"{""Q0"":""dave is touching mike""}","<img src=""stim_listB/touch5.gif""style=""height:400px;""></stim_listB>",is touching,
null,"<div style=""font-size:60px;"">+</div>",,html-keyboard-response,91,630881,0.0-13.0-0.10,44602,List2B,white,woman,,,,null,,,,
null,"<img src=""stim_listB/marry1.gif""style=""height:400px;""></stim_listB>",,html-keyboard-response,92,632882,0.0-13.0-1.10,44602,List2B,white,woman,,,,null,,,,
null,is marrying,,html-keyboard-response,93,634889,0.0-13.0-2.10,44602,List2B,white,woman,,,,null,,,,
13115,,,survey-text,94,648004,0.0-13.0-3.10,44602,List2B,white,woman,,,,,"{""Q0"":""ruth is marrying dave""}","<img src=""stim_listB/marry1.gif""style=""height:400px;""></stim_listB>",is marrying,
null,"<div style=""font-size:60px;"">+</div>",,html-keyboard-response,95,648506,0.0-13.0-0.11,44602,List2B,white,woman,,,,null,,,,
null,"<img src=""stim_listB/argue4.gif""style=""height:400px;""></stim_listB>",,html-keyboard-response,96,650507,0.0-13.0-1.11,44602,List2B,white,woman,,,,null,,,,
null,are arguing with each other,,html-keyboard-response,97,652508,0.0-13.0-2.11,44602,List2B,white,woman,,,,null,,,,
10526,,,survey-text,98,663035,0.0-13.0-3.11,44602,List2B,white,woman,,,,,"{""Q0"":""fred and ""}","<img src=""stim_listB/argue4.gif""style=""height:400px;""></stim_listB>",are arguing with each other,
null,"<div style=""font-size:60px;"">+</div>",,html-keyboard-response,99,663536,0.0-13.0-0.12,44602,List2B,white,woman,,,,null,,,,
null,"<img src=""stim_listB/dance5.gif""style=""height:400px;""></stim_listB>",,html-keyboard-response,100,665538,0.0-13.0-1.12,44602,List2B,white,woman,,,,null,,,,
null,is dancing with,,html-keyboard-response,101,667539,0.0-13.0-2.12,44602,List2B,white,woman,,,,null,,,,
8629,,,survey-text,102,676168,0.0-13.0-3.12,44602,List2B,white,woman,,,,,"{""Q0"":""luke is dancing with mike""}","<img src=""stim_listB/dance5.gif""style=""height:400px;""></stim_listB>",is dancing with,
null,"<div style=""font-size:60px;"">+</div>",,html-keyboard-response,103,676669,0.0-13.0-0.13,44602,List2B,white,woman,,,,null,,,,
null,"<img src=""stim_listB/dance2.gif""style=""height:400px;""></stim_listB>",,html-keyboard-response,104,678671,0.0-13.0-1.13,44602,List2B,white,woman,,,,null,,,,
null,are dancing with each other,,html-keyboard-response,105,680672,0.0-13.0-2.13,44602,List2B,white,woman,,,,null,,,,
14904,,,survey-text,106,695576,0.0-13.0-3.13,44602,List2B,white,woman,,,,,"{""Q0"":""dave and ruth are dancing with each other""}","<img src=""stim_listB/dance2.gif""style=""height:400px;""></stim_listB>",are dancing with each other,
null,"<div style=""font-size:60px;"">+</div>",,html-keyboard-response,107,696077,0.0-13.0-0.14,44602,List2B,white,woman,,,,null,,,,
null,"<img src=""stim_listB/argue8.gif""style=""height:400px;""></stim_listB>",,html-keyboard-response,108,698079,0.0-13.0-1.14,44602,List2B,white,woman,,,,null,,,,
null,are arguing with each other,,html-keyboard-response,109,700080,0.0-13.0-2.14,44602,List2B,white,woman,,,,null,,,,
36749,,,survey-text,110,736831,0.0-13.0-3.14,44602,List2B,white,woman,,,,,"{""Q0"":""ruth and beth are arguing with each other""}","<img src=""stim_listB/argue8.gif""style=""height:400px;""></stim_listB>",are arguing with each other,
null,"<div style=""font-size:60px;"">+</div>",,html-keyboard-response,111,737332,0.0-13.0-0.15,44602,List2B,white,woman,,,,null,,,,
null,"<img src=""stim_listB/flirt6.gif""style=""height:400px;""></stim_listB>",,html-keyboard-response,112,739333,0.0-13.0-1.15,44602,List2B,white,woman,,,,null,,,,
null,are flirting with each other,,html-keyboard-response,113,741334,0.0-13.0-2.15,44602,List2B,white,woman,,,,null,,,,
15402,,,survey-text,114,756737,0.0-13.0-3.15,44602,List2B,white,woman,,,,,"{""Q0"":""dave and luke are flirting with each other""}","<img src=""stim_listB/flirt6.gif""style=""height:400px;""></stim_listB>",are flirting with each other,
null,"<div style=""font-size:60px;"">+</div>",,html-keyboard-response,115,757238,0.0-13.0-0.16,44602,List2B,white,woman,,,,null,,,,
null,"<img src=""stim_listB/flirt8.gif""style=""height:400px;""></stim_listB>",,html-keyboard-response,116,759239,0.0-13.0-1.16,44602,List2B,white,woman,,,,null,,,,
null,are flirting with each other,,html-keyboard-response,117,761240,0.0-13.0-2.16,44602,List2B,white,woman,,,,null,,,,
13229,,,survey-text,118,774470,0.0-13.0-3.16,44602,List2B,white,woman,,,,,"{""Q0"":""jane and beth are flirting with each other""}","<img src=""stim_listB/flirt8.gif""style=""height:400px;""></stim_listB>",are flirting with each other,
null,"<div style=""font-size:60px;"">+</div>",,html-keyboard-response,119,774979,0.0-13.0-0.17,44602,List2B,white,woman,,,,null,,,,
null,"<img src=""stim_listB/flirt3.gif""style=""height:400px;""></stim_listB>",,html-keyboard-response,120,776981,0.0-13.0-1.17,44602,List2B,white,woman,,,,null,,,,
null,is flirting with,,html-keyboard-response,121,778981,0.0-13.0-2.17,44602,List2B,white,woman,,,,null,,,,
25216,,,survey-text,122,804198,0.0-13.0-3.17,44602,List2B,white,woman,,,,,"{""Q0"":""kate is flirting with luke""}","<img src=""stim_listB/flirt3.gif""style=""height:400px;""></stim_listB>",is flirting with,
null,"<div style=""font-size:60px;"">+</div>",,html-keyboard-response,123,804709,0.0-13.0-0.18,44602,List2B,white,woman,,,,null,,,,
null,"<img src=""stim_listB/play3.gif""style=""height:400px;""></stim_listB>",,html-keyboard-response,124,806710,0.0-13.0-1.18,44602,List2B,white,woman,,,,null,,,,
null,is playing with,,html-keyboard-response,125,808710,0.0-13.0-2.18,44602,List2B,white,woman,,,,null,,,,
9559,,,survey-text,126,818270,0.0-13.0-3.18,44602,List2B,white,woman,,,,,"{""Q0"":""""}","<img src=""stim_listB/play3.gif""style=""height:400px;""></stim_listB>",is playing with,
null,"<div style=""font-size:60px;"">+</div>",,html-keyboard-response,127,818786,0.0-13.0-0.19,44602,List2B,white,woman,,,,null,,,,
null,"<img src=""stim_listB/flirt4.gif""style=""height:400px;""></stim_listB>",,html-keyboard-response,128,820788,0.0-13.0-1.19,44602,List2B,white,woman,,,,null,,,,
null,are flirting with each other,,html-keyboard-response,129,822789,0.0-13.0-2.19,44602,List2B,white,woman,,,,null,,,,
21945,,,survey-text,130,844734,0.0-13.0-3.19,44602,List2B,white,woman,,,,,"{""Q0"":""beth and mike are flirting with each other""}","<img src=""stim_listB/flirt4.gif""style=""height:400px;""></stim_listB>",are flirting with each other,
29485,"<img src='img/portrait_matrix_list2.jpg' style='width:900px;height:500px;''></img><p>If you have memorised all the portraits and names and are ready to start, press Continue.</p><p><strong>Please note: Your memory of these faces will be tested 4 times during this experiment.</strong></p>",0,html-button-response,131,874221,0.0-14.0-0.0,44602,List2B,white,woman,,,,,,,,
3859,"<img src=""portrait/BM2.jpg""style=""height:400px;""></img>",4,html-button-response,132,879083,0.0-14.0-1.0,44602,List2B,white,woman,,TRUE,5,,,,,
2114,"<img src=""portrait/BM2.jpg""style=""height:400px;""></img>",5,html-button-response,133,882199,0.0-14.0-3.0-0.0,44602,List2B,white,woman,,FALSE,5,,,,,
null,CORRECT,,html-keyboard-response,134,883715,0.0-14.0-3.0-1.0-0.0,44602,List2B,white,woman,,,,null,,,,
2493,"<img src=""portrait/WW1.jpg""style=""height:400px;""></img>",1,html-button-response,135,886209,0.0-14.0-4.0,44602,List2B,white,woman,,TRUE,1,,,,,
null,CORRECT,,html-keyboard-response,136,887710,0.0-14.0-5.0-0.0,44602,List2B,white,woman,,,,null,,,,
3422,"<img src=""portrait/BW2.jpg""style=""height:400px;""></img>",2,html-button-response,137,891133,0.0-14.0-7.0,44602,List2B,white,woman,,TRUE,2,,,,,
null,CORRECT,,html-keyboard-response,138,892635,0.0-14.0-8.0-0.0,44602,List2B,white,woman,,,,null,,,,
3585,"<img src=""portrait/BM1.jpg""style=""height:400px;""></img>",4,html-button-response,139,896221,0.0-14.0-10.0,44602,List2B,white,woman,,TRUE,4,,,,,
null,CORRECT,,html-keyboard-response,140,897722,0.0-14.0-11.0-0.0,44602,List2B,white,woman,,,,null,,,,
2382,"<img src=""portrait/WM2.jpg""style=""height:400px;""></img>",7,html-button-response,141,900106,0.0-14.0-13.0,44602,List2B,white,woman,,TRUE,7,,,,,
null,CORRECT,,html-keyboard-response,142,901608,0.0-14.0-14.0-0.0,44602,List2B,white,woman,,,,null,,,,
2729,"<img src=""portrait/WM1.jpg""style=""height:400px;""></img>",6,html-button-response,143,904337,0.0-14.0-16.0,44602,List2B,white,woman,,TRUE,6,,,,,
null,CORRECT,,html-keyboard-response,144,905840,0.0-14.0-17.0-0.0,44602,List2B,white,woman,,,,null,,,,
3747,"<img src=""portrait/BW1.jpg""style=""height:400px;""></img>",0,html-button-response,145,909587,0.0-14.0-19.0,44602,List2B,white,woman,,TRUE,0,,,,,
null,CORRECT,,html-keyboard-response,146,911089,0.0-14.0-20.0-0.0,44602,List2B,white,woman,,,,null,,,,
1347,"<img src=""portrait/WW2.jpg""style=""height:400px;""></img>",3,html-button-response,147,912437,0.0-14.0-22.0,44602,List2B,white,woman,,TRUE,3,,,,,
null,CORRECT,,html-keyboard-response,148,913939,0.0-14.0-23.0-0.0,44602,List2B,white,woman,,,,null,,,,
1650,<p>You got 7 out of 8 right first time. Press Continue.</p>,0,html-button-response,149,915589,0.0-14.0-25.0,44602,List2B,white,woman,,,,,,,,
1274,"As you did not score 100%, the memory game will repeat. Press Continue.",0,html-button-response,150,917865,0.0-14.0-26.0-0.0,44602,List2B,white,woman,,,,,,,,
26944,"<img src='img/portrait_matrix_list2.jpg' style='width:900px;height:500px;''></img><p>If you have memorised all the portraits and names and are ready to start, press Continue.</p><p><strong>Please note: Your memory of these faces will be tested 4 times during this experiment.</strong></p>",0,html-button-response,151,945810,0.0-14.1-0.1,44602,List2B,white,woman,,,,,,,,
1802,"<img src=""portrait/BM2.jpg""style=""height:400px;""></img>",5,html-button-response,152,948614,0.0-14.1-1.1,44602,List2B,white,woman,,TRUE,5,,,,,
null,CORRECT,,html-keyboard-response,153,950116,0.0-14.1-2.1-0.1,44602,List2B,white,woman,,,,null,,,,
2088,"<img src=""portrait/WW1.jpg""style=""height:400px;""></img>",1,html-button-response,154,952206,0.0-14.1-4.1,44602,List2B,white,woman,,TRUE,1,,,,,
null,CORRECT,,html-keyboard-response,155,953709,0.0-14.1-5.1-0.1,44602,List2B,white,woman,,,,null,,,,
2884,"<img src=""portrait/BW2.jpg""style=""height:400px;""></img>",2,html-button-response,156,956594,0.0-14.1-7.1,44602,List2B,white,woman,,TRUE,2,,,,,
null,CORRECT,,html-keyboard-response,157,958109,0.0-14.1-8.1-0.1,44602,List2B,white,woman,,,,null,,,,
3374,"<img src=""portrait/BM1.jpg""style=""height:400px;""></img>",4,html-button-response,158,961484,0.0-14.1-10.1,44602,List2B,white,woman,,TRUE,4,,,,,
null,CORRECT,,html-keyboard-response,159,962987,0.0-14.1-11.1-0.1,44602,List2B,white,woman,,,,null,,,,
1926,"<img src=""portrait/WM2.jpg""style=""height:400px;""></img>",7,html-button-response,160,964915,0.0-14.1-13.1,44602,List2B,white,woman,,TRUE,7,,,,,
null,CORRECT,,html-keyboard-response,161,966417,0.0-14.1-14.1-0.1,44602,List2B,white,woman,,,,null,,,,
2220,"<img src=""portrait/WM1.jpg""style=""height:400px;""></img>",6,html-button-response,162,968639,0.0-14.1-16.1,44602,List2B,white,woman,,TRUE,6,,,,,
null,CORRECT,,html-keyboard-response,163,970142,0.0-14.1-17.1-0.1,44602,List2B,white,woman,,,,null,,,,
5854,"<img src=""portrait/BW1.jpg""style=""height:400px;""></img>",0,html-button-response,164,975997,0.0-14.1-19.1,44602,List2B,white,woman,,TRUE,0,,,,,
null,CORRECT,,html-keyboard-response,165,977499,0.0-14.1-20.1-0.1,44602,List2B,white,woman,,,,null,,,,
1502,"<img src=""portrait/WW2.jpg""style=""height:400px;""></img>",3,html-button-response,166,979002,0.0-14.1-22.1,44602,List2B,white,woman,,TRUE,3,,,,,
null,CORRECT,,html-keyboard-response,167,980506,0.0-14.1-23.1-0.1,44602,List2B,white,woman,,,,null,,,,
2124,<p>You got 8 out of 8 right first time. Press Continue.</p>,0,html-button-response,168,982630,0.0-14.1-25.1,44602,List2B,white,woman,,,,,,,,
null,"<div style=""font-size:60px;"">+</div>",,html-keyboard-response,169,984133,0.0-15.0-0.0,44602,List2B,white,woman,,,,null,,,,
null,"<img src=""stim_listB/marry8.gif""style=""height:400px;""></stim_listB>",,html-keyboard-response,170,986134,0.0-15.0-1.0,44602,List2B,white,woman,,,,null,,,,
null,are marrying each other,,html-keyboard-response,171,988135,0.0-15.0-2.0,44602,List2B,white,woman,,,,null,,,,
17366,,,survey-text,172,1005503,0.0-15.0-3.0,44602,List2B,white,woman,,,,,"{""Q0"":""ruth and kate are marrying each other""}","<img src=""stim_listB/marry8.gif""style=""height:400px;""></stim_listB>",are marrying each other,
null,"<div style=""font-size:60px;"">+</div>",,html-keyboard-response,173,1006004,0.0-15.0-0.1,44602,List2B,white,woman,,,,null,,,,
null,"<img src=""stim_listB/talk7.gif""style=""height:400px;""></stim_listB>",,html-keyboard-response,174,1008006,0.0-15.0-1.1,44602,List2B,white,woman,,,,null,,,,
null,is talking to,,html-keyboard-response,175,1010007,0.0-15.0-2.1,44602,List2B,white,woman,,,,null,,,,
7836,,,survey-text,176,1017845,0.0-15.0-3.1,44602,List2B,white,woman,,,,,"{""Q0"":""ruth is talking to kate""}","<img src=""stim_listB/talk7.gif""style=""height:400px;""></stim_listB>",is talking to,
null,"<div style=""font-size:60px;"">+</div>",,html-keyboard-response,177,1018347,0.0-15.0-0.2,44602,List2B,white,woman,,,,null,,,,
null,"<img src=""stim_listB/argue2.gif""style=""height:400px;""></stim_listB>",,html-keyboard-response,178,1020348,0.0-15.0-1.2,44602,List2B,white,woman,,,,null,,,,
null,are arguing with each other,,html-keyboard-response,179,1022349,0.0-15.0-2.2,44602,List2B,white,woman,,,,null,,,,
13885,,,survey-text,180,1036235,0.0-15.0-3.2,44602,List2B,white,woman,,,,,"{""Q0"":""luke and jane are arguing with each other""}","<img src=""stim_listB/argue2.gif""style=""height:400px;""></stim_listB>",are arguing with each other,
null,"<div style=""font-size:60px;"">+</div>",,html-keyboard-response,181,1036746,0.0-15.0-0.3,44602,List2B,white,woman,,,,null,,,,
null,"<img src=""stim_listB/marry6.gif""style=""height:400px;""></stim_listB>",,html-keyboard-response,182,1038748,0.0-15.0-1.3,44602,List2B,white,woman,,,,null,,,,
null,are marrying each other,,html-keyboard-response,183,1040750,0.0-15.0-2.3,44602,List2B,white,woman,,,,null,,,,
11118,,,survey-text,184,1051869,0.0-15.0-3.3,44602,List2B,white,woman,,,,,"{""Q0"":""luke and mike are marrying each other""}","<img src=""stim_listB/marry6.gif""style=""height:400px;""></stim_listB>",are marrying each other,
null,"<div style=""font-size:60px;"">+</div>",,html-keyboard-response,185,1052370,0.0-15.0-0.4,44602,List2B,white,woman,,,,null,,,,
null,"<img src=""stim_listB/touch3.gif""style=""height:400px;""></stim_listB>",,html-keyboard-response,186,1054371,0.0-15.0-1.4,44602,List2B,white,woman,,,,null,,,,
null,is touching,,html-keyboard-response,187,1056372,0.0-15.0-2.4,44602,List2B,white,woman,,,,null,,,,
11576,,,survey-text,188,1067949,0.0-15.0-3.4,44602,List2B,white,woman,,,,,"{""Q0"":""luke is touching kate""}","<img src=""stim_listB/touch3.gif""style=""height:400px;""></stim_listB>",is touching,
null,"<div style=""font-size:60px;"">+</div>",,html-keyboard-response,189,1068450,0.0-15.0-0.5,44602,List2B,white,woman,,,,null,,,,
null,"<img src=""stim_listB/talk3.gif""style=""height:400px;""></stim_listB>",,html-keyboard-response,190,1070451,0.0-15.0-1.5,44602,List2B,white,woman,,,,null,,,,
null,is talking to,,html-keyboard-response,191,1072453,0.0-15.0-2.5,44602,List2B,white,woman,,,,null,,,,
10217,,,survey-text,192,1082670,0.0-15.0-3.5,44602,List2B,white,woman,,,,,"{""Q0"":""kate is talking to fred""}","<img src=""stim_listB/talk3.gif""style=""height:400px;""></stim_listB>",is talking to,
null,"<div style=""font-size:60px;"">+</div>",,html-keyboard-response,193,1083172,0.0-15.0-0.6,44602,List2B,white,woman,,,,null,,,,
null,"<img src=""stim_listB/kiss4.gif""style=""height:400px;""></stim_listB>",,html-keyboard-response,194,1085173,0.0-15.0-1.6,44602,List2B,white,woman,,,,null,,,,
null,are kissing each other,,html-keyboard-response,195,1087175,0.0-15.0-2.6,44602,List2B,white,woman,,,,null,,,,
12575,,,survey-text,196,1099750,0.0-15.0-3.6,44602,List2B,white,woman,,,,,"{""Q0"":""kate and luke are kissing each other""}","<img src=""stim_listB/kiss4.gif""style=""height:400px;""></stim_listB>",are kissing each other,
null,"<div style=""font-size:60px;"">+</div>",,html-keyboard-response,197,1100252,0.0-15.0-0.7,44602,List2B,white,woman,,,,null,,,,
null,"<img src=""stim_listB/fight7.gif""style=""height:400px;""></stim_listB>",,html-keyboard-response,198,1102253,0.0-15.0-1.7,44602,List2B,white,woman,,,,null,,,,
null,is fighting,,html-keyboard-response,199,1104255,0.0-15.0-2.7,44602,List2B,white,woman,,,,null,,,,
11119,,,survey-text,200,1115374,0.0-15.0-3.7,44602,List2B,white,woman,,,,,"{""Q0"":""jane is fighting kate""}","<img src=""stim_listB/fight7.gif""style=""height:400px;""></stim_listB>",is fighting,
null,"<div style=""font-size:60px;"">+</div>",,html-keyboard-response,201,1115882,0.0-15.0-0.8,44602,List2B,white,woman,,,,null,,,,
null,"<img src=""stim_listB/touch4.gif""style=""height:400px;""></stim_listB>",,html-keyboard-response,202,1117884,0.0-15.0-1.8,44602,List2B,white,woman,,,,null,,,,
null,are touching each other,,html-keyboard-response,203,1119886,0.0-15.0-2.8,44602,List2B,white,woman,,,,null,,,,
20446,,,survey-text,204,1140333,0.0-15.0-3.8,44602,List2B,white,woman,,,,,"{""Q0"":""fred and beth are touching each other""}","<img src=""stim_listB/touch4.gif""style=""height:400px;""></stim_listB>",are touching each other,
null,"<div style=""font-size:60px;"">+</div>",,html-keyboard-response,205,1140846,0.0-15.0-0.9,44602,List2B,white,woman,,,,null,,,,
null,"<img src=""stim_listB/flirt1.gif""style=""height:400px;""></stim_listB>",,html-keyboard-response,206,1142847,0.0-15.0-1.9,44602,List2B,white,woman,,,,null,,,,
null,is flirting with,,html-keyboard-response,207,1144849,0.0-15.0-2.9,44602,List2B,white,woman,,,,null,,,,
10587,,,survey-text,208,1155436,0.0-15.0-3.9,44602,List2B,white,woman,,,,,"{""Q0"":""jane is flirting with luke""}","<img src=""stim_listB/flirt1.gif""style=""height:400px;""></stim_listB>",is flirting with,
null,"<div style=""font-size:60px;"">+</div>",,html-keyboard-response,209,1155939,0.0-15.0-0.10,44602,List2B,white,woman,,,,null,,,,
null,"<img src=""stim_listB/marry3.gif""style=""height:400px;""></stim_listB>",,html-keyboard-response,210,1157940,0.0-15.0-1.10,44602,List2B,white,woman,,,,null,,,,
null,is marrying,,html-keyboard-response,211,1159942,0.0-15.0-2.10,44602,List2B,white,woman,,,,null,,,,
7638,,,survey-text,212,1167580,0.0-15.0-3.10,44602,List2B,white,woman,,,,,"{""Q0"":""mike is marrying beth""}","<img src=""stim_listB/marry3.gif""style=""height:400px;""></stim_listB>",is marrying,
null,"<div style=""font-size:60px;"">+</div>",,html-keyboard-response,213,1168082,0.0-15.0-0.11,44602,List2B,white,woman,,,,null,,,,
null,"<img src=""stim_listB/shout4.gif""style=""height:400px;""></stim_listB>",,html-keyboard-response,214,1170084,0.0-15.0-1.11,44602,List2B,white,woman,,,,null,,,,
null,are shouting at each other,,html-keyboard-response,215,1172085,0.0-15.0-2.11,44602,List2B,white,woman,,,,null,,,,
18279,,,survey-text,216,1190364,0.0-15.0-3.11,44602,List2B,white,woman,,,,,"{""Q0"":""mike and kate are shouting at each other ""}","<img src=""stim_listB/shout4.gif""style=""height:400px;""></stim_listB>",are shouting at each other,
null,"<div style=""font-size:60px;"">+</div>",,html-keyboard-response,217,1190869,0.0-15.0-0.12,44602,List2B,white,woman,,,,null,,,,
null,"<img src=""stim_listB/talk1.gif""style=""height:400px;""></stim_listB>",,html-keyboard-response,218,1192871,0.0-15.0-1.12,44602,List2B,white,woman,,,,null,,,,
null,is talking to,,html-keyboard-response,219,1194873,0.0-15.0-2.12,44602,List2B,white,woman,,,,null,,,,
7985,,,survey-text,220,1202858,0.0-15.0-3.12,44602,List2B,white,woman,,,,,"{""Q0"":""jane is talking to luke""}","<img src=""stim_listB/talk1.gif""style=""height:400px;""></stim_listB>",is talking to,
null,"<div style=""font-size:60px;"">+</div>",,html-keyboard-response,221,1203360,0.0-15.0-0.13,44602,List2B,white,woman,,,,null,,,,
null,"<img src=""stim_listB/fight2.gif""style=""height:400px;""></stim_listB>",,html-keyboard-response,222,1205361,0.0-15.0-1.13,44602,List2B,white,woman,,,,null,,,,
null,are fighting each other,,html-keyboard-response,223,1207362,0.0-15.0-2.13,44602,List2B,white,woman,,,,null,,,,
10816,,,survey-text,224,1218179,0.0-15.0-3.13,44602,List2B,white,woman,,,,,"{""Q0"":""luke and ruth are fighting each other""}","<img src=""stim_listB/fight2.gif""style=""height:400px;""></stim_listB>",are fighting each other,
null,"<div style=""font-size:60px;"">+</div>",,html-keyboard-response,225,1218687,0.0-15.0-0.14,44602,List2B,white,woman,,,,null,,,,
null,"<img src=""stim_listB/touch6.gif""style=""height:400px;""></stim_listB>",,html-keyboard-response,226,1220689,0.0-15.0-1.14,44602,List2B,white,woman,,,,null,,,,
null,are touching each other,,html-keyboard-response,227,1222690,0.0-15.0-2.14,44602,List2B,white,woman,,,,null,,,,
11544,,,survey-text,228,1234234,0.0-15.0-3.14,44602,List2B,white,woman,,,,,"{""Q0"":""luke and fred are touching each other""}","<img src=""stim_listB/touch6.gif""style=""height:400px;""></stim_listB>",are touching each other,
null,"<div style=""font-size:60px;"">+</div>",,html-keyboard-response,229,1234737,0.0-15.0-0.15,44602,List2B,white,woman,,,,null,,,,
null,"<img src=""stim_listB/kiss5.gif""style=""height:400px;""></stim_listB>",,html-keyboard-response,230,1236738,0.0-15.0-1.15,44602,List2B,white,woman,,,,null,,,,
null,is kissing,,html-keyboard-response,231,1238739,0.0-15.0-2.15,44602,List2B,white,woman,,,,null,,,,
10843,,,survey-text,232,1249583,0.0-15.0-3.15,44602,List2B,white,woman,,,,,"{""Q0"":""fred is kissing luke""}","<img src=""stim_listB/kiss5.gif""style=""height:400px;""></stim_listB>",is kissing,
null,"<div style=""font-size:60px;"">+</div>",,html-keyboard-response,233,1250085,0.0-15.0-0.16,44602,List2B,white,woman,,,,null,,,,
null,"<img src=""stim_listB/shout7.gif""style=""height:400px;""></stim_listB>",,html-keyboard-response,234,1252086,0.0-15.0-1.16,44602,List2B,white,woman,,,,null,,,,
null,is shouting at,,html-keyboard-response,235,1254086,0.0-15.0-2.16,44602,List2B,white,woman,,,,null,,,,
12531,,,survey-text,236,1266619,0.0-15.0-3.16,44602,List2B,white,woman,,,,,"{""Q0"":""ruth is shouting at beth""}","<img src=""stim_listB/shout7.gif""style=""height:400px;""></stim_listB>",is shouting at,
null,"<div style=""font-size:60px;"">+</div>",,html-keyboard-response,237,1267120,0.0-15.0-0.17,44602,List2B,white,woman,,,,null,,,,
null,"<img src=""stim_listB/kiss6.gif""style=""height:400px;""></stim_listB>",,html-keyboard-response,238,1269121,0.0-15.0-1.17,44602,List2B,white,woman,,,,null,,,,
null,are kissing each other,,html-keyboard-response,239,1271122,0.0-15.0-2.17,44602,List2B,white,woman,,,,null,,,,
14461,,,survey-text,240,1285585,0.0-15.0-3.17,44602,List2B,white,woman,,,,,"{""Q0"":""dave and mike are kissing each other""}","<img src=""stim_listB/kiss6.gif""style=""height:400px;""></stim_listB>",are kissing each other,
null,"<div style=""font-size:60px;"">+</div>",,html-keyboard-response,241,1286086,0.0-15.0-0.18,44602,List2B,white,woman,,,,null,,,,
null,"<img src=""stim_listB/flirt2.gif""style=""height:400px;""></stim_listB>",,html-keyboard-response,242,1288088,0.0-15.0-1.18,44602,List2B,white,woman,,,,null,,,,
null,are flirting with each other,,html-keyboard-response,243,1290089,0.0-15.0-2.18,44602,List2B,white,woman,,,,null,,,,
16680,,,survey-text,244,1306769,0.0-15.0-3.18,44602,List2B,white,woman,,,,,"{""Q0"":""dave and ruth are flirting with each other ""}","<img src=""stim_listB/flirt2.gif""style=""height:400px;""></stim_listB>",are flirting with each other,
null,"<div style=""font-size:60px;"">+</div>",,html-keyboard-response,245,1307270,0.0-15.0-0.19,44602,List2B,white,woman,,,,null,,,,
null,"<img src=""stim_listB/argue5.gif""style=""height:400px;""></stim_listB>",,html-keyboard-response,246,1309272,0.0-15.0-1.19,44602,List2B,white,woman,,,,null,,,,
null,is arguing with,,html-keyboard-response,247,1311272,0.0-15.0-2.19,44602,List2B,white,woman,,,,null,,,,
11927,,,survey-text,248,1323201,0.0-15.0-3.19,44602,List2B,white,woman,,,,,"{""Q0"":""dave is arguing with fred""}","<img src=""stim_listB/argue5.gif""style=""height:400px;""></stim_listB>",is arguing with,
9130,"<img src='img/portrait_matrix_list2.jpg' style='width:900px;height:500px;''></img><p>If you have memorised all the portraits and names and are ready to start, press Continue.</p><p><strong>Please note: Your memory of these faces will be tested 4 times during this experiment.</strong></p>",0,html-button-response,249,1332331,0.0-16.0-0.0,44602,List2B,white,woman,,,,,,,,
2926,"<img src=""portrait/BM1.jpg""style=""height:400px;""></img>",4,html-button-response,250,1336259,0.0-16.0-1.0,44602,List2B,white,woman,,TRUE,4,,,,,
null,CORRECT,,html-keyboard-response,251,1337762,0.0-16.0-2.0-0.0,44602,List2B,white,woman,,,,null,,,,
6155,"<img src=""portrait/BW1.jpg""style=""height:400px;""></img>",0,html-button-response,252,1343917,0.0-16.0-4.0,44602,List2B,white,woman,,TRUE,0,,,,,
null,CORRECT,,html-keyboard-response,253,1345419,0.0-16.0-5.0-0.0,44602,List2B,white,woman,,,,null,,,,
2158,"<img src=""portrait/WM1.jpg""style=""height:400px;""></img>",6,html-button-response,254,1347579,0.0-16.0-7.0,44602,List2B,white,woman,,TRUE,6,,,,,
null,CORRECT,,html-keyboard-response,255,1349081,0.0-16.0-8.0-0.0,44602,List2B,white,woman,,,,null,,,,
1806,"<img src=""portrait/BW2.jpg""style=""height:400px;""></img>",2,html-button-response,256,1350889,0.0-16.0-10.0,44602,List2B,white,woman,,TRUE,2,,,,,
null,CORRECT,,html-keyboard-response,257,1352391,0.0-16.0-11.0-0.0,44602,List2B,white,woman,,,,null,,,,
1661,"<img src=""portrait/WW1.jpg""style=""height:400px;""></img>",1,html-button-response,258,1354053,0.0-16.0-13.0,44602,List2B,white,woman,,TRUE,1,,,,,
null,CORRECT,,html-keyboard-response,259,1355555,0.0-16.0-14.0-0.0,44602,List2B,white,woman,,,,null,,,,
1337,"<img src=""portrait/WW2.jpg""style=""height:400px;""></img>",3,html-button-response,260,1356893,0.0-16.0-16.0,44602,List2B,white,woman,,TRUE,3,,,,,
null,CORRECT,,html-keyboard-response,261,1358397,0.0-16.0-17.0-0.0,44602,List2B,white,woman,,,,null,,,,
1643,"<img src=""portrait/WM2.jpg""style=""height:400px;""></img>",7,html-button-response,262,1360041,0.0-16.0-19.0,44602,List2B,white,woman,,TRUE,7,,,,,
null,CORRECT,,html-keyboard-response,263,1361543,0.0-16.0-20.0-0.0,44602,List2B,white,woman,,,,null,,,,
1613,"<img src=""portrait/BM2.jpg""style=""height:400px;""></img>",5,html-button-response,264,1363157,0.0-16.0-22.0,44602,List2B,white,woman,,TRUE,5,,,,,
null,CORRECT,,html-keyboard-response,265,1364659,0.0-16.0-23.0-0.0,44602,List2B,white,woman,,,,null,,,,
1221,<p>You got 8 out of 8 right first time. Press Continue.</p>,0,html-button-response,266,1365881,0.0-16.0-25.0,44602,List2B,white,woman,,,,,,,,
null,"<div style=""font-size:60px;"">+</div>",,html-keyboard-response,267,1367384,0.0-17.0-0.0,44602,List2B,white,woman,,,,null,,,,
null,"<img src=""stim_listB/kiss8.gif""style=""height:400px;""></stim_listB>",,html-keyboard-response,268,1369385,0.0-17.0-1.0,44602,List2B,white,woman,,,,null,,,,
null,are kissing each other,,html-keyboard-response,269,1371386,0.0-17.0-2.0,44602,List2B,white,woman,,,,null,,,,
10782,,,survey-text,270,1382169,0.0-17.0-3.0,44602,List2B,white,woman,,,,,"{""Q0"":""jane and kate are kissing each other""}","<img src=""stim_listB/kiss8.gif""style=""height:400px;""></stim_listB>",are kissing each other,
null,"<div style=""font-size:60px;"">+</div>",,html-keyboard-response,271,1382680,0.0-17.0-0.1,44602,List2B,white,woman,,,,null,,,,
null,"<img src=""stim_listB/fight6.gif""style=""height:400px;""></stim_listB>",,html-keyboard-response,272,1384682,0.0-17.0-1.1,44602,List2B,white,woman,,,,null,,,,
null,are fighting each other,,html-keyboard-response,273,1386683,0.0-17.0-2.1,44602,List2B,white,woman,,,,null,,,,
13525,,,survey-text,274,1400209,0.0-17.0-3.1,44602,List2B,white,woman,,,,,"{""Q0"":""luke and fred are fighting each other""}","<img src=""stim_listB/fight6.gif""style=""height:400px;""></stim_listB>",are fighting each other,
null,"<div style=""font-size:60px;"">+</div>",,html-keyboard-response,275,1400715,0.0-17.0-0.2,44602,List2B,white,woman,,,,null,,,,
null,"<img src=""stim_listB/talk8.gif""style=""height:400px;""></stim_listB>",,html-keyboard-response,276,1402717,0.0-17.0-1.2,44602,List2B,white,woman,,,,null,,,,
null,are talking to each other,,html-keyboard-response,277,1404718,0.0-17.0-2.2,44602,List2B,white,woman,,,,null,,,,
9643,,,survey-text,278,1414361,0.0-17.0-3.2,44602,List2B,white,woman,,,,,"{""Q0"":""jane and beth are talking to each other""}","<img src=""stim_listB/talk8.gif""style=""height:400px;""></stim_listB>",are talking to each other,
null,"<div style=""font-size:60px;"">+</div>",,html-keyboard-response,279,1414865,0.0-17.0-0.3,44602,List2B,white,woman,,,,null,,,,
null,"<img src=""stim_listB/play8.gif""style=""height:400px;""></stim_listB>",,html-keyboard-response,280,1416866,0.0-17.0-1.3,44602,List2B,white,woman,,,,null,,,,
null,are playing with each other,,html-keyboard-response,281,1418868,0.0-17.0-2.3,44602,List2B,white,woman,,,,null,,,,
12556,,,survey-text,282,1431425,0.0-17.0-3.3,44602,List2B,white,woman,,,,,"{""Q0"":""ruth and beth are playing with each other""}","<img src=""stim_listB/play8.gif""style=""height:400px;""></stim_listB>",are playing with each other,
null,"<div style=""font-size:60px;"">+</div>",,html-keyboard-response,283,1431938,0.0-17.0-0.4,44602,List2B,white,woman,,,,null,,,,
null,"<img src=""stim_listB/fight3.gif""style=""height:400px;""></stim_listB>",,html-keyboard-response,284,1433939,0.0-17.0-1.4,44602,List2B,white,woman,,,,null,,,,
null,is fighting,,html-keyboard-response,285,1435941,0.0-17.0-2.4,44602,List2B,white,woman,,,,null,,,,
6506,,,survey-text,286,1442447,0.0-17.0-3.4,44602,List2B,white,woman,,,,,"{""Q0"":""kate is fighting mike""}","<img src=""stim_listB/fight3.gif""style=""height:400px;""></stim_listB>",is fighting,
null,"<div style=""font-size:60px;"">+</div>",,html-keyboard-response,287,1442963,0.0-17.0-0.5,44602,List2B,white,woman,,,,null,,,,
null,"<img src=""stim_listB/kiss3.gif""style=""height:400px;""></stim_listB>",,html-keyboard-response,288,1444964,0.0-17.0-1.5,44602,List2B,white,woman,,,,null,,,,
null,is kissing,,html-keyboard-response,289,1446966,0.0-17.0-2.5,44602,List2B,white,woman,,,,null,,,,
6831,,,survey-text,290,1453797,0.0-17.0-3.5,44602,List2B,white,woman,,,,,"{""Q0"":""fred is kissing beth""}","<img src=""stim_listB/kiss3.gif""style=""height:400px;""></stim_listB>",is kissing,
null,"<div style=""font-size:60px;"">+</div>",,html-keyboard-response,291,1454299,0.0-17.0-0.6,44602,List2B,white,woman,,,,null,,,,
null,"<img src=""stim_listB/kiss2.gif""style=""height:400px;""></stim_listB>",,html-keyboard-response,292,1456301,0.0-17.0-1.6,44602,List2B,white,woman,,,,null,,,,
null,are kissing each other,,html-keyboard-response,293,1458302,0.0-17.0-2.6,44602,List2B,white,woman,,,,null,,,,
10965,,,survey-text,294,1469267,0.0-17.0-3.6,44602,List2B,white,woman,,,,,"{""Q0"":""dave and jane are kissing each other""}","<img src=""stim_listB/kiss2.gif""style=""height:400px;""></stim_listB>",are kissing each other,
null,"<div style=""font-size:60px;"">+</div>",,html-keyboard-response,295,1469773,0.0-17.0-0.7,44602,List2B,white,woman,,,,null,,,,
null,"<img src=""stim_listB/dance4.gif""style=""height:400px;""></stim_listB>",,html-keyboard-response,296,1471774,0.0-17.0-1.7,44602,List2B,white,woman,,,,null,,,,
null,are dancing with each other,,html-keyboard-response,297,1473776,0.0-17.0-2.7,44602,List2B,white,woman,,,,null,,,,
14819,,,survey-text,298,1488596,0.0-17.0-3.7,44602,List2B,white,woman,,,,,"{""Q0"":""mike and beth are dancing with each other""}","<img src=""stim_listB/dance4.gif""style=""height:400px;""></stim_listB>",are dancing with each other,
null,"<div style=""font-size:60px;"">+</div>",,html-keyboard-response,299,1489097,0.0-17.0-0.8,44602,List2B,white,woman,,,,null,,,,
null,"<img src=""stim_listB/argue6.gif""style=""height:400px;""></stim_listB>",,html-keyboard-response,300,1491109,0.0-17.0-1.8,44602,List2B,white,woman,,,,null,,,,
null,are arguing with each other,,html-keyboard-response,301,1493109,0.0-17.0-2.8,44602,List2B,white,woman,,,,null,,,,
18408,,,survey-text,302,1511519,0.0-17.0-3.8,44602,List2B,white,woman,,,,,"{""Q0"":""luke and mike are arguing with each other""}","<img src=""stim_listB/argue6.gif""style=""height:400px;""></stim_listB>",are arguing with each other,
null,"<div style=""font-size:60px;"">+</div>",,html-keyboard-response,303,1512020,0.0-17.0-0.9,44602,List2B,white,woman,,,,null,,,,
null,"<img src=""stim_listB/shout8.gif""style=""height:400px;""></stim_listB>",,html-keyboard-response,304,1514022,0.0-17.0-1.9,44602,List2B,white,woman,,,,null,,,,
null,are shouting at each other,,html-keyboard-response,305,1516023,0.0-17.0-2.9,44602,List2B,white,woman,,,,null,,,,
14165,,,survey-text,306,1530189,0.0-17.0-3.9,44602,List2B,white,woman,,,,,"{""Q0"":""jane and kate are shouting at each other""}","<img src=""stim_listB/shout8.gif""style=""height:400px;""></stim_listB>",are shouting at each other,
null,"<div style=""font-size:60px;"">+</div>",,html-keyboard-response,307,1530694,0.0-17.0-0.10,44602,List2B,white,woman,,,,null,,,,
null,"<img src=""stim_listB/play2.gif""style=""height:400px;""></stim_listB>",,html-keyboard-response,308,1532699,0.0-17.0-1.10,44602,List2B,white,woman,,,,null,,,,
null,are playing with each other,,html-keyboard-response,309,1534701,0.0-17.0-2.10,44602,List2B,white,woman,,,,null,,,,
13660,,,survey-text,310,1548361,0.0-17.0-3.10,44602,List2B,white,woman,,,,,"{""Q0"":""luke and ruth are playing with each other""}","<img src=""stim_listB/play2.gif""style=""height:400px;""></stim_listB>",are playing with each other,
null,"<div style=""font-size:60px;"">+</div>",,html-keyboard-response,311,1548865,0.0-17.0-0.11,44602,List2B,white,woman,,,,null,,,,
null,"<img src=""stim_listB/touch8.gif""style=""height:400px;""></stim_listB>",,html-keyboard-response,312,1550867,0.0-17.0-1.11,44602,List2B,white,woman,,,,null,,,,
null,are touching each other,,html-keyboard-response,313,1552869,0.0-17.0-2.11,44602,List2B,white,woman,,,,null,,,,
12792,,,survey-text,314,1565661,0.0-17.0-3.11,44602,List2B,white,woman,,,,,"{""Q0"":""ruth and beth are touching each other""}","<img src=""stim_listB/touch8.gif""style=""height:400px;""></stim_listB>",are touching each other,
null,"<div style=""font-size:60px;"">+</div>",,html-keyboard-response,315,1566163,0.0-17.0-0.12,44602,List2B,white,woman,,,,null,,,,
null,"<img src=""stim_listB/marry7.gif""style=""height:400px;""></stim_listB>",,html-keyboard-response,316,1568164,0.0-17.0-1.12,44602,List2B,white,woman,,,,null,,,,
null,is marrying,,html-keyboard-response,317,1570165,0.0-17.0-2.12,44602,List2B,white,woman,,,,null,,,,
9242,,,survey-text,318,1579407,0.0-17.0-3.12,44602,List2B,white,woman,,,,,"{""Q0"":""jane is marrying beth""}","<img src=""stim_listB/marry7.gif""style=""height:400px;""></stim_listB>",is marrying,
null,"<div style=""font-size:60px;"">+</div>",,html-keyboard-response,319,1579913,0.0-17.0-0.13,44602,List2B,white,woman,,,,null,,,,
null,"<img src=""stim_listB/play7.gif""style=""height:400px;""></stim_listB>",,html-keyboard-response,320,1581914,0.0-17.0-1.13,44602,List2B,white,woman,,,,null,,,,
null,is playing with,,html-keyboard-response,321,1583916,0.0-17.0-2.13,44602,List2B,white,woman,,,,null,,,,
10581,,,survey-text,322,1594497,0.0-17.0-3.13,44602,List2B,white,woman,,,,,"{""Q0"":""kate is playing with jane""}","<img src=""stim_listB/play7.gif""style=""height:400px;""></stim_listB>",is playing with,
null,"<div style=""font-size:60px;"">+</div>",,html-keyboard-response,323,1594999,0.0-17.0-0.14,44602,List2B,white,woman,,,,null,,,,
null,"<img src=""stim_listB/argue3.gif""style=""height:400px;""></stim_listB>",,html-keyboard-response,324,1597001,0.0-17.0-1.14,44602,List2B,white,woman,,,,null,,,,
null,is arguing with,,html-keyboard-response,325,1599002,0.0-17.0-2.14,44602,List2B,white,woman,,,,null,,,,
9082,,,survey-text,326,1608085,0.0-17.0-3.14,44602,List2B,white,woman,,,,,"{""Q0"":""beth is arguing with mike""}","<img src=""stim_listB/argue3.gif""style=""height:400px;""></stim_listB>",is arguing with,
null,"<div style=""font-size:60px;"">+</div>",,html-keyboard-response,327,1608587,0.0-17.0-0.15,44602,List2B,white,woman,,,,null,,,,
null,"<img src=""stim_listB/dance1.gif""style=""height:400px;""></stim_listB>",,html-keyboard-response,328,1610589,0.0-17.0-1.15,44602,List2B,white,woman,,,,null,,,,
null,is dancing with,,html-keyboard-response,329,1612591,0.0-17.0-2.15,44602,List2B,white,woman,,,,null,,,,
9267,,,survey-text,330,1621859,0.0-17.0-3.15,44602,List2B,white,woman,,,,,"{""Q0"":""jane is dancing with luke""}","<img src=""stim_listB/dance1.gif""style=""height:400px;""></stim_listB>",is dancing with,
null,"<div style=""font-size:60px;"">+</div>",,html-keyboard-response,331,1622360,0.0-17.0-0.16,44602,List2B,white,woman,,,,null,,,,
null,"<img src=""stim_listB/fight8.gif""style=""height:400px;""></stim_listB>",,html-keyboard-response,332,1624361,0.0-17.0-1.16,44602,List2B,white,woman,,,,null,,,,
null,are fighting each other,,html-keyboard-response,333,1626362,0.0-17.0-2.16,44602,List2B,white,woman,,,,null,,,,
14900,,,survey-text,334,1641263,0.0-17.0-3.16,44602,List2B,white,woman,,,,,"{""Q0"":""ruth and beth are fighting each other""}","<img src=""stim_listB/fight8.gif""style=""height:400px;""></stim_listB>",are fighting each other,
null,"<div style=""font-size:60px;"">+</div>",,html-keyboard-response,335,1641765,0.0-17.0-0.17,44602,List2B,white,woman,,,,null,,,,
null,"<img src=""stim_listB/fight5.gif""style=""height:400px;""></stim_listB>",,html-keyboard-response,336,1643766,0.0-17.0-1.17,44602,List2B,white,woman,,,,null,,,,
null,is fighting,,html-keyboard-response,337,1645767,0.0-17.0-2.17,44602,List2B,white,woman,,,,null,,,,
11337,,,survey-text,338,1657105,0.0-17.0-3.17,44602,List2B,white,woman,,,,,"{""Q0"":""mike is fighting dave""}","<img src=""stim_listB/fight5.gif""style=""height:400px;""></stim_listB>",is fighting,
null,"<div style=""font-size:60px;"">+</div>",,html-keyboard-response,339,1657606,0.0-17.0-0.18,44602,List2B,white,woman,,,,null,,,,
null,"<img src=""stim_listB/play5.gif""style=""height:400px;""></stim_listB>",,html-keyboard-response,340,1659608,0.0-17.0-1.18,44602,List2B,white,woman,,,,null,,,,
null,is playing with,,html-keyboard-response,341,1661609,0.0-17.0-2.18,44602,List2B,white,woman,,,,null,,,,
9390,,,survey-text,342,1671001,0.0-17.0-3.18,44602,List2B,white,woman,,,,,"{""Q0"":""mike is playing with dave""}","<img src=""stim_listB/play5.gif""style=""height:400px;""></stim_listB>",is playing with,
null,"<div style=""font-size:60px;"">+</div>",,html-keyboard-response,343,1671502,0.0-17.0-0.19,44602,List2B,white,woman,,,,null,,,,
null,"<img src=""stim_listB/play4.gif""style=""height:400px;""></stim_listB>",,html-keyboard-response,344,1673504,0.0-17.0-1.19,44602,List2B,white,woman,,,,null,,,,
null,are playing with each other,,html-keyboard-response,345,1675505,0.0-17.0-2.19,44602,List2B,white,woman,,,,null,,,,
10218,,,survey-text,346,1685723,0.0-17.0-3.19,44602,List2B,white,woman,,,,,"{""Q0"":""beth and fred are playing with each other""}","<img src=""stim_listB/play4.gif""style=""height:400px;""></stim_listB>",are playing with each other,
2995,"<img src='img/portrait_matrix_list2.jpg' style='width:900px;height:500px;''></img><p>If you have memorised all the portraits and names and are ready to start, press Continue.</p><p><strong>Please note: Your memory of these faces will be tested 4 times during this experiment.</strong></p>",0,html-button-response,347,1688719,0.0-18.0-0.0,44602,List2B,white,woman,,,,,,,,
2156,"<img src=""portrait/BM2.jpg""style=""height:400px;""></img>",5,html-button-response,348,1691877,0.0-18.0-1.0,44602,List2B,white,woman,,TRUE,5,,,,,
null,CORRECT,,html-keyboard-response,349,1693380,0.0-18.0-2.0-0.0,44602,List2B,white,woman,,,,null,,,,
1421,"<img src=""portrait/WM2.jpg""style=""height:400px;""></img>",7,html-button-response,350,1694801,0.0-18.0-4.0,44602,List2B,white,woman,,TRUE,7,,,,,
null,CORRECT,,html-keyboard-response,351,1696303,0.0-18.0-5.0-0.0,44602,List2B,white,woman,,,,null,,,,
1615,"<img src=""portrait/BW2.jpg""style=""height:400px;""></img>",2,html-button-response,352,1697919,0.0-18.0-7.0,44602,List2B,white,woman,,TRUE,2,,,,,
null,CORRECT,,html-keyboard-response,353,1699422,0.0-18.0-8.0-0.0,44602,List2B,white,woman,,,,null,,,,
1487,"<img src=""portrait/BW1.jpg""style=""height:400px;""></img>",0,html-button-response,354,1700909,0.0-18.0-10.0,44602,List2B,white,woman,,TRUE,0,,,,,
null,CORRECT,,html-keyboard-response,355,1702411,0.0-18.0-11.0-0.0,44602,List2B,white,woman,,,,null,,,,
1599,"<img src=""portrait/WM1.jpg""style=""height:400px;""></img>",6,html-button-response,356,1704011,0.0-18.0-13.0,44602,List2B,white,woman,,TRUE,6,,,,,
null,CORRECT,,html-keyboard-response,357,1705514,0.0-18.0-14.0-0.0,44602,List2B,white,woman,,,,null,,,,
1347,"<img src=""portrait/BM1.jpg""style=""height:400px;""></img>",4,html-button-response,358,1706862,0.0-18.0-16.0,44602,List2B,white,woman,,TRUE,4,,,,,
null,CORRECT,,html-keyboard-response,359,1708363,0.0-18.0-17.0-0.0,44602,List2B,white,woman,,,,null,,,,
1861,"<img src=""portrait/WW2.jpg""style=""height:400px;""></img>",3,html-button-response,360,1710225,0.0-18.0-19.0,44602,List2B,white,woman,,TRUE,3,,,,,
null,CORRECT,,html-keyboard-response,361,1711728,0.0-18.0-20.0-0.0,44602,List2B,white,woman,,,,null,,,,
959,"<img src=""portrait/WW1.jpg""style=""height:400px;""></img>",1,html-button-response,362,1712687,0.0-18.0-22.0,44602,List2B,white,woman,,TRUE,1,,,,,
null,CORRECT,,html-keyboard-response,363,1714190,0.0-18.0-23.0-0.0,44602,List2B,white,woman,,,,null,,,,
1231,<p>You got 8 out of 8 right first time. Press Continue.</p>,0,html-button-response,364,1715421,0.0-18.0-25.0,44602,List2B,white,woman,,,,,,,,
null,"<div style=""font-size:60px;"">+</div>",,html-keyboard-response,365,1716924,0.0-19.0-0.0,44602,List2B,white,woman,,,,null,,,,
null,"<img src=""stim_listB/marry4.gif""style=""height:400px;""></stim_listB>",,html-keyboard-response,366,1718925,0.0-19.0-1.0,44602,List2B,white,woman,,,,null,,,,
null,are marrying each other,,html-keyboard-response,367,1720925,0.0-19.0-2.0,44602,List2B,white,woman,,,,null,,,,
11903,,,survey-text,368,1732829,0.0-19.0-3.0,44602,List2B,white,woman,,,,,"{""Q0"":""fred and kate are marrying each other""}","<img src=""stim_listB/marry4.gif""style=""height:400px;""></stim_listB>",are marrying each other,
null,"<div style=""font-size:60px;"">+</div>",,html-keyboard-response,369,1733330,0.0-19.0-0.1,44602,List2B,white,woman,,,,null,,,,
null,"<img src=""stim_listB/dance7.gif""style=""height:400px;""></stim_listB>",,html-keyboard-response,370,1735331,0.0-19.0-1.1,44602,List2B,white,woman,,,,null,,,,
null,is dancing with,,html-keyboard-response,371,1737333,0.0-19.0-2.1,44602,List2B,white,woman,,,,null,,,,
11757,,,survey-text,372,1749091,0.0-19.0-3.1,44602,List2B,white,woman,,,,,"{""Q0"":""ruth is dancing with kate""}","<img src=""stim_listB/dance7.gif""style=""height:400px;""></stim_listB>",is dancing with,
null,"<div style=""font-size:60px;"">+</div>",,html-keyboard-response,373,1749593,0.0-19.0-0.2,44602,List2B,white,woman,,,,null,,,,
null,"<img src=""stim_listB/fight1.gif""style=""height:400px;""></stim_listB>",,html-keyboard-response,374,1751594,0.0-19.0-1.2,44602,List2B,white,woman,,,,null,,,,
null,is fighting,,html-keyboard-response,375,1753596,0.0-19.0-2.2,44602,List2B,white,woman,,,,null,,,,
6960,,,survey-text,376,1760557,0.0-19.0-3.2,44602,List2B,white,woman,,,,,"{""Q0"":""jane is fighting dave""}","<img src=""stim_listB/fight1.gif""style=""height:400px;""></stim_listB>",is fighting,
null,"<div style=""font-size:60px;"">+</div>",,html-keyboard-response,377,1761058,0.0-19.0-0.3,44602,List2B,white,woman,,,,null,,,,
null,"<img src=""stim_listB/flirt5.gif""style=""height:400px;""></stim_listB>",,html-keyboard-response,378,1763061,0.0-19.0-1.3,44602,List2B,white,woman,,,,null,,,,
null,is flirting with,,html-keyboard-response,379,1765062,0.0-19.0-2.3,44602,List2B,white,woman,,,,null,,,,
8441,,,survey-text,380,1773503,0.0-19.0-3.3,44602,List2B,white,woman,,,,,"{""Q0"":""luke is flirting with mike""}","<img src=""stim_listB/flirt5.gif""style=""height:400px;""></stim_listB>",is flirting with,
null,"<div style=""font-size:60px;"">+</div>",,html-keyboard-response,381,1774005,0.0-19.0-0.4,44602,List2B,white,woman,,,,null,,,,
null,"<img src=""stim_listB/dance8.gif""style=""height:400px;""></stim_listB>",,html-keyboard-response,382,1776006,0.0-19.0-1.4,44602,List2B,white,woman,,,,null,,,,
null,are dancing with each other,,html-keyboard-response,383,1778007,0.0-19.0-2.4,44602,List2B,white,woman,,,,null,,,,
11989,,,survey-text,384,1789997,0.0-19.0-3.4,44602,List2B,white,woman,,,,,"{""Q0"":""jane and beth are dancing with each other""}","<img src=""stim_listB/dance8.gif""style=""height:400px;""></stim_listB>",are dancing with each other,
null,"<div style=""font-size:60px;"">+</div>",,html-keyboard-response,385,1790498,0.0-19.0-0.5,44602,List2B,white,woman,,,,null,,,,
null,"<img src=""stim_listB/kiss1.gif""style=""height:400px;""></stim_listB>",,html-keyboard-response,386,1792499,0.0-19.0-1.5,44602,List2B,white,woman,,,,null,,,,
null,is kissing,,html-keyboard-response,387,1794500,0.0-19.0-2.5,44602,List2B,white,woman,,,,null,,,,
7500,,,survey-text,388,1802001,0.0-19.0-3.5,44602,List2B,white,woman,,,,,"{""Q0"":""ruth  is kissing luke""}","<img src=""stim_listB/kiss1.gif""style=""height:400px;""></stim_listB>",is kissing,
null,"<div style=""font-size:60px;"">+</div>",,html-keyboard-response,389,1802502,0.0-19.0-0.6,44602,List2B,white,woman,,,,null,,,,
null,"<img src=""stim_listB/talk2.gif""style=""height:400px;""></stim_listB>",,html-keyboard-response,390,1804504,0.0-19.0-1.6,44602,List2B,white,woman,,,,null,,,,
null,are talking to each other,,html-keyboard-response,391,1806505,0.0-19.0-2.6,44602,List2B,white,woman,,,,null,,,,
10601,,,survey-text,392,1817107,0.0-19.0-3.6,44602,List2B,white,woman,,,,,"{""Q0"":""ruth and dave are talking to each other""}","<img src=""stim_listB/talk2.gif""style=""height:400px;""></stim_listB>",are talking to each other,
null,"<div style=""font-size:60px;"">+</div>",,html-keyboard-response,393,1817615,0.0-19.0-0.7,44602,List2B,white,woman,,,,null,,,,
null,"<img src=""stim_listB/touch2.gif""style=""height:400px;""></stim_listB>",,html-keyboard-response,394,1819616,0.0-19.0-1.7,44602,List2B,white,woman,,,,null,,,,
null,are touching each other,,html-keyboard-response,395,1821618,0.0-19.0-2.7,44602,List2B,white,woman,,,,null,,,,
10573,,,survey-text,396,1832191,0.0-19.0-3.7,44602,List2B,white,woman,,,,,"{""Q0"":""luke and ruth are touching each other""}","<img src=""stim_listB/touch2.gif""style=""height:400px;""></stim_listB>",are touching each other,
null,"<div style=""font-size:60px;"">+</div>",,html-keyboard-response,397,1832693,0.0-19.0-0.8,44602,List2B,white,woman,,,,null,,,,
null,"<img src=""stim_listB/argue7.gif""style=""height:400px;""></stim_listB>",,html-keyboard-response,398,1834695,0.0-19.0-1.8,44602,List2B,white,woman,,,,null,,,,
null,is arguing with,,html-keyboard-response,399,1836696,0.0-19.0-2.8,44602,List2B,white,woman,,,,null,,,,
8287,,,survey-text,400,1844983,0.0-19.0-3.8,44602,List2B,white,woman,,,,,"{""Q0"":""jane is arguing with beth""}","<img src=""stim_listB/argue7.gif""style=""height:400px;""></stim_listB>",is arguing with,
null,"<div style=""font-size:60px;"">+</div>",,html-keyboard-response,401,1845484,0.0-19.0-0.9,44602,List2B,white,woman,,,,null,,,,
null,"<img src=""stim_listB/argue1.gif""style=""height:400px;""></stim_listB>",,html-keyboard-response,402,1847486,0.0-19.0-1.9,44602,List2B,white,woman,,,,null,,,,
null,is arguing with,,html-keyboard-response,403,1849487,0.0-19.0-2.9,44602,List2B,white,woman,,,,null,,,,
8597,,,survey-text,404,1858085,0.0-19.0-3.9,44602,List2B,white,woman,,,,,"{""Q0"":""dave is arguing with ruth""}","<img src=""stim_listB/argue1.gif""style=""height:400px;""></stim_listB>",is arguing with,
null,"<div style=""font-size:60px;"">+</div>",,html-keyboard-response,405,1858587,0.0-19.0-0.10,44602,List2B,white,woman,,,,null,,,,
null,"<img src=""stim_listB/talk5.gif""style=""height:400px;""></stim_listB>",,html-keyboard-response,406,1860588,0.0-19.0-1.10,44602,List2B,white,woman,,,,null,,,,
null,is talking to,,html-keyboard-response,407,1862589,0.0-19.0-2.10,44602,List2B,white,woman,,,,null,,,,
10192,,,survey-text,408,1872783,0.0-19.0-3.10,44602,List2B,white,woman,,,,,"{""Q0"":""mike is talking to luke""}","<img src=""stim_listB/talk5.gif""style=""height:400px;""></stim_listB>",is talking to,
null,"<div style=""font-size:60px;"">+</div>",,html-keyboard-response,409,1873284,0.0-19.0-0.11,44602,List2B,white,woman,,,,null,,,,
null,"<img src=""stim_listB/shout5.gif""style=""height:400px;""></stim_listB>",,html-keyboard-response,410,1875285,0.0-19.0-1.11,44602,List2B,white,woman,,,,null,,,,
null,is shouting at,,html-keyboard-response,411,1877287,0.0-19.0-2.11,44602,List2B,white,woman,,,,null,,,,
9652,,,survey-text,412,1886939,0.0-19.0-3.11,44602,List2B,white,woman,,,,,"{""Q0"":""luke is shouting at fred""}","<img src=""stim_listB/shout5.gif""style=""height:400px;""></stim_listB>",is shouting at,
null,"<div style=""font-size:60px;"">+</div>",,html-keyboard-response,413,1887440,0.0-19.0-0.12,44602,List2B,white,woman,,,,null,,,,
null,"<img src=""stim_listB/dance3.gif""style=""height:400px;""></stim_listB>",,html-keyboard-response,414,1889442,0.0-19.0-1.12,44602,List2B,white,woman,,,,null,,,,
null,is dancing with,,html-keyboard-response,415,1891442,0.0-19.0-2.12,44602,List2B,white,woman,,,,null,,,,
11550,,,survey-text,416,1902993,0.0-19.0-3.12,44602,List2B,white,woman,,,,,"{""Q0"":""fred is dancing with kate""}","<img src=""stim_listB/dance3.gif""style=""height:400px;""></stim_listB>",is dancing with,
null,"<div style=""font-size:60px;"">+</div>",,html-keyboard-response,417,1903495,0.0-19.0-0.13,44602,List2B,white,woman,,,,null,,,,
null,"<img src=""stim_listB/fight4.gif""style=""height:400px;""></stim_listB>",,html-keyboard-response,418,1905496,0.0-19.0-1.13,44602,List2B,white,woman,,,,null,,,,
null,are fighting each other,,html-keyboard-response,419,1907496,0.0-19.0-2.13,44602,List2B,white,woman,,,,null,,,,
13739,,,survey-text,420,1921236,0.0-19.0-3.13,44602,List2B,white,woman,,,,,"{""Q0"":""fred and beth are fighting each other""}","<img src=""stim_listB/fight4.gif""style=""height:400px;""></stim_listB>",are fighting each other,
null,"<div style=""font-size:60px;"">+</div>",,html-keyboard-response,421,1921743,0.0-19.0-0.14,44602,List2B,white,woman,,,,null,,,,
null,"<img src=""stim_listB/flirt7.gif""style=""height:400px;""></stim_listB>",,html-keyboard-response,422,1923745,0.0-19.0-1.14,44602,List2B,white,woman,,,,null,,,,
null,is flirting with,,html-keyboard-response,423,1925746,0.0-19.0-2.14,44602,List2B,white,woman,,,,null,,,,
7846,,,survey-text,424,1933592,0.0-19.0-3.14,44602,List2B,white,woman,,,,,"{""Q0"":""kate is flirting with ruth""}","<img src=""stim_listB/flirt7.gif""style=""height:400px;""></stim_listB>",is flirting with,
null,"<div style=""font-size:60px;"">+</div>",,html-keyboard-response,425,1934096,0.0-19.0-0.15,44602,List2B,white,woman,,,,null,,,,
null,"<img src=""stim_listB/play1.gif""style=""height:400px;""></stim_listB>",,html-keyboard-response,426,1936097,0.0-19.0-1.15,44602,List2B,white,woman,,,,null,,,,
null,is playing with,,html-keyboard-response,427,1938098,0.0-19.0-2.15,44602,List2B,white,woman,,,,null,,,,
7202,,,survey-text,428,1945300,0.0-19.0-3.15,44602,List2B,white,woman,,,,,"{""Q0"":""jane is playing with dave""}","<img src=""stim_listB/play1.gif""style=""height:400px;""></stim_listB>",is playing with,
null,"<div style=""font-size:60px;"">+</div>",,html-keyboard-response,429,1945812,0.0-19.0-0.16,44602,List2B,white,woman,,,,null,,,,
null,"<img src=""stim_listB/talk6.gif""style=""height:400px;""></stim_listB>",,html-keyboard-response,430,1947813,0.0-19.0-1.16,44602,List2B,white,woman,,,,null,,,,
null,are talking to each other,,html-keyboard-response,431,1949814,0.0-19.0-2.16,44602,List2B,white,woman,,,,null,,,,
10042,,,survey-text,432,1959856,0.0-19.0-3.16,44602,List2B,white,woman,,,,,"{""Q0"":""fred and dave are talking to each other""}","<img src=""stim_listB/talk6.gif""style=""height:400px;""></stim_listB>",are talking to each other,
null,"<div style=""font-size:60px;"">+</div>",,html-keyboard-response,433,1960357,0.0-19.0-0.17,44602,List2B,white,woman,,,,null,,,,
null,"<img src=""stim_listB/marry2.gif""style=""height:400px;""></stim_listB>",,html-keyboard-response,434,1962358,0.0-19.0-1.17,44602,List2B,white,woman,,,,null,,,,
null,are marrying each other,,html-keyboard-response,435,1964359,0.0-19.0-2.17,44602,List2B,white,woman,,,,null,,,,
10465,,,survey-text,436,1974825,0.0-19.0-3.17,44602,List2B,white,woman,,,,,"{""Q0"":""luke and jane are marrying each other""}","<img src=""stim_listB/marry2.gif""style=""height:400px;""></stim_listB>",are marrying each other,
null,"<div style=""font-size:60px;"">+</div>",,html-keyboard-response,437,1975327,0.0-19.0-0.18,44602,List2B,white,woman,,,,null,,,,
null,"<img src=""stim_listB/touch7.gif""style=""height:400px;""></stim_listB>",,html-keyboard-response,438,1977328,0.0-19.0-1.18,44602,List2B,white,woman,,,,null,,,,
null,is touching,,html-keyboard-response,439,1979329,0.0-19.0-2.18,44602,List2B,white,woman,,,,null,,,,
9448,,,survey-text,440,1988777,0.0-19.0-3.18,44602,List2B,white,woman,,,,,"{""Q0"":""jane is touching kate""}","<img src=""stim_listB/touch7.gif""style=""height:400px;""></stim_listB>",is touching,
null,"<div style=""font-size:60px;"">+</div>",,html-keyboard-response,441,1989279,0.0-19.0-0.19,44602,List2B,white,woman,,,,null,,,,
null,"<img src=""stim_listB/shout2.gif""style=""height:400px;""></stim_listB>",,html-keyboard-response,442,1991280,0.0-19.0-1.19,44602,List2B,white,woman,,,,null,,,,
null,are shouting at each other,,html-keyboard-response,443,1993281,0.0-19.0-2.19,44602,List2B,white,woman,,,,null,,,,
11574,,,survey-text,444,2004855,0.0-19.0-3.19,44602,List2B,white,woman,,,,,"{""Q0"":""jane and dave are shouting at each other""}","<img src=""stim_listB/shout2.gif""style=""height:400px;""></stim_listB>",are shouting at each other,
1675,<p>Thank you for completing that task.</p><p>The final part of this session is a short questionnaire.</p><p>Press Continue.</p>,0,html-button-response,445,2006531,0.0-20.0,44602,List2B,white,woman,,,,,,,,
24684,,,survey-text,446,2032217,0.0-21.0,44602,List2B,white,woman,,,,,"{""Q0"":""56"",""Q1"":""english"",""Q2"":""english"",""Q3"":""UK"",""Q4"":""british"",""Q5"":""female""}",,,demographics
22129,,,survey-likert,447,2054348,0.0-22.0,44602,List2B,white,woman,,,,,"{""Q0"":3}",,,likert_ESS
5436,,,survey-likert,448,2059786,0.0-23.0,44602,List2B,white,woman,,,,,"{""Q0"":5}",,,likert_NSSAL_Q1
3266,,,survey-likert,449,2063054,0.0-24.0,44602,List2B,white,woman,,,,,"{""Q0"":5}",,,likert_NSSAL_Q2
4045,,,survey-likert,450,2067100,0.0-25.0,44602,List2B,white,woman,,,,,"{""Q0"":4}",,,likert_CGRS_Q1
2711,,,survey-likert,451,2069811,0.0-26.0,44602,List2B,white,woman,,,,,"{""Q0"":4}",,,likert_CGRS_Q2
3081,,,survey-likert,452,2072894,0.0-27.0,44602,List2B,white,woman,,,,,"{""Q0"":3}",,,likert_CGRS_Q3
3691,,,survey-text,453,2076586,0.0-28.0,44602,List2B,white,woman,,,,,"{""Q0"":""ccc""}",,,worker_id
23089,,,external-html,454,2099775,0.0-29.0,44602,List2B,white,woman,debrief.html,,,,,,,
