rt,stimulus,button_pressed,trial_type,trial_index,time_elapsed,internal_node_id,subject,list,ppt_race,ppt_gender,url,first_guess,correct,key_press,responses,image_type,phrase_type,test_part
4973,Welcome to the experiment. Press Continue to begin.,0,html-button-response,0,4983,0.0-0.0,45232,List1A,white,man,,,,,,,,
34148,,,external-html,1,40492,0.0-1.0,45232,List1A,white,man,consent.html,,,,,,,
19088,"<p>On the next page, you will see portraits of 8 people and their names.</p><p>Your first task is to take a few minutes to memorise the names of these people.</p><p>You will have to recall their names during the rest of the experiment, so it is</p><p>essential that you try to memorise these people and their names as best as you can.</p><br><p><strong>You will then be tested on your memory of these names and portraits.</strong></p><br><p>The experiment will start after you have completed this memory test.</p><br><p>Ready?</p>",0,html-button-response,2,59582,0.0-2.0,45232,List1A,white,man,,,,,,,,
94097,"<img src='img/portrait_matrix_list1.jpg' style='width:900px;height:500px;''></img><p>If you have memorised all the portraits and names and are ready to start, press Continue.</p><p><strong>Please note: Your memory of these faces will be tested 4 times during this experiment.</strong></p>",0,html-button-response,3,154681,0.0-3.0-0.0,45232,List1A,white,man,,,,,,,,
2086,"<img src=""portrait/WW1.jpg""style=""height:400px;""></img>",1,html-button-response,4,157769,0.0-3.0-1.0,45232,List1A,white,man,,TRUE,1,,,,,
null,CORRECT,,html-keyboard-response,5,159272,0.0-3.0-2.0-0.0,45232,List1A,white,man,,,,null,,,,
3121,"<img src=""portrait/WM2.jpg""style=""height:400px;""></img>",7,html-button-response,6,162395,0.0-3.0-4.0,45232,List1A,white,man,,TRUE,7,,,,,
null,CORRECT,,html-keyboard-response,7,163896,0.0-3.0-5.0-0.0,45232,List1A,white,man,,,,null,,,,
2185,"<img src=""portrait/BM1.jpg""style=""height:400px;""></img>",4,html-button-response,8,166083,0.0-3.0-7.0,45232,List1A,white,man,,TRUE,4,,,,,
null,CORRECT,,html-keyboard-response,9,167584,0.0-3.0-8.0-0.0,45232,List1A,white,man,,,,null,,,,
2970,"<img src=""portrait/BW1.jpg""style=""height:400px;""></img>",0,html-button-response,10,170557,0.0-3.0-10.0,45232,List1A,white,man,,TRUE,0,,,,,
null,CORRECT,,html-keyboard-response,11,172058,0.0-3.0-11.0-0.0,45232,List1A,white,man,,,,null,,,,
2396,"<img src=""portrait/WW2.jpg""style=""height:400px;""></img>",3,html-button-response,12,174457,0.0-3.0-13.0,45232,List1A,white,man,,TRUE,3,,,,,
null,CORRECT,,html-keyboard-response,13,175962,0.0-3.0-14.0-0.0,45232,List1A,white,man,,,,null,,,,
3064,"<img src=""portrait/WM1.jpg""style=""height:400px;""></img>",6,html-button-response,14,179028,0.0-3.0-16.0,45232,List1A,white,man,,TRUE,6,,,,,
null,CORRECT,,html-keyboard-response,15,180529,0.0-3.0-17.0-0.0,45232,List1A,white,man,,,,null,,,,
4121,"<img src=""portrait/BW2.jpg""style=""height:400px;""></img>",2,html-button-response,16,184652,0.0-3.0-19.0,45232,List1A,white,man,,TRUE,2,,,,,
null,CORRECT,,html-keyboard-response,17,186153,0.0-3.0-20.0-0.0,45232,List1A,white,man,,,,null,,,,
4250,"<img src=""portrait/BM2.jpg""style=""height:400px;""></img>",5,html-button-response,18,190405,0.0-3.0-22.0,45232,List1A,white,man,,TRUE,5,,,,,
null,CORRECT,,html-keyboard-response,19,191906,0.0-3.0-23.0-0.0,45232,List1A,white,man,,,,null,,,,
2457,<p>You got 8 out of 8 right first time. Press Continue.</p>,0,html-button-response,20,194365,0.0-3.0-25.0,45232,List1A,white,man,,,,,,,,
40803,"<p>In this experiment, you will view photographs of the people from the memory game interacting.</p><p>By using the <strong>exact</strong> phrase given <i>after</i> the photograph appears and recalling the correct names of the people in the photographs, form a sentence describing the interaction. You do not need to capitalise names.</p><p>Type your answer in the space provided. Please complete every sentence before moving onto the next trial.</p><p>You will only have a few seconds to memorise each given photograph and phrase before you can respond, so try your best to focus.</p><p>An example is given below. Press 'Continue' when you are ready.</p><img src='img/speaking_example.jpg' style='width:800px;height:460px;''></img>",0,html-button-response,21,236170,0.0-4.0,45232,List1A,white,man,,,,,,,,
3174,"<p>Before the experiment starts, you will watch two example trials. Press 'Continue'.</p>",0,html-button-response,22,240346,0.0-5.0,45232,List1A,white,man,,,,,,,,
null,<img src='img/meet_eg.gif' style='height:400px;''></img>,,html-keyboard-response,23,243347,0.0-6.0,45232,List1A,white,man,,,,null,,,,
null,<p>is meeting</p>,,html-keyboard-response,24,245348,0.0-7.0,45232,List1A,white,man,,,,null,,,,
3094,<p><b>Answer:</b> kate is meeting beth</p>,0,html-button-response,25,248443,0.0-8.0,45232,List1A,white,man,,,,,,,,
null,<img src='img/look_eg.gif' style='height:400px;''></img>,,html-keyboard-response,26,251444,0.0-9.0,45232,List1A,white,man,,,,null,,,,
null,<p>are looking at each other</p>,,html-keyboard-response,27,253444,0.0-10.0,45232,List1A,white,man,,,,null,,,,
5110,<p><b>Answer:</b> luke and dave are looking at each other</p>,0,html-button-response,28,258556,0.0-11.0,45232,List1A,white,man,,,,,,,,
14616,"<p>Ready to start the experiment?</p><br><p><strong>Remember to describe the picture using a full sentence,</strong></p><p><strong>that combines the names of the people with the <i>exact</i> phrase given.</strong></p><p><strong>To receive full payment you must do this correctly.</strong></p><p><strong> You do not need to capitalise names or use punctuation.</strong></p><br><p>Press 'Continue' to begin.</p>",0,html-button-response,29,274172,0.0-12.0,45232,List1A,white,man,,,,,,,,
null,"<div style=""font-size:60px;"">+</div>",,html-keyboard-response,30,275673,0.0-13.0-0.0,45232,List1A,white,man,,,,null,,,,
null,"<img src=""stim_listA/marry1.gif""style=""height:400px;""></stim_listA>",,html-keyboard-response,31,277675,0.0-13.0-1.0,45232,List1A,white,man,,,,null,,,,
null,is marrying,,html-keyboard-response,32,279676,0.0-13.0-2.0,45232,List1A,white,man,,,,null,,,,
14244,,,survey-text,33,293921,0.0-13.0-3.0,45232,List1A,white,man,,,,,"{""Q0"":""mike is marrying beth""}","<img src=""stim_listA/marry1.gif""style=""height:400px;""></stim_listA>",is marrying,
null,"<div style=""font-size:60px;"">+</div>",,html-keyboard-response,34,294422,0.0-13.0-0.1,45232,List1A,white,man,,,,null,,,,
null,"<img src=""stim_listA/talk7.gif""style=""height:400px;""></stim_listA>",,html-keyboard-response,35,296423,0.0-13.0-1.1,45232,List1A,white,man,,,,null,,,,
null,is talking to,,html-keyboard-response,36,298424,0.0-13.0-2.1,45232,List1A,white,man,,,,null,,,,
7001,,,survey-text,37,305426,0.0-13.0-3.1,45232,List1A,white,man,,,,,"{""Q0"":""jane is talking to beth""}","<img src=""stim_listA/talk7.gif""style=""height:400px;""></stim_listA>",is talking to,
null,"<div style=""font-size:60px;"">+</div>",,html-keyboard-response,38,305927,0.0-13.0-0.2,45232,List1A,white,man,,,,null,,,,
null,"<img src=""stim_listA/argue4.gif""style=""height:400px;""></stim_listA>",,html-keyboard-response,39,307928,0.0-13.0-1.2,45232,List1A,white,man,,,,null,,,,
null,are arguing with each other,,html-keyboard-response,40,309929,0.0-13.0-2.2,45232,List1A,white,man,,,,null,,,,
20355,,,survey-text,41,330284,0.0-13.0-3.2,45232,List1A,white,man,,,,,"{""Q0"":""jane and luke are arguing with each other""}","<img src=""stim_listA/argue4.gif""style=""height:400px;""></stim_listA>",are arguing with each other,
null,"<div style=""font-size:60px;"">+</div>",,html-keyboard-response,42,330785,0.0-13.0-0.3,45232,List1A,white,man,,,,null,,,,
null,"<img src=""stim_listA/shout6.gif""style=""height:400px;""></stim_listA>",,html-keyboard-response,43,332787,0.0-13.0-1.3,45232,List1A,white,man,,,,null,,,,
null,are shouting at each other,,html-keyboard-response,44,334787,0.0-13.0-2.3,45232,List1A,white,man,,,,null,,,,
11545,,,survey-text,45,346334,0.0-13.0-3.3,45232,List1A,white,man,,,,,"{""Q0"":""mike and dave are shouting at each other""}","<img src=""stim_listA/shout6.gif""style=""height:400px;""></stim_listA>",are shouting at each other,
null,"<div style=""font-size:60px;"">+</div>",,html-keyboard-response,46,346835,0.0-13.0-0.4,45232,List1A,white,man,,,,null,,,,
null,"<img src=""stim_listA/marry2.gif""style=""height:400px;""></stim_listA>",,html-keyboard-response,47,348836,0.0-13.0-1.4,45232,List1A,white,man,,,,null,,,,
null,are marrying each other,,html-keyboard-response,48,350837,0.0-13.0-2.4,45232,List1A,white,man,,,,null,,,,
13050,,,survey-text,49,363888,0.0-13.0-3.4,45232,List1A,white,man,,,,,"{""Q0"":""kate and fred are marrying each other""}","<img src=""stim_listA/marry2.gif""style=""height:400px;""></stim_listA>",are marrying each other,
null,"<div style=""font-size:60px;"">+</div>",,html-keyboard-response,50,364389,0.0-13.0-0.5,45232,List1A,white,man,,,,null,,,,
null,"<img src=""stim_listA/fight1.gif""style=""height:400px;""></stim_listA>",,html-keyboard-response,51,366391,0.0-13.0-1.5,45232,List1A,white,man,,,,null,,,,
null,is fighting,,html-keyboard-response,52,368391,0.0-13.0-2.5,45232,List1A,white,man,,,,null,,,,
14753,,,survey-text,53,383145,0.0-13.0-3.5,45232,List1A,white,man,,,,,"{""Q0"":""mike and kate are fighting""}","<img src=""stim_listA/fight1.gif""style=""height:400px;""></stim_listA>",is fighting,
null,"<div style=""font-size:60px;"">+</div>",,html-keyboard-response,54,383646,0.0-13.0-0.6,45232,List1A,white,man,,,,null,,,,
null,"<img src=""stim_listA/shout4.gif""style=""height:400px;""></stim_listA>",,html-keyboard-response,55,385648,0.0-13.0-1.6,45232,List1A,white,man,,,,null,,,,
null,are shouting at each other,,html-keyboard-response,56,387648,0.0-13.0-2.6,45232,List1A,white,man,,,,null,,,,
12538,,,survey-text,57,400188,0.0-13.0-3.6,45232,List1A,white,man,,,,,"{""Q0"":""jane and dave are shouting at each other""}","<img src=""stim_listA/shout4.gif""style=""height:400px;""></stim_listA>",are shouting at each other,
null,"<div style=""font-size:60px;"">+</div>",,html-keyboard-response,58,400689,0.0-13.0-0.7,45232,List1A,white,man,,,,null,,,,
null,"<img src=""stim_listA/kiss1.gif""style=""height:400px;""></stim_listA>",,html-keyboard-response,59,402691,0.0-13.0-1.7,45232,List1A,white,man,,,,null,,,,
null,is kissing,,html-keyboard-response,60,404691,0.0-13.0-2.7,45232,List1A,white,man,,,,null,,,,
11848,,,survey-text,61,416540,0.0-13.0-3.7,45232,List1A,white,man,,,,,"{""Q0"":""fred is kissing beth""}","<img src=""stim_listA/kiss1.gif""style=""height:400px;""></stim_listA>",is kissing,
null,"<div style=""font-size:60px;"">+</div>",,html-keyboard-response,62,417041,0.0-13.0-0.8,45232,List1A,white,man,,,,null,,,,
null,"<img src=""stim_listA/argue7.gif""style=""height:400px;""></stim_listA>",,html-keyboard-response,63,419043,0.0-13.0-1.8,45232,List1A,white,man,,,,null,,,,
null,is arguing with,,html-keyboard-response,64,421043,0.0-13.0-2.8,45232,List1A,white,man,,,,null,,,,
14819,,,survey-text,65,435864,0.0-13.0-3.8,45232,List1A,white,man,,,,,"{""Q0"":""ruth is discussing with kate""}","<img src=""stim_listA/argue7.gif""style=""height:400px;""></stim_listA>",is arguing with,
null,"<div style=""font-size:60px;"">+</div>",,html-keyboard-response,66,436375,0.0-13.0-0.9,45232,List1A,white,man,,,,null,,,,
null,"<img src=""stim_listA/flirt3.gif""style=""height:400px;""></stim_listA>",,html-keyboard-response,67,438376,0.0-13.0-1.9,45232,List1A,white,man,,,,null,,,,
null,is flirting with,,html-keyboard-response,68,440377,0.0-13.0-2.9,45232,List1A,white,man,,,,null,,,,
16080,,,survey-text,69,456458,0.0-13.0-3.9,45232,List1A,white,man,,,,,"{""Q0"":""luke is flirting with jane""}","<img src=""stim_listA/flirt3.gif""style=""height:400px;""></stim_listA>",is flirting with,
null,"<div style=""font-size:60px;"">+</div>",,html-keyboard-response,70,456959,0.0-13.0-0.10,45232,List1A,white,man,,,,null,,,,
null,"<img src=""stim_listA/play6.gif""style=""height:400px;""></stim_listA>",,html-keyboard-response,71,458961,0.0-13.0-1.10,45232,List1A,white,man,,,,null,,,,
null,are playing with each other,,html-keyboard-response,72,460962,0.0-13.0-2.10,45232,List1A,white,man,,,,null,,,,
11201,,,survey-text,73,472163,0.0-13.0-3.10,45232,List1A,white,man,,,,,"{""Q0"":""Luke and fred are playing with each other""}","<img src=""stim_listA/play6.gif""style=""height:400px;""></stim_listA>",are playing with each other,
null,"<div style=""font-size:60px;"">+</div>",,html-keyboard-response,74,472664,0.0-13.0-0.11,45232,List1A,white,man,,,,null,,,,
null,"<img src=""stim_listA/play2.gif""style=""height:400px;""></stim_listA>",,html-keyboard-response,75,474666,0.0-13.0-1.11,45232,List1A,white,man,,,,null,,,,
null,are playing with each other,,html-keyboard-response,76,476666,0.0-13.0-2.11,45232,List1A,white,man,,,,null,,,,
11057,,,survey-text,77,487726,0.0-13.0-3.11,45232,List1A,white,man,,,,,"{""Q0"":""Beth and fred are playing with each other""}","<img src=""stim_listA/play2.gif""style=""height:400px;""></stim_listA>",are playing with each other,
null,"<div style=""font-size:60px;"">+</div>",,html-keyboard-response,78,488230,0.0-13.0-0.12,45232,List1A,white,man,,,,null,,,,
null,"<img src=""stim_listA/touch8.gif""style=""height:400px;""></stim_listA>",,html-keyboard-response,79,490231,0.0-13.0-1.12,45232,List1A,white,man,,,,null,,,,
null,are touching each other,,html-keyboard-response,80,492232,0.0-13.0-2.12,45232,List1A,white,man,,,,null,,,,
16191,,,survey-text,81,508423,0.0-13.0-3.12,45232,List1A,white,man,,,,,"{""Q0"":""Ruth and beth are touching each other""}","<img src=""stim_listA/touch8.gif""style=""height:400px;""></stim_listA>",are touching each other,
null,"<div style=""font-size:60px;"">+</div>",,html-keyboard-response,82,508924,0.0-13.0-0.13,45232,List1A,white,man,,,,null,,,,
null,"<img src=""stim_listA/argue1.gif""style=""height:400px;""></stim_listA>",,html-keyboard-response,83,510925,0.0-13.0-1.13,45232,List1A,white,man,,,,null,,,,
null,is arguing with,,html-keyboard-response,84,512926,0.0-13.0-2.13,45232,List1A,white,man,,,,null,,,,
11697,,,survey-text,85,524625,0.0-13.0-3.13,45232,List1A,white,man,,,,,"{""Q0"":""Beth is arguing with Mike""}","<img src=""stim_listA/argue1.gif""style=""height:400px;""></stim_listA>",is arguing with,
null,"<div style=""font-size:60px;"">+</div>",,html-keyboard-response,86,525126,0.0-13.0-0.14,45232,List1A,white,man,,,,null,,,,
null,"<img src=""stim_listA/argue3.gif""style=""height:400px;""></stim_listA>",,html-keyboard-response,87,527128,0.0-13.0-1.14,45232,List1A,white,man,,,,null,,,,
null,is arguing with,,html-keyboard-response,88,529128,0.0-13.0-2.14,45232,List1A,white,man,,,,null,,,,
9657,,,survey-text,89,538787,0.0-13.0-3.14,45232,List1A,white,man,,,,,"{""Q0"":""Dave is arguing with Ruth""}","<img src=""stim_listA/argue3.gif""style=""height:400px;""></stim_listA>",is arguing with,
null,"<div style=""font-size:60px;"">+</div>",,html-keyboard-response,90,539288,0.0-13.0-0.15,45232,List1A,white,man,,,,null,,,,
null,"<img src=""stim_listA/kiss2.gif""style=""height:400px;""></stim_listA>",,html-keyboard-response,91,541290,0.0-13.0-1.15,45232,List1A,white,man,,,,null,,,,
null,are kissing each other,,html-keyboard-response,92,543291,0.0-13.0-2.15,45232,List1A,white,man,,,,null,,,,
10200,,,survey-text,93,553492,0.0-13.0-3.15,45232,List1A,white,man,,,,,"{""Q0"":""Mike and Kate are kissing""}","<img src=""stim_listA/kiss2.gif""style=""height:400px;""></stim_listA>",are kissing each other,
null,"<div style=""font-size:60px;"">+</div>",,html-keyboard-response,94,553993,0.0-13.0-0.16,45232,List1A,white,man,,,,null,,,,
null,"<img src=""stim_listA/marry5.gif""style=""height:400px;""></stim_listA>",,html-keyboard-response,95,555994,0.0-13.0-1.16,45232,List1A,white,man,,,,null,,,,
null,is marrying,,html-keyboard-response,96,557995,0.0-13.0-2.16,45232,List1A,white,man,,,,null,,,,
7945,,,survey-text,97,565942,0.0-13.0-3.16,45232,List1A,white,man,,,,,"{""Q0"":""Mike is marrying Luke!""}","<img src=""stim_listA/marry5.gif""style=""height:400px;""></stim_listA>",is marrying,
null,"<div style=""font-size:60px;"">+</div>",,html-keyboard-response,98,566443,0.0-13.0-0.17,45232,List1A,white,man,,,,null,,,,
null,"<img src=""stim_listA/kiss8.gif""style=""height:400px;""></stim_listA>",,html-keyboard-response,99,568444,0.0-13.0-1.17,45232,List1A,white,man,,,,null,,,,
null,are kissing each other,,html-keyboard-response,100,570445,0.0-13.0-2.17,45232,List1A,white,man,,,,null,,,,
7057,,,survey-text,101,577502,0.0-13.0-3.17,45232,List1A,white,man,,,,,"{""Q0"":""Jane is kissing kate""}","<img src=""stim_listA/kiss8.gif""style=""height:400px;""></stim_listA>",are kissing each other,
null,"<div style=""font-size:60px;"">+</div>",,html-keyboard-response,102,578003,0.0-13.0-0.18,45232,List1A,white,man,,,,null,,,,
null,"<img src=""stim_listA/play4.gif""style=""height:400px;""></stim_listA>",,html-keyboard-response,103,580005,0.0-13.0-1.18,45232,List1A,white,man,,,,null,,,,
null,are playing with each other,,html-keyboard-response,104,582006,0.0-13.0-2.18,45232,List1A,white,man,,,,null,,,,
12314,,,survey-text,105,594322,0.0-13.0-3.18,45232,List1A,white,man,,,,,"{""Q0"":""Luke and Ruth are playing with each other""}","<img src=""stim_listA/play4.gif""style=""height:400px;""></stim_listA>",are playing with each other,
null,"<div style=""font-size:60px;"">+</div>",,html-keyboard-response,106,594823,0.0-13.0-0.19,45232,List1A,white,man,,,,null,,,,
null,"<img src=""stim_listA/kiss7.gif""style=""height:400px;""></stim_listA>",,html-keyboard-response,107,596824,0.0-13.0-1.19,45232,List1A,white,man,,,,null,,,,
null,is kissing,,html-keyboard-response,108,598825,0.0-13.0-2.19,45232,List1A,white,man,,,,null,,,,
6728,,,survey-text,109,605554,0.0-13.0-3.19,45232,List1A,white,man,,,,,"{""Q0"":""Beth is kissing ruth""}","<img src=""stim_listA/kiss7.gif""style=""height:400px;""></stim_listA>",is kissing,
10736,"<img src='img/portrait_matrix_list1.jpg' style='width:900px;height:500px;''></img><p>If you have memorised all the portraits and names and are ready to start, press Continue.</p><p><strong>Please note: Your memory of these faces will be tested 4 times during this experiment.</strong></p>",0,html-button-response,110,616292,0.0-14.0-0.0,45232,List1A,white,man,,,,,,,,
3183,"<img src=""portrait/BM1.jpg""style=""height:400px;""></img>",4,html-button-response,111,620477,0.0-14.0-1.0,45232,List1A,white,man,,TRUE,4,,,,,
null,CORRECT,,html-keyboard-response,112,621978,0.0-14.0-2.0-0.0,45232,List1A,white,man,,,,null,,,,
1793,"<img src=""portrait/BW2.jpg""style=""height:400px;""></img>",2,html-button-response,113,623773,0.0-14.0-4.0,45232,List1A,white,man,,TRUE,2,,,,,
null,CORRECT,,html-keyboard-response,114,625274,0.0-14.0-5.0-0.0,45232,List1A,white,man,,,,null,,,,
1890,"<img src=""portrait/WW2.jpg""style=""height:400px;""></img>",3,html-button-response,115,627165,0.0-14.0-7.0,45232,List1A,white,man,,TRUE,3,,,,,
null,CORRECT,,html-keyboard-response,116,628666,0.0-14.0-8.0-0.0,45232,List1A,white,man,,,,null,,,,
2001,"<img src=""portrait/WM1.jpg""style=""height:400px;""></img>",6,html-button-response,117,630670,0.0-14.0-10.0,45232,List1A,white,man,,TRUE,6,,,,,
null,CORRECT,,html-keyboard-response,118,632171,0.0-14.0-11.0-0.0,45232,List1A,white,man,,,,null,,,,
1938,"<img src=""portrait/WW1.jpg""style=""height:400px;""></img>",1,html-button-response,119,634110,0.0-14.0-13.0,45232,List1A,white,man,,TRUE,1,,,,,
null,CORRECT,,html-keyboard-response,120,635611,0.0-14.0-14.0-0.0,45232,List1A,white,man,,,,null,,,,
2723,"<img src=""portrait/WM2.jpg""style=""height:400px;""></img>",7,html-button-response,121,638335,0.0-14.0-16.0,45232,List1A,white,man,,TRUE,7,,,,,
null,CORRECT,,html-keyboard-response,122,639836,0.0-14.0-17.0-0.0,45232,List1A,white,man,,,,null,,,,
1953,"<img src=""portrait/BM2.jpg""style=""height:400px;""></img>",5,html-button-response,123,641791,0.0-14.0-19.0,45232,List1A,white,man,,TRUE,5,,,,,
null,CORRECT,,html-keyboard-response,124,643292,0.0-14.0-20.0-0.0,45232,List1A,white,man,,,,null,,,,
2002,"<img src=""portrait/BW1.jpg""style=""height:400px;""></img>",0,html-button-response,125,645295,0.0-14.0-22.0,45232,List1A,white,man,,TRUE,0,,,,,
null,CORRECT,,html-keyboard-response,126,646796,0.0-14.0-23.0-0.0,45232,List1A,white,man,,,,null,,,,
1570,<p>You got 8 out of 8 right first time. Press Continue.</p>,0,html-button-response,127,648367,0.0-14.0-25.0,45232,List1A,white,man,,,,,,,,
null,"<div style=""font-size:60px;"">+</div>",,html-keyboard-response,128,649869,0.0-15.0-0.0,45232,List1A,white,man,,,,null,,,,
null,"<img src=""stim_listA/fight6.gif""style=""height:400px;""></stim_listA>",,html-keyboard-response,129,651870,0.0-15.0-1.0,45232,List1A,white,man,,,,null,,,,
null,are fighting each other,,html-keyboard-response,130,653871,0.0-15.0-2.0,45232,List1A,white,man,,,,null,,,,
12536,,,survey-text,131,666409,0.0-15.0-3.0,45232,List1A,white,man,,,,,"{""Q0"":""Fred and luke are fighting each other""}","<img src=""stim_listA/fight6.gif""style=""height:400px;""></stim_listA>",are fighting each other,
null,"<div style=""font-size:60px;"">+</div>",,html-keyboard-response,132,666910,0.0-15.0-0.1,45232,List1A,white,man,,,,null,,,,
null,"<img src=""stim_listA/dance5.gif""style=""height:400px;""></stim_listA>",,html-keyboard-response,133,668911,0.0-15.0-1.1,45232,List1A,white,man,,,,null,,,,
null,is dancing with,,html-keyboard-response,134,670912,0.0-15.0-2.1,45232,List1A,white,man,,,,null,,,,
14507,,,survey-text,135,685419,0.0-15.0-3.1,45232,List1A,white,man,,,,,"{""Q0"":""Dave is dancing with fred""}","<img src=""stim_listA/dance5.gif""style=""height:400px;""></stim_listA>",is dancing with,
null,"<div style=""font-size:60px;"">+</div>",,html-keyboard-response,136,685920,0.0-15.0-0.2,45232,List1A,white,man,,,,null,,,,
null,"<img src=""stim_listA/marry6.gif""style=""height:400px;""></stim_listA>",,html-keyboard-response,137,687921,0.0-15.0-1.2,45232,List1A,white,man,,,,null,,,,
null,are marrying each other,,html-keyboard-response,138,689922,0.0-15.0-2.2,45232,List1A,white,man,,,,null,,,,
11777,,,survey-text,139,701701,0.0-15.0-3.2,45232,List1A,white,man,,,,,"{""Q0"":""Dave and fred are marrying each other""}","<img src=""stim_listA/marry6.gif""style=""height:400px;""></stim_listA>",are marrying each other,
null,"<div style=""font-size:60px;"">+</div>",,html-keyboard-response,140,702202,0.0-15.0-0.3,45232,List1A,white,man,,,,null,,,,
null,"<img src=""stim_listA/fight3.gif""style=""height:400px;""></stim_listA>",,html-keyboard-response,141,704203,0.0-15.0-1.3,45232,List1A,white,man,,,,null,,,,
null,is fighting,,html-keyboard-response,142,706218,0.0-15.0-2.3,45232,List1A,white,man,,,,null,,,,
10108,,,survey-text,143,716326,0.0-15.0-3.3,45232,List1A,white,man,,,,,"{""Q0"":""Jane is fighting with dave""}","<img src=""stim_listA/fight3.gif""style=""height:400px;""></stim_listA>",is fighting,
null,"<div style=""font-size:60px;"">+</div>",,html-keyboard-response,144,716827,0.0-15.0-0.4,45232,List1A,white,man,,,,null,,,,
null,"<img src=""stim_listA/talk3.gif""style=""height:400px;""></stim_listA>",,html-keyboard-response,145,718828,0.0-15.0-1.4,45232,List1A,white,man,,,,null,,,,
null,is talking to,,html-keyboard-response,146,720829,0.0-15.0-2.4,45232,List1A,white,man,,,,null,,,,
7569,,,survey-text,147,728399,0.0-15.0-3.4,45232,List1A,white,man,,,,,"{""Q0"":""Jane is talking to luke""}","<img src=""stim_listA/talk3.gif""style=""height:400px;""></stim_listA>",is talking to,
null,"<div style=""font-size:60px;"">+</div>",,html-keyboard-response,148,728900,0.0-15.0-0.5,45232,List1A,white,man,,,,null,,,,
null,"<img src=""stim_listA/flirt2.gif""style=""height:400px;""></stim_listA>",,html-keyboard-response,149,730901,0.0-15.0-1.5,45232,List1A,white,man,,,,null,,,,
null,are flirting with each other,,html-keyboard-response,150,732902,0.0-15.0-2.5,45232,List1A,white,man,,,,null,,,,
9458,,,survey-text,151,742362,0.0-15.0-3.5,45232,List1A,white,man,,,,,"{""Q0"":""Beth and Mike are flirting ""}","<img src=""stim_listA/flirt2.gif""style=""height:400px;""></stim_listA>",are flirting with each other,
null,"<div style=""font-size:60px;"">+</div>",,html-keyboard-response,152,742863,0.0-15.0-0.6,45232,List1A,white,man,,,,null,,,,
null,"<img src=""stim_listA/shout1.gif""style=""height:400px;""></stim_listA>",,html-keyboard-response,153,744865,0.0-15.0-1.6,45232,List1A,white,man,,,,null,,,,
null,is shouting at,,html-keyboard-response,154,746867,0.0-15.0-2.6,45232,List1A,white,man,,,,null,,,,
10552,,,survey-text,155,757420,0.0-15.0-3.6,45232,List1A,white,man,,,,,"{""Q0"":""beth is shouting at mike""}","<img src=""stim_listA/shout1.gif""style=""height:400px;""></stim_listA>",is shouting at,
null,"<div style=""font-size:60px;"">+</div>",,html-keyboard-response,156,757921,0.0-15.0-0.7,45232,List1A,white,man,,,,null,,,,
null,"<img src=""stim_listA/dance1.gif""style=""height:400px;""></stim_listA>",,html-keyboard-response,157,759922,0.0-15.0-1.7,45232,List1A,white,man,,,,null,,,,
null,is dancing with,,html-keyboard-response,158,761923,0.0-15.0-2.7,45232,List1A,white,man,,,,null,,,,
8329,,,survey-text,159,770252,0.0-15.0-3.7,45232,List1A,white,man,,,,,"{""Q0"":""mike is dancing with kate""}","<img src=""stim_listA/dance1.gif""style=""height:400px;""></stim_listA>",is dancing with,
null,"<div style=""font-size:60px;"">+</div>",,html-keyboard-response,160,770753,0.0-15.0-0.8,45232,List1A,white,man,,,,null,,,,
null,"<img src=""stim_listA/talk8.gif""style=""height:400px;""></stim_listA>",,html-keyboard-response,161,772755,0.0-15.0-1.8,45232,List1A,white,man,,,,null,,,,
null,are talking to each other,,html-keyboard-response,162,774755,0.0-15.0-2.8,45232,List1A,white,man,,,,null,,,,
9969,,,survey-text,163,784726,0.0-15.0-3.8,45232,List1A,white,man,,,,,"{""Q0"":""ruth and kate are talking to each other""}","<img src=""stim_listA/talk8.gif""style=""height:400px;""></stim_listA>",are talking to each other,
null,"<div style=""font-size:60px;"">+</div>",,html-keyboard-response,164,785228,0.0-15.0-0.9,45232,List1A,white,man,,,,null,,,,
null,"<img src=""stim_listA/shout8.gif""style=""height:400px;""></stim_listA>",,html-keyboard-response,165,787230,0.0-15.0-1.9,45232,List1A,white,man,,,,null,,,,
null,are shouting at each other,,html-keyboard-response,166,789231,0.0-15.0-2.9,45232,List1A,white,man,,,,null,,,,
10784,,,survey-text,167,800015,0.0-15.0-3.9,45232,List1A,white,man,,,,,"{""Q0"":""Jane and kate are shouting at each other""}","<img src=""stim_listA/shout8.gif""style=""height:400px;""></stim_listA>",are shouting at each other,
null,"<div style=""font-size:60px;"">+</div>",,html-keyboard-response,168,800516,0.0-15.0-0.10,45232,List1A,white,man,,,,null,,,,
null,"<img src=""stim_listA/touch4.gif""style=""height:400px;""></stim_listA>",,html-keyboard-response,169,802518,0.0-15.0-1.10,45232,List1A,white,man,,,,null,,,,
null,are touching each other,,html-keyboard-response,170,804518,0.0-15.0-2.10,45232,List1A,white,man,,,,null,,,,
10266,,,survey-text,171,814785,0.0-15.0-3.10,45232,List1A,white,man,,,,,"{""Q0"":""ruth and luke...""}","<img src=""stim_listA/touch4.gif""style=""height:400px;""></stim_listA>",are touching each other,
null,"<div style=""font-size:60px;"">+</div>",,html-keyboard-response,172,815286,0.0-15.0-0.11,45232,List1A,white,man,,,,null,,,,
null,"<img src=""stim_listA/kiss6.gif""style=""height:400px;""></stim_listA>",,html-keyboard-response,173,817287,0.0-15.0-1.11,45232,List1A,white,man,,,,null,,,,
null,are kissing each other,,html-keyboard-response,174,819288,0.0-15.0-2.11,45232,List1A,white,man,,,,null,,,,
8915,,,survey-text,175,828204,0.0-15.0-3.11,45232,List1A,white,man,,,,,"{""Q0"":""mike and dave are kising each other""}","<img src=""stim_listA/kiss6.gif""style=""height:400px;""></stim_listA>",are kissing each other,
null,"<div style=""font-size:60px;"">+</div>",,html-keyboard-response,176,828705,0.0-15.0-0.12,45232,List1A,white,man,,,,null,,,,
null,"<img src=""stim_listA/play1.gif""style=""height:400px;""></stim_listA>",,html-keyboard-response,177,830706,0.0-15.0-1.12,45232,List1A,white,man,,,,null,,,,
null,is playing with,,html-keyboard-response,178,832708,0.0-15.0-2.12,45232,List1A,white,man,,,,null,,,,
8581,,,survey-text,179,841291,0.0-15.0-3.12,45232,List1A,white,man,,,,,"{""Q0"":""mike is playing with kate""}","<img src=""stim_listA/play1.gif""style=""height:400px;""></stim_listA>",is playing with,
null,"<div style=""font-size:60px;"">+</div>",,html-keyboard-response,180,841791,0.0-15.0-0.13,45232,List1A,white,man,,,,null,,,,
null,"<img src=""stim_listA/touch1.gif""style=""height:400px;""></stim_listA>",,html-keyboard-response,181,843793,0.0-15.0-1.13,45232,List1A,white,man,,,,null,,,,
null,is touching,,html-keyboard-response,182,845794,0.0-15.0-2.13,45232,List1A,white,man,,,,null,,,,
6626,,,survey-text,183,852421,0.0-15.0-3.13,45232,List1A,white,man,,,,,"{""Q0"":""kate is touching mike""}","<img src=""stim_listA/touch1.gif""style=""height:400px;""></stim_listA>",is touching,
null,"<div style=""font-size:60px;"">+</div>",,html-keyboard-response,184,852922,0.0-15.0-0.14,45232,List1A,white,man,,,,null,,,,
null,"<img src=""stim_listA/touch2.gif""style=""height:400px;""></stim_listA>",,html-keyboard-response,185,854923,0.0-15.0-1.14,45232,List1A,white,man,,,,null,,,,
null,are touching each other,,html-keyboard-response,186,856924,0.0-15.0-2.14,45232,List1A,white,man,,,,null,,,,
8681,,,survey-text,187,865607,0.0-15.0-3.14,45232,List1A,white,man,,,,,"{""Q0"":""Beth and fred are touching each other""}","<img src=""stim_listA/touch2.gif""style=""height:400px;""></stim_listA>",are touching each other,
null,"<div style=""font-size:60px;"">+</div>",,html-keyboard-response,188,866108,0.0-15.0-0.15,45232,List1A,white,man,,,,null,,,,
null,"<img src=""stim_listA/shout2.gif""style=""height:400px;""></stim_listA>",,html-keyboard-response,189,868109,0.0-15.0-1.15,45232,List1A,white,man,,,,null,,,,
null,are shouting at each other,,html-keyboard-response,190,870110,0.0-15.0-2.15,45232,List1A,white,man,,,,null,,,,
12417,,,survey-text,191,882528,0.0-15.0-3.15,45232,List1A,white,man,,,,,"{""Q0"":""Kate and mike are shouting at each other""}","<img src=""stim_listA/shout2.gif""style=""height:400px;""></stim_listA>",are shouting at each other,
null,"<div style=""font-size:60px;"">+</div>",,html-keyboard-response,192,883029,0.0-15.0-0.16,45232,List1A,white,man,,,,null,,,,
null,"<img src=""stim_listA/touch5.gif""style=""height:400px;""></stim_listA>",,html-keyboard-response,193,885030,0.0-15.0-1.16,45232,List1A,white,man,,,,null,,,,
null,is touching,,html-keyboard-response,194,887031,0.0-15.0-2.16,45232,List1A,white,man,,,,null,,,,
7441,,,survey-text,195,894474,0.0-15.0-3.16,45232,List1A,white,man,,,,,"{""Q0"":""Dave is touching mike""}","<img src=""stim_listA/touch5.gif""style=""height:400px;""></stim_listA>",is touching,
null,"<div style=""font-size:60px;"">+</div>",,html-keyboard-response,196,894975,0.0-15.0-0.17,45232,List1A,white,man,,,,null,,,,
null,"<img src=""stim_listA/fight5.gif""style=""height:400px;""></stim_listA>",,html-keyboard-response,197,896976,0.0-15.0-1.17,45232,List1A,white,man,,,,null,,,,
null,is fighting,,html-keyboard-response,198,898977,0.0-15.0-2.17,45232,List1A,white,man,,,,null,,,,
7313,,,survey-text,199,906290,0.0-15.0-3.17,45232,List1A,white,man,,,,,"{""Q0"":""Dave is fighting mike""}","<img src=""stim_listA/fight5.gif""style=""height:400px;""></stim_listA>",is fighting,
null,"<div style=""font-size:60px;"">+</div>",,html-keyboard-response,200,906791,0.0-15.0-0.18,45232,List1A,white,man,,,,null,,,,
null,"<img src=""stim_listA/talk4.gif""style=""height:400px;""></stim_listA>",,html-keyboard-response,201,908793,0.0-15.0-1.18,45232,List1A,white,man,,,,null,,,,
null,are talking to each other,,html-keyboard-response,202,910793,0.0-15.0-2.18,45232,List1A,white,man,,,,null,,,,
11315,,,survey-text,203,922110,0.0-15.0-3.18,45232,List1A,white,man,,,,,"{""Q0"":""Ruth and dave are talking to each other""}","<img src=""stim_listA/talk4.gif""style=""height:400px;""></stim_listA>",are talking to each other,
null,"<div style=""font-size:60px;"">+</div>",,html-keyboard-response,204,922611,0.0-15.0-0.19,45232,List1A,white,man,,,,null,,,,
null,"<img src=""stim_listA/kiss4.gif""style=""height:400px;""></stim_listA>",,html-keyboard-response,205,924612,0.0-15.0-1.19,45232,List1A,white,man,,,,null,,,,
null,are kissing each other,,html-keyboard-response,206,926613,0.0-15.0-2.19,45232,List1A,white,man,,,,null,,,,
9232,,,survey-text,207,935846,0.0-15.0-3.19,45232,List1A,white,man,,,,,"{""Q0"":""Jane and dave are kissing each other""}","<img src=""stim_listA/kiss4.gif""style=""height:400px;""></stim_listA>",are kissing each other,
5743,"<img src='img/portrait_matrix_list1.jpg' style='width:900px;height:500px;''></img><p>If you have memorised all the portraits and names and are ready to start, press Continue.</p><p><strong>Please note: Your memory of these faces will be tested 4 times during this experiment.</strong></p>",0,html-button-response,208,941591,0.0-16.0-0.0,45232,List1A,white,man,,,,,,,,
1262,"<img src=""portrait/WW2.jpg""style=""height:400px;""></img>",3,html-button-response,209,943855,0.0-16.0-1.0,45232,List1A,white,man,,TRUE,3,,,,,
null,CORRECT,,html-keyboard-response,210,945356,0.0-16.0-2.0-0.0,45232,List1A,white,man,,,,null,,,,
1657,"<img src=""portrait/WM1.jpg""style=""height:400px;""></img>",6,html-button-response,211,947015,0.0-16.0-4.0,45232,List1A,white,man,,TRUE,6,,,,,
null,CORRECT,,html-keyboard-response,212,948516,0.0-16.0-5.0-0.0,45232,List1A,white,man,,,,null,,,,
2090,"<img src=""portrait/WM2.jpg""style=""height:400px;""></img>",7,html-button-response,213,950609,0.0-16.0-7.0,45232,List1A,white,man,,TRUE,7,,,,,
null,CORRECT,,html-keyboard-response,214,952110,0.0-16.0-8.0-0.0,45232,List1A,white,man,,,,null,,,,
1633,"<img src=""portrait/BW2.jpg""style=""height:400px;""></img>",2,html-button-response,215,953744,0.0-16.0-10.0,45232,List1A,white,man,,TRUE,2,,,,,
null,CORRECT,,html-keyboard-response,216,955246,0.0-16.0-11.0-0.0,45232,List1A,white,man,,,,null,,,,
1730,"<img src=""portrait/BM1.jpg""style=""height:400px;""></img>",4,html-button-response,217,956977,0.0-16.0-13.0,45232,List1A,white,man,,TRUE,4,,,,,
null,CORRECT,,html-keyboard-response,218,958478,0.0-16.0-14.0-0.0,45232,List1A,white,man,,,,null,,,,
1490,"<img src=""portrait/WW1.jpg""style=""height:400px;""></img>",1,html-button-response,219,959970,0.0-16.0-16.0,45232,List1A,white,man,,TRUE,1,,,,,
null,CORRECT,,html-keyboard-response,220,961471,0.0-16.0-17.0-0.0,45232,List1A,white,man,,,,null,,,,
2601,"<img src=""portrait/BW1.jpg""style=""height:400px;""></img>",0,html-button-response,221,964074,0.0-16.0-19.0,45232,List1A,white,man,,TRUE,0,,,,,
null,CORRECT,,html-keyboard-response,222,965575,0.0-16.0-20.0-0.0,45232,List1A,white,man,,,,null,,,,
2001,"<img src=""portrait/BM2.jpg""style=""height:400px;""></img>",5,html-button-response,223,967578,0.0-16.0-22.0,45232,List1A,white,man,,TRUE,5,,,,,
null,CORRECT,,html-keyboard-response,224,969079,0.0-16.0-23.0-0.0,45232,List1A,white,man,,,,null,,,,
1281,<p>You got 8 out of 8 right first time. Press Continue.</p>,0,html-button-response,225,970362,0.0-16.0-25.0,45232,List1A,white,man,,,,,,,,
null,"<div style=""font-size:60px;"">+</div>",,html-keyboard-response,226,971864,0.0-17.0-0.0,45232,List1A,white,man,,,,null,,,,
null,"<img src=""stim_listA/dance4.gif""style=""height:400px;""></stim_listA>",,html-keyboard-response,227,973865,0.0-17.0-1.0,45232,List1A,white,man,,,,null,,,,
null,are dancing with each other,,html-keyboard-response,228,975866,0.0-17.0-2.0,45232,List1A,white,man,,,,null,,,,
10065,,,survey-text,229,985932,0.0-17.0-3.0,45232,List1A,white,man,,,,,"{""Q0"":""Dave and ruth are dancing with each other""}","<img src=""stim_listA/dance4.gif""style=""height:400px;""></stim_listA>",are dancing with each other,
null,"<div style=""font-size:60px;"">+</div>",,html-keyboard-response,230,986433,0.0-17.0-0.1,45232,List1A,white,man,,,,null,,,,
null,"<img src=""stim_listA/play5.gif""style=""height:400px;""></stim_listA>",,html-keyboard-response,231,988435,0.0-17.0-1.1,45232,List1A,white,man,,,,null,,,,
null,is playing with,,html-keyboard-response,232,990435,0.0-17.0-2.1,45232,List1A,white,man,,,,null,,,,
7801,,,survey-text,233,998238,0.0-17.0-3.1,45232,List1A,white,man,,,,,"{""Q0"":""Mike is playing with dave""}","<img src=""stim_listA/play5.gif""style=""height:400px;""></stim_listA>",is playing with,
null,"<div style=""font-size:60px;"">+</div>",,html-keyboard-response,234,998739,0.0-17.0-0.2,45232,List1A,white,man,,,,null,,,,
null,"<img src=""stim_listA/argue6.gif""style=""height:400px;""></stim_listA>",,html-keyboard-response,235,1000740,0.0-17.0-1.2,45232,List1A,white,man,,,,null,,,,
null,are arguing with each other,,html-keyboard-response,236,1002741,0.0-17.0-2.2,45232,List1A,white,man,,,,null,,,,
13609,,,survey-text,237,1016351,0.0-17.0-3.2,45232,List1A,white,man,,,,,"{""Q0"":""Dave and fred are arguing with each other""}","<img src=""stim_listA/argue6.gif""style=""height:400px;""></stim_listA>",are arguing with each other,
null,"<div style=""font-size:60px;"">+</div>",,html-keyboard-response,238,1016852,0.0-17.0-0.3,45232,List1A,white,man,,,,null,,,,
null,"<img src=""stim_listA/argue5.gif""style=""height:400px;""></stim_listA>",,html-keyboard-response,239,1018853,0.0-17.0-1.3,45232,List1A,white,man,,,,null,,,,
null,is arguing with,,html-keyboard-response,240,1020854,0.0-17.0-2.3,45232,List1A,white,man,,,,null,,,,
8378,,,survey-text,241,1029233,0.0-17.0-3.3,45232,List1A,white,man,,,,,"{""Q0"":""""}","<img src=""stim_listA/argue5.gif""style=""height:400px;""></stim_listA>",is arguing with,
null,"<div style=""font-size:60px;"">+</div>",,html-keyboard-response,242,1029734,0.0-17.0-0.4,45232,List1A,white,man,,,,null,,,,
null,"<img src=""stim_listA/play8.gif""style=""height:400px;""></stim_listA>",,html-keyboard-response,243,1031735,0.0-17.0-1.4,45232,List1A,white,man,,,,null,,,,
null,are playing with each other,,html-keyboard-response,244,1033736,0.0-17.0-2.4,45232,List1A,white,man,,,,null,,,,
13857,,,survey-text,245,1047594,0.0-17.0-3.4,45232,List1A,white,man,,,,,"{""Q0"":""beth and ruth are playing with each other ""}","<img src=""stim_listA/play8.gif""style=""height:400px;""></stim_listA>",are playing with each other,
null,"<div style=""font-size:60px;"">+</div>",,html-keyboard-response,246,1048095,0.0-17.0-0.5,45232,List1A,white,man,,,,null,,,,
null,"<img src=""stim_listA/argue2.gif""style=""height:400px;""></stim_listA>",,html-keyboard-response,247,1050097,0.0-17.0-1.5,45232,List1A,white,man,,,,null,,,,
null,are arguing with each other,,html-keyboard-response,248,1052097,0.0-17.0-2.5,45232,List1A,white,man,,,,null,,,,
11115,,,survey-text,249,1063214,0.0-17.0-3.5,45232,List1A,white,man,,,,,"{""Q0"":""kate and fred are arguing with each other""}","<img src=""stim_listA/argue2.gif""style=""height:400px;""></stim_listA>",are arguing with each other,
null,"<div style=""font-size:60px;"">+</div>",,html-keyboard-response,250,1063716,0.0-17.0-0.6,45232,List1A,white,man,,,,null,,,,
null,"<img src=""stim_listA/argue8.gif""style=""height:400px;""></stim_listA>",,html-keyboard-response,251,1065719,0.0-17.0-1.6,45232,List1A,white,man,,,,null,,,,
null,are arguing with each other,,html-keyboard-response,252,1067720,0.0-17.0-2.6,45232,List1A,white,man,,,,null,,,,
10428,,,survey-text,253,1078149,0.0-17.0-3.6,45232,List1A,white,man,,,,,"{""Q0"":""jane and beth are arguing with each other""}","<img src=""stim_listA/argue8.gif""style=""height:400px;""></stim_listA>",are arguing with each other,
null,"<div style=""font-size:60px;"">+</div>",,html-keyboard-response,254,1078650,0.0-17.0-0.7,45232,List1A,white,man,,,,null,,,,
null,"<img src=""stim_listA/flirt5.gif""style=""height:400px;""></stim_listA>",,html-keyboard-response,255,1080652,0.0-17.0-1.7,45232,List1A,white,man,,,,null,,,,
null,is flirting with,,html-keyboard-response,256,1082653,0.0-17.0-2.7,45232,List1A,white,man,,,,null,,,,
13154,,,survey-text,257,1095808,0.0-17.0-3.7,45232,List1A,white,man,,,,,"{""Q0"":""Fred is flirting with dave""}","<img src=""stim_listA/flirt5.gif""style=""height:400px;""></stim_listA>",is flirting with,
null,"<div style=""font-size:60px;"">+</div>",,html-keyboard-response,258,1096309,0.0-17.0-0.8,45232,List1A,white,man,,,,null,,,,
null,"<img src=""stim_listA/kiss3.gif""style=""height:400px;""></stim_listA>",,html-keyboard-response,259,1098311,0.0-17.0-1.8,45232,List1A,white,man,,,,null,,,,
null,is kissing,,html-keyboard-response,260,1100312,0.0-17.0-2.8,45232,List1A,white,man,,,,null,,,,
7203,,,survey-text,261,1107515,0.0-17.0-3.8,45232,List1A,white,man,,,,,"{""Q0"":""luke is kissing ruth""}","<img src=""stim_listA/kiss3.gif""style=""height:400px;""></stim_listA>",is kissing,
null,"<div style=""font-size:60px;"">+</div>",,html-keyboard-response,262,1108016,0.0-17.0-0.9,45232,List1A,white,man,,,,null,,,,
null,"<img src=""stim_listA/marry4.gif""style=""height:400px;""></stim_listA>",,html-keyboard-response,263,1110018,0.0-17.0-1.9,45232,List1A,white,man,,,,null,,,,
null,are marrying each other,,html-keyboard-response,264,1112019,0.0-17.0-2.9,45232,List1A,white,man,,,,null,,,,
14299,,,survey-text,265,1126319,0.0-17.0-3.9,45232,List1A,white,man,,,,,"{""Q0"":""luke and jane are marrying each other""}","<img src=""stim_listA/marry4.gif""style=""height:400px;""></stim_listA>",are marrying each other,
null,"<div style=""font-size:60px;"">+</div>",,html-keyboard-response,266,1126820,0.0-17.0-0.10,45232,List1A,white,man,,,,null,,,,
null,"<img src=""stim_listA/marry7.gif""style=""height:400px;""></stim_listA>",,html-keyboard-response,267,1128822,0.0-17.0-1.10,45232,List1A,white,man,,,,null,,,,
null,is marrying,,html-keyboard-response,268,1130822,0.0-17.0-2.10,45232,List1A,white,man,,,,null,,,,
7692,,,survey-text,269,1138516,0.0-17.0-3.10,45232,List1A,white,man,,,,,"{""Q0"":""kae is marrying ruth""}","<img src=""stim_listA/marry7.gif""style=""height:400px;""></stim_listA>",is marrying,
null,"<div style=""font-size:60px;"">+</div>",,html-keyboard-response,270,1139017,0.0-17.0-0.11,45232,List1A,white,man,,,,null,,,,
null,"<img src=""stim_listA/talk2.gif""style=""height:400px;""></stim_listA>",,html-keyboard-response,271,1141018,0.0-17.0-1.11,45232,List1A,white,man,,,,null,,,,
null,are talking to each other,,html-keyboard-response,272,1143019,0.0-17.0-2.11,45232,List1A,white,man,,,,null,,,,
14006,,,survey-text,273,1157026,0.0-17.0-3.11,45232,List1A,white,man,,,,,"{""Q0"":""mike and beth are talking to each other""}","<img src=""stim_listA/talk2.gif""style=""height:400px;""></stim_listA>",are talking to each other,
null,"<div style=""font-size:60px;"">+</div>",,html-keyboard-response,274,1157527,0.0-17.0-0.12,45232,List1A,white,man,,,,null,,,,
null,"<img src=""stim_listA/flirt4.gif""style=""height:400px;""></stim_listA>",,html-keyboard-response,275,1159528,0.0-17.0-1.12,45232,List1A,white,man,,,,null,,,,
null,are flirting with each other,,html-keyboard-response,276,1161529,0.0-17.0-2.12,45232,List1A,white,man,,,,null,,,,
10285,,,survey-text,277,1171815,0.0-17.0-3.12,45232,List1A,white,man,,,,,"{""Q0"":""rutha nd dave are flirting with each other""}","<img src=""stim_listA/flirt4.gif""style=""height:400px;""></stim_listA>",are flirting with each other,
null,"<div style=""font-size:60px;"">+</div>",,html-keyboard-response,278,1172316,0.0-17.0-0.13,45232,List1A,white,man,,,,null,,,,
null,"<img src=""stim_listA/flirt7.gif""style=""height:400px;""></stim_listA>",,html-keyboard-response,279,1174317,0.0-17.0-1.13,45232,List1A,white,man,,,,null,,,,
null,is flirting with,,html-keyboard-response,280,1176318,0.0-17.0-2.13,45232,List1A,white,man,,,,null,,,,
7925,,,survey-text,281,1184243,0.0-17.0-3.13,45232,List1A,white,man,,,,,"{""Q0"":""beth is flirting with jane""}","<img src=""stim_listA/flirt7.gif""style=""height:400px;""></stim_listA>",is flirting with,
null,"<div style=""font-size:60px;"">+</div>",,html-keyboard-response,282,1184744,0.0-17.0-0.14,45232,List1A,white,man,,,,null,,,,
null,"<img src=""stim_listA/dance2.gif""style=""height:400px;""></stim_listA>",,html-keyboard-response,283,1186745,0.0-17.0-1.14,45232,List1A,white,man,,,,null,,,,
null,are dancing with each other,,html-keyboard-response,284,1188746,0.0-17.0-2.14,45232,List1A,white,man,,,,null,,,,
10010,,,survey-text,285,1198758,0.0-17.0-3.14,45232,List1A,white,man,,,,,"{""Q0"":""mike and beth are dancing with each other""}","<img src=""stim_listA/dance2.gif""style=""height:400px;""></stim_listA>",are dancing with each other,
null,"<div style=""font-size:60px;"">+</div>",,html-keyboard-response,286,1199259,0.0-17.0-0.15,45232,List1A,white,man,,,,null,,,,
null,"<img src=""stim_listA/dance8.gif""style=""height:400px;""></stim_listA>",,html-keyboard-response,287,1201261,0.0-17.0-1.15,45232,List1A,white,man,,,,null,,,,
null,are dancing with each other,,html-keyboard-response,288,1203262,0.0-17.0-2.15,45232,List1A,white,man,,,,null,,,,
10828,,,survey-text,289,1214091,0.0-17.0-3.15,45232,List1A,white,man,,,,,"{""Q0"":""ruth and kate are dancing with each other""}","<img src=""stim_listA/dance8.gif""style=""height:400px;""></stim_listA>",are dancing with each other,
null,"<div style=""font-size:60px;"">+</div>",,html-keyboard-response,290,1214592,0.0-17.0-0.16,45232,List1A,white,man,,,,null,,,,
null,"<img src=""stim_listA/fight8.gif""style=""height:400px;""></stim_listA>",,html-keyboard-response,291,1216593,0.0-17.0-1.16,45232,List1A,white,man,,,,null,,,,
null,are fighting each other,,html-keyboard-response,292,1218594,0.0-17.0-2.16,45232,List1A,white,man,,,,null,,,,
10317,,,survey-text,293,1228912,0.0-17.0-3.16,45232,List1A,white,man,,,,,"{""Q0"":""ruth and beth are fighting with each other""}","<img src=""stim_listA/fight8.gif""style=""height:400px;""></stim_listA>",are fighting each other,
null,"<div style=""font-size:60px;"">+</div>",,html-keyboard-response,294,1229413,0.0-17.0-0.17,45232,List1A,white,man,,,,null,,,,
null,"<img src=""stim_listA/dance6.gif""style=""height:400px;""></stim_listA>",,html-keyboard-response,295,1231415,0.0-17.0-1.17,45232,List1A,white,man,,,,null,,,,
null,are dancing with each other,,html-keyboard-response,296,1233415,0.0-17.0-2.17,45232,List1A,white,man,,,,null,,,,
9379,,,survey-text,297,1242796,0.0-17.0-3.17,45232,List1A,white,man,,,,,"{""Q0"":""Luke and mike are dancing with each other""}","<img src=""stim_listA/dance6.gif""style=""height:400px;""></stim_listA>",are dancing with each other,
null,"<div style=""font-size:60px;"">+</div>",,html-keyboard-response,298,1243297,0.0-17.0-0.18,45232,List1A,white,man,,,,null,,,,
null,"<img src=""stim_listA/fight7.gif""style=""height:400px;""></stim_listA>",,html-keyboard-response,299,1245298,0.0-17.0-1.18,45232,List1A,white,man,,,,null,,,,
null,is fighting,,html-keyboard-response,300,1247299,0.0-17.0-2.18,45232,List1A,white,man,,,,null,,,,
8819,,,survey-text,301,1256119,0.0-17.0-3.18,45232,List1A,white,man,,,,,"{""Q0"":""kate is fighting jane""}","<img src=""stim_listA/fight7.gif""style=""height:400px;""></stim_listA>",is fighting,
null,"<div style=""font-size:60px;"">+</div>",,html-keyboard-response,302,1256620,0.0-17.0-0.19,45232,List1A,white,man,,,,null,,,,
null,"<img src=""stim_listA/dance7.gif""style=""height:400px;""></stim_listA>",,html-keyboard-response,303,1258621,0.0-17.0-1.19,45232,List1A,white,man,,,,null,,,,
null,is dancing with,,html-keyboard-response,304,1260622,0.0-17.0-2.19,45232,List1A,white,man,,,,null,,,,
12748,,,survey-text,305,1273372,0.0-17.0-3.19,45232,List1A,white,man,,,,,"{""Q0"":""jane is dancing with beth""}","<img src=""stim_listA/dance7.gif""style=""height:400px;""></stim_listA>",is dancing with,
2287,"<img src='img/portrait_matrix_list1.jpg' style='width:900px;height:500px;''></img><p>If you have memorised all the portraits and names and are ready to start, press Continue.</p><p><strong>Please note: Your memory of these faces will be tested 4 times during this experiment.</strong></p>",0,html-button-response,306,1275660,0.0-18.0-0.0,45232,List1A,white,man,,,,,,,,
1655,"<img src=""portrait/BM2.jpg""style=""height:400px;""></img>",5,html-button-response,307,1278318,0.0-18.0-1.0,45232,List1A,white,man,,TRUE,5,,,,,
null,CORRECT,,html-keyboard-response,308,1279819,0.0-18.0-2.0-0.0,45232,List1A,white,man,,,,null,,,,
1361,"<img src=""portrait/BW2.jpg""style=""height:400px;""></img>",2,html-button-response,309,1281182,0.0-18.0-4.0,45232,List1A,white,man,,TRUE,2,,,,,
null,CORRECT,,html-keyboard-response,310,1282683,0.0-18.0-5.0-0.0,45232,List1A,white,man,,,,null,,,,
1170,"<img src=""portrait/WW2.jpg""style=""height:400px;""></img>",3,html-button-response,311,1283855,0.0-18.0-7.0,45232,List1A,white,man,,TRUE,3,,,,,
null,CORRECT,,html-keyboard-response,312,1285357,0.0-18.0-8.0-0.0,45232,List1A,white,man,,,,null,,,,
2001,"<img src=""portrait/BW1.jpg""style=""height:400px;""></img>",0,html-button-response,313,1287359,0.0-18.0-10.0,45232,List1A,white,man,,TRUE,0,,,,,
null,CORRECT,,html-keyboard-response,314,1288860,0.0-18.0-11.0-0.0,45232,List1A,white,man,,,,null,,,,
1227,"<img src=""portrait/WM2.jpg""style=""height:400px;""></img>",7,html-button-response,315,1290090,0.0-18.0-13.0,45232,List1A,white,man,,TRUE,7,,,,,
null,CORRECT,,html-keyboard-response,316,1291591,0.0-18.0-14.0-0.0,45232,List1A,white,man,,,,null,,,,
1929,"<img src=""portrait/WW1.jpg""style=""height:400px;""></img>",1,html-button-response,317,1293521,0.0-18.0-16.0,45232,List1A,white,man,,TRUE,1,,,,,
null,CORRECT,,html-keyboard-response,318,1295023,0.0-18.0-17.0-0.0,45232,List1A,white,man,,,,null,,,,
1618,"<img src=""portrait/BM1.jpg""style=""height:400px;""></img>",4,html-button-response,319,1296642,0.0-18.0-19.0,45232,List1A,white,man,,TRUE,4,,,,,
null,CORRECT,,html-keyboard-response,320,1298143,0.0-18.0-20.0-0.0,45232,List1A,white,man,,,,null,,,,
1258,"<img src=""portrait/WM1.jpg""style=""height:400px;""></img>",6,html-button-response,321,1299403,0.0-18.0-22.0,45232,List1A,white,man,,TRUE,6,,,,,
null,CORRECT,,html-keyboard-response,322,1300904,0.0-18.0-23.0-0.0,45232,List1A,white,man,,,,null,,,,
1977,<p>You got 8 out of 8 right first time. Press Continue.</p>,0,html-button-response,323,1302884,0.0-18.0-25.0,45232,List1A,white,man,,,,,,,,
null,"<div style=""font-size:60px;"">+</div>",,html-keyboard-response,324,1304385,0.0-19.0-0.0,45232,List1A,white,man,,,,null,,,,
null,"<img src=""stim_listA/dance3.gif""style=""height:400px;""></stim_listA>",,html-keyboard-response,325,1306386,0.0-19.0-1.0,45232,List1A,white,man,,,,null,,,,
null,is dancing with,,html-keyboard-response,326,1308387,0.0-19.0-2.0,45232,List1A,white,man,,,,null,,,,
7490,,,survey-text,327,1315879,0.0-19.0-3.0,45232,List1A,white,man,,,,,"{""Q0"":""luke is dancing with jane""}","<img src=""stim_listA/dance3.gif""style=""height:400px;""></stim_listA>",is dancing with,
null,"<div style=""font-size:60px;"">+</div>",,html-keyboard-response,328,1316380,0.0-19.0-0.1,45232,List1A,white,man,,,,null,,,,
null,"<img src=""stim_listA/flirt8.gif""style=""height:400px;""></stim_listA>",,html-keyboard-response,329,1318381,0.0-19.0-1.1,45232,List1A,white,man,,,,null,,,,
null,are flirting with each other,,html-keyboard-response,330,1320382,0.0-19.0-2.1,45232,List1A,white,man,,,,null,,,,
11508,,,survey-text,331,1331891,0.0-19.0-3.1,45232,List1A,white,man,,,,,"{""Q0"":""ruth and kate are flirting with each other""}","<img src=""stim_listA/flirt8.gif""style=""height:400px;""></stim_listA>",are flirting with each other,
null,"<div style=""font-size:60px;"">+</div>",,html-keyboard-response,332,1332392,0.0-19.0-0.2,45232,List1A,white,man,,,,null,,,,
null,"<img src=""stim_listA/shout7.gif""style=""height:400px;""></stim_listA>",,html-keyboard-response,333,1334393,0.0-19.0-1.2,45232,List1A,white,man,,,,null,,,,
null,is shouting at,,html-keyboard-response,334,1336394,0.0-19.0-2.2,45232,List1A,white,man,,,,null,,,,
7458,,,survey-text,335,1343854,0.0-19.0-3.2,45232,List1A,white,man,,,,,"{""Q0"":""beth is shouting at ruth""}","<img src=""stim_listA/shout7.gif""style=""height:400px;""></stim_listA>",is shouting at,
null,"<div style=""font-size:60px;"">+</div>",,html-keyboard-response,336,1344355,0.0-19.0-0.3,45232,List1A,white,man,,,,null,,,,
null,"<img src=""stim_listA/talk1.gif""style=""height:400px;""></stim_listA>",,html-keyboard-response,337,1346357,0.0-19.0-1.3,45232,List1A,white,man,,,,null,,,,
null,is talking to,,html-keyboard-response,338,1348358,0.0-19.0-2.3,45232,List1A,white,man,,,,null,,,,
7035,,,survey-text,339,1355394,0.0-19.0-3.3,45232,List1A,white,man,,,,,"{""Q0"":""kate is talking to fred""}","<img src=""stim_listA/talk1.gif""style=""height:400px;""></stim_listA>",is talking to,
null,"<div style=""font-size:60px;"">+</div>",,html-keyboard-response,340,1355895,0.0-19.0-0.4,45232,List1A,white,man,,,,null,,,,
null,"<img src=""stim_listA/flirt6.gif""style=""height:400px;""></stim_listA>",,html-keyboard-response,341,1357896,0.0-19.0-1.4,45232,List1A,white,man,,,,null,,,,
null,are flirting with each other,,html-keyboard-response,342,1359897,0.0-19.0-2.4,45232,List1A,white,man,,,,null,,,,
11051,,,survey-text,343,1370948,0.0-19.0-3.4,45232,List1A,white,man,,,,,"{""Q0"":""luke and mike are flirting with each other""}","<img src=""stim_listA/flirt6.gif""style=""height:400px;""></stim_listA>",are flirting with each other,
null,"<div style=""font-size:60px;"">+</div>",,html-keyboard-response,344,1371449,0.0-19.0-0.5,45232,List1A,white,man,,,,null,,,,
null,"<img src=""stim_listA/shout3.gif""style=""height:400px;""></stim_listA>",,html-keyboard-response,345,1373451,0.0-19.0-1.5,45232,List1A,white,man,,,,null,,,,
null,is shouting at,,html-keyboard-response,346,1375452,0.0-19.0-2.5,45232,List1A,white,man,,,,null,,,,
9676,,,survey-text,347,1385129,0.0-19.0-3.5,45232,List1A,white,man,,,,,"{""Q0"":""luke is shouting at ruth""}","<img src=""stim_listA/shout3.gif""style=""height:400px;""></stim_listA>",is shouting at,
null,"<div style=""font-size:60px;"">+</div>",,html-keyboard-response,348,1385630,0.0-19.0-0.6,45232,List1A,white,man,,,,null,,,,
null,"<img src=""stim_listA/talk5.gif""style=""height:400px;""></stim_listA>",,html-keyboard-response,349,1387631,0.0-19.0-1.6,45232,List1A,white,man,,,,null,,,,
null,is talking to,,html-keyboard-response,350,1389632,0.0-19.0-2.6,45232,List1A,white,man,,,,null,,,,
7211,,,survey-text,351,1396844,0.0-19.0-3.6,45232,List1A,white,man,,,,,"{""Q0"":""fred is talking to dave""}","<img src=""stim_listA/talk5.gif""style=""height:400px;""></stim_listA>",is talking to,
null,"<div style=""font-size:60px;"">+</div>",,html-keyboard-response,352,1397345,0.0-19.0-0.7,45232,List1A,white,man,,,,null,,,,
null,"<img src=""stim_listA/touch6.gif""style=""height:400px;""></stim_listA>",,html-keyboard-response,353,1399346,0.0-19.0-1.7,45232,List1A,white,man,,,,null,,,,
null,are touching each other,,html-keyboard-response,354,1401347,0.0-19.0-2.7,45232,List1A,white,man,,,,null,,,,
13139,,,survey-text,355,1414487,0.0-19.0-3.7,45232,List1A,white,man,,,,,"{""Q0"":""luke and fred are touching each other""}","<img src=""stim_listA/touch6.gif""style=""height:400px;""></stim_listA>",are touching each other,
null,"<div style=""font-size:60px;"">+</div>",,html-keyboard-response,356,1414988,0.0-19.0-0.8,45232,List1A,white,man,,,,null,,,,
null,"<img src=""stim_listA/marry8.gif""style=""height:400px;""></stim_listA>",,html-keyboard-response,357,1416990,0.0-19.0-1.8,45232,List1A,white,man,,,,null,,,,
null,are marrying each other,,html-keyboard-response,358,1418990,0.0-19.0-2.8,45232,List1A,white,man,,,,null,,,,
9012,,,survey-text,359,1428003,0.0-19.0-3.8,45232,List1A,white,man,,,,,"{""Q0"":""jane and beth are marrying each other""}","<img src=""stim_listA/marry8.gif""style=""height:400px;""></stim_listA>",are marrying each other,
null,"<div style=""font-size:60px;"">+</div>",,html-keyboard-response,360,1428504,0.0-19.0-0.9,45232,List1A,white,man,,,,null,,,,
null,"<img src=""stim_listA/touch3.gif""style=""height:400px;""></stim_listA>",,html-keyboard-response,361,1430506,0.0-19.0-1.9,45232,List1A,white,man,,,,null,,,,
null,is touching,,html-keyboard-response,362,1432506,0.0-19.0-2.9,45232,List1A,white,man,,,,null,,,,
9547,,,survey-text,363,1442055,0.0-19.0-3.9,45232,List1A,white,man,,,,,"{""Q0"":""jane is touching dave""}","<img src=""stim_listA/touch3.gif""style=""height:400px;""></stim_listA>",is touching,
null,"<div style=""font-size:60px;"">+</div>",,html-keyboard-response,364,1442556,0.0-19.0-0.10,45232,List1A,white,man,,,,null,,,,
null,"<img src=""stim_listA/fight2.gif""style=""height:400px;""></stim_listA>",,html-keyboard-response,365,1444557,0.0-19.0-1.10,45232,List1A,white,man,,,,null,,,,
null,are fighting each other,,html-keyboard-response,366,1446558,0.0-19.0-2.10,45232,List1A,white,man,,,,null,,,,
11684,,,survey-text,367,1458243,0.0-19.0-3.10,45232,List1A,white,man,,,,,"{""Q0"":""beth and fred are fighting each other""}","<img src=""stim_listA/fight2.gif""style=""height:400px;""></stim_listA>",are fighting each other,
null,"<div style=""font-size:60px;"">+</div>",,html-keyboard-response,368,1458744,0.0-19.0-0.11,45232,List1A,white,man,,,,null,,,,
null,"<img src=""stim_listA/shout5.gif""style=""height:400px;""></stim_listA>",,html-keyboard-response,369,1460745,0.0-19.0-1.11,45232,List1A,white,man,,,,null,,,,
null,is shouting at,,html-keyboard-response,370,1462746,0.0-19.0-2.11,45232,List1A,white,man,,,,null,,,,
7721,,,survey-text,371,1470469,0.0-19.0-3.11,45232,List1A,white,man,,,,,"{""Q0"":""Fred is shouting at Luke""}","<img src=""stim_listA/shout5.gif""style=""height:400px;""></stim_listA>",is shouting at,
null,"<div style=""font-size:60px;"">+</div>",,html-keyboard-response,372,1470970,0.0-19.0-0.12,45232,List1A,white,man,,,,null,,,,
null,"<img src=""stim_listA/play3.gif""style=""height:400px;""></stim_listA>",,html-keyboard-response,373,1472971,0.0-19.0-1.12,45232,List1A,white,man,,,,null,,,,
null,is playing with,,html-keyboard-response,374,1474972,0.0-19.0-2.12,45232,List1A,white,man,,,,null,,,,
12979,,,survey-text,375,1487953,0.0-19.0-3.12,45232,List1A,white,man,,,,,"{""Q0"":""jane is playing with Dave ""}","<img src=""stim_listA/play3.gif""style=""height:400px;""></stim_listA>",is playing with,
null,"<div style=""font-size:60px;"">+</div>",,html-keyboard-response,376,1488454,0.0-19.0-0.13,45232,List1A,white,man,,,,null,,,,
null,"<img src=""stim_listA/marry3.gif""style=""height:400px;""></stim_listA>",,html-keyboard-response,377,1490455,0.0-19.0-1.13,45232,List1A,white,man,,,,null,,,,
null,is marrying,,html-keyboard-response,378,1492456,0.0-19.0-2.13,45232,List1A,white,man,,,,null,,,,
6787,,,survey-text,379,1499244,0.0-19.0-3.13,45232,List1A,white,man,,,,,"{""Q0"":""Dave is marrying ruth""}","<img src=""stim_listA/marry3.gif""style=""height:400px;""></stim_listA>",is marrying,
null,"<div style=""font-size:60px;"">+</div>",,html-keyboard-response,380,1499745,0.0-19.0-0.14,45232,List1A,white,man,,,,null,,,,
null,"<img src=""stim_listA/touch7.gif""style=""height:400px;""></stim_listA>",,html-keyboard-response,381,1501746,0.0-19.0-1.14,45232,List1A,white,man,,,,null,,,,
null,is touching,,html-keyboard-response,382,1503747,0.0-19.0-2.14,45232,List1A,white,man,,,,null,,,,
6978,,,survey-text,383,1510726,0.0-19.0-3.14,45232,List1A,white,man,,,,,"{""Q0"":""kate is touching jane""}","<img src=""stim_listA/touch7.gif""style=""height:400px;""></stim_listA>",is touching,
null,"<div style=""font-size:60px;"">+</div>",,html-keyboard-response,384,1511227,0.0-19.0-0.15,45232,List1A,white,man,,,,null,,,,
null,"<img src=""stim_listA/play7.gif""style=""height:400px;""></stim_listA>",,html-keyboard-response,385,1513228,0.0-19.0-1.15,45232,List1A,white,man,,,,null,,,,
null,is playing with,,html-keyboard-response,386,1515230,0.0-19.0-2.15,45232,List1A,white,man,,,,null,,,,
9547,,,survey-text,387,1524778,0.0-19.0-3.15,45232,List1A,white,man,,,,,"{""Q0"":""jane is playing with kate""}","<img src=""stim_listA/play7.gif""style=""height:400px;""></stim_listA>",is playing with,
null,"<div style=""font-size:60px;"">+</div>",,html-keyboard-response,388,1525279,0.0-19.0-0.16,45232,List1A,white,man,,,,null,,,,
null,"<img src=""stim_listA/talk6.gif""style=""height:400px;""></stim_listA>",,html-keyboard-response,389,1527280,0.0-19.0-1.16,45232,List1A,white,man,,,,null,,,,
null,are talking to each other,,html-keyboard-response,390,1529281,0.0-19.0-2.16,45232,List1A,white,man,,,,null,,,,
10171,,,survey-text,391,1539452,0.0-19.0-3.16,45232,List1A,white,man,,,,,"{""Q0"":""luke and mike are talking to each other""}","<img src=""stim_listA/talk6.gif""style=""height:400px;""></stim_listA>",are talking to each other,
null,"<div style=""font-size:60px;"">+</div>",,html-keyboard-response,392,1539953,0.0-19.0-0.17,45232,List1A,white,man,,,,null,,,,
null,"<img src=""stim_listA/fight4.gif""style=""height:400px;""></stim_listA>",,html-keyboard-response,393,1541955,0.0-19.0-1.17,45232,List1A,white,man,,,,null,,,,
null,are fighting each other,,html-keyboard-response,394,1543955,0.0-19.0-2.17,45232,List1A,white,man,,,,null,,,,
10195,,,survey-text,395,1554151,0.0-19.0-3.17,45232,List1A,white,man,,,,,"{""Q0"":""Ruth and luke are fighting each other""}","<img src=""stim_listA/fight4.gif""style=""height:400px;""></stim_listA>",are fighting each other,
null,"<div style=""font-size:60px;"">+</div>",,html-keyboard-response,396,1554652,0.0-19.0-0.18,45232,List1A,white,man,,,,null,,,,
null,"<img src=""stim_listA/kiss5.gif""style=""height:400px;""></stim_listA>",,html-keyboard-response,397,1556654,0.0-19.0-1.18,45232,List1A,white,man,,,,null,,,,
null,is kissing,,html-keyboard-response,398,1558654,0.0-19.0-2.18,45232,List1A,white,man,,,,null,,,,
9243,,,survey-text,399,1567899,0.0-19.0-3.18,45232,List1A,white,man,,,,,"{""Q0"":""luke is kissing fred""}","<img src=""stim_listA/kiss5.gif""style=""height:400px;""></stim_listA>",is kissing,
null,"<div style=""font-size:60px;"">+</div>",,html-keyboard-response,400,1568400,0.0-19.0-0.19,45232,List1A,white,man,,,,null,,,,
null,"<img src=""stim_listA/flirt1.gif""style=""height:400px;""></stim_listA>",,html-keyboard-response,401,1570402,0.0-19.0-1.19,45232,List1A,white,man,,,,null,,,,
null,is flirting with,,html-keyboard-response,402,1572402,0.0-19.0-2.19,45232,List1A,white,man,,,,null,,,,
17372,,,survey-text,403,1589776,0.0-19.0-3.19,45232,List1A,white,man,,,,,"{""Q0"":""fred is flirting with kate ""}","<img src=""stim_listA/flirt1.gif""style=""height:400px;""></stim_listA>",is flirting with,
2703,<p>Thank you for completing that task.</p><p>The final part of this session is a short questionnaire.</p><p>Press Continue.</p>,0,html-button-response,404,1592479,0.0-20.0,45232,List1A,white,man,,,,,,,,
25309,,,survey-text,405,1618790,0.0-21.0,45232,List1A,white,man,,,,,"{""Q0"":""54"",""Q1"":""english"",""Q2"":""english"",""Q3"":""UK"",""Q4"":""British/white"",""Q5"":""Male""}",,,demographics
9159,,,survey-likert,406,1627952,0.0-22.0,45232,List1A,white,man,,,,,"{""Q0"":0}",,,likert_ESS
6653,,,survey-likert,407,1634609,0.0-23.0,45232,List1A,white,man,,,,,"{""Q0"":0}",,,likert_NSSAL_Q1
4004,,,survey-likert,408,1638618,0.0-24.0,45232,List1A,white,man,,,,,"{""Q0"":0}",,,likert_NSSAL_Q2
5324,,,survey-likert,409,1643947,0.0-25.0,45232,List1A,white,man,,,,,"{""Q0"":3}",,,likert_CGRS_Q1
4172,,,survey-likert,410,1648124,0.0-26.0,45232,List1A,white,man,,,,,"{""Q0"":3}",,,likert_CGRS_Q2
5611,,,survey-likert,411,1653740,0.0-27.0,45232,List1A,white,man,,,,,"{""Q0"":3}",,,likert_CGRS_Q3
8190,,,survey-text,412,1661934,0.0-28.0,45232,List1A,white,man,,,,,"{""Q0"":""ccc""}",,,worker_id
10525,,,external-html,413,1672809,0.0-29.0,45232,List1A,white,man,debrief.html,,,,,,,
