rt,stimulus,button_pressed,trial_type,trial_index,time_elapsed,internal_node_id,subject,list,ppt_race,ppt_gender,url,first_guess,correct,key_press,responses,image_type,phrase_type,test_part
9402,Welcome to the experiment. Press Continue to begin.,0,html-button-response,0,9443,0.0-0.0,45455,List1A,white,man,,,,,,,,
272109,,,external-html,1,282897,0.0-1.0,45455,List1A,white,man,consent.html,,,,,,,
17169,"<p>On the next page, you will see portraits of 8 people and their names.</p><p>Your first task is to take a few minutes to memorise the names of these people.</p><p>You will have to recall their names during the rest of the experiment, so it is</p><p>essential that you try to memorise these people and their names as best as you can.</p><br><p><strong>You will then be tested on your memory of these names and portraits.</strong></p><br><p>The experiment will start after you have completed this memory test.</p><br><p>Ready?</p>",0,html-button-response,2,300073,0.0-2.0,45455,List1A,white,man,,,,,,,,
65164,"<img src='img/portrait_matrix_list1.jpg' style='width:900px;height:500px;''></img><p>If you have memorised all the portraits and names and are ready to start, press Continue.</p><p><strong>Please note: Your memory of these faces will be tested 4 times during this experiment.</strong></p>",0,html-button-response,3,366247,0.0-3.0-0.0,45455,List1A,white,man,,,,,,,,
4805,"<img src=""portrait/BM1.jpg""style=""height:400px;""></img>",4,html-button-response,4,372060,0.0-3.0-1.0,45455,List1A,white,man,,TRUE,4,,,,,
null,CORRECT,,html-keyboard-response,5,373569,0.0-3.0-2.0-0.0,45455,List1A,white,man,,,,null,,,,
9237,"<img src=""portrait/WM1.jpg""style=""height:400px;""></img>",6,html-button-response,6,382814,0.0-3.0-4.0,45455,List1A,white,man,,TRUE,6,,,,,
null,CORRECT,,html-keyboard-response,7,384318,0.0-3.0-5.0-0.0,45455,List1A,white,man,,,,null,,,,
7921,"<img src=""portrait/BW2.jpg""style=""height:400px;""></img>",2,html-button-response,8,392245,0.0-3.0-7.0,45455,List1A,white,man,,TRUE,2,,,,,
null,CORRECT,,html-keyboard-response,9,393749,0.0-3.0-8.0-0.0,45455,List1A,white,man,,,,null,,,,
3300,"<img src=""portrait/WW2.jpg""style=""height:400px;""></img>",3,html-button-response,10,397055,0.0-3.0-10.0,45455,List1A,white,man,,TRUE,3,,,,,
null,CORRECT,,html-keyboard-response,11,398558,0.0-3.0-11.0-0.0,45455,List1A,white,man,,,,null,,,,
7121,"<img src=""portrait/BW1.jpg""style=""height:400px;""></img>",0,html-button-response,12,405687,0.0-3.0-13.0,45455,List1A,white,man,,TRUE,0,,,,,
null,CORRECT,,html-keyboard-response,13,407191,0.0-3.0-14.0-0.0,45455,List1A,white,man,,,,null,,,,
8076,"<img src=""portrait/BM2.jpg""style=""height:400px;""></img>",5,html-button-response,14,415272,0.0-3.0-16.0,45455,List1A,white,man,,TRUE,5,,,,,
null,CORRECT,,html-keyboard-response,15,416775,0.0-3.0-17.0-0.0,45455,List1A,white,man,,,,null,,,,
7369,"<img src=""portrait/WW1.jpg""style=""height:400px;""></img>",1,html-button-response,16,424151,0.0-3.0-19.0,45455,List1A,white,man,,TRUE,1,,,,,
null,CORRECT,,html-keyboard-response,17,425655,0.0-3.0-20.0-0.0,45455,List1A,white,man,,,,null,,,,
6738,"<img src=""portrait/WM2.jpg""style=""height:400px;""></img>",7,html-button-response,18,432400,0.0-3.0-22.0,45455,List1A,white,man,,TRUE,7,,,,,
null,CORRECT,,html-keyboard-response,19,433903,0.0-3.0-23.0-0.0,45455,List1A,white,man,,,,null,,,,
3274,<p>You got 8 out of 8 right first time. Press Continue.</p>,0,html-button-response,20,437182,0.0-3.0-25.0,45455,List1A,white,man,,,,,,,,
45030,"<p>In this experiment, you will view photographs of the people from the memory game interacting.</p><p>By using the <strong>exact</strong> phrase given <i>after</i> the photograph appears and recalling the correct names of the people in the photographs, form a sentence describing the interaction. You do not need to capitalise names.</p><p>Type your answer in the space provided. Please complete every sentence before moving onto the next trial.</p><p>You will only have a few seconds to memorise each given photograph and phrase before you can respond, so try your best to focus.</p><p>An example is given below. Press 'Continue' when you are ready.</p><img src='img/speaking_example.jpg' style='width:800px;height:460px;''></img>",0,html-button-response,21,483224,0.0-4.0,45455,List1A,white,man,,,,,,,,
3550,"<p>Before the experiment starts, you will watch two example trials. Press 'Continue'.</p>",0,html-button-response,22,487778,0.0-5.0,45455,List1A,white,man,,,,,,,,
null,<img src='img/meet_eg.gif' style='height:400px;''></img>,,html-keyboard-response,23,490783,0.0-6.0,45455,List1A,white,man,,,,null,,,,
null,<p>is meeting</p>,,html-keyboard-response,24,492785,0.0-7.0,45455,List1A,white,man,,,,null,,,,
6868,<p><b>Answer:</b> kate is meeting beth</p>,0,html-button-response,25,499656,0.0-8.0,45455,List1A,white,man,,,,,,,,
null,<img src='img/look_eg.gif' style='height:400px;''></img>,,html-keyboard-response,26,502662,0.0-9.0,45455,List1A,white,man,,,,null,,,,
null,<p>are looking at each other</p>,,html-keyboard-response,27,504664,0.0-10.0,45455,List1A,white,man,,,,null,,,,
2854,<p><b>Answer:</b> luke and dave are looking at each other</p>,0,html-button-response,28,507521,0.0-11.0,45455,List1A,white,man,,,,,,,,
69514,"<p>Ready to start the experiment?</p><br><p><strong>Remember to describe the picture using a full sentence,</strong></p><p><strong>that combines the names of the people with the <i>exact</i> phrase given.</strong></p><p><strong>To receive full payment you must do this correctly.</strong></p><p><strong> You do not need to capitalise names or use punctuation.</strong></p><br><p>Press 'Continue' to begin.</p>",0,html-button-response,29,578041,0.0-12.0,45455,List1A,white,man,,,,,,,,
null,"<div style=""font-size:60px;"">+</div>",,html-keyboard-response,30,579544,0.0-13.0-0.0,45455,List1A,white,man,,,,null,,,,
null,"<img src=""stim_listA/marry4.gif""style=""height:400px;""></stim_listA>",,html-keyboard-response,31,581550,0.0-13.0-1.0,45455,List1A,white,man,,,,null,,,,
null,are marrying each other,,html-keyboard-response,32,583552,0.0-13.0-2.0,45455,List1A,white,man,,,,null,,,,
31130,,,survey-text,33,614687,0.0-13.0-3.0,45455,List1A,white,man,,,,,"{""Q0"":""Jane is meeting luke""}","<img src=""stim_listA/marry4.gif""style=""height:400px;""></stim_listA>",are marrying each other,
null,"<div style=""font-size:60px;"">+</div>",,html-keyboard-response,34,615193,0.0-13.0-0.1,45455,List1A,white,man,,,,null,,,,
null,"<img src=""stim_listA/kiss3.gif""style=""height:400px;""></stim_listA>",,html-keyboard-response,35,617196,0.0-13.0-1.1,45455,List1A,white,man,,,,null,,,,
null,is kissing,,html-keyboard-response,36,619198,0.0-13.0-2.1,45455,List1A,white,man,,,,null,,,,
28565,,,survey-text,37,647769,0.0-13.0-3.1,45455,List1A,white,man,,,,,"{""Q0"":""luke and ruth are face to face""}","<img src=""stim_listA/kiss3.gif""style=""height:400px;""></stim_listA>",is kissing,
null,"<div style=""font-size:60px;"">+</div>",,html-keyboard-response,38,648272,0.0-13.0-0.2,45455,List1A,white,man,,,,null,,,,
null,"<img src=""stim_listA/play1.gif""style=""height:400px;""></stim_listA>",,html-keyboard-response,39,650277,0.0-13.0-1.2,45455,List1A,white,man,,,,null,,,,
null,is playing with,,html-keyboard-response,40,652279,0.0-13.0-2.2,45455,List1A,white,man,,,,null,,,,
32160,,,survey-text,41,684442,0.0-13.0-3.2,45455,List1A,white,man,,,,,"{""Q0"":""mike and kate are playing""}","<img src=""stim_listA/play1.gif""style=""height:400px;""></stim_listA>",is playing with,
null,"<div style=""font-size:60px;"">+</div>",,html-keyboard-response,42,684947,0.0-13.0-0.3,45455,List1A,white,man,,,,null,,,,
null,"<img src=""stim_listA/talk1.gif""style=""height:400px;""></stim_listA>",,html-keyboard-response,43,686952,0.0-13.0-1.3,45455,List1A,white,man,,,,null,,,,
null,is talking to,,html-keyboard-response,44,688957,0.0-13.0-2.3,45455,List1A,white,man,,,,null,,,,
28923,,,survey-text,45,717884,0.0-13.0-3.3,45455,List1A,white,man,,,,,"{""Q0"":""fred and kate are talking""}","<img src=""stim_listA/talk1.gif""style=""height:400px;""></stim_listA>",is talking to,
null,"<div style=""font-size:60px;"">+</div>",,html-keyboard-response,46,718388,0.0-13.0-0.4,45455,List1A,white,man,,,,null,,,,
null,"<img src=""stim_listA/flirt4.gif""style=""height:400px;""></stim_listA>",,html-keyboard-response,47,720391,0.0-13.0-1.4,45455,List1A,white,man,,,,null,,,,
null,are flirting with each other,,html-keyboard-response,48,722393,0.0-13.0-2.4,45455,List1A,white,man,,,,null,,,,
42432,,,survey-text,49,764828,0.0-13.0-3.4,45455,List1A,white,man,,,,,"{""Q0"":""dave and ruth are flirthing with each other""}","<img src=""stim_listA/flirt4.gif""style=""height:400px;""></stim_listA>",are flirting with each other,
null,"<div style=""font-size:60px;"">+</div>",,html-keyboard-response,50,765334,0.0-13.0-0.5,45455,List1A,white,man,,,,null,,,,
null,"<img src=""stim_listA/talk2.gif""style=""height:400px;""></stim_listA>",,html-keyboard-response,51,767338,0.0-13.0-1.5,45455,List1A,white,man,,,,null,,,,
null,are talking to each other,,html-keyboard-response,52,769340,0.0-13.0-2.5,45455,List1A,white,man,,,,null,,,,
40649,,,survey-text,53,809993,0.0-13.0-3.5,45455,List1A,white,man,,,,,"{""Q0"":""beth and fred are doing somthing""}","<img src=""stim_listA/talk2.gif""style=""height:400px;""></stim_listA>",are talking to each other,
null,"<div style=""font-size:60px;"">+</div>",,html-keyboard-response,54,810498,0.0-13.0-0.6,45455,List1A,white,man,,,,null,,,,
null,"<img src=""stim_listA/touch1.gif""style=""height:400px;""></stim_listA>",,html-keyboard-response,55,812503,0.0-13.0-1.6,45455,List1A,white,man,,,,null,,,,
null,is touching,,html-keyboard-response,56,814505,0.0-13.0-2.6,45455,List1A,white,man,,,,null,,,,
19559,,,survey-text,57,834069,0.0-13.0-3.6,45455,List1A,white,man,,,,,"{""Q0"":""mike and kate are touching""}","<img src=""stim_listA/touch1.gif""style=""height:400px;""></stim_listA>",is touching,
null,"<div style=""font-size:60px;"">+</div>",,html-keyboard-response,58,834572,0.0-13.0-0.7,45455,List1A,white,man,,,,null,,,,
null,"<img src=""stim_listA/touch8.gif""style=""height:400px;""></stim_listA>",,html-keyboard-response,59,836576,0.0-13.0-1.7,45455,List1A,white,man,,,,null,,,,
null,are touching each other,,html-keyboard-response,60,838579,0.0-13.0-2.7,45455,List1A,white,man,,,,null,,,,
44460,,,survey-text,61,883043,0.0-13.0-3.7,45455,List1A,white,man,,,,,"{""Q0"":""beth and ruth are touching each other""}","<img src=""stim_listA/touch8.gif""style=""height:400px;""></stim_listA>",are touching each other,
null,"<div style=""font-size:60px;"">+</div>",,html-keyboard-response,62,883547,0.0-13.0-0.8,45455,List1A,white,man,,,,null,,,,
null,"<img src=""stim_listA/play5.gif""style=""height:400px;""></stim_listA>",,html-keyboard-response,63,885552,0.0-13.0-1.8,45455,List1A,white,man,,,,null,,,,
null,is playing with,,html-keyboard-response,64,887554,0.0-13.0-2.8,45455,List1A,white,man,,,,null,,,,
23757,,,survey-text,65,911319,0.0-13.0-3.8,45455,List1A,white,man,,,,,"{""Q0"":""dave and fred are playing with cards""}","<img src=""stim_listA/play5.gif""style=""height:400px;""></stim_listA>",is playing with,
null,"<div style=""font-size:60px;"">+</div>",,html-keyboard-response,66,911829,0.0-13.0-0.9,45455,List1A,white,man,,,,null,,,,
null,"<img src=""stim_listA/shout7.gif""style=""height:400px;""></stim_listA>",,html-keyboard-response,67,913835,0.0-13.0-1.9,45455,List1A,white,man,,,,null,,,,
null,is shouting at,,html-keyboard-response,68,915837,0.0-13.0-2.9,45455,List1A,white,man,,,,null,,,,
34575,,,survey-text,69,950416,0.0-13.0-3.9,45455,List1A,white,man,,,,,"{""Q0"":""beth and ruth are shouthing at each other""}","<img src=""stim_listA/shout7.gif""style=""height:400px;""></stim_listA>",is shouting at,
null,"<div style=""font-size:60px;"">+</div>",,html-keyboard-response,70,950919,0.0-13.0-0.10,45455,List1A,white,man,,,,null,,,,
null,"<img src=""stim_listA/shout8.gif""style=""height:400px;""></stim_listA>",,html-keyboard-response,71,952924,0.0-13.0-1.10,45455,List1A,white,man,,,,null,,,,
null,are shouting at each other,,html-keyboard-response,72,954926,0.0-13.0-2.10,45455,List1A,white,man,,,,null,,,,
28135,,,survey-text,73,983065,0.0-13.0-3.10,45455,List1A,white,man,,,,,"{""Q0"":""kate and jane are shouthing at each other""}","<img src=""stim_listA/shout8.gif""style=""height:400px;""></stim_listA>",are shouting at each other,
null,"<div style=""font-size:60px;"">+</div>",,html-keyboard-response,74,983570,0.0-13.0-0.11,45455,List1A,white,man,,,,null,,,,
null,"<img src=""stim_listA/flirt5.gif""style=""height:400px;""></stim_listA>",,html-keyboard-response,75,985575,0.0-13.0-1.11,45455,List1A,white,man,,,,null,,,,
null,is flirting with,,html-keyboard-response,76,987577,0.0-13.0-2.11,45455,List1A,white,man,,,,null,,,,
20956,,,survey-text,77,1008536,0.0-13.0-3.11,45455,List1A,white,man,,,,,"{""Q0"":""dave and fred are shouthing at each other""}","<img src=""stim_listA/flirt5.gif""style=""height:400px;""></stim_listA>",is flirting with,
null,"<div style=""font-size:60px;"">+</div>",,html-keyboard-response,78,1009042,0.0-13.0-0.12,45455,List1A,white,man,,,,null,,,,
null,"<img src=""stim_listA/talk4.gif""style=""height:400px;""></stim_listA>",,html-keyboard-response,79,1011047,0.0-13.0-1.12,45455,List1A,white,man,,,,null,,,,
null,are talking to each other,,html-keyboard-response,80,1013049,0.0-13.0-2.12,45455,List1A,white,man,,,,null,,,,
29251,,,survey-text,81,1042303,0.0-13.0-3.12,45455,List1A,white,man,,,,,"{""Q0"":""Dave and ruth are talking to each other""}","<img src=""stim_listA/talk4.gif""style=""height:400px;""></stim_listA>",are talking to each other,
null,"<div style=""font-size:60px;"">+</div>",,html-keyboard-response,82,1042808,0.0-13.0-0.13,45455,List1A,white,man,,,,null,,,,
null,"<img src=""stim_listA/flirt7.gif""style=""height:400px;""></stim_listA>",,html-keyboard-response,83,1044818,0.0-13.0-1.13,45455,List1A,white,man,,,,null,,,,
null,is flirting with,,html-keyboard-response,84,1046820,0.0-13.0-2.13,45455,List1A,white,man,,,,null,,,,
23048,,,survey-text,85,1069870,0.0-13.0-3.13,45455,List1A,white,man,,,,,"{""Q0"":""jane and beth are talking to each other""}","<img src=""stim_listA/flirt7.gif""style=""height:400px;""></stim_listA>",is flirting with,
null,"<div style=""font-size:60px;"">+</div>",,html-keyboard-response,86,1070373,0.0-13.0-0.14,45455,List1A,white,man,,,,null,,,,
null,"<img src=""stim_listA/touch5.gif""style=""height:400px;""></stim_listA>",,html-keyboard-response,87,1072379,0.0-13.0-1.14,45455,List1A,white,man,,,,null,,,,
null,is touching,,html-keyboard-response,88,1074381,0.0-13.0-2.14,45455,List1A,white,man,,,,null,,,,
36518,,,survey-text,89,1110901,0.0-13.0-3.14,45455,List1A,white,man,,,,,"{""Q0"":""dave and mike are touching each other""}","<img src=""stim_listA/touch5.gif""style=""height:400px;""></stim_listA>",is touching,
null,"<div style=""font-size:60px;"">+</div>",,html-keyboard-response,90,1111405,0.0-13.0-0.15,45455,List1A,white,man,,,,null,,,,
null,"<img src=""stim_listA/fight4.gif""style=""height:400px;""></stim_listA>",,html-keyboard-response,91,1113410,0.0-13.0-1.15,45455,List1A,white,man,,,,null,,,,
null,are fighting each other,,html-keyboard-response,92,1115418,0.0-13.0-2.15,45455,List1A,white,man,,,,null,,,,
23794,,,survey-text,93,1139215,0.0-13.0-3.15,45455,List1A,white,man,,,,,"{""Q0"":""ruth and luke are fighting each toher""}","<img src=""stim_listA/fight4.gif""style=""height:400px;""></stim_listA>",are fighting each other,
null,"<div style=""font-size:60px;"">+</div>",,html-keyboard-response,94,1139718,0.0-13.0-0.16,45455,List1A,white,man,,,,null,,,,
null,"<img src=""stim_listA/touch7.gif""style=""height:400px;""></stim_listA>",,html-keyboard-response,95,1141723,0.0-13.0-1.16,45455,List1A,white,man,,,,null,,,,
null,is touching,,html-keyboard-response,96,1143725,0.0-13.0-2.16,45455,List1A,white,man,,,,null,,,,
16855,,,survey-text,97,1160583,0.0-13.0-3.16,45455,List1A,white,man,,,,,"{""Q0"":""kate and jane are touching""}","<img src=""stim_listA/touch7.gif""style=""height:400px;""></stim_listA>",is touching,
null,"<div style=""font-size:60px;"">+</div>",,html-keyboard-response,98,1161086,0.0-13.0-0.17,45455,List1A,white,man,,,,null,,,,
null,"<img src=""stim_listA/kiss1.gif""style=""height:400px;""></stim_listA>",,html-keyboard-response,99,1163091,0.0-13.0-1.17,45455,List1A,white,man,,,,null,,,,
null,is kissing,,html-keyboard-response,100,1165093,0.0-13.0-2.17,45455,List1A,white,man,,,,null,,,,
19251,,,survey-text,101,1184347,0.0-13.0-3.17,45455,List1A,white,man,,,,,"{""Q0"":""fred and beth are kissing""}","<img src=""stim_listA/kiss1.gif""style=""height:400px;""></stim_listA>",is kissing,
null,"<div style=""font-size:60px;"">+</div>",,html-keyboard-response,102,1184850,0.0-13.0-0.18,45455,List1A,white,man,,,,null,,,,
null,"<img src=""stim_listA/talk6.gif""style=""height:400px;""></stim_listA>",,html-keyboard-response,103,1186855,0.0-13.0-1.18,45455,List1A,white,man,,,,null,,,,
null,are talking to each other,,html-keyboard-response,104,1188857,0.0-13.0-2.18,45455,List1A,white,man,,,,null,,,,
22800,,,survey-text,105,1211661,0.0-13.0-3.18,45455,List1A,white,man,,,,,"{""Q0"":""mike and luke are talking to each other""}","<img src=""stim_listA/talk6.gif""style=""height:400px;""></stim_listA>",are talking to each other,
null,"<div style=""font-size:60px;"">+</div>",,html-keyboard-response,106,1212164,0.0-13.0-0.19,45455,List1A,white,man,,,,null,,,,
null,"<img src=""stim_listA/argue5.gif""style=""height:400px;""></stim_listA>",,html-keyboard-response,107,1214169,0.0-13.0-1.19,45455,List1A,white,man,,,,null,,,,
null,is arguing with,,html-keyboard-response,108,1216171,0.0-13.0-2.19,45455,List1A,white,man,,,,null,,,,
39371,,,survey-text,109,1255544,0.0-13.0-3.19,45455,List1A,white,man,,,,,"{""Q0"":""Mike and luke are arguing with each  other""}","<img src=""stim_listA/argue5.gif""style=""height:400px;""></stim_listA>",is arguing with,
16288,"<img src='img/portrait_matrix_list1.jpg' style='width:900px;height:500px;''></img><p>If you have memorised all the portraits and names and are ready to start, press Continue.</p><p><strong>Please note: Your memory of these faces will be tested 4 times during this experiment.</strong></p>",0,html-button-response,110,1271841,0.0-14.0-0.0,45455,List1A,white,man,,,,,,,,
5149,"<img src=""portrait/BM1.jpg""style=""height:400px;""></img>",4,html-button-response,111,1277998,0.0-14.0-1.0,45455,List1A,white,man,,TRUE,4,,,,,
null,CORRECT,,html-keyboard-response,112,1279503,0.0-14.0-2.0-0.0,45455,List1A,white,man,,,,null,,,,
6043,"<img src=""portrait/WM2.jpg""style=""height:400px;""></img>",7,html-button-response,113,1285554,0.0-14.0-4.0,45455,List1A,white,man,,TRUE,7,,,,,
null,CORRECT,,html-keyboard-response,114,1287058,0.0-14.0-5.0-0.0,45455,List1A,white,man,,,,null,,,,
4261,"<img src=""portrait/WM1.jpg""style=""height:400px;""></img>",6,html-button-response,115,1291325,0.0-14.0-7.0,45455,List1A,white,man,,TRUE,6,,,,,
null,CORRECT,,html-keyboard-response,116,1292828,0.0-14.0-8.0-0.0,45455,List1A,white,man,,,,null,,,,
5061,"<img src=""portrait/BW1.jpg""style=""height:400px;""></img>",0,html-button-response,117,1297895,0.0-14.0-10.0,45455,List1A,white,man,,TRUE,0,,,,,
null,CORRECT,,html-keyboard-response,118,1299400,0.0-14.0-11.0-0.0,45455,List1A,white,man,,,,null,,,,
3320,"<img src=""portrait/WW2.jpg""style=""height:400px;""></img>",3,html-button-response,119,1302725,0.0-14.0-13.0,45455,List1A,white,man,,TRUE,3,,,,,
null,CORRECT,,html-keyboard-response,120,1304228,0.0-14.0-14.0-0.0,45455,List1A,white,man,,,,null,,,,
4502,"<img src=""portrait/BM2.jpg""style=""height:400px;""></img>",5,html-button-response,121,1308736,0.0-14.0-16.0,45455,List1A,white,man,,TRUE,5,,,,,
null,CORRECT,,html-keyboard-response,122,1310240,0.0-14.0-17.0-0.0,45455,List1A,white,man,,,,null,,,,
4245,"<img src=""portrait/BW2.jpg""style=""height:400px;""></img>",2,html-button-response,123,1314489,0.0-14.0-19.0,45455,List1A,white,man,,TRUE,2,,,,,
null,CORRECT,,html-keyboard-response,124,1315993,0.0-14.0-20.0-0.0,45455,List1A,white,man,,,,null,,,,
5448,"<img src=""portrait/WW1.jpg""style=""height:400px;""></img>",1,html-button-response,125,1321447,0.0-14.0-22.0,45455,List1A,white,man,,TRUE,1,,,,,
null,CORRECT,,html-keyboard-response,126,1322950,0.0-14.0-23.0-0.0,45455,List1A,white,man,,,,null,,,,
4559,<p>You got 8 out of 8 right first time. Press Continue.</p>,0,html-button-response,127,1327513,0.0-14.0-25.0,45455,List1A,white,man,,,,,,,,
null,"<div style=""font-size:60px;"">+</div>",,html-keyboard-response,128,1329021,0.0-15.0-0.0,45455,List1A,white,man,,,,null,,,,
null,"<img src=""stim_listA/play2.gif""style=""height:400px;""></stim_listA>",,html-keyboard-response,129,1331025,0.0-15.0-1.0,45455,List1A,white,man,,,,null,,,,
null,are playing with each other,,html-keyboard-response,130,1333028,0.0-15.0-2.0,45455,List1A,white,man,,,,null,,,,
28524,,,survey-text,131,1361556,0.0-15.0-3.0,45455,List1A,white,man,,,,,"{""Q0"":""fred and beth are playing with each other""}","<img src=""stim_listA/play2.gif""style=""height:400px;""></stim_listA>",are playing with each other,
null,"<div style=""font-size:60px;"">+</div>",,html-keyboard-response,132,1362061,0.0-15.0-0.1,45455,List1A,white,man,,,,null,,,,
null,"<img src=""stim_listA/shout5.gif""style=""height:400px;""></stim_listA>",,html-keyboard-response,133,1364066,0.0-15.0-1.1,45455,List1A,white,man,,,,null,,,,
null,is shouting at,,html-keyboard-response,134,1366073,0.0-15.0-2.1,45455,List1A,white,man,,,,null,,,,
26355,,,survey-text,135,1392430,0.0-15.0-3.1,45455,List1A,white,man,,,,,"{""Q0"":""fred and luke are shouthing at each other""}","<img src=""stim_listA/shout5.gif""style=""height:400px;""></stim_listA>",is shouting at,
null,"<div style=""font-size:60px;"">+</div>",,html-keyboard-response,136,1392933,0.0-15.0-0.2,45455,List1A,white,man,,,,null,,,,
null,"<img src=""stim_listA/dance5.gif""style=""height:400px;""></stim_listA>",,html-keyboard-response,137,1394937,0.0-15.0-1.2,45455,List1A,white,man,,,,null,,,,
null,is dancing with,,html-keyboard-response,138,1396940,0.0-15.0-2.2,45455,List1A,white,man,,,,null,,,,
19056,,,survey-text,139,1416001,0.0-15.0-3.2,45455,List1A,white,man,,,,,"{""Q0"":""fred and dave are doing somthing""}","<img src=""stim_listA/dance5.gif""style=""height:400px;""></stim_listA>",is dancing with,
null,"<div style=""font-size:60px;"">+</div>",,html-keyboard-response,140,1416505,0.0-15.0-0.3,45455,List1A,white,man,,,,null,,,,
null,"<img src=""stim_listA/shout3.gif""style=""height:400px;""></stim_listA>",,html-keyboard-response,141,1418509,0.0-15.0-1.3,45455,List1A,white,man,,,,null,,,,
null,is shouting at,,html-keyboard-response,142,1420512,0.0-15.0-2.3,45455,List1A,white,man,,,,null,,,,
21659,,,survey-text,143,1442174,0.0-15.0-3.3,45455,List1A,white,man,,,,,"{""Q0"":""luke and ruth are shouthing at each other""}","<img src=""stim_listA/shout3.gif""style=""height:400px;""></stim_listA>",is shouting at,
null,"<div style=""font-size:60px;"">+</div>",,html-keyboard-response,144,1442676,0.0-15.0-0.4,45455,List1A,white,man,,,,null,,,,
null,"<img src=""stim_listA/kiss5.gif""style=""height:400px;""></stim_listA>",,html-keyboard-response,145,1444681,0.0-15.0-1.4,45455,List1A,white,man,,,,null,,,,
null,is kissing,,html-keyboard-response,146,1446683,0.0-15.0-2.4,45455,List1A,white,man,,,,null,,,,
17347,,,survey-text,147,1464036,0.0-15.0-3.4,45455,List1A,white,man,,,,,"{""Q0"":""fred and luke are kissing""}","<img src=""stim_listA/kiss5.gif""style=""height:400px;""></stim_listA>",is kissing,
null,"<div style=""font-size:60px;"">+</div>",,html-keyboard-response,148,1464539,0.0-15.0-0.5,45455,List1A,white,man,,,,null,,,,
null,"<img src=""stim_listA/play3.gif""style=""height:400px;""></stim_listA>",,html-keyboard-response,149,1466544,0.0-15.0-1.5,45455,List1A,white,man,,,,null,,,,
null,is playing with,,html-keyboard-response,150,1468546,0.0-15.0-2.5,45455,List1A,white,man,,,,null,,,,
25383,,,survey-text,151,1493932,0.0-15.0-3.5,45455,List1A,white,man,,,,,"{""Q0"":""dave and jane are playing cards ""}","<img src=""stim_listA/play3.gif""style=""height:400px;""></stim_listA>",is playing with,
null,"<div style=""font-size:60px;"">+</div>",,html-keyboard-response,152,1494435,0.0-15.0-0.6,45455,List1A,white,man,,,,null,,,,
null,"<img src=""stim_listA/marry5.gif""style=""height:400px;""></stim_listA>",,html-keyboard-response,153,1496439,0.0-15.0-1.6,45455,List1A,white,man,,,,null,,,,
null,is marrying,,html-keyboard-response,154,1498441,0.0-15.0-2.6,45455,List1A,white,man,,,,null,,,,
21410,,,survey-text,155,1519853,0.0-15.0-3.6,45455,List1A,white,man,,,,,"{""Q0"":""mike  and ruth are marrying""}","<img src=""stim_listA/marry5.gif""style=""height:400px;""></stim_listA>",is marrying,
null,"<div style=""font-size:60px;"">+</div>",,html-keyboard-response,156,1520357,0.0-15.0-0.7,45455,List1A,white,man,,,,null,,,,
null,"<img src=""stim_listA/flirt8.gif""style=""height:400px;""></stim_listA>",,html-keyboard-response,157,1522362,0.0-15.0-1.7,45455,List1A,white,man,,,,null,,,,
null,are flirting with each other,,html-keyboard-response,158,1524364,0.0-15.0-2.7,45455,List1A,white,man,,,,null,,,,
19109,,,survey-text,159,1543476,0.0-15.0-3.7,45455,List1A,white,man,,,,,"{""Q0"":""ruth and kate are flirthing with each other""}","<img src=""stim_listA/flirt8.gif""style=""height:400px;""></stim_listA>",are flirting with each other,
null,"<div style=""font-size:60px;"">+</div>",,html-keyboard-response,160,1543980,0.0-15.0-0.8,45455,List1A,white,man,,,,null,,,,
null,"<img src=""stim_listA/touch2.gif""style=""height:400px;""></stim_listA>",,html-keyboard-response,161,1545984,0.0-15.0-1.8,45455,List1A,white,man,,,,null,,,,
null,are touching each other,,html-keyboard-response,162,1547987,0.0-15.0-2.8,45455,List1A,white,man,,,,null,,,,
22125,,,survey-text,163,1570116,0.0-15.0-3.8,45455,List1A,white,man,,,,,"{""Q0"":""fred and beth are touching each other""}","<img src=""stim_listA/touch2.gif""style=""height:400px;""></stim_listA>",are touching each other,
null,"<div style=""font-size:60px;"">+</div>",,html-keyboard-response,164,1570620,0.0-15.0-0.9,45455,List1A,white,man,,,,null,,,,
null,"<img src=""stim_listA/kiss2.gif""style=""height:400px;""></stim_listA>",,html-keyboard-response,165,1572625,0.0-15.0-1.9,45455,List1A,white,man,,,,null,,,,
null,are kissing each other,,html-keyboard-response,166,1574627,0.0-15.0-2.9,45455,List1A,white,man,,,,null,,,,
14109,,,survey-text,167,1588738,0.0-15.0-3.9,45455,List1A,white,man,,,,,"{""Q0"":""mike and kate are kissing""}","<img src=""stim_listA/kiss2.gif""style=""height:400px;""></stim_listA>",are kissing each other,
null,"<div style=""font-size:60px;"">+</div>",,html-keyboard-response,168,1589241,0.0-15.0-0.10,45455,List1A,white,man,,,,null,,,,
null,"<img src=""stim_listA/flirt6.gif""style=""height:400px;""></stim_listA>",,html-keyboard-response,169,1591246,0.0-15.0-1.10,45455,List1A,white,man,,,,null,,,,
null,are flirting with each other,,html-keyboard-response,170,1593249,0.0-15.0-2.10,45455,List1A,white,man,,,,null,,,,
18939,,,survey-text,171,1612192,0.0-15.0-3.10,45455,List1A,white,man,,,,,"{""Q0"":""luke and mike are flirting with each other""}","<img src=""stim_listA/flirt6.gif""style=""height:400px;""></stim_listA>",are flirting with each other,
null,"<div style=""font-size:60px;"">+</div>",,html-keyboard-response,172,1612695,0.0-15.0-0.11,45455,List1A,white,man,,,,null,,,,
null,"<img src=""stim_listA/marry7.gif""style=""height:400px;""></stim_listA>",,html-keyboard-response,173,1614700,0.0-15.0-1.11,45455,List1A,white,man,,,,null,,,,
null,is marrying,,html-keyboard-response,174,1616702,0.0-15.0-2.11,45455,List1A,white,man,,,,null,,,,
44175,,,survey-text,175,1660880,0.0-15.0-3.11,45455,List1A,white,man,,,,,"{""Q0"":""ruth and kate are marrying each other""}","<img src=""stim_listA/marry7.gif""style=""height:400px;""></stim_listA>",is marrying,
null,"<div style=""font-size:60px;"">+</div>",,html-keyboard-response,176,1661386,0.0-15.0-0.12,45455,List1A,white,man,,,,null,,,,
null,"<img src=""stim_listA/marry2.gif""style=""height:400px;""></stim_listA>",,html-keyboard-response,177,1663390,0.0-15.0-1.12,45455,List1A,white,man,,,,null,,,,
null,are marrying each other,,html-keyboard-response,178,1665392,0.0-15.0-2.12,45455,List1A,white,man,,,,null,,,,
34276,,,survey-text,179,1699672,0.0-15.0-3.12,45455,List1A,white,man,,,,,"{""Q0"":""fred and kate are marrying each other""}","<img src=""stim_listA/marry2.gif""style=""height:400px;""></stim_listA>",are marrying each other,
null,"<div style=""font-size:60px;"">+</div>",,html-keyboard-response,180,1700176,0.0-15.0-0.13,45455,List1A,white,man,,,,null,,,,
null,"<img src=""stim_listA/shout1.gif""style=""height:400px;""></stim_listA>",,html-keyboard-response,181,1702180,0.0-15.0-1.13,45455,List1A,white,man,,,,null,,,,
null,is shouting at,,html-keyboard-response,182,1704183,0.0-15.0-2.13,45455,List1A,white,man,,,,null,,,,
37133,,,survey-text,183,1741319,0.0-15.0-3.13,45455,List1A,white,man,,,,,"{""Q0"":""fred and beth are shouthing at each other""}","<img src=""stim_listA/shout1.gif""style=""height:400px;""></stim_listA>",is shouting at,
null,"<div style=""font-size:60px;"">+</div>",,html-keyboard-response,184,1741823,0.0-15.0-0.14,45455,List1A,white,man,,,,null,,,,
null,"<img src=""stim_listA/touch3.gif""style=""height:400px;""></stim_listA>",,html-keyboard-response,185,1743829,0.0-15.0-1.14,45455,List1A,white,man,,,,null,,,,
null,is touching,,html-keyboard-response,186,1745831,0.0-15.0-2.14,45455,List1A,white,man,,,,null,,,,
34105,,,survey-text,187,1779938,0.0-15.0-3.14,45455,List1A,white,man,,,,,"{""Q0"":""jane and dave are touching each other""}","<img src=""stim_listA/touch3.gif""style=""height:400px;""></stim_listA>",is touching,
null,"<div style=""font-size:60px;"">+</div>",,html-keyboard-response,188,1780442,0.0-15.0-0.15,45455,List1A,white,man,,,,null,,,,
null,"<img src=""stim_listA/flirt3.gif""style=""height:400px;""></stim_listA>",,html-keyboard-response,189,1782448,0.0-15.0-1.15,45455,List1A,white,man,,,,null,,,,
null,is flirting with,,html-keyboard-response,190,1784450,0.0-15.0-2.15,45455,List1A,white,man,,,,null,,,,
21337,,,survey-text,191,1805790,0.0-15.0-3.15,45455,List1A,white,man,,,,,"{""Q0"":""Jane and mike are flirting""}","<img src=""stim_listA/flirt3.gif""style=""height:400px;""></stim_listA>",is flirting with,
null,"<div style=""font-size:60px;"">+</div>",,html-keyboard-response,192,1806293,0.0-15.0-0.16,45455,List1A,white,man,,,,null,,,,
null,"<img src=""stim_listA/shout2.gif""style=""height:400px;""></stim_listA>",,html-keyboard-response,193,1808298,0.0-15.0-1.16,45455,List1A,white,man,,,,null,,,,
null,are shouting at each other,,html-keyboard-response,194,1810300,0.0-15.0-2.16,45455,List1A,white,man,,,,null,,,,
19083,,,survey-text,195,1829386,0.0-15.0-3.16,45455,List1A,white,man,,,,,"{""Q0"":""kate and mike are shouthing at each other""}","<img src=""stim_listA/shout2.gif""style=""height:400px;""></stim_listA>",are shouting at each other,
null,"<div style=""font-size:60px;"">+</div>",,html-keyboard-response,196,1829890,0.0-15.0-0.17,45455,List1A,white,man,,,,null,,,,
null,"<img src=""stim_listA/fight1.gif""style=""height:400px;""></stim_listA>",,html-keyboard-response,197,1831901,0.0-15.0-1.17,45455,List1A,white,man,,,,null,,,,
null,is fighting,,html-keyboard-response,198,1833903,0.0-15.0-2.17,45455,List1A,white,man,,,,null,,,,
14124,,,survey-text,199,1848033,0.0-15.0-3.17,45455,List1A,white,man,,,,,"{""Q0"":""kate and mike are fighting""}","<img src=""stim_listA/fight1.gif""style=""height:400px;""></stim_listA>",is fighting,
null,"<div style=""font-size:60px;"">+</div>",,html-keyboard-response,200,1848535,0.0-15.0-0.18,45455,List1A,white,man,,,,null,,,,
null,"<img src=""stim_listA/touch6.gif""style=""height:400px;""></stim_listA>",,html-keyboard-response,201,1850540,0.0-15.0-1.18,45455,List1A,white,man,,,,null,,,,
null,are touching each other,,html-keyboard-response,202,1852542,0.0-15.0-2.18,45455,List1A,white,man,,,,null,,,,
26298,,,survey-text,203,1878843,0.0-15.0-3.18,45455,List1A,white,man,,,,,"{""Q0"":""fred and luke are touching each other""}","<img src=""stim_listA/touch6.gif""style=""height:400px;""></stim_listA>",are touching each other,
null,"<div style=""font-size:60px;"">+</div>",,html-keyboard-response,204,1879347,0.0-15.0-0.19,45455,List1A,white,man,,,,null,,,,
null,"<img src=""stim_listA/kiss8.gif""style=""height:400px;""></stim_listA>",,html-keyboard-response,205,1881352,0.0-15.0-1.19,45455,List1A,white,man,,,,null,,,,
null,are kissing each other,,html-keyboard-response,206,1883357,0.0-15.0-2.19,45455,List1A,white,man,,,,null,,,,
17984,,,survey-text,207,1901344,0.0-15.0-3.19,45455,List1A,white,man,,,,,"{""Q0"":""kate and jane are kissing each other""}","<img src=""stim_listA/kiss8.gif""style=""height:400px;""></stim_listA>",are kissing each other,
458753,"<img src='img/portrait_matrix_list1.jpg' style='width:900px;height:500px;''></img><p>If you have memorised all the portraits and names and are ready to start, press Continue.</p><p><strong>Please note: Your memory of these faces will be tested 4 times during this experiment.</strong></p>",0,html-button-response,208,2360104,0.0-16.0-0.0,45455,List1A,white,man,,,,,,,,
15862,"<img src=""portrait/WM1.jpg""style=""height:400px;""></img>",6,html-button-response,209,2376974,0.0-16.0-1.0,45455,List1A,white,man,,TRUE,6,,,,,
null,CORRECT,,html-keyboard-response,210,2378477,0.0-16.0-2.0-0.0,45455,List1A,white,man,,,,null,,,,
38605,"<img src=""portrait/WM2.jpg""style=""height:400px;""></img>",7,html-button-response,211,2417089,0.0-16.0-4.0,45455,List1A,white,man,,TRUE,7,,,,,
null,CORRECT,,html-keyboard-response,212,2418593,0.0-16.0-5.0-0.0,45455,List1A,white,man,,,,null,,,,
7042,"<img src=""portrait/BW1.jpg""style=""height:400px;""></img>",0,html-button-response,213,2425638,0.0-16.0-7.0,45455,List1A,white,man,,TRUE,0,,,,,
null,CORRECT,,html-keyboard-response,214,2427142,0.0-16.0-8.0-0.0,45455,List1A,white,man,,,,null,,,,
4934,"<img src=""portrait/BM2.jpg""style=""height:400px;""></img>",5,html-button-response,215,2432080,0.0-16.0-10.0,45455,List1A,white,man,,TRUE,5,,,,,
null,CORRECT,,html-keyboard-response,216,2433582,0.0-16.0-11.0-0.0,45455,List1A,white,man,,,,null,,,,
5152,"<img src=""portrait/WW1.jpg""style=""height:400px;""></img>",1,html-button-response,217,2438742,0.0-16.0-13.0,45455,List1A,white,man,,TRUE,1,,,,,
null,CORRECT,,html-keyboard-response,218,2440245,0.0-16.0-14.0-0.0,45455,List1A,white,man,,,,null,,,,
2504,"<img src=""portrait/WW2.jpg""style=""height:400px;""></img>",3,html-button-response,219,2442755,0.0-16.0-16.0,45455,List1A,white,man,,TRUE,3,,,,,
null,CORRECT,,html-keyboard-response,220,2444259,0.0-16.0-17.0-0.0,45455,List1A,white,man,,,,null,,,,
3800,"<img src=""portrait/BW2.jpg""style=""height:400px;""></img>",2,html-button-response,221,2448063,0.0-16.0-19.0,45455,List1A,white,man,,TRUE,2,,,,,
null,CORRECT,,html-keyboard-response,222,2449567,0.0-16.0-20.0-0.0,45455,List1A,white,man,,,,null,,,,
1588,"<img src=""portrait/BM1.jpg""style=""height:400px;""></img>",4,html-button-response,223,2451160,0.0-16.0-22.0,45455,List1A,white,man,,TRUE,4,,,,,
null,CORRECT,,html-keyboard-response,224,2452664,0.0-16.0-23.0-0.0,45455,List1A,white,man,,,,null,,,,
2288,<p>You got 8 out of 8 right first time. Press Continue.</p>,0,html-button-response,225,2454959,0.0-16.0-25.0,45455,List1A,white,man,,,,,,,,
null,"<div style=""font-size:60px;"">+</div>",,html-keyboard-response,226,2456463,0.0-17.0-0.0,45455,List1A,white,man,,,,null,,,,
null,"<img src=""stim_listA/dance8.gif""style=""height:400px;""></stim_listA>",,html-keyboard-response,227,2458467,0.0-17.0-1.0,45455,List1A,white,man,,,,null,,,,
null,are dancing with each other,,html-keyboard-response,228,2460469,0.0-17.0-2.0,45455,List1A,white,man,,,,null,,,,
27666,,,survey-text,229,2488139,0.0-17.0-3.0,45455,List1A,white,man,,,,,"{""Q0"":""kate and ruth are dancing with each other""}","<img src=""stim_listA/dance8.gif""style=""height:400px;""></stim_listA>",are dancing with each other,
null,"<div style=""font-size:60px;"">+</div>",,html-keyboard-response,230,2488643,0.0-17.0-0.1,45455,List1A,white,man,,,,null,,,,
null,"<img src=""stim_listA/fight7.gif""style=""height:400px;""></stim_listA>",,html-keyboard-response,231,2490648,0.0-17.0-1.1,45455,List1A,white,man,,,,null,,,,
null,is fighting,,html-keyboard-response,232,2492651,0.0-17.0-2.1,45455,List1A,white,man,,,,null,,,,
17053,,,survey-text,233,2509707,0.0-17.0-3.1,45455,List1A,white,man,,,,,"{""Q0"":""kate and jane are fighting""}","<img src=""stim_listA/fight7.gif""style=""height:400px;""></stim_listA>",is fighting,
null,"<div style=""font-size:60px;"">+</div>",,html-keyboard-response,234,2510212,0.0-17.0-0.2,45455,List1A,white,man,,,,null,,,,
null,"<img src=""stim_listA/fight6.gif""style=""height:400px;""></stim_listA>",,html-keyboard-response,235,2512217,0.0-17.0-1.2,45455,List1A,white,man,,,,null,,,,
null,are fighting each other,,html-keyboard-response,236,2514219,0.0-17.0-2.2,45455,List1A,white,man,,,,null,,,,
19865,,,survey-text,237,2534087,0.0-17.0-3.2,45455,List1A,white,man,,,,,"{""Q0"":""fred and luke are fighing each other""}","<img src=""stim_listA/fight6.gif""style=""height:400px;""></stim_listA>",are fighting each other,
null,"<div style=""font-size:60px;"">+</div>",,html-keyboard-response,238,2534590,0.0-17.0-0.3,45455,List1A,white,man,,,,null,,,,
null,"<img src=""stim_listA/dance7.gif""style=""height:400px;""></stim_listA>",,html-keyboard-response,239,2536595,0.0-17.0-1.3,45455,List1A,white,man,,,,null,,,,
null,is dancing with,,html-keyboard-response,240,2538598,0.0-17.0-2.3,45455,List1A,white,man,,,,null,,,,
16174,,,survey-text,241,2554775,0.0-17.0-3.3,45455,List1A,white,man,,,,,"{""Q0"":""beth is dancing with jane""}","<img src=""stim_listA/dance7.gif""style=""height:400px;""></stim_listA>",is dancing with,
null,"<div style=""font-size:60px;"">+</div>",,html-keyboard-response,242,2555280,0.0-17.0-0.4,45455,List1A,white,man,,,,null,,,,
null,"<img src=""stim_listA/dance1.gif""style=""height:400px;""></stim_listA>",,html-keyboard-response,243,2557284,0.0-17.0-1.4,45455,List1A,white,man,,,,null,,,,
null,is dancing with,,html-keyboard-response,244,2559287,0.0-17.0-2.4,45455,List1A,white,man,,,,null,,,,
20869,,,survey-text,245,2580161,0.0-17.0-3.4,45455,List1A,white,man,,,,,"{""Q0"":""kate is dancing with fred""}","<img src=""stim_listA/dance1.gif""style=""height:400px;""></stim_listA>",is dancing with,
null,"<div style=""font-size:60px;"">+</div>",,html-keyboard-response,246,2580665,0.0-17.0-0.5,45455,List1A,white,man,,,,null,,,,
null,"<img src=""stim_listA/talk3.gif""style=""height:400px;""></stim_listA>",,html-keyboard-response,247,2582670,0.0-17.0-1.5,45455,List1A,white,man,,,,null,,,,
null,is talking to,,html-keyboard-response,248,2584671,0.0-17.0-2.5,45455,List1A,white,man,,,,null,,,,
20116,,,survey-text,249,2604791,0.0-17.0-3.5,45455,List1A,white,man,,,,,"{""Q0"":""jane is talking with luke""}","<img src=""stim_listA/talk3.gif""style=""height:400px;""></stim_listA>",is talking to,
null,"<div style=""font-size:60px;"">+</div>",,html-keyboard-response,250,2605295,0.0-17.0-0.6,45455,List1A,white,man,,,,null,,,,
null,"<img src=""stim_listA/fight8.gif""style=""height:400px;""></stim_listA>",,html-keyboard-response,251,2607300,0.0-17.0-1.6,45455,List1A,white,man,,,,null,,,,
null,are fighting each other,,html-keyboard-response,252,2609302,0.0-17.0-2.6,45455,List1A,white,man,,,,null,,,,
32085,,,survey-text,253,2641394,0.0-17.0-3.6,45455,List1A,white,man,,,,,"{""Q0"":""ruth and kate are fighting""}","<img src=""stim_listA/fight8.gif""style=""height:400px;""></stim_listA>",are fighting each other,
null,"<div style=""font-size:60px;"">+</div>",,html-keyboard-response,254,2641897,0.0-17.0-0.7,45455,List1A,white,man,,,,null,,,,
null,"<img src=""stim_listA/argue1.gif""style=""height:400px;""></stim_listA>",,html-keyboard-response,255,2643902,0.0-17.0-1.7,45455,List1A,white,man,,,,null,,,,
null,is arguing with,,html-keyboard-response,256,2645904,0.0-17.0-2.7,45455,List1A,white,man,,,,null,,,,
19888,,,survey-text,257,2665796,0.0-17.0-3.7,45455,List1A,white,man,,,,,"{""Q0"":""mike and beth are arguing""}","<img src=""stim_listA/argue1.gif""style=""height:400px;""></stim_listA>",is arguing with,
null,"<div style=""font-size:60px;"">+</div>",,html-keyboard-response,258,2666301,0.0-17.0-0.8,45455,List1A,white,man,,,,null,,,,
null,"<img src=""stim_listA/kiss7.gif""style=""height:400px;""></stim_listA>",,html-keyboard-response,259,2668306,0.0-17.0-1.8,45455,List1A,white,man,,,,null,,,,
null,is kissing,,html-keyboard-response,260,2670308,0.0-17.0-2.8,45455,List1A,white,man,,,,null,,,,
16244,,,survey-text,261,2686555,0.0-17.0-3.8,45455,List1A,white,man,,,,,"{""Q0"":""ruth and beth are kissing""}","<img src=""stim_listA/kiss7.gif""style=""height:400px;""></stim_listA>",is kissing,
null,"<div style=""font-size:60px;"">+</div>",,html-keyboard-response,262,2687060,0.0-17.0-0.9,45455,List1A,white,man,,,,null,,,,
null,"<img src=""stim_listA/talk8.gif""style=""height:400px;""></stim_listA>",,html-keyboard-response,263,2689065,0.0-17.0-1.9,45455,List1A,white,man,,,,null,,,,
null,are talking to each other,,html-keyboard-response,264,2691067,0.0-17.0-2.9,45455,List1A,white,man,,,,null,,,,
22653,,,survey-text,265,2713723,0.0-17.0-3.9,45455,List1A,white,man,,,,,"{""Q0"":""ruth and beth are talking to each other""}","<img src=""stim_listA/talk8.gif""style=""height:400px;""></stim_listA>",are talking to each other,
null,"<div style=""font-size:60px;"">+</div>",,html-keyboard-response,266,2714228,0.0-17.0-0.10,45455,List1A,white,man,,,,null,,,,
null,"<img src=""stim_listA/fight2.gif""style=""height:400px;""></stim_listA>",,html-keyboard-response,267,2716233,0.0-17.0-1.10,45455,List1A,white,man,,,,null,,,,
null,are fighting each other,,html-keyboard-response,268,2718236,0.0-17.0-2.10,45455,List1A,white,man,,,,null,,,,
19926,,,survey-text,269,2738166,0.0-17.0-3.10,45455,List1A,white,man,,,,,"{""Q0"":""beth and fred are fighting each other""}","<img src=""stim_listA/fight2.gif""style=""height:400px;""></stim_listA>",are fighting each other,
null,"<div style=""font-size:60px;"">+</div>",,html-keyboard-response,270,2738670,0.0-17.0-0.11,45455,List1A,white,man,,,,null,,,,
null,"<img src=""stim_listA/marry1.gif""style=""height:400px;""></stim_listA>",,html-keyboard-response,271,2740675,0.0-17.0-1.11,45455,List1A,white,man,,,,null,,,,
null,is marrying,,html-keyboard-response,272,2742677,0.0-17.0-2.11,45455,List1A,white,man,,,,null,,,,
25432,,,survey-text,273,2768113,0.0-17.0-3.11,45455,List1A,white,man,,,,,"{""Q0"":""beth and mike is marrying""}","<img src=""stim_listA/marry1.gif""style=""height:400px;""></stim_listA>",is marrying,
null,"<div style=""font-size:60px;"">+</div>",,html-keyboard-response,274,2768616,0.0-17.0-0.12,45455,List1A,white,man,,,,null,,,,
null,"<img src=""stim_listA/dance3.gif""style=""height:400px;""></stim_listA>",,html-keyboard-response,275,2770621,0.0-17.0-1.12,45455,List1A,white,man,,,,null,,,,
null,is dancing with,,html-keyboard-response,276,2772623,0.0-17.0-2.12,45455,List1A,white,man,,,,null,,,,
31343,,,survey-text,277,2803972,0.0-17.0-3.12,45455,List1A,white,man,,,,,"{""Q0"":""luke and jane is danceing with each other""}","<img src=""stim_listA/dance3.gif""style=""height:400px;""></stim_listA>",is dancing with,
null,"<div style=""font-size:60px;"">+</div>",,html-keyboard-response,278,2804475,0.0-17.0-0.13,45455,List1A,white,man,,,,null,,,,
null,"<img src=""stim_listA/kiss6.gif""style=""height:400px;""></stim_listA>",,html-keyboard-response,279,2806480,0.0-17.0-1.13,45455,List1A,white,man,,,,null,,,,
null,are kissing each other,,html-keyboard-response,280,2808482,0.0-17.0-2.13,45455,List1A,white,man,,,,null,,,,
15639,,,survey-text,281,2824126,0.0-17.0-3.13,45455,List1A,white,man,,,,,"{""Q0"":""mike and dave are kissing""}","<img src=""stim_listA/kiss6.gif""style=""height:400px;""></stim_listA>",are kissing each other,
null,"<div style=""font-size:60px;"">+</div>",,html-keyboard-response,282,2824629,0.0-17.0-0.14,45455,List1A,white,man,,,,null,,,,
null,"<img src=""stim_listA/argue6.gif""style=""height:400px;""></stim_listA>",,html-keyboard-response,283,2826634,0.0-17.0-1.14,45455,List1A,white,man,,,,null,,,,
null,are arguing with each other,,html-keyboard-response,284,2828636,0.0-17.0-2.14,45455,List1A,white,man,,,,null,,,,
25448,,,survey-text,285,2854088,0.0-17.0-3.14,45455,List1A,white,man,,,,,"{""Q0"":""fred and dave are argueing with each other""}","<img src=""stim_listA/argue6.gif""style=""height:400px;""></stim_listA>",are arguing with each other,
null,"<div style=""font-size:60px;"">+</div>",,html-keyboard-response,286,2854591,0.0-17.0-0.15,45455,List1A,white,man,,,,null,,,,
null,"<img src=""stim_listA/flirt1.gif""style=""height:400px;""></stim_listA>",,html-keyboard-response,287,2856596,0.0-17.0-1.15,45455,List1A,white,man,,,,null,,,,
null,is flirting with,,html-keyboard-response,288,2858598,0.0-17.0-2.15,45455,List1A,white,man,,,,null,,,,
20616,,,survey-text,289,2879218,0.0-17.0-3.15,45455,List1A,white,man,,,,,"{""Q0"":""kate and fred are flirting with each other""}","<img src=""stim_listA/flirt1.gif""style=""height:400px;""></stim_listA>",is flirting with,
null,"<div style=""font-size:60px;"">+</div>",,html-keyboard-response,290,2879722,0.0-17.0-0.16,45455,List1A,white,man,,,,null,,,,
null,"<img src=""stim_listA/argue3.gif""style=""height:400px;""></stim_listA>",,html-keyboard-response,291,2881727,0.0-17.0-1.16,45455,List1A,white,man,,,,null,,,,
null,is arguing with,,html-keyboard-response,292,2883729,0.0-17.0-2.16,45455,List1A,white,man,,,,null,,,,
30178,,,survey-text,293,2913911,0.0-17.0-3.16,45455,List1A,white,man,,,,,"{""Q0"":""totally missed this one""}","<img src=""stim_listA/argue3.gif""style=""height:400px;""></stim_listA>",is arguing with,
null,"<div style=""font-size:60px;"">+</div>",,html-keyboard-response,294,2914414,0.0-17.0-0.17,45455,List1A,white,man,,,,null,,,,
null,"<img src=""stim_listA/marry6.gif""style=""height:400px;""></stim_listA>",,html-keyboard-response,295,2916419,0.0-17.0-1.17,45455,List1A,white,man,,,,null,,,,
null,are marrying each other,,html-keyboard-response,296,2918421,0.0-17.0-2.17,45455,List1A,white,man,,,,null,,,,
16399,,,survey-text,297,2934826,0.0-17.0-3.17,45455,List1A,white,man,,,,,"{""Q0"":""fred and dave are marrying each other""}","<img src=""stim_listA/marry6.gif""style=""height:400px;""></stim_listA>",are marrying each other,
null,"<div style=""font-size:60px;"">+</div>",,html-keyboard-response,298,2935330,0.0-17.0-0.18,45455,List1A,white,man,,,,null,,,,
null,"<img src=""stim_listA/touch4.gif""style=""height:400px;""></stim_listA>",,html-keyboard-response,299,2937334,0.0-17.0-1.18,45455,List1A,white,man,,,,null,,,,
null,are touching each other,,html-keyboard-response,300,2939336,0.0-17.0-2.18,45455,List1A,white,man,,,,null,,,,
17913,,,survey-text,301,2957255,0.0-17.0-3.18,45455,List1A,white,man,,,,,"{""Q0"":""luke and ruth are touching each other""}","<img src=""stim_listA/touch4.gif""style=""height:400px;""></stim_listA>",are touching each other,
null,"<div style=""font-size:60px;"">+</div>",,html-keyboard-response,302,2957758,0.0-17.0-0.19,45455,List1A,white,man,,,,null,,,,
null,"<img src=""stim_listA/shout4.gif""style=""height:400px;""></stim_listA>",,html-keyboard-response,303,2959761,0.0-17.0-1.19,45455,List1A,white,man,,,,null,,,,
null,are shouting at each other,,html-keyboard-response,304,2961764,0.0-17.0-2.19,45455,List1A,white,man,,,,null,,,,
26141,,,survey-text,305,2987910,0.0-17.0-3.19,45455,List1A,white,man,,,,,"{""Q0"":""jane and mike are shouthing at each other""}","<img src=""stim_listA/shout4.gif""style=""height:400px;""></stim_listA>",are shouting at each other,
2996,"<img src='img/portrait_matrix_list1.jpg' style='width:900px;height:500px;''></img><p>If you have memorised all the portraits and names and are ready to start, press Continue.</p><p><strong>Please note: Your memory of these faces will be tested 4 times during this experiment.</strong></p>",0,html-button-response,306,2990913,0.0-18.0-0.0,45455,List1A,white,man,,,,,,,,
5767,"<img src=""portrait/WM1.jpg""style=""height:400px;""></img>",6,html-button-response,307,2997686,0.0-18.0-1.0,45455,List1A,white,man,,TRUE,6,,,,,
null,CORRECT,,html-keyboard-response,308,2999189,0.0-18.0-2.0-0.0,45455,List1A,white,man,,,,null,,,,
2934,"<img src=""portrait/BM2.jpg""style=""height:400px;""></img>",5,html-button-response,309,3002130,0.0-18.0-4.0,45455,List1A,white,man,,TRUE,5,,,,,
null,CORRECT,,html-keyboard-response,310,3003633,0.0-18.0-5.0-0.0,45455,List1A,white,man,,,,null,,,,
2588,"<img src=""portrait/WW1.jpg""style=""height:400px;""></img>",1,html-button-response,311,3006226,0.0-18.0-7.0,45455,List1A,white,man,,TRUE,1,,,,,
null,CORRECT,,html-keyboard-response,312,3007729,0.0-18.0-8.0-0.0,45455,List1A,white,man,,,,null,,,,
2562,"<img src=""portrait/WM2.jpg""style=""height:400px;""></img>",7,html-button-response,313,3010298,0.0-18.0-10.0,45455,List1A,white,man,,TRUE,7,,,,,
null,CORRECT,,html-keyboard-response,314,3011802,0.0-18.0-11.0-0.0,45455,List1A,white,man,,,,null,,,,
2044,"<img src=""portrait/BM1.jpg""style=""height:400px;""></img>",4,html-button-response,315,3013850,0.0-18.0-13.0,45455,List1A,white,man,,TRUE,4,,,,,
null,CORRECT,,html-keyboard-response,316,3015354,0.0-18.0-14.0-0.0,45455,List1A,white,man,,,,null,,,,
4994,"<img src=""portrait/BW1.jpg""style=""height:400px;""></img>",0,html-button-response,317,3020354,0.0-18.0-16.0,45455,List1A,white,man,,TRUE,0,,,,,
null,CORRECT,,html-keyboard-response,318,3021857,0.0-18.0-17.0-0.0,45455,List1A,white,man,,,,null,,,,
2898,"<img src=""portrait/BW2.jpg""style=""height:400px;""></img>",2,html-button-response,319,3024762,0.0-18.0-19.0,45455,List1A,white,man,,TRUE,2,,,,,
null,CORRECT,,html-keyboard-response,320,3026267,0.0-18.0-20.0-0.0,45455,List1A,white,man,,,,null,,,,
4772,"<img src=""portrait/WW2.jpg""style=""height:400px;""></img>",3,html-button-response,321,3031045,0.0-18.0-22.0,45455,List1A,white,man,,TRUE,3,,,,,
null,CORRECT,,html-keyboard-response,322,3032548,0.0-18.0-23.0-0.0,45455,List1A,white,man,,,,null,,,,
2161,<p>You got 8 out of 8 right first time. Press Continue.</p>,0,html-button-response,323,3034715,0.0-18.0-25.0,45455,List1A,white,man,,,,,,,,
null,"<div style=""font-size:60px;"">+</div>",,html-keyboard-response,324,3036219,0.0-19.0-0.0,45455,List1A,white,man,,,,null,,,,
null,"<img src=""stim_listA/flirt2.gif""style=""height:400px;""></stim_listA>",,html-keyboard-response,325,3038224,0.0-19.0-1.0,45455,List1A,white,man,,,,null,,,,
null,are flirting with each other,,html-keyboard-response,326,3040227,0.0-19.0-2.0,45455,List1A,white,man,,,,null,,,,
20529,,,survey-text,327,3060758,0.0-19.0-3.0,45455,List1A,white,man,,,,,"{""Q0"":""mike and beth are flirthing with each other""}","<img src=""stim_listA/flirt2.gif""style=""height:400px;""></stim_listA>",are flirting with each other,
null,"<div style=""font-size:60px;"">+</div>",,html-keyboard-response,328,3061261,0.0-19.0-0.1,45455,List1A,white,man,,,,null,,,,
null,"<img src=""stim_listA/marry8.gif""style=""height:400px;""></stim_listA>",,html-keyboard-response,329,3063268,0.0-19.0-1.1,45455,List1A,white,man,,,,null,,,,
null,are marrying each other,,html-keyboard-response,330,3065270,0.0-19.0-2.1,45455,List1A,white,man,,,,null,,,,
19520,,,survey-text,331,3084793,0.0-19.0-3.1,45455,List1A,white,man,,,,,"{""Q0"":""beth and jane are marrying each other""}","<img src=""stim_listA/marry8.gif""style=""height:400px;""></stim_listA>",are marrying each other,
null,"<div style=""font-size:60px;"">+</div>",,html-keyboard-response,332,3085298,0.0-19.0-0.2,45455,List1A,white,man,,,,null,,,,
null,"<img src=""stim_listA/fight5.gif""style=""height:400px;""></stim_listA>",,html-keyboard-response,333,3087303,0.0-19.0-1.2,45455,List1A,white,man,,,,null,,,,
null,is fighting,,html-keyboard-response,334,3089305,0.0-19.0-2.2,45455,List1A,white,man,,,,null,,,,
23017,,,survey-text,335,3112327,0.0-19.0-3.2,45455,List1A,white,man,,,,,"{""Q0"":""dave and mike is fighting""}","<img src=""stim_listA/fight5.gif""style=""height:400px;""></stim_listA>",is fighting,
null,"<div style=""font-size:60px;"">+</div>",,html-keyboard-response,336,3112832,0.0-19.0-0.3,45455,List1A,white,man,,,,null,,,,
null,"<img src=""stim_listA/fight3.gif""style=""height:400px;""></stim_listA>",,html-keyboard-response,337,3114836,0.0-19.0-1.3,45455,List1A,white,man,,,,null,,,,
null,is fighting,,html-keyboard-response,338,3116844,0.0-19.0-2.3,45455,List1A,white,man,,,,null,,,,
30992,,,survey-text,339,3147840,0.0-19.0-3.3,45455,List1A,white,man,,,,,"{""Q0"":""dave and mike is fighting""}","<img src=""stim_listA/fight3.gif""style=""height:400px;""></stim_listA>",is fighting,
null,"<div style=""font-size:60px;"">+</div>",,html-keyboard-response,340,3148344,0.0-19.0-0.4,45455,List1A,white,man,,,,null,,,,
null,"<img src=""stim_listA/argue8.gif""style=""height:400px;""></stim_listA>",,html-keyboard-response,341,3150348,0.0-19.0-1.4,45455,List1A,white,man,,,,null,,,,
null,are arguing with each other,,html-keyboard-response,342,3152351,0.0-19.0-2.4,45455,List1A,white,man,,,,null,,,,
20340,,,survey-text,343,3172697,0.0-19.0-3.4,45455,List1A,white,man,,,,,"{""Q0"":""beth and jane is argueing with each other""}","<img src=""stim_listA/argue8.gif""style=""height:400px;""></stim_listA>",are arguing with each other,
null,"<div style=""font-size:60px;"">+</div>",,html-keyboard-response,344,3173201,0.0-19.0-0.5,45455,List1A,white,man,,,,null,,,,
null,"<img src=""stim_listA/marry3.gif""style=""height:400px;""></stim_listA>",,html-keyboard-response,345,3175205,0.0-19.0-1.5,45455,List1A,white,man,,,,null,,,,
null,is marrying,,html-keyboard-response,346,3177208,0.0-19.0-2.5,45455,List1A,white,man,,,,null,,,,
14749,,,survey-text,347,3191961,0.0-19.0-3.5,45455,List1A,white,man,,,,,"{""Q0"":""ruth and dave is marrying""}","<img src=""stim_listA/marry3.gif""style=""height:400px;""></stim_listA>",is marrying,
null,"<div style=""font-size:60px;"">+</div>",,html-keyboard-response,348,3192464,0.0-19.0-0.6,45455,List1A,white,man,,,,null,,,,
null,"<img src=""stim_listA/kiss4.gif""style=""height:400px;""></stim_listA>",,html-keyboard-response,349,3194468,0.0-19.0-1.6,45455,List1A,white,man,,,,null,,,,
null,are kissing each other,,html-keyboard-response,350,3196470,0.0-19.0-2.6,45455,List1A,white,man,,,,null,,,,
15389,,,survey-text,351,3211865,0.0-19.0-3.6,45455,List1A,white,man,,,,,"{""Q0"":""ruth and dave is marrying ""}","<img src=""stim_listA/kiss4.gif""style=""height:400px;""></stim_listA>",are kissing each other,
null,"<div style=""font-size:60px;"">+</div>",,html-keyboard-response,352,3212369,0.0-19.0-0.7,45455,List1A,white,man,,,,null,,,,
null,"<img src=""stim_listA/talk7.gif""style=""height:400px;""></stim_listA>",,html-keyboard-response,353,3214374,0.0-19.0-1.7,45455,List1A,white,man,,,,null,,,,
null,is talking to,,html-keyboard-response,354,3216385,0.0-19.0-2.7,45455,List1A,white,man,,,,null,,,,
20288,,,survey-text,355,3236675,0.0-19.0-3.7,45455,List1A,white,man,,,,,"{""Q0"":""beth and jane is talking to each other""}","<img src=""stim_listA/talk7.gif""style=""height:400px;""></stim_listA>",is talking to,
null,"<div style=""font-size:60px;"">+</div>",,html-keyboard-response,356,3237181,0.0-19.0-0.8,45455,List1A,white,man,,,,null,,,,
null,"<img src=""stim_listA/argue2.gif""style=""height:400px;""></stim_listA>",,html-keyboard-response,357,3239186,0.0-19.0-1.8,45455,List1A,white,man,,,,null,,,,
null,are arguing with each other,,html-keyboard-response,358,3241189,0.0-19.0-2.8,45455,List1A,white,man,,,,null,,,,
19286,,,survey-text,359,3260479,0.0-19.0-3.8,45455,List1A,white,man,,,,,"{""Q0"":""kate and fred are argueing wit each other""}","<img src=""stim_listA/argue2.gif""style=""height:400px;""></stim_listA>",are arguing with each other,
null,"<div style=""font-size:60px;"">+</div>",,html-keyboard-response,360,3260985,0.0-19.0-0.9,45455,List1A,white,man,,,,null,,,,
null,"<img src=""stim_listA/dance6.gif""style=""height:400px;""></stim_listA>",,html-keyboard-response,361,3262990,0.0-19.0-1.9,45455,List1A,white,man,,,,null,,,,
null,are dancing with each other,,html-keyboard-response,362,3264993,0.0-19.0-2.9,45455,List1A,white,man,,,,null,,,,
18761,,,survey-text,363,3283758,0.0-19.0-3.9,45455,List1A,white,man,,,,,"{""Q0"":""luke and mike are dancing with  each other""}","<img src=""stim_listA/dance6.gif""style=""height:400px;""></stim_listA>",are dancing with each other,
null,"<div style=""font-size:60px;"">+</div>",,html-keyboard-response,364,3284263,0.0-19.0-0.10,45455,List1A,white,man,,,,null,,,,
null,"<img src=""stim_listA/play6.gif""style=""height:400px;""></stim_listA>",,html-keyboard-response,365,3286269,0.0-19.0-1.10,45455,List1A,white,man,,,,null,,,,
null,are playing with each other,,html-keyboard-response,366,3288272,0.0-19.0-2.10,45455,List1A,white,man,,,,null,,,,
15866,,,survey-text,367,3304143,0.0-19.0-3.10,45455,List1A,white,man,,,,,"{""Q0"":""fred and luke are playing with each other""}","<img src=""stim_listA/play6.gif""style=""height:400px;""></stim_listA>",are playing with each other,
null,"<div style=""font-size:60px;"">+</div>",,html-keyboard-response,368,3304646,0.0-19.0-0.11,45455,List1A,white,man,,,,null,,,,
null,"<img src=""stim_listA/play8.gif""style=""height:400px;""></stim_listA>",,html-keyboard-response,369,3306653,0.0-19.0-1.11,45455,List1A,white,man,,,,null,,,,
null,are playing with each other,,html-keyboard-response,370,3308656,0.0-19.0-2.11,45455,List1A,white,man,,,,null,,,,
20585,,,survey-text,371,3329243,0.0-19.0-3.11,45455,List1A,white,man,,,,,"{""Q0"":""beth and ruth are playing with each other""}","<img src=""stim_listA/play8.gif""style=""height:400px;""></stim_listA>",are playing with each other,
null,"<div style=""font-size:60px;"">+</div>",,html-keyboard-response,372,3329747,0.0-19.0-0.12,45455,List1A,white,man,,,,null,,,,
null,"<img src=""stim_listA/argue4.gif""style=""height:400px;""></stim_listA>",,html-keyboard-response,373,3331751,0.0-19.0-1.12,45455,List1A,white,man,,,,null,,,,
null,are arguing with each other,,html-keyboard-response,374,3333754,0.0-19.0-2.12,45455,List1A,white,man,,,,null,,,,
18412,,,survey-text,375,3352170,0.0-19.0-3.12,45455,List1A,white,man,,,,,"{""Q0"":""luke and jane are argueing with each other""}","<img src=""stim_listA/argue4.gif""style=""height:400px;""></stim_listA>",are arguing with each other,
null,"<div style=""font-size:60px;"">+</div>",,html-keyboard-response,376,3352675,0.0-19.0-0.13,45455,List1A,white,man,,,,null,,,,
null,"<img src=""stim_listA/argue7.gif""style=""height:400px;""></stim_listA>",,html-keyboard-response,377,3354680,0.0-19.0-1.13,45455,List1A,white,man,,,,null,,,,
null,is arguing with,,html-keyboard-response,378,3356683,0.0-19.0-2.13,45455,List1A,white,man,,,,null,,,,
31791,,,survey-text,379,3388477,0.0-19.0-3.13,45455,List1A,white,man,,,,,"{""Q0"":""ruth and kate are argueing with each other""}","<img src=""stim_listA/argue7.gif""style=""height:400px;""></stim_listA>",is arguing with,
null,"<div style=""font-size:60px;"">+</div>",,html-keyboard-response,380,3388980,0.0-19.0-0.14,45455,List1A,white,man,,,,null,,,,
null,"<img src=""stim_listA/dance2.gif""style=""height:400px;""></stim_listA>",,html-keyboard-response,381,3390984,0.0-19.0-1.14,45455,List1A,white,man,,,,null,,,,
null,are dancing with each other,,html-keyboard-response,382,3392987,0.0-19.0-2.14,45455,List1A,white,man,,,,null,,,,
13100,,,survey-text,383,3406093,0.0-19.0-3.14,45455,List1A,white,man,,,,,"{""Q0"":""beth and mike are dancing""}","<img src=""stim_listA/dance2.gif""style=""height:400px;""></stim_listA>",are dancing with each other,
null,"<div style=""font-size:60px;"">+</div>",,html-keyboard-response,384,3406596,0.0-19.0-0.15,45455,List1A,white,man,,,,null,,,,
null,"<img src=""stim_listA/play4.gif""style=""height:400px;""></stim_listA>",,html-keyboard-response,385,3408601,0.0-19.0-1.15,45455,List1A,white,man,,,,null,,,,
null,are playing with each other,,html-keyboard-response,386,3410612,0.0-19.0-2.15,45455,List1A,white,man,,,,null,,,,
18611,,,survey-text,387,3429226,0.0-19.0-3.15,45455,List1A,white,man,,,,,"{""Q0"":""luke and ruth are playing with each other""}","<img src=""stim_listA/play4.gif""style=""height:400px;""></stim_listA>",are playing with each other,
null,"<div style=""font-size:60px;"">+</div>",,html-keyboard-response,388,3429733,0.0-19.0-0.16,45455,List1A,white,man,,,,null,,,,
null,"<img src=""stim_listA/shout6.gif""style=""height:400px;""></stim_listA>",,html-keyboard-response,389,3431738,0.0-19.0-1.16,45455,List1A,white,man,,,,null,,,,
null,are shouting at each other,,html-keyboard-response,390,3433741,0.0-19.0-2.16,45455,List1A,white,man,,,,null,,,,
16640,,,survey-text,391,3450387,0.0-19.0-3.16,45455,List1A,white,man,,,,,"{""Q0"":""mike and dave are shouthing at each other""}","<img src=""stim_listA/shout6.gif""style=""height:400px;""></stim_listA>",are shouting at each other,
null,"<div style=""font-size:60px;"">+</div>",,html-keyboard-response,392,3450890,0.0-19.0-0.17,45455,List1A,white,man,,,,null,,,,
null,"<img src=""stim_listA/play7.gif""style=""height:400px;""></stim_listA>",,html-keyboard-response,393,3452895,0.0-19.0-1.17,45455,List1A,white,man,,,,null,,,,
null,is playing with,,html-keyboard-response,394,3454898,0.0-19.0-2.17,45455,List1A,white,man,,,,null,,,,
19603,,,survey-text,395,3474503,0.0-19.0-3.17,45455,List1A,white,man,,,,,"{""Q0"":""kate and jane are playing  with each other""}","<img src=""stim_listA/play7.gif""style=""height:400px;""></stim_listA>",is playing with,
null,"<div style=""font-size:60px;"">+</div>",,html-keyboard-response,396,3475006,0.0-19.0-0.18,45455,List1A,white,man,,,,null,,,,
null,"<img src=""stim_listA/talk5.gif""style=""height:400px;""></stim_listA>",,html-keyboard-response,397,3477010,0.0-19.0-1.18,45455,List1A,white,man,,,,null,,,,
null,is talking to,,html-keyboard-response,398,3479013,0.0-19.0-2.18,45455,List1A,white,man,,,,null,,,,
15136,,,survey-text,399,3494153,0.0-19.0-3.18,45455,List1A,white,man,,,,,"{""Q0"":""fred and dave is talking to each other""}","<img src=""stim_listA/talk5.gif""style=""height:400px;""></stim_listA>",is talking to,
null,"<div style=""font-size:60px;"">+</div>",,html-keyboard-response,400,3494660,0.0-19.0-0.19,45455,List1A,white,man,,,,null,,,,
null,"<img src=""stim_listA/dance4.gif""style=""height:400px;""></stim_listA>",,html-keyboard-response,401,3496665,0.0-19.0-1.19,45455,List1A,white,man,,,,null,,,,
null,are dancing with each other,,html-keyboard-response,402,3498667,0.0-19.0-2.19,45455,List1A,white,man,,,,null,,,,
14809,,,survey-text,403,3513480,0.0-19.0-3.19,45455,List1A,white,man,,,,,"{""Q0"":""dave and ruth is dancing together""}","<img src=""stim_listA/dance4.gif""style=""height:400px;""></stim_listA>",are dancing with each other,
3372,<p>Thank you for completing that task.</p><p>The final part of this session is a short questionnaire.</p><p>Press Continue.</p>,0,html-button-response,404,3516858,0.0-20.0,45455,List1A,white,man,,,,,,,,
30436,,,survey-text,405,3548300,0.0-21.0,45455,List1A,white,man,,,,,"{""Q0"":""57"",""Q1"":""english"",""Q2"":""english"",""Q3"":""USA"",""Q4"":""white"",""Q5"":""Man""}",,,demographics
8392,,,survey-likert,406,3556701,0.0-22.0,45455,List1A,white,man,,,,,"{""Q0"":3}",,,likert_ESS
6464,,,survey-likert,407,3563178,0.0-23.0,45455,List1A,white,man,,,,,"{""Q0"":0}",,,likert_NSSAL_Q1
5042,,,survey-likert,408,3568232,0.0-24.0,45455,List1A,white,man,,,,,"{""Q0"":0}",,,likert_NSSAL_Q2
6386,,,survey-likert,409,3574628,0.0-25.0,45455,List1A,white,man,,,,,"{""Q0"":4}",,,likert_CGRS_Q1
3879,,,survey-likert,410,3578520,0.0-26.0,45455,List1A,white,man,,,,,"{""Q0"":4}",,,likert_CGRS_Q2
5260,,,survey-likert,411,3583794,0.0-27.0,45455,List1A,white,man,,,,,"{""Q0"":3}",,,likert_CGRS_Q3
23289,,,survey-text,412,3607096,0.0-28.0,45455,List1A,white,man,,,,,"{""Q0"":""ccc""}",,,worker_id
22299,,,external-html,413,3629865,0.0-29.0,45455,List1A,white,man,debrief.html,,,,,,,
