rt,stimulus,button_pressed,trial_type,trial_index,time_elapsed,internal_node_id,subject,list,ppt_race,ppt_gender,url,first_guess,correct,key_press,responses,image_type,phrase_type,test_part
9928,Welcome to the experiment. Press Continue to begin.,0,html-button-response,0,9933,0.0-0.0,45639,List2A,white,woman,,,,,,,,
71459,,,external-html,1,82561,0.0-1.0,45639,List2A,white,woman,consent.html,,,,,,,
13144,"<p>On the next page, you will see portraits of 8 people and their names.</p><p>Your first task is to take a few minutes to memorise the names of these people.</p><p>You will have to recall their names during the rest of the experiment, so it is</p><p>essential that you try to memorise these people and their names as best as you can.</p><br><p><strong>You will then be tested on your memory of these names and portraits.</strong></p><br><p>The experiment will start after you have completed this memory test.</p><br><p>Ready?</p>",0,html-button-response,2,95710,0.0-2.0,45639,List2A,white,woman,,,,,,,,
196748,"<img src='img/portrait_matrix_list2.jpg' style='width:900px;height:500px;''></img><p>If you have memorised all the portraits and names and are ready to start, press Continue.</p><p><strong>Please note: Your memory of these faces will be tested 4 times during this experiment.</strong></p>",0,html-button-response,3,293463,0.0-3.0-0.0,45639,List2A,white,woman,,,,,,,,
5955,"<img src=""portrait/WW1.jpg""style=""height:400px;""></img>",1,html-button-response,4,300423,0.0-3.0-1.0,45639,List2A,white,woman,,TRUE,1,,,,,
null,CORRECT,,html-keyboard-response,5,301934,0.0-3.0-2.0-0.0,45639,List2A,white,woman,,,,null,,,,
2811,"<img src=""portrait/BM2.jpg""style=""height:400px;""></img>",5,html-button-response,6,304753,0.0-3.0-4.0,45639,List2A,white,woman,,TRUE,5,,,,,
null,CORRECT,,html-keyboard-response,7,306257,0.0-3.0-5.0-0.0,45639,List2A,white,woman,,,,null,,,,
3725,"<img src=""portrait/BW1.jpg""style=""height:400px;""></img>",0,html-button-response,8,309988,0.0-3.0-7.0,45639,List2A,white,woman,,TRUE,0,,,,,
null,CORRECT,,html-keyboard-response,9,311492,0.0-3.0-8.0-0.0,45639,List2A,white,woman,,,,null,,,,
2854,"<img src=""portrait/WM2.jpg""style=""height:400px;""></img>",7,html-button-response,10,314351,0.0-3.0-10.0,45639,List2A,white,woman,,TRUE,7,,,,,
null,CORRECT,,html-keyboard-response,11,315855,0.0-3.0-11.0-0.0,45639,List2A,white,woman,,,,null,,,,
3122,"<img src=""portrait/BW2.jpg""style=""height:400px;""></img>",2,html-button-response,12,318984,0.0-3.0-13.0,45639,List2A,white,woman,,TRUE,2,,,,,
null,CORRECT,,html-keyboard-response,13,320489,0.0-3.0-14.0-0.0,45639,List2A,white,woman,,,,null,,,,
6659,"<img src=""portrait/BM1.jpg""style=""height:400px;""></img>",4,html-button-response,14,327154,0.0-3.0-16.0,45639,List2A,white,woman,,TRUE,4,,,,,
null,CORRECT,,html-keyboard-response,15,328658,0.0-3.0-17.0-0.0,45639,List2A,white,woman,,,,null,,,,
3676,"<img src=""portrait/WM1.jpg""style=""height:400px;""></img>",6,html-button-response,16,332341,0.0-3.0-19.0,45639,List2A,white,woman,,TRUE,6,,,,,
null,CORRECT,,html-keyboard-response,17,333845,0.0-3.0-20.0-0.0,45639,List2A,white,woman,,,,null,,,,
3083,"<img src=""portrait/WW2.jpg""style=""height:400px;""></img>",3,html-button-response,18,336934,0.0-3.0-22.0,45639,List2A,white,woman,,TRUE,3,,,,,
null,CORRECT,,html-keyboard-response,19,338438,0.0-3.0-23.0-0.0,45639,List2A,white,woman,,,,null,,,,
2545,<p>You got 8 out of 8 right first time. Press Continue.</p>,0,html-button-response,20,340989,0.0-3.0-25.0,45639,List2A,white,woman,,,,,,,,
53526,"<p>In this experiment, you will view photographs of the people from the memory game interacting.</p><p>By using the <strong>exact</strong> phrase given <i>after</i> the photograph appears and recalling the correct names of the people in the photographs, form a sentence describing the interaction. You do not need to capitalise names.</p><p>Type your answer in the space provided. Please complete every sentence before moving onto the next trial.</p><p>You will only have a few seconds to memorise each given photograph and phrase before you can respond, so try your best to focus.</p><p>An example is given below. Press 'Continue' when you are ready.</p><img src='img/speaking_example.jpg' style='width:800px;height:460px;''></img>",0,html-button-response,21,395522,0.0-4.0,45639,List2A,white,woman,,,,,,,,
6329,"<p>Before the experiment starts, you will watch two example trials. Press 'Continue'.</p>",0,html-button-response,22,402854,0.0-5.0,45639,List2A,white,woman,,,,,,,,
null,<img src='img/meet_eg.gif' style='height:400px;''></img>,,html-keyboard-response,23,405859,0.0-6.0,45639,List2A,white,woman,,,,null,,,,
null,<p>is meeting</p>,,html-keyboard-response,24,407863,0.0-7.0,45639,List2A,white,woman,,,,null,,,,
4522,<p><b>Answer:</b> jane is meeting ruth</p>,0,html-button-response,25,412389,0.0-8.0,45639,List2A,white,woman,,,,,,,,
null,<img src='img/look_eg.gif' style='height:400px;''></img>,,html-keyboard-response,26,415394,0.0-9.0,45639,List2A,white,woman,,,,null,,,,
null,<p>are looking at each other</p>,,html-keyboard-response,27,417397,0.0-10.0,45639,List2A,white,woman,,,,null,,,,
5738,<p><b>Answer:</b> fred and mike are looking at each other</p>,0,html-button-response,28,423138,0.0-11.0,45639,List2A,white,woman,,,,,,,,
14033,"<p>Ready to start the experiment?</p><br><p><strong>Remember to describe the picture using a full sentence,</strong></p><p><strong>that combines the names of the people with the <i>exact</i> phrase given.</strong></p><p><strong>To receive full payment you must do this correctly.</strong></p><p><strong> You do not need to capitalise names or use punctuation.</strong></p><br><p>Press 'Continue' to begin.</p>",0,html-button-response,29,438177,0.0-12.0,45639,List2A,white,woman,,,,,,,,
null,"<div style=""font-size:60px;"">+</div>",,html-keyboard-response,30,439681,0.0-13.0-0.0,45639,List2A,white,woman,,,,null,,,,
null,"<img src=""stim_listA/argue2.gif""style=""height:400px;""></stim_listA>",,html-keyboard-response,31,441685,0.0-13.0-1.0,45639,List2A,white,woman,,,,null,,,,
null,are arguing with each other,,html-keyboard-response,32,443690,0.0-13.0-2.0,45639,List2A,white,woman,,,,null,,,,
26432,,,survey-text,33,470128,0.0-13.0-3.0,45639,List2A,white,woman,,,,,"{""Q0"":""Jane and Luke are arguing with each other""}","<img src=""stim_listA/argue2.gif""style=""height:400px;""></stim_listA>",are arguing with each other,
null,"<div style=""font-size:60px;"">+</div>",,html-keyboard-response,34,470634,0.0-13.0-0.1,45639,List2A,white,woman,,,,null,,,,
null,"<img src=""stim_listA/shout7.gif""style=""height:400px;""></stim_listA>",,html-keyboard-response,35,472637,0.0-13.0-1.1,45639,List2A,white,woman,,,,null,,,,
null,is shouting at,,html-keyboard-response,36,474642,0.0-13.0-2.1,45639,List2A,white,woman,,,,null,,,,
24416,,,survey-text,37,499061,0.0-13.0-3.1,45639,List2A,white,woman,,,,,"{""Q0"":""Kate is shouting at Ruth""}","<img src=""stim_listA/shout7.gif""style=""height:400px;""></stim_listA>",is shouting at,
null,"<div style=""font-size:60px;"">+</div>",,html-keyboard-response,38,499566,0.0-13.0-0.2,45639,List2A,white,woman,,,,null,,,,
null,"<img src=""stim_listA/marry6.gif""style=""height:400px;""></stim_listA>",,html-keyboard-response,39,501571,0.0-13.0-1.2,45639,List2A,white,woman,,,,null,,,,
null,are marrying each other,,html-keyboard-response,40,503575,0.0-13.0-2.2,45639,List2A,white,woman,,,,null,,,,
29437,,,survey-text,41,533018,0.0-13.0-3.2,45639,List2A,white,woman,,,,,"{""Q0"":""Luke and Mike are marrying each other""}","<img src=""stim_listA/marry6.gif""style=""height:400px;""></stim_listA>",are marrying each other,
null,"<div style=""font-size:60px;"">+</div>",,html-keyboard-response,42,533521,0.0-13.0-0.3,45639,List2A,white,woman,,,,null,,,,
null,"<img src=""stim_listA/dance2.gif""style=""height:400px;""></stim_listA>",,html-keyboard-response,43,535523,0.0-13.0-1.3,45639,List2A,white,woman,,,,null,,,,
null,are dancing with each other,,html-keyboard-response,44,537527,0.0-13.0-2.3,45639,List2A,white,woman,,,,null,,,,
31602,,,survey-text,45,569134,0.0-13.0-3.3,45639,List2A,white,woman,,,,,"{""Q0"":""Luke and Kate are dancing with each other""}","<img src=""stim_listA/dance2.gif""style=""height:400px;""></stim_listA>",are dancing with each other,
null,"<div style=""font-size:60px;"">+</div>",,html-keyboard-response,46,569638,0.0-13.0-0.4,45639,List2A,white,woman,,,,null,,,,
null,"<img src=""stim_listA/kiss3.gif""style=""height:400px;""></stim_listA>",,html-keyboard-response,47,571642,0.0-13.0-1.4,45639,List2A,white,woman,,,,null,,,,
null,is kissing,,html-keyboard-response,48,573646,0.0-13.0-2.4,45639,List2A,white,woman,,,,null,,,,
21116,,,survey-text,49,594766,0.0-13.0-3.4,45639,List2A,white,woman,,,,,"{""Q0"":""Kate is kissing Fred""}","<img src=""stim_listA/kiss3.gif""style=""height:400px;""></stim_listA>",is kissing,
null,"<div style=""font-size:60px;"">+</div>",,html-keyboard-response,50,595270,0.0-13.0-0.5,45639,List2A,white,woman,,,,null,,,,
null,"<img src=""stim_listA/play5.gif""style=""height:400px;""></stim_listA>",,html-keyboard-response,51,597275,0.0-13.0-1.5,45639,List2A,white,woman,,,,null,,,,
null,is playing with,,html-keyboard-response,52,599278,0.0-13.0-2.5,45639,List2A,white,woman,,,,null,,,,
15451,,,survey-text,53,614734,0.0-13.0-3.5,45639,List2A,white,woman,,,,,"{""Q0"":""Mike is playing with Dave""}","<img src=""stim_listA/play5.gif""style=""height:400px;""></stim_listA>",is playing with,
null,"<div style=""font-size:60px;"">+</div>",,html-keyboard-response,54,615239,0.0-13.0-0.6,45639,List2A,white,woman,,,,null,,,,
null,"<img src=""stim_listA/flirt2.gif""style=""height:400px;""></stim_listA>",,html-keyboard-response,55,617241,0.0-13.0-1.6,45639,List2A,white,woman,,,,null,,,,
null,are flirting with each other,,html-keyboard-response,56,619245,0.0-13.0-2.6,45639,List2A,white,woman,,,,null,,,,
38371,,,survey-text,57,657620,0.0-13.0-3.6,45639,List2A,white,woman,,,,,"{""Q0"":""Jane and Dave are flirting with each other""}","<img src=""stim_listA/flirt2.gif""style=""height:400px;""></stim_listA>",are flirting with each other,
null,"<div style=""font-size:60px;"">+</div>",,html-keyboard-response,58,658124,0.0-13.0-0.7,45639,List2A,white,woman,,,,null,,,,
null,"<img src=""stim_listA/dance6.gif""style=""height:400px;""></stim_listA>",,html-keyboard-response,59,660129,0.0-13.0-1.7,45639,List2A,white,woman,,,,null,,,,
null,are dancing with each other,,html-keyboard-response,60,662134,0.0-13.0-2.7,45639,List2A,white,woman,,,,null,,,,
28367,,,survey-text,61,690505,0.0-13.0-3.7,45639,List2A,white,woman,,,,,"{""Q0"":""Dave and Fred are dancing with each other""}","<img src=""stim_listA/dance6.gif""style=""height:400px;""></stim_listA>",are dancing with each other,
null,"<div style=""font-size:60px;"">+</div>",,html-keyboard-response,62,691009,0.0-13.0-0.8,45639,List2A,white,woman,,,,null,,,,
null,"<img src=""stim_listA/touch7.gif""style=""height:400px;""></stim_listA>",,html-keyboard-response,63,693014,0.0-13.0-1.8,45639,List2A,white,woman,,,,null,,,,
null,is touching,,html-keyboard-response,64,695019,0.0-13.0-2.8,45639,List2A,white,woman,,,,null,,,,
21147,,,survey-text,65,716170,0.0-13.0-3.8,45639,List2A,white,woman,,,,,"{""Q0"":""Jane is touching Kate""}","<img src=""stim_listA/touch7.gif""style=""height:400px;""></stim_listA>",is touching,
null,"<div style=""font-size:60px;"">+</div>",,html-keyboard-response,66,716673,0.0-13.0-0.9,45639,List2A,white,woman,,,,null,,,,
null,"<img src=""stim_listA/fight2.gif""style=""height:400px;""></stim_listA>",,html-keyboard-response,67,718678,0.0-13.0-1.9,45639,List2A,white,woman,,,,null,,,,
null,are fighting each other,,html-keyboard-response,68,720683,0.0-13.0-2.9,45639,List2A,white,woman,,,,null,,,,
29086,,,survey-text,69,749773,0.0-13.0-3.9,45639,List2A,white,woman,,,,,"{""Q0"":""Luke and Ruth are fighting with each other""}","<img src=""stim_listA/fight2.gif""style=""height:400px;""></stim_listA>",are fighting each other,
null,"<div style=""font-size:60px;"">+</div>",,html-keyboard-response,70,750277,0.0-13.0-0.10,45639,List2A,white,woman,,,,null,,,,
null,"<img src=""stim_listA/fight8.gif""style=""height:400px;""></stim_listA>",,html-keyboard-response,71,752282,0.0-13.0-1.10,45639,List2A,white,woman,,,,null,,,,
null,are fighting each other,,html-keyboard-response,72,754287,0.0-13.0-2.10,45639,List2A,white,woman,,,,null,,,,
63867,,,survey-text,73,818158,0.0-13.0-3.10,45639,List2A,white,woman,,,,,"{""Q0"":""Ruth and kate are fighting each other""}","<img src=""stim_listA/fight8.gif""style=""height:400px;""></stim_listA>",are fighting each other,
null,"<div style=""font-size:60px;"">+</div>",,html-keyboard-response,74,818663,0.0-13.0-0.11,45639,List2A,white,woman,,,,null,,,,
null,"<img src=""stim_listA/argue3.gif""style=""height:400px;""></stim_listA>",,html-keyboard-response,75,820667,0.0-13.0-1.11,45639,List2A,white,woman,,,,null,,,,
null,is arguing with,,html-keyboard-response,76,822672,0.0-13.0-2.11,45639,List2A,white,woman,,,,null,,,,
32790,,,survey-text,77,855465,0.0-13.0-3.11,45639,List2A,white,woman,,,,,"{""Q0"":""Fred is arguing with Kate""}","<img src=""stim_listA/argue3.gif""style=""height:400px;""></stim_listA>",is arguing with,
null,"<div style=""font-size:60px;"">+</div>",,html-keyboard-response,78,855971,0.0-13.0-0.12,45639,List2A,white,woman,,,,null,,,,
null,"<img src=""stim_listA/touch6.gif""style=""height:400px;""></stim_listA>",,html-keyboard-response,79,857976,0.0-13.0-1.12,45639,List2A,white,woman,,,,null,,,,
null,are touching each other,,html-keyboard-response,80,859980,0.0-13.0-2.12,45639,List2A,white,woman,,,,null,,,,
25470,,,survey-text,81,885453,0.0-13.0-3.12,45639,List2A,white,woman,,,,,"{""Q0"":""Fred and Luke are touching each other""}","<img src=""stim_listA/touch6.gif""style=""height:400px;""></stim_listA>",are touching each other,
null,"<div style=""font-size:60px;"">+</div>",,html-keyboard-response,82,885957,0.0-13.0-0.13,45639,List2A,white,woman,,,,null,,,,
null,"<img src=""stim_listA/dance8.gif""style=""height:400px;""></stim_listA>",,html-keyboard-response,83,887962,0.0-13.0-1.13,45639,List2A,white,woman,,,,null,,,,
null,are dancing with each other,,html-keyboard-response,84,889967,0.0-13.0-2.13,45639,List2A,white,woman,,,,null,,,,
29596,,,survey-text,85,919567,0.0-13.0-3.13,45639,List2A,white,woman,,,,,"{""Q0"":""Kate and jane are dancing with each other""}","<img src=""stim_listA/dance8.gif""style=""height:400px;""></stim_listA>",are dancing with each other,
null,"<div style=""font-size:60px;"">+</div>",,html-keyboard-response,86,920072,0.0-13.0-0.14,45639,List2A,white,woman,,,,null,,,,
null,"<img src=""stim_listA/play3.gif""style=""height:400px;""></stim_listA>",,html-keyboard-response,87,922076,0.0-13.0-1.14,45639,List2A,white,woman,,,,null,,,,
null,is playing with,,html-keyboard-response,88,924081,0.0-13.0-2.14,45639,List2A,white,woman,,,,null,,,,
33649,,,survey-text,89,957734,0.0-13.0-3.14,45639,List2A,white,woman,,,,,"{""Q0"":""Mike is playing with Kate""}","<img src=""stim_listA/play3.gif""style=""height:400px;""></stim_listA>",is playing with,
null,"<div style=""font-size:60px;"">+</div>",,html-keyboard-response,90,958238,0.0-13.0-0.15,45639,List2A,white,woman,,,,null,,,,
null,"<img src=""stim_listA/flirt3.gif""style=""height:400px;""></stim_listA>",,html-keyboard-response,91,960242,0.0-13.0-1.15,45639,List2A,white,woman,,,,null,,,,
null,is flirting with,,html-keyboard-response,92,962247,0.0-13.0-2.15,45639,List2A,white,woman,,,,null,,,,
30502,,,survey-text,93,992753,0.0-13.0-3.15,45639,List2A,white,woman,,,,,"{""Q0"":""Fred is flirting with kate""}","<img src=""stim_listA/flirt3.gif""style=""height:400px;""></stim_listA>",is flirting with,
null,"<div style=""font-size:60px;"">+</div>",,html-keyboard-response,94,993257,0.0-13.0-0.16,45639,List2A,white,woman,,,,null,,,,
null,"<img src=""stim_listA/dance5.gif""style=""height:400px;""></stim_listA>",,html-keyboard-response,95,995262,0.0-13.0-1.16,45639,List2A,white,woman,,,,null,,,,
null,is dancing with,,html-keyboard-response,96,997266,0.0-13.0-2.16,45639,List2A,white,woman,,,,null,,,,
18384,,,survey-text,97,1015654,0.0-13.0-3.16,45639,List2A,white,woman,,,,,"{""Q0"":""Mike is dancing with luke""}","<img src=""stim_listA/dance5.gif""style=""height:400px;""></stim_listA>",is dancing with,
null,"<div style=""font-size:60px;"">+</div>",,html-keyboard-response,98,1016157,0.0-13.0-0.17,45639,List2A,white,woman,,,,null,,,,
null,"<img src=""stim_listA/argue4.gif""style=""height:400px;""></stim_listA>",,html-keyboard-response,99,1018162,0.0-13.0-1.17,45639,List2A,white,woman,,,,null,,,,
null,are arguing with each other,,html-keyboard-response,100,1020166,0.0-13.0-2.17,45639,List2A,white,woman,,,,null,,,,
26266,,,survey-text,101,1046437,0.0-13.0-3.17,45639,List2A,white,woman,,,,,"{""Q0"":""Kate is arguing with fred""}","<img src=""stim_listA/argue4.gif""style=""height:400px;""></stim_listA>",are arguing with each other,
null,"<div style=""font-size:60px;"">+</div>",,html-keyboard-response,102,1046941,0.0-13.0-0.18,45639,List2A,white,woman,,,,null,,,,
null,"<img src=""stim_listA/marry7.gif""style=""height:400px;""></stim_listA>",,html-keyboard-response,103,1048946,0.0-13.0-1.18,45639,List2A,white,woman,,,,null,,,,
null,is marrying,,html-keyboard-response,104,1050950,0.0-13.0-2.18,45639,List2A,white,woman,,,,null,,,,
14406,,,survey-text,105,1065361,0.0-13.0-3.18,45639,List2A,white,woman,,,,,"{""Q0"":""Kate is marrying jane""}","<img src=""stim_listA/marry7.gif""style=""height:400px;""></stim_listA>",is marrying,
null,"<div style=""font-size:60px;"">+</div>",,html-keyboard-response,106,1065865,0.0-13.0-0.19,45639,List2A,white,woman,,,,null,,,,
null,"<img src=""stim_listA/play4.gif""style=""height:400px;""></stim_listA>",,html-keyboard-response,107,1067870,0.0-13.0-1.19,45639,List2A,white,woman,,,,null,,,,
null,are playing with each other,,html-keyboard-response,108,1069874,0.0-13.0-2.19,45639,List2A,white,woman,,,,null,,,,
17947,,,survey-text,109,1087825,0.0-13.0-3.19,45639,List2A,white,woman,,,,,"{""Q0"":""Fred is playing with kate""}","<img src=""stim_listA/play4.gif""style=""height:400px;""></stim_listA>",are playing with each other,
19300,"<img src='img/portrait_matrix_list2.jpg' style='width:900px;height:500px;''></img><p>If you have memorised all the portraits and names and are ready to start, press Continue.</p><p><strong>Please note: Your memory of these faces will be tested 4 times during this experiment.</strong></p>",0,html-button-response,110,1107129,0.0-14.0-0.0,45639,List2A,white,woman,,,,,,,,
3938,"<img src=""portrait/BW2.jpg""style=""height:400px;""></img>",2,html-button-response,111,1112073,0.0-14.0-1.0,45639,List2A,white,woman,,TRUE,2,,,,,
null,CORRECT,,html-keyboard-response,112,1113578,0.0-14.0-2.0-0.0,45639,List2A,white,woman,,,,null,,,,
4209,"<img src=""portrait/BW1.jpg""style=""height:400px;""></img>",0,html-button-response,113,1117794,0.0-14.0-4.0,45639,List2A,white,woman,,TRUE,0,,,,,
null,CORRECT,,html-keyboard-response,114,1119298,0.0-14.0-5.0-0.0,45639,List2A,white,woman,,,,null,,,,
4118,"<img src=""portrait/WM1.jpg""style=""height:400px;""></img>",6,html-button-response,115,1123423,0.0-14.0-7.0,45639,List2A,white,woman,,TRUE,6,,,,,
null,CORRECT,,html-keyboard-response,116,1124926,0.0-14.0-8.0-0.0,45639,List2A,white,woman,,,,null,,,,
4094,"<img src=""portrait/BM2.jpg""style=""height:400px;""></img>",5,html-button-response,117,1129027,0.0-14.0-10.0,45639,List2A,white,woman,,TRUE,5,,,,,
null,CORRECT,,html-keyboard-response,118,1130532,0.0-14.0-11.0-0.0,45639,List2A,white,woman,,,,null,,,,
2790,"<img src=""portrait/WW1.jpg""style=""height:400px;""></img>",1,html-button-response,119,1133327,0.0-14.0-13.0,45639,List2A,white,woman,,TRUE,1,,,,,
null,CORRECT,,html-keyboard-response,120,1134832,0.0-14.0-14.0-0.0,45639,List2A,white,woman,,,,null,,,,
2272,"<img src=""portrait/WW2.jpg""style=""height:400px;""></img>",3,html-button-response,121,1137109,0.0-14.0-16.0,45639,List2A,white,woman,,TRUE,3,,,,,
null,CORRECT,,html-keyboard-response,122,1138613,0.0-14.0-17.0-0.0,45639,List2A,white,woman,,,,null,,,,
2573,"<img src=""portrait/WM2.jpg""style=""height:400px;""></img>",7,html-button-response,123,1141191,0.0-14.0-19.0,45639,List2A,white,woman,,TRUE,7,,,,,
null,CORRECT,,html-keyboard-response,124,1142696,0.0-14.0-20.0-0.0,45639,List2A,white,woman,,,,null,,,,
2121,"<img src=""portrait/BM1.jpg""style=""height:400px;""></img>",4,html-button-response,125,1144823,0.0-14.0-22.0,45639,List2A,white,woman,,TRUE,4,,,,,
null,CORRECT,,html-keyboard-response,126,1146327,0.0-14.0-23.0-0.0,45639,List2A,white,woman,,,,null,,,,
4824,<p>You got 8 out of 8 right first time. Press Continue.</p>,0,html-button-response,127,1151157,0.0-14.0-25.0,45639,List2A,white,woman,,,,,,,,
null,"<div style=""font-size:60px;"">+</div>",,html-keyboard-response,128,1152664,0.0-15.0-0.0,45639,List2A,white,woman,,,,null,,,,
null,"<img src=""stim_listA/talk8.gif""style=""height:400px;""></stim_listA>",,html-keyboard-response,129,1154668,0.0-15.0-1.0,45639,List2A,white,woman,,,,null,,,,
null,are talking to each other,,html-keyboard-response,130,1156672,0.0-15.0-2.0,45639,List2A,white,woman,,,,null,,,,
20882,,,survey-text,131,1177558,0.0-15.0-3.0,45639,List2A,white,woman,,,,,"{""Q0"":""Kate is talking to jane""}","<img src=""stim_listA/talk8.gif""style=""height:400px;""></stim_listA>",are talking to each other,
null,"<div style=""font-size:60px;"">+</div>",,html-keyboard-response,132,1178061,0.0-15.0-0.1,45639,List2A,white,woman,,,,null,,,,
null,"<img src=""stim_listA/dance4.gif""style=""height:400px;""></stim_listA>",,html-keyboard-response,133,1180067,0.0-15.0-1.1,45639,List2A,white,woman,,,,null,,,,
null,are dancing with each other,,html-keyboard-response,134,1182071,0.0-15.0-2.1,45639,List2A,white,woman,,,,null,,,,
13289,,,survey-text,135,1195364,0.0-15.0-3.1,45639,List2A,white,woman,,,,,"{""Q0"":""Mike is dancing with kate""}","<img src=""stim_listA/dance4.gif""style=""height:400px;""></stim_listA>",are dancing with each other,
null,"<div style=""font-size:60px;"">+</div>",,html-keyboard-response,136,1195868,0.0-15.0-0.2,45639,List2A,white,woman,,,,null,,,,
null,"<img src=""stim_listA/marry4.gif""style=""height:400px;""></stim_listA>",,html-keyboard-response,137,1197872,0.0-15.0-1.2,45639,List2A,white,woman,,,,null,,,,
null,are marrying each other,,html-keyboard-response,138,1199878,0.0-15.0-2.2,45639,List2A,white,woman,,,,null,,,,
16832,,,survey-text,139,1216715,0.0-15.0-3.2,45639,List2A,white,woman,,,,,"{""Q0"":""Fred is marrying Kate ""}","<img src=""stim_listA/marry4.gif""style=""height:400px;""></stim_listA>",are marrying each other,
null,"<div style=""font-size:60px;"">+</div>",,html-keyboard-response,140,1217219,0.0-15.0-0.3,45639,List2A,white,woman,,,,null,,,,
null,"<img src=""stim_listA/fight3.gif""style=""height:400px;""></stim_listA>",,html-keyboard-response,141,1219224,0.0-15.0-1.3,45639,List2A,white,woman,,,,null,,,,
null,is fighting,,html-keyboard-response,142,1221229,0.0-15.0-2.3,45639,List2A,white,woman,,,,null,,,,
12951,,,survey-text,143,1234184,0.0-15.0-3.3,45639,List2A,white,woman,,,,,"{""Q0"":""Mike is fighting kate""}","<img src=""stim_listA/fight3.gif""style=""height:400px;""></stim_listA>",is fighting,
null,"<div style=""font-size:60px;"">+</div>",,html-keyboard-response,144,1234688,0.0-15.0-0.4,45639,List2A,white,woman,,,,null,,,,
null,"<img src=""stim_listA/fight7.gif""style=""height:400px;""></stim_listA>",,html-keyboard-response,145,1236692,0.0-15.0-1.4,45639,List2A,white,woman,,,,null,,,,
null,is fighting,,html-keyboard-response,146,1238697,0.0-15.0-2.4,45639,List2A,white,woman,,,,null,,,,
13668,,,survey-text,147,1252371,0.0-15.0-3.4,45639,List2A,white,woman,,,,,"{""Q0"":""Jane is fighting kate""}","<img src=""stim_listA/fight7.gif""style=""height:400px;""></stim_listA>",is fighting,
null,"<div style=""font-size:60px;"">+</div>",,html-keyboard-response,148,1252875,0.0-15.0-0.5,45639,List2A,white,woman,,,,null,,,,
null,"<img src=""stim_listA/touch8.gif""style=""height:400px;""></stim_listA>",,html-keyboard-response,149,1254881,0.0-15.0-1.5,45639,List2A,white,woman,,,,null,,,,
null,are touching each other,,html-keyboard-response,150,1256885,0.0-15.0-2.5,45639,List2A,white,woman,,,,null,,,,
21798,,,survey-text,151,1278686,0.0-15.0-3.5,45639,List2A,white,woman,,,,,"{""Q0"":""Ruth is touching kate""}","<img src=""stim_listA/touch8.gif""style=""height:400px;""></stim_listA>",are touching each other,
null,"<div style=""font-size:60px;"">+</div>",,html-keyboard-response,152,1279189,0.0-15.0-0.6,45639,List2A,white,woman,,,,null,,,,
null,"<img src=""stim_listA/play2.gif""style=""height:400px;""></stim_listA>",,html-keyboard-response,153,1281194,0.0-15.0-1.6,45639,List2A,white,woman,,,,null,,,,
null,are playing with each other,,html-keyboard-response,154,1283199,0.0-15.0-2.6,45639,List2A,white,woman,,,,null,,,,
92845,,,survey-text,155,1376049,0.0-15.0-3.6,45639,List2A,white,woman,,,,,"{""Q0"":""Ruth and luke are playing with each other""}","<img src=""stim_listA/play2.gif""style=""height:400px;""></stim_listA>",are playing with each other,
null,"<div style=""font-size:60px;"">+</div>",,html-keyboard-response,156,1376553,0.0-15.0-0.7,45639,List2A,white,woman,,,,null,,,,
null,"<img src=""stim_listA/talk3.gif""style=""height:400px;""></stim_listA>",,html-keyboard-response,157,1378559,0.0-15.0-1.7,45639,List2A,white,woman,,,,null,,,,
null,is talking to,,html-keyboard-response,158,1380563,0.0-15.0-2.7,45639,List2A,white,woman,,,,null,,,,
13836,,,survey-text,159,1394404,0.0-15.0-3.7,45639,List2A,white,woman,,,,,"{""Q0"":""Fred is talking to kate""}","<img src=""stim_listA/talk3.gif""style=""height:400px;""></stim_listA>",is talking to,
null,"<div style=""font-size:60px;"">+</div>",,html-keyboard-response,160,1394908,0.0-15.0-0.8,45639,List2A,white,woman,,,,null,,,,
null,"<img src=""stim_listA/argue1.gif""style=""height:400px;""></stim_listA>",,html-keyboard-response,161,1396912,0.0-15.0-1.8,45639,List2A,white,woman,,,,null,,,,
null,is arguing with,,html-keyboard-response,162,1398916,0.0-15.0-2.8,45639,List2A,white,woman,,,,null,,,,
22399,,,survey-text,163,1421318,0.0-15.0-3.8,45639,List2A,white,woman,,,,,"{""Q0"":""Ruth is arguing with dave""}","<img src=""stim_listA/argue1.gif""style=""height:400px;""></stim_listA>",is arguing with,
null,"<div style=""font-size:60px;"">+</div>",,html-keyboard-response,164,1421822,0.0-15.0-0.9,45639,List2A,white,woman,,,,null,,,,
null,"<img src=""stim_listA/play6.gif""style=""height:400px;""></stim_listA>",,html-keyboard-response,165,1423827,0.0-15.0-1.9,45639,List2A,white,woman,,,,null,,,,
null,are playing with each other,,html-keyboard-response,166,1425831,0.0-15.0-2.9,45639,List2A,white,woman,,,,null,,,,
21762,,,survey-text,167,1447596,0.0-15.0-3.9,45639,List2A,white,woman,,,,,"{""Q0"":""Fred and luke are playing with each other""}","<img src=""stim_listA/play6.gif""style=""height:400px;""></stim_listA>",are playing with each other,
null,"<div style=""font-size:60px;"">+</div>",,html-keyboard-response,168,1448099,0.0-15.0-0.10,45639,List2A,white,woman,,,,null,,,,
null,"<img src=""stim_listA/kiss2.gif""style=""height:400px;""></stim_listA>",,html-keyboard-response,169,1450104,0.0-15.0-1.10,45639,List2A,white,woman,,,,null,,,,
null,are kissing each other,,html-keyboard-response,170,1452109,0.0-15.0-2.10,45639,List2A,white,woman,,,,null,,,,
20772,,,survey-text,171,1472884,0.0-15.0-3.10,45639,List2A,white,woman,,,,,"{""Q0"":""Dave and jane are kissing each other""}","<img src=""stim_listA/kiss2.gif""style=""height:400px;""></stim_listA>",are kissing each other,
null,"<div style=""font-size:60px;"">+</div>",,html-keyboard-response,172,1473387,0.0-15.0-0.11,45639,List2A,white,woman,,,,null,,,,
null,"<img src=""stim_listA/touch2.gif""style=""height:400px;""></stim_listA>",,html-keyboard-response,173,1475391,0.0-15.0-1.11,45639,List2A,white,woman,,,,null,,,,
null,are touching each other,,html-keyboard-response,174,1477396,0.0-15.0-2.11,45639,List2A,white,woman,,,,null,,,,
19853,,,survey-text,175,1497253,0.0-15.0-3.11,45639,List2A,white,woman,,,,,"{""Q0"":""Ruth and luke are touching each other""}","<img src=""stim_listA/touch2.gif""style=""height:400px;""></stim_listA>",are touching each other,
null,"<div style=""font-size:60px;"">+</div>",,html-keyboard-response,176,1497758,0.0-15.0-0.12,45639,List2A,white,woman,,,,null,,,,
null,"<img src=""stim_listA/play8.gif""style=""height:400px;""></stim_listA>",,html-keyboard-response,177,1499763,0.0-15.0-1.12,45639,List2A,white,woman,,,,null,,,,
null,are playing with each other,,html-keyboard-response,178,1501767,0.0-15.0-2.12,45639,List2A,white,woman,,,,null,,,,
17269,,,survey-text,179,1519041,0.0-15.0-3.12,45639,List2A,white,woman,,,,,"{""Q0"":""Ruth and Kate are playing with each other ""}","<img src=""stim_listA/play8.gif""style=""height:400px;""></stim_listA>",are playing with each other,
null,"<div style=""font-size:60px;"">+</div>",,html-keyboard-response,180,1519547,0.0-15.0-0.13,45639,List2A,white,woman,,,,null,,,,
null,"<img src=""stim_listA/marry2.gif""style=""height:400px;""></stim_listA>",,html-keyboard-response,181,1521553,0.0-15.0-1.13,45639,List2A,white,woman,,,,null,,,,
null,are marrying each other,,html-keyboard-response,182,1523556,0.0-15.0-2.13,45639,List2A,white,woman,,,,null,,,,
40773,,,survey-text,183,1564333,0.0-15.0-3.13,45639,List2A,white,woman,,,,,"{""Q0"":""Mike is marrying jane""}","<img src=""stim_listA/marry2.gif""style=""height:400px;""></stim_listA>",are marrying each other,
null,"<div style=""font-size:60px;"">+</div>",,html-keyboard-response,184,1564837,0.0-15.0-0.14,45639,List2A,white,woman,,,,null,,,,
null,"<img src=""stim_listA/talk7.gif""style=""height:400px;""></stim_listA>",,html-keyboard-response,185,1566842,0.0-15.0-1.14,45639,List2A,white,woman,,,,null,,,,
null,is talking to,,html-keyboard-response,186,1568847,0.0-15.0-2.14,45639,List2A,white,woman,,,,null,,,,
24432,,,survey-text,187,1593282,0.0-15.0-3.14,45639,List2A,white,woman,,,,,"{""Q0"":""Ruth is talking to kate""}","<img src=""stim_listA/talk7.gif""style=""height:400px;""></stim_listA>",is talking to,
null,"<div style=""font-size:60px;"">+</div>",,html-keyboard-response,188,1593786,0.0-15.0-0.15,45639,List2A,white,woman,,,,null,,,,
null,"<img src=""stim_listA/shout5.gif""style=""height:400px;""></stim_listA>",,html-keyboard-response,189,1595791,0.0-15.0-1.15,45639,List2A,white,woman,,,,null,,,,
null,is shouting at,,html-keyboard-response,190,1597795,0.0-15.0-2.15,45639,List2A,white,woman,,,,null,,,,
17249,,,survey-text,191,1615048,0.0-15.0-3.15,45639,List2A,white,woman,,,,,"{""Q0"":""Luke is shouting at fred""}","<img src=""stim_listA/shout5.gif""style=""height:400px;""></stim_listA>",is shouting at,
null,"<div style=""font-size:60px;"">+</div>",,html-keyboard-response,192,1615554,0.0-15.0-0.16,45639,List2A,white,woman,,,,null,,,,
null,"<img src=""stim_listA/fight1.gif""style=""height:400px;""></stim_listA>",,html-keyboard-response,193,1617559,0.0-15.0-1.16,45639,List2A,white,woman,,,,null,,,,
null,is fighting,,html-keyboard-response,194,1619563,0.0-15.0-2.16,45639,List2A,white,woman,,,,null,,,,
13882,,,survey-text,195,1633449,0.0-15.0-3.16,45639,List2A,white,woman,,,,,"{""Q0"":""Jane is fighting dave""}","<img src=""stim_listA/fight1.gif""style=""height:400px;""></stim_listA>",is fighting,
null,"<div style=""font-size:60px;"">+</div>",,html-keyboard-response,196,1633955,0.0-15.0-0.17,45639,List2A,white,woman,,,,null,,,,
null,"<img src=""stim_listA/kiss7.gif""style=""height:400px;""></stim_listA>",,html-keyboard-response,197,1635960,0.0-15.0-1.17,45639,List2A,white,woman,,,,null,,,,
null,is kissing,,html-keyboard-response,198,1637964,0.0-15.0-2.17,45639,List2A,white,woman,,,,null,,,,
12749,,,survey-text,199,1650717,0.0-15.0-3.17,45639,List2A,white,woman,,,,,"{""Q0"":""Ruth is kissing kate""}","<img src=""stim_listA/kiss7.gif""style=""height:400px;""></stim_listA>",is kissing,
null,"<div style=""font-size:60px;"">+</div>",,html-keyboard-response,200,1651221,0.0-15.0-0.18,45639,List2A,white,woman,,,,null,,,,
null,"<img src=""stim_listA/shout6.gif""style=""height:400px;""></stim_listA>",,html-keyboard-response,201,1653225,0.0-15.0-1.18,45639,List2A,white,woman,,,,null,,,,
null,are shouting at each other,,html-keyboard-response,202,1655230,0.0-15.0-2.18,45639,List2A,white,woman,,,,null,,,,
30214,,,survey-text,203,1685447,0.0-15.0-3.18,45639,List2A,white,woman,,,,,"{""Q0"":""Dave and luke are shouting at each other""}","<img src=""stim_listA/shout6.gif""style=""height:400px;""></stim_listA>",are shouting at each other,
null,"<div style=""font-size:60px;"">+</div>",,html-keyboard-response,204,1685950,0.0-15.0-0.19,45639,List2A,white,woman,,,,null,,,,
null,"<img src=""stim_listA/argue5.gif""style=""height:400px;""></stim_listA>",,html-keyboard-response,205,1687954,0.0-15.0-1.19,45639,List2A,white,woman,,,,null,,,,
null,is arguing with,,html-keyboard-response,206,1689958,0.0-15.0-2.19,45639,List2A,white,woman,,,,null,,,,
22092,,,survey-text,207,1712054,0.0-15.0-3.19,45639,List2A,white,woman,,,,,"{""Q0"":""Dave is arguing with fred""}","<img src=""stim_listA/argue5.gif""style=""height:400px;""></stim_listA>",is arguing with,
12307,"<img src='img/portrait_matrix_list2.jpg' style='width:900px;height:500px;''></img><p>If you have memorised all the portraits and names and are ready to start, press Continue.</p><p><strong>Please note: Your memory of these faces will be tested 4 times during this experiment.</strong></p>",0,html-button-response,208,1724363,0.0-16.0-0.0,45639,List2A,white,woman,,,,,,,,
2737,"<img src=""portrait/BW1.jpg""style=""height:400px;""></img>",0,html-button-response,209,1728105,0.0-16.0-1.0,45639,List2A,white,woman,,TRUE,0,,,,,
null,CORRECT,,html-keyboard-response,210,1729609,0.0-16.0-2.0-0.0,45639,List2A,white,woman,,,,null,,,,
2273,"<img src=""portrait/WW2.jpg""style=""height:400px;""></img>",3,html-button-response,211,1731888,0.0-16.0-4.0,45639,List2A,white,woman,,TRUE,3,,,,,
null,CORRECT,,html-keyboard-response,212,1733392,0.0-16.0-5.0-0.0,45639,List2A,white,woman,,,,null,,,,
2826,"<img src=""portrait/BW2.jpg""style=""height:400px;""></img>",2,html-button-response,213,1736223,0.0-16.0-7.0,45639,List2A,white,woman,,TRUE,2,,,,,
null,CORRECT,,html-keyboard-response,214,1737727,0.0-16.0-8.0-0.0,45639,List2A,white,woman,,,,null,,,,
6106,"<img src=""portrait/WW1.jpg""style=""height:400px;""></img>",1,html-button-response,215,1743838,0.0-16.0-10.0,45639,List2A,white,woman,,TRUE,1,,,,,
null,CORRECT,,html-keyboard-response,216,1745343,0.0-16.0-11.0-0.0,45639,List2A,white,woman,,,,null,,,,
4808,"<img src=""portrait/BM1.jpg""style=""height:400px;""></img>",4,html-button-response,217,1750156,0.0-16.0-13.0,45639,List2A,white,woman,,TRUE,4,,,,,
null,CORRECT,,html-keyboard-response,218,1751660,0.0-16.0-14.0-0.0,45639,List2A,white,woman,,,,null,,,,
2274,"<img src=""portrait/BM2.jpg""style=""height:400px;""></img>",5,html-button-response,219,1753939,0.0-16.0-16.0,45639,List2A,white,woman,,TRUE,5,,,,,
null,CORRECT,,html-keyboard-response,220,1755444,0.0-16.0-17.0-0.0,45639,List2A,white,woman,,,,null,,,,
1828,"<img src=""portrait/WM2.jpg""style=""height:400px;""></img>",7,html-button-response,221,1757277,0.0-16.0-19.0,45639,List2A,white,woman,,TRUE,7,,,,,
null,CORRECT,,html-keyboard-response,222,1758782,0.0-16.0-20.0-0.0,45639,List2A,white,woman,,,,null,,,,
2685,"<img src=""portrait/WM1.jpg""style=""height:400px;""></img>",6,html-button-response,223,1761472,0.0-16.0-22.0,45639,List2A,white,woman,,TRUE,6,,,,,
null,CORRECT,,html-keyboard-response,224,1762977,0.0-16.0-23.0-0.0,45639,List2A,white,woman,,,,null,,,,
4561,<p>You got 8 out of 8 right first time. Press Continue.</p>,0,html-button-response,225,1767542,0.0-16.0-25.0,45639,List2A,white,woman,,,,,,,,
null,"<div style=""font-size:60px;"">+</div>",,html-keyboard-response,226,1769050,0.0-17.0-0.0,45639,List2A,white,woman,,,,null,,,,
null,"<img src=""stim_listA/kiss8.gif""style=""height:400px;""></stim_listA>",,html-keyboard-response,227,1771055,0.0-17.0-1.0,45639,List2A,white,woman,,,,null,,,,
null,are kissing each other,,html-keyboard-response,228,1773059,0.0-17.0-2.0,45639,List2A,white,woman,,,,null,,,,
13921,,,survey-text,229,1786983,0.0-17.0-3.0,45639,List2A,white,woman,,,,,"{""Q0"":""Kate and jane are kissing each other""}","<img src=""stim_listA/kiss8.gif""style=""height:400px;""></stim_listA>",are kissing each other,
null,"<div style=""font-size:60px;"">+</div>",,html-keyboard-response,230,1787485,0.0-17.0-0.1,45639,List2A,white,woman,,,,null,,,,
null,"<img src=""stim_listA/fight6.gif""style=""height:400px;""></stim_listA>",,html-keyboard-response,231,1789489,0.0-17.0-1.1,45639,List2A,white,woman,,,,null,,,,
null,are fighting each other,,html-keyboard-response,232,1791495,0.0-17.0-2.1,45639,List2A,white,woman,,,,null,,,,
26492,,,survey-text,233,1817991,0.0-17.0-3.1,45639,List2A,white,woman,,,,,"{""Q0"":""Mike is fighting with luke""}","<img src=""stim_listA/fight6.gif""style=""height:400px;""></stim_listA>",are fighting each other,
null,"<div style=""font-size:60px;"">+</div>",,html-keyboard-response,234,1818494,0.0-17.0-0.2,45639,List2A,white,woman,,,,null,,,,
null,"<img src=""stim_listA/talk6.gif""style=""height:400px;""></stim_listA>",,html-keyboard-response,235,1820499,0.0-17.0-1.2,45639,List2A,white,woman,,,,null,,,,
null,are talking to each other,,html-keyboard-response,236,1822504,0.0-17.0-2.2,45639,List2A,white,woman,,,,null,,,,
22851,,,survey-text,237,1845359,0.0-17.0-3.2,45639,List2A,white,woman,,,,,"{""Q0"":""Dave and Fred are talking with each other""}","<img src=""stim_listA/talk6.gif""style=""height:400px;""></stim_listA>",are talking to each other,
null,"<div style=""font-size:60px;"">+</div>",,html-keyboard-response,238,1845864,0.0-17.0-0.3,45639,List2A,white,woman,,,,null,,,,
null,"<img src=""stim_listA/flirt6.gif""style=""height:400px;""></stim_listA>",,html-keyboard-response,239,1847869,0.0-17.0-1.3,45639,List2A,white,woman,,,,null,,,,
null,are flirting with each other,,html-keyboard-response,240,1849873,0.0-17.0-2.3,45639,List2A,white,woman,,,,null,,,,
20377,,,survey-text,241,1870254,0.0-17.0-3.3,45639,List2A,white,woman,,,,,"{""Q0"":""Fred and Dave are flirting with each other""}","<img src=""stim_listA/flirt6.gif""style=""height:400px;""></stim_listA>",are flirting with each other,
null,"<div style=""font-size:60px;"">+</div>",,html-keyboard-response,242,1870760,0.0-17.0-0.4,45639,List2A,white,woman,,,,null,,,,
null,"<img src=""stim_listA/play7.gif""style=""height:400px;""></stim_listA>",,html-keyboard-response,243,1872765,0.0-17.0-1.4,45639,List2A,white,woman,,,,null,,,,
null,is playing with,,html-keyboard-response,244,1874769,0.0-17.0-2.4,45639,List2A,white,woman,,,,null,,,,
16051,,,survey-text,245,1890825,0.0-17.0-3.4,45639,List2A,white,woman,,,,,"{""Q0"":""Jane is playing with kate""}","<img src=""stim_listA/play7.gif""style=""height:400px;""></stim_listA>",is playing with,
null,"<div style=""font-size:60px;"">+</div>",,html-keyboard-response,246,1891329,0.0-17.0-0.5,45639,List2A,white,woman,,,,null,,,,
null,"<img src=""stim_listA/touch4.gif""style=""height:400px;""></stim_listA>",,html-keyboard-response,247,1893334,0.0-17.0-1.5,45639,List2A,white,woman,,,,null,,,,
null,are touching each other,,html-keyboard-response,248,1895339,0.0-17.0-2.5,45639,List2A,white,woman,,,,null,,,,
16071,,,survey-text,249,1911414,0.0-17.0-3.5,45639,List2A,white,woman,,,,,"{""Q0"":""Fred is touching kate""}","<img src=""stim_listA/touch4.gif""style=""height:400px;""></stim_listA>",are touching each other,
null,"<div style=""font-size:60px;"">+</div>",,html-keyboard-response,250,1911918,0.0-17.0-0.6,45639,List2A,white,woman,,,,null,,,,
null,"<img src=""stim_listA/kiss6.gif""style=""height:400px;""></stim_listA>",,html-keyboard-response,251,1913923,0.0-17.0-1.6,45639,List2A,white,woman,,,,null,,,,
null,are kissing each other,,html-keyboard-response,252,1915927,0.0-17.0-2.6,45639,List2A,white,woman,,,,null,,,,
15100,,,survey-text,253,1931030,0.0-17.0-3.6,45639,List2A,white,woman,,,,,"{""Q0"":""Dave is kissing mike""}","<img src=""stim_listA/kiss6.gif""style=""height:400px;""></stim_listA>",are kissing each other,
null,"<div style=""font-size:60px;"">+</div>",,html-keyboard-response,254,1931533,0.0-17.0-0.7,45639,List2A,white,woman,,,,null,,,,
null,"<img src=""stim_listA/flirt8.gif""style=""height:400px;""></stim_listA>",,html-keyboard-response,255,1933538,0.0-17.0-1.7,45639,List2A,white,woman,,,,null,,,,
null,are flirting with each other,,html-keyboard-response,256,1935542,0.0-17.0-2.7,45639,List2A,white,woman,,,,null,,,,
18814,,,survey-text,257,1954359,0.0-17.0-3.7,45639,List2A,white,woman,,,,,"{""Q0"":""Ruth is kissing beth""}","<img src=""stim_listA/flirt8.gif""style=""height:400px;""></stim_listA>",are flirting with each other,
null,"<div style=""font-size:60px;"">+</div>",,html-keyboard-response,258,1954864,0.0-17.0-0.8,45639,List2A,white,woman,,,,null,,,,
null,"<img src=""stim_listA/marry1.gif""style=""height:400px;""></stim_listA>",,html-keyboard-response,259,1956869,0.0-17.0-1.8,45639,List2A,white,woman,,,,null,,,,
null,is marrying,,html-keyboard-response,260,1958874,0.0-17.0-2.8,45639,List2A,white,woman,,,,null,,,,
12034,,,survey-text,261,1970911,0.0-17.0-3.8,45639,List2A,white,woman,,,,,"{""Q0"":""Dave is marrying ruth""}","<img src=""stim_listA/marry1.gif""style=""height:400px;""></stim_listA>",is marrying,
null,"<div style=""font-size:60px;"">+</div>",,html-keyboard-response,262,1971415,0.0-17.0-0.9,45639,List2A,white,woman,,,,null,,,,
null,"<img src=""stim_listA/flirt7.gif""style=""height:400px;""></stim_listA>",,html-keyboard-response,263,1973420,0.0-17.0-1.9,45639,List2A,white,woman,,,,null,,,,
null,is flirting with,,html-keyboard-response,264,1975424,0.0-17.0-2.9,45639,List2A,white,woman,,,,null,,,,
12868,,,survey-text,265,1988296,0.0-17.0-3.9,45639,List2A,white,woman,,,,,"{""Q0"":""Ruth is flirting with kate""}","<img src=""stim_listA/flirt7.gif""style=""height:400px;""></stim_listA>",is flirting with,
null,"<div style=""font-size:60px;"">+</div>",,html-keyboard-response,266,1988802,0.0-17.0-0.10,45639,List2A,white,woman,,,,null,,,,
null,"<img src=""stim_listA/marry3.gif""style=""height:400px;""></stim_listA>",,html-keyboard-response,267,1990810,0.0-17.0-1.10,45639,List2A,white,woman,,,,null,,,,
null,is marrying,,html-keyboard-response,268,1992815,0.0-17.0-2.10,45639,List2A,white,woman,,,,null,,,,
10277,,,survey-text,269,2003096,0.0-17.0-3.10,45639,List2A,white,woman,,,,,"{""Q0"":""Beth is marrying mike""}","<img src=""stim_listA/marry3.gif""style=""height:400px;""></stim_listA>",is marrying,
null,"<div style=""font-size:60px;"">+</div>",,html-keyboard-response,270,2003603,0.0-17.0-0.11,45639,List2A,white,woman,,,,null,,,,
null,"<img src=""stim_listA/marry8.gif""style=""height:400px;""></stim_listA>",,html-keyboard-response,271,2005608,0.0-17.0-1.11,45639,List2A,white,woman,,,,null,,,,
null,are marrying each other,,html-keyboard-response,272,2007613,0.0-17.0-2.11,45639,List2A,white,woman,,,,null,,,,
11280,,,survey-text,273,2018898,0.0-17.0-3.11,45639,List2A,white,woman,,,,,"{""Q0"":""Kate is marrying ruth""}","<img src=""stim_listA/marry8.gif""style=""height:400px;""></stim_listA>",are marrying each other,
null,"<div style=""font-size:60px;"">+</div>",,html-keyboard-response,274,2019405,0.0-17.0-0.12,45639,List2A,white,woman,,,,null,,,,
null,"<img src=""stim_listA/marry5.gif""style=""height:400px;""></stim_listA>",,html-keyboard-response,275,2021410,0.0-17.0-1.12,45639,List2A,white,woman,,,,null,,,,
null,is marrying,,html-keyboard-response,276,2023414,0.0-17.0-2.12,45639,List2A,white,woman,,,,null,,,,
10515,,,survey-text,277,2033934,0.0-17.0-3.12,45639,List2A,white,woman,,,,,"{""Q0"":""Dave is marrying fred""}","<img src=""stim_listA/marry5.gif""style=""height:400px;""></stim_listA>",is marrying,
null,"<div style=""font-size:60px;"">+</div>",,html-keyboard-response,278,2034438,0.0-17.0-0.13,45639,List2A,white,woman,,,,null,,,,
null,"<img src=""stim_listA/flirt4.gif""style=""height:400px;""></stim_listA>",,html-keyboard-response,279,2036441,0.0-17.0-1.13,45639,List2A,white,woman,,,,null,,,,
null,are flirting with each other,,html-keyboard-response,280,2038445,0.0-17.0-2.13,45639,List2A,white,woman,,,,null,,,,
13739,,,survey-text,281,2052188,0.0-17.0-3.13,45639,List2A,white,woman,,,,,"{""Q0"":""Beth is flirting with mike""}","<img src=""stim_listA/flirt4.gif""style=""height:400px;""></stim_listA>",are flirting with each other,
null,"<div style=""font-size:60px;"">+</div>",,html-keyboard-response,282,2052692,0.0-17.0-0.14,45639,List2A,white,woman,,,,null,,,,
null,"<img src=""stim_listA/dance7.gif""style=""height:400px;""></stim_listA>",,html-keyboard-response,283,2054697,0.0-17.0-1.14,45639,List2A,white,woman,,,,null,,,,
null,is dancing with,,html-keyboard-response,284,2056701,0.0-17.0-2.14,45639,List2A,white,woman,,,,null,,,,
17132,,,survey-text,285,2073837,0.0-17.0-3.14,45639,List2A,white,woman,,,,,"{""Q0"":""Ruth is dancing with kate""}","<img src=""stim_listA/dance7.gif""style=""height:400px;""></stim_listA>",is dancing with,
null,"<div style=""font-size:60px;"">+</div>",,html-keyboard-response,286,2074340,0.0-17.0-0.15,45639,List2A,white,woman,,,,null,,,,
null,"<img src=""stim_listA/shout3.gif""style=""height:400px;""></stim_listA>",,html-keyboard-response,287,2076345,0.0-17.0-1.15,45639,List2A,white,woman,,,,null,,,,
null,is shouting at,,html-keyboard-response,288,2078350,0.0-17.0-2.15,45639,List2A,white,woman,,,,null,,,,
13467,,,survey-text,289,2091820,0.0-17.0-3.15,45639,List2A,white,woman,,,,,"{""Q0"":""Beth is shouting at fred""}","<img src=""stim_listA/shout3.gif""style=""height:400px;""></stim_listA>",is shouting at,
null,"<div style=""font-size:60px;"">+</div>",,html-keyboard-response,290,2092325,0.0-17.0-0.16,45639,List2A,white,woman,,,,null,,,,
null,"<img src=""stim_listA/touch1.gif""style=""height:400px;""></stim_listA>",,html-keyboard-response,291,2094330,0.0-17.0-1.16,45639,List2A,white,woman,,,,null,,,,
null,is touching,,html-keyboard-response,292,2096334,0.0-17.0-2.16,45639,List2A,white,woman,,,,null,,,,
14450,,,survey-text,293,2110788,0.0-17.0-3.16,45639,List2A,white,woman,,,,,"{""Q0"":""Dave is touching jane""}","<img src=""stim_listA/touch1.gif""style=""height:400px;""></stim_listA>",is touching,
null,"<div style=""font-size:60px;"">+</div>",,html-keyboard-response,294,2111293,0.0-17.0-0.17,45639,List2A,white,woman,,,,null,,,,
null,"<img src=""stim_listA/shout1.gif""style=""height:400px;""></stim_listA>",,html-keyboard-response,295,2113298,0.0-17.0-1.17,45639,List2A,white,woman,,,,null,,,,
null,is shouting at,,html-keyboard-response,296,2115303,0.0-17.0-2.17,45639,List2A,white,woman,,,,null,,,,
13673,,,survey-text,297,2128985,0.0-17.0-3.17,45639,List2A,white,woman,,,,,"{""Q0"":""Luke is shouting at ruth""}","<img src=""stim_listA/shout1.gif""style=""height:400px;""></stim_listA>",is shouting at,
null,"<div style=""font-size:60px;"">+</div>",,html-keyboard-response,298,2129489,0.0-17.0-0.18,45639,List2A,white,woman,,,,null,,,,
null,"<img src=""stim_listA/flirt1.gif""style=""height:400px;""></stim_listA>",,html-keyboard-response,299,2131494,0.0-17.0-1.18,45639,List2A,white,woman,,,,null,,,,
null,is flirting with,,html-keyboard-response,300,2133499,0.0-17.0-2.18,45639,List2A,white,woman,,,,null,,,,
14169,,,survey-text,301,2147672,0.0-17.0-3.18,45639,List2A,white,woman,,,,,"{""Q0"":""Jane is flirting with luke""}","<img src=""stim_listA/flirt1.gif""style=""height:400px;""></stim_listA>",is flirting with,
null,"<div style=""font-size:60px;"">+</div>",,html-keyboard-response,302,2148177,0.0-17.0-0.19,45639,List2A,white,woman,,,,null,,,,
null,"<img src=""stim_listA/talk2.gif""style=""height:400px;""></stim_listA>",,html-keyboard-response,303,2150182,0.0-17.0-1.19,45639,List2A,white,woman,,,,null,,,,
null,are talking to each other,,html-keyboard-response,304,2152186,0.0-17.0-2.19,45639,List2A,white,woman,,,,null,,,,
20566,,,survey-text,305,2172756,0.0-17.0-3.19,45639,List2A,white,woman,,,,,"{""Q0"":""Dave is talking with ruth""}","<img src=""stim_listA/talk2.gif""style=""height:400px;""></stim_listA>",are talking to each other,
13831,"<img src='img/portrait_matrix_list2.jpg' style='width:900px;height:500px;''></img><p>If you have memorised all the portraits and names and are ready to start, press Continue.</p><p><strong>Please note: Your memory of these faces will be tested 4 times during this experiment.</strong></p>",0,html-button-response,306,2186601,0.0-18.0-0.0,45639,List2A,white,woman,,,,,,,,
2914,"<img src=""portrait/WM1.jpg""style=""height:400px;""></img>",6,html-button-response,307,2190521,0.0-18.0-1.0,45639,List2A,white,woman,,TRUE,6,,,,,
null,CORRECT,,html-keyboard-response,308,2192026,0.0-18.0-2.0-0.0,45639,List2A,white,woman,,,,null,,,,
2405,"<img src=""portrait/BW2.jpg""style=""height:400px;""></img>",2,html-button-response,309,2194441,0.0-18.0-4.0,45639,List2A,white,woman,,TRUE,2,,,,,
null,CORRECT,,html-keyboard-response,310,2195945,0.0-18.0-5.0-0.0,45639,List2A,white,woman,,,,null,,,,
4104,"<img src=""portrait/WM2.jpg""style=""height:400px;""></img>",7,html-button-response,311,2200054,0.0-18.0-7.0,45639,List2A,white,woman,,TRUE,7,,,,,
null,CORRECT,,html-keyboard-response,312,2201559,0.0-18.0-8.0-0.0,45639,List2A,white,woman,,,,null,,,,
3255,"<img src=""portrait/WW2.jpg""style=""height:400px;""></img>",3,html-button-response,313,2204821,0.0-18.0-10.0,45639,List2A,white,woman,,TRUE,3,,,,,
null,CORRECT,,html-keyboard-response,314,2206326,0.0-18.0-11.0-0.0,45639,List2A,white,woman,,,,null,,,,
2340,"<img src=""portrait/BM1.jpg""style=""height:400px;""></img>",4,html-button-response,315,2208671,0.0-18.0-13.0,45639,List2A,white,woman,,TRUE,4,,,,,
null,CORRECT,,html-keyboard-response,316,2210175,0.0-18.0-14.0-0.0,45639,List2A,white,woman,,,,null,,,,
4883,"<img src=""portrait/WW1.jpg""style=""height:400px;""></img>",1,html-button-response,317,2215063,0.0-18.0-16.0,45639,List2A,white,woman,,TRUE,1,,,,,
null,CORRECT,,html-keyboard-response,318,2216567,0.0-18.0-17.0-0.0,45639,List2A,white,woman,,,,null,,,,
4168,"<img src=""portrait/BM2.jpg""style=""height:400px;""></img>",5,html-button-response,319,2220743,0.0-18.0-19.0,45639,List2A,white,woman,,TRUE,5,,,,,
null,CORRECT,,html-keyboard-response,320,2222246,0.0-18.0-20.0-0.0,45639,List2A,white,woman,,,,null,,,,
2436,"<img src=""portrait/BW1.jpg""style=""height:400px;""></img>",0,html-button-response,321,2224688,0.0-18.0-22.0,45639,List2A,white,woman,,TRUE,0,,,,,
null,CORRECT,,html-keyboard-response,322,2226192,0.0-18.0-23.0-0.0,45639,List2A,white,woman,,,,null,,,,
2175,<p>You got 8 out of 8 right first time. Press Continue.</p>,0,html-button-response,323,2228372,0.0-18.0-25.0,45639,List2A,white,woman,,,,,,,,
null,"<div style=""font-size:60px;"">+</div>",,html-keyboard-response,324,2229886,0.0-19.0-0.0,45639,List2A,white,woman,,,,null,,,,
null,"<img src=""stim_listA/play1.gif""style=""height:400px;""></stim_listA>",,html-keyboard-response,325,2231891,0.0-19.0-1.0,45639,List2A,white,woman,,,,null,,,,
null,is playing with,,html-keyboard-response,326,2233895,0.0-19.0-2.0,45639,List2A,white,woman,,,,null,,,,
14332,,,survey-text,327,2248232,0.0-19.0-3.0,45639,List2A,white,woman,,,,,"{""Q0"":""Dave is playing with jane""}","<img src=""stim_listA/play1.gif""style=""height:400px;""></stim_listA>",is playing with,
null,"<div style=""font-size:60px;"">+</div>",,html-keyboard-response,328,2248735,0.0-19.0-0.1,45639,List2A,white,woman,,,,null,,,,
null,"<img src=""stim_listA/flirt5.gif""style=""height:400px;""></stim_listA>",,html-keyboard-response,329,2250739,0.0-19.0-1.1,45639,List2A,white,woman,,,,null,,,,
null,is flirting with,,html-keyboard-response,330,2252744,0.0-19.0-2.1,45639,List2A,white,woman,,,,null,,,,
14519,,,survey-text,331,2267267,0.0-19.0-3.1,45639,List2A,white,woman,,,,,"{""Q0"":""Mike is flirting with Luke ""}","<img src=""stim_listA/flirt5.gif""style=""height:400px;""></stim_listA>",is flirting with,
null,"<div style=""font-size:60px;"">+</div>",,html-keyboard-response,332,2267771,0.0-19.0-0.2,45639,List2A,white,woman,,,,null,,,,
null,"<img src=""stim_listA/fight4.gif""style=""height:400px;""></stim_listA>",,html-keyboard-response,333,2269776,0.0-19.0-1.2,45639,List2A,white,woman,,,,null,,,,
null,are fighting each other,,html-keyboard-response,334,2271780,0.0-19.0-2.2,45639,List2A,white,woman,,,,null,,,,
19727,,,survey-text,335,2291510,0.0-19.0-3.2,45639,List2A,white,woman,,,,,"{""Q0"":""Beth is fighting with fred""}","<img src=""stim_listA/fight4.gif""style=""height:400px;""></stim_listA>",are fighting each other,
null,"<div style=""font-size:60px;"">+</div>",,html-keyboard-response,336,2292016,0.0-19.0-0.3,45639,List2A,white,woman,,,,null,,,,
null,"<img src=""stim_listA/dance1.gif""style=""height:400px;""></stim_listA>",,html-keyboard-response,337,2294021,0.0-19.0-1.3,45639,List2A,white,woman,,,,null,,,,
null,is dancing with,,html-keyboard-response,338,2296025,0.0-19.0-2.3,45639,List2A,white,woman,,,,null,,,,
14191,,,survey-text,339,2310221,0.0-19.0-3.3,45639,List2A,white,woman,,,,,"{""Q0"":""Luke is dancing with jane""}","<img src=""stim_listA/dance1.gif""style=""height:400px;""></stim_listA>",is dancing with,
null,"<div style=""font-size:60px;"">+</div>",,html-keyboard-response,340,2310725,0.0-19.0-0.4,45639,List2A,white,woman,,,,null,,,,
null,"<img src=""stim_listA/argue8.gif""style=""height:400px;""></stim_listA>",,html-keyboard-response,341,2312737,0.0-19.0-1.4,45639,List2A,white,woman,,,,null,,,,
null,are arguing with each other,,html-keyboard-response,342,2314743,0.0-19.0-2.4,45639,List2A,white,woman,,,,null,,,,
30974,,,survey-text,343,2345735,0.0-19.0-3.4,45639,List2A,white,woman,,,,,"{""Q0"":""Kate is arguing with ruth""}","<img src=""stim_listA/argue8.gif""style=""height:400px;""></stim_listA>",are arguing with each other,
null,"<div style=""font-size:60px;"">+</div>",,html-keyboard-response,344,2346237,0.0-19.0-0.5,45639,List2A,white,woman,,,,null,,,,
null,"<img src=""stim_listA/kiss1.gif""style=""height:400px;""></stim_listA>",,html-keyboard-response,345,2348239,0.0-19.0-1.5,45639,List2A,white,woman,,,,null,,,,
null,is kissing,,html-keyboard-response,346,2350241,0.0-19.0-2.5,45639,List2A,white,woman,,,,null,,,,
14505,,,survey-text,347,2364748,0.0-19.0-3.5,45639,List2A,white,woman,,,,,"{""Q0"":""Ruth is kissing luke""}","<img src=""stim_listA/kiss1.gif""style=""height:400px;""></stim_listA>",is kissing,
null,"<div style=""font-size:60px;"">+</div>",,html-keyboard-response,348,2365252,0.0-19.0-0.6,45639,List2A,white,woman,,,,null,,,,
null,"<img src=""stim_listA/shout2.gif""style=""height:400px;""></stim_listA>",,html-keyboard-response,349,2367257,0.0-19.0-1.6,45639,List2A,white,woman,,,,null,,,,
null,are shouting at each other,,html-keyboard-response,350,2369261,0.0-19.0-2.6,45639,List2A,white,woman,,,,null,,,,
54352,,,survey-text,351,2423615,0.0-19.0-3.6,45639,List2A,white,woman,,,,,"{""Q0"":""Jane Iran’s Dave are shouting at each other ""}","<img src=""stim_listA/shout2.gif""style=""height:400px;""></stim_listA>",are shouting at each other,
null,"<div style=""font-size:60px;"">+</div>",,html-keyboard-response,352,2424119,0.0-19.0-0.7,45639,List2A,white,woman,,,,null,,,,
null,"<img src=""stim_listA/fight5.gif""style=""height:400px;""></stim_listA>",,html-keyboard-response,353,2426130,0.0-19.0-1.7,45639,List2A,white,woman,,,,null,,,,
null,is fighting,,html-keyboard-response,354,2428135,0.0-19.0-2.7,45639,List2A,white,woman,,,,null,,,,
15582,,,survey-text,355,2443724,0.0-19.0-3.7,45639,List2A,white,woman,,,,,"{""Q0"":""Dave is fighting mike""}","<img src=""stim_listA/fight5.gif""style=""height:400px;""></stim_listA>",is fighting,
null,"<div style=""font-size:60px;"">+</div>",,html-keyboard-response,356,2444228,0.0-19.0-0.8,45639,List2A,white,woman,,,,null,,,,
null,"<img src=""stim_listA/talk5.gif""style=""height:400px;""></stim_listA>",,html-keyboard-response,357,2446233,0.0-19.0-1.8,45639,List2A,white,woman,,,,null,,,,
null,is talking to,,html-keyboard-response,358,2448237,0.0-19.0-2.8,45639,List2A,white,woman,,,,null,,,,
12595,,,survey-text,359,2460839,0.0-19.0-3.8,45639,List2A,white,woman,,,,,"{""Q0"":""Mike is talking to luke""}","<img src=""stim_listA/talk5.gif""style=""height:400px;""></stim_listA>",is talking to,
null,"<div style=""font-size:60px;"">+</div>",,html-keyboard-response,360,2461344,0.0-19.0-0.9,45639,List2A,white,woman,,,,null,,,,
null,"<img src=""stim_listA/dance3.gif""style=""height:400px;""></stim_listA>",,html-keyboard-response,361,2463349,0.0-19.0-1.9,45639,List2A,white,woman,,,,null,,,,
null,is dancing with,,html-keyboard-response,362,2465356,0.0-19.0-2.9,45639,List2A,white,woman,,,,null,,,,
14747,,,survey-text,363,2480108,0.0-19.0-3.9,45639,List2A,white,woman,,,,,"{""Q0"":""Fred is dancing with beth""}","<img src=""stim_listA/dance3.gif""style=""height:400px;""></stim_listA>",is dancing with,
null,"<div style=""font-size:60px;"">+</div>",,html-keyboard-response,364,2480612,0.0-19.0-0.10,45639,List2A,white,woman,,,,null,,,,
null,"<img src=""stim_listA/touch3.gif""style=""height:400px;""></stim_listA>",,html-keyboard-response,365,2482617,0.0-19.0-1.10,45639,List2A,white,woman,,,,null,,,,
null,is touching,,html-keyboard-response,366,2484621,0.0-19.0-2.10,45639,List2A,white,woman,,,,null,,,,
12245,,,survey-text,367,2496871,0.0-19.0-3.10,45639,List2A,white,woman,,,,,"{""Q0"":""Mike is touching kate""}","<img src=""stim_listA/touch3.gif""style=""height:400px;""></stim_listA>",is touching,
null,"<div style=""font-size:60px;"">+</div>",,html-keyboard-response,368,2497384,0.0-19.0-0.11,45639,List2A,white,woman,,,,null,,,,
null,"<img src=""stim_listA/shout4.gif""style=""height:400px;""></stim_listA>",,html-keyboard-response,369,2499390,0.0-19.0-1.11,45639,List2A,white,woman,,,,null,,,,
null,are shouting at each other,,html-keyboard-response,370,2501395,0.0-19.0-2.11,45639,List2A,white,woman,,,,null,,,,
16241,,,survey-text,371,2517643,0.0-19.0-3.11,45639,List2A,white,woman,,,,,"{""Q0"":""Mike and Kate are shouting at each other ""}","<img src=""stim_listA/shout4.gif""style=""height:400px;""></stim_listA>",are shouting at each other,
null,"<div style=""font-size:60px;"">+</div>",,html-keyboard-response,372,2518147,0.0-19.0-0.12,45639,List2A,white,woman,,,,null,,,,
null,"<img src=""stim_listA/argue7.gif""style=""height:400px;""></stim_listA>",,html-keyboard-response,373,2520152,0.0-19.0-1.12,45639,List2A,white,woman,,,,null,,,,
null,is arguing with,,html-keyboard-response,374,2522156,0.0-19.0-2.12,45639,List2A,white,woman,,,,null,,,,
27953,,,survey-text,375,2550121,0.0-19.0-3.12,45639,List2A,white,woman,,,,,"{""Q0"":""Beth is arguing with jane""}","<img src=""stim_listA/argue7.gif""style=""height:400px;""></stim_listA>",is arguing with,
null,"<div style=""font-size:60px;"">+</div>",,html-keyboard-response,376,2550626,0.0-19.0-0.13,45639,List2A,white,woman,,,,null,,,,
null,"<img src=""stim_listA/argue6.gif""style=""height:400px;""></stim_listA>",,html-keyboard-response,377,2552631,0.0-19.0-1.13,45639,List2A,white,woman,,,,null,,,,
null,are arguing with each other,,html-keyboard-response,378,2554635,0.0-19.0-2.13,45639,List2A,white,woman,,,,null,,,,
27123,,,survey-text,379,2581765,0.0-19.0-3.13,45639,List2A,white,woman,,,,,"{""Q0"":""Luke and mike are arguing with each other""}","<img src=""stim_listA/argue6.gif""style=""height:400px;""></stim_listA>",are arguing with each other,
null,"<div style=""font-size:60px;"">+</div>",,html-keyboard-response,380,2582269,0.0-19.0-0.14,45639,List2A,white,woman,,,,null,,,,
null,"<img src=""stim_listA/kiss5.gif""style=""height:400px;""></stim_listA>",,html-keyboard-response,381,2584274,0.0-19.0-1.14,45639,List2A,white,woman,,,,null,,,,
null,is kissing,,html-keyboard-response,382,2586286,0.0-19.0-2.14,45639,List2A,white,woman,,,,null,,,,
14902,,,survey-text,383,2601194,0.0-19.0-3.14,45639,List2A,white,woman,,,,,"{""Q0"":""Fred is kissing luke""}","<img src=""stim_listA/kiss5.gif""style=""height:400px;""></stim_listA>",is kissing,
null,"<div style=""font-size:60px;"">+</div>",,html-keyboard-response,384,2601697,0.0-19.0-0.15,45639,List2A,white,woman,,,,null,,,,
null,"<img src=""stim_listA/touch5.gif""style=""height:400px;""></stim_listA>",,html-keyboard-response,385,2603702,0.0-19.0-1.15,45639,List2A,white,woman,,,,null,,,,
null,is touching,,html-keyboard-response,386,2605707,0.0-19.0-2.15,45639,List2A,white,woman,,,,null,,,,
13419,,,survey-text,387,2619131,0.0-19.0-3.15,45639,List2A,white,woman,,,,,"{""Q0"":""Mike is touching dave""}","<img src=""stim_listA/touch5.gif""style=""height:400px;""></stim_listA>",is touching,
null,"<div style=""font-size:60px;"">+</div>",,html-keyboard-response,388,2619636,0.0-19.0-0.16,45639,List2A,white,woman,,,,null,,,,
null,"<img src=""stim_listA/talk4.gif""style=""height:400px;""></stim_listA>",,html-keyboard-response,389,2621641,0.0-19.0-1.16,45639,List2A,white,woman,,,,null,,,,
null,are talking to each other,,html-keyboard-response,390,2623646,0.0-19.0-2.16,45639,List2A,white,woman,,,,null,,,,
15692,,,survey-text,391,2639343,0.0-19.0-3.16,45639,List2A,white,woman,,,,,"{""Q0"":""Beth and mike are talking to each other""}","<img src=""stim_listA/talk4.gif""style=""height:400px;""></stim_listA>",are talking to each other,
null,"<div style=""font-size:60px;"">+</div>",,html-keyboard-response,392,2639847,0.0-19.0-0.17,45639,List2A,white,woman,,,,null,,,,
null,"<img src=""stim_listA/kiss4.gif""style=""height:400px;""></stim_listA>",,html-keyboard-response,393,2641852,0.0-19.0-1.17,45639,List2A,white,woman,,,,null,,,,
null,are kissing each other,,html-keyboard-response,394,2643857,0.0-19.0-2.17,45639,List2A,white,woman,,,,null,,,,
13127,,,survey-text,395,2656987,0.0-19.0-3.17,45639,List2A,white,woman,,,,,"{""Q0"":""Kate and mike are kissing each other ""}","<img src=""stim_listA/kiss4.gif""style=""height:400px;""></stim_listA>",are kissing each other,
null,"<div style=""font-size:60px;"">+</div>",,html-keyboard-response,396,2657490,0.0-19.0-0.18,45639,List2A,white,woman,,,,null,,,,
null,"<img src=""stim_listA/shout8.gif""style=""height:400px;""></stim_listA>",,html-keyboard-response,397,2659494,0.0-19.0-1.18,45639,List2A,white,woman,,,,null,,,,
null,are shouting at each other,,html-keyboard-response,398,2661498,0.0-19.0-2.18,45639,List2A,white,woman,,,,null,,,,
17452,,,survey-text,399,2678961,0.0-19.0-3.18,45639,List2A,white,woman,,,,,"{""Q0"":""Jane and Kate are shouting at each other""}","<img src=""stim_listA/shout8.gif""style=""height:400px;""></stim_listA>",are shouting at each other,
null,"<div style=""font-size:60px;"">+</div>",,html-keyboard-response,400,2679466,0.0-19.0-0.19,45639,List2A,white,woman,,,,null,,,,
null,"<img src=""stim_listA/talk1.gif""style=""height:400px;""></stim_listA>",,html-keyboard-response,401,2681471,0.0-19.0-1.19,45639,List2A,white,woman,,,,null,,,,
null,is talking to,,html-keyboard-response,402,2683475,0.0-19.0-2.19,45639,List2A,white,woman,,,,null,,,,
14215,,,survey-text,403,2697695,0.0-19.0-3.19,45639,List2A,white,woman,,,,,"{""Q0"":""Luke is talking to jane""}","<img src=""stim_listA/talk1.gif""style=""height:400px;""></stim_listA>",is talking to,
4847,<p>Thank you for completing that task.</p><p>The final part of this session is a short questionnaire.</p><p>Press Continue.</p>,0,html-button-response,404,2702547,0.0-20.0,45639,List2A,white,woman,,,,,,,,
43537,,,survey-text,405,2747088,0.0-21.0,45639,List2A,white,woman,,,,,"{""Q0"":""34"",""Q1"":""English"",""Q2"":""English "",""Q3"":""England "",""Q4"":""White british"",""Q5"":""Female""}",,,demographics
9700,,,survey-likert,406,2756797,0.0-22.0,45639,List2A,white,woman,,,,,"{""Q0"":4}",,,likert_ESS
6460,,,survey-likert,407,2763262,0.0-23.0,45639,List2A,white,woman,,,,,"{""Q0"":4}",,,likert_NSSAL_Q1
6998,,,survey-likert,408,2770265,0.0-24.0,45639,List2A,white,woman,,,,,"{""Q0"":4}",,,likert_NSSAL_Q2
7586,,,survey-likert,409,2777855,0.0-25.0,45639,List2A,white,woman,,,,,"{""Q0"":4}",,,likert_CGRS_Q1
4532,,,survey-likert,410,2782392,0.0-26.0,45639,List2A,white,woman,,,,,"{""Q0"":4}",,,likert_CGRS_Q2
3573,,,survey-likert,411,2785973,0.0-27.0,45639,List2A,white,woman,,,,,"{""Q0"":4}",,,likert_CGRS_Q3
8413,,,survey-text,412,2794392,0.0-28.0,45639,List2A,white,woman,,,,,"{""Q0"":""ccc""}",,,worker_id
36837,,,external-html,413,2831548,0.0-29.0,45639,List2A,white,woman,debrief.html,,,,,,,
