rt,stimulus,button_pressed,trial_type,trial_index,time_elapsed,internal_node_id,subject,list,ppt_race,ppt_gender,url,first_guess,correct,key_press,responses,image_type,phrase_type,test_part
5109,Welcome to the experiment. Press Continue to begin.,0,html-button-response,0,5113,0.0-0.0,46296,List1B,white,man,,,,,,,,
48329,,,external-html,1,54512,0.0-1.0,46296,List1B,white,man,consent.html,,,,,,,
9183,"<p>On the next page, you will see portraits of 8 people and their names.</p><p>Your first task is to take a few minutes to memorise the names of these people.</p><p>You will have to recall their names during the rest of the experiment, so it is</p><p>essential that you try to memorise these people and their names as best as you can.</p><br><p><strong>You will then be tested on your memory of these names and portraits.</strong></p><br><p>The experiment will start after you have completed this memory test.</p><br><p>Ready?</p>",0,html-button-response,2,63696,0.0-2.0,46296,List1B,white,man,,,,,,,,
83273,"<img src='img/portrait_matrix_list1.jpg' style='width:900px;height:500px;''></img><p>If you have memorised all the portraits and names and are ready to start, press Continue.</p><p><strong>Please note: Your memory of these faces will be tested 4 times during this experiment.</strong></p>",0,html-button-response,3,147972,0.0-3.0-0.0,46296,List1B,white,man,,,,,,,,
3208,"<img src=""portrait/WM2.jpg""style=""height:400px;""></img>",7,html-button-response,4,152188,0.0-3.0-1.0,46296,List1B,white,man,,TRUE,7,,,,,
null,CORRECT,,html-keyboard-response,5,153695,0.0-3.0-2.0-0.0,46296,List1B,white,man,,,,null,,,,
7054,"<img src=""portrait/BM1.jpg""style=""height:400px;""></img>",4,html-button-response,6,160752,0.0-3.0-4.0,46296,List1B,white,man,,TRUE,4,,,,,
null,CORRECT,,html-keyboard-response,7,162255,0.0-3.0-5.0-0.0,46296,List1B,white,man,,,,null,,,,
2266,"<img src=""portrait/BM2.jpg""style=""height:400px;""></img>",5,html-button-response,8,164523,0.0-3.0-7.0,46296,List1B,white,man,,TRUE,5,,,,,
null,CORRECT,,html-keyboard-response,9,166025,0.0-3.0-8.0-0.0,46296,List1B,white,man,,,,null,,,,
6001,"<img src=""portrait/BW2.jpg""style=""height:400px;""></img>",2,html-button-response,10,172027,0.0-3.0-10.0,46296,List1B,white,man,,TRUE,2,,,,,
null,CORRECT,,html-keyboard-response,11,173533,0.0-3.0-11.0-0.0,46296,List1B,white,man,,,,null,,,,
1634,"<img src=""portrait/WW1.jpg""style=""height:400px;""></img>",1,html-button-response,12,175172,0.0-3.0-13.0,46296,List1B,white,man,,TRUE,1,,,,,
null,CORRECT,,html-keyboard-response,13,176674,0.0-3.0-14.0-0.0,46296,List1B,white,man,,,,null,,,,
4139,"<img src=""portrait/WM1.jpg""style=""height:400px;""></img>",6,html-button-response,14,180816,0.0-3.0-16.0,46296,List1B,white,man,,TRUE,6,,,,,
null,CORRECT,,html-keyboard-response,15,182321,0.0-3.0-17.0-0.0,46296,List1B,white,man,,,,null,,,,
2054,"<img src=""portrait/WW2.jpg""style=""height:400px;""></img>",3,html-button-response,16,184379,0.0-3.0-19.0,46296,List1B,white,man,,TRUE,3,,,,,
null,CORRECT,,html-keyboard-response,17,185884,0.0-3.0-20.0-0.0,46296,List1B,white,man,,,,null,,,,
3735,"<img src=""portrait/BW1.jpg""style=""height:400px;""></img>",0,html-button-response,18,189620,0.0-3.0-22.0,46296,List1B,white,man,,TRUE,0,,,,,
null,CORRECT,,html-keyboard-response,19,191122,0.0-3.0-23.0-0.0,46296,List1B,white,man,,,,null,,,,
1471,<p>You got 8 out of 8 right first time. Press Continue.</p>,0,html-button-response,20,192595,0.0-3.0-25.0,46296,List1B,white,man,,,,,,,,
36171,"<p>In this experiment, you will view photographs of the people from the memory game interacting.</p><p>By using the <strong>exact</strong> phrase given <i>after</i> the photograph appears and recalling the correct names of the people in the photographs, form a sentence describing the interaction. You do not need to capitalise names.</p><p>Type your answer in the space provided. Please complete every sentence before moving onto the next trial.</p><p>You will only have a few seconds to memorise each given photograph and phrase before you can respond, so try your best to focus.</p><p>An example is given below. Press 'Continue' when you are ready.</p><img src='img/speaking_example.jpg' style='width:800px;height:460px;''></img>",0,html-button-response,21,229772,0.0-4.0,46296,List1B,white,man,,,,,,,,
2459,"<p>Before the experiment starts, you will watch two example trials. Press 'Continue'.</p>",0,html-button-response,22,233235,0.0-5.0,46296,List1B,white,man,,,,,,,,
null,<img src='img/meet_eg.gif' style='height:400px;''></img>,,html-keyboard-response,23,236240,0.0-6.0,46296,List1B,white,man,,,,null,,,,
null,<p>is meeting</p>,,html-keyboard-response,24,238244,0.0-7.0,46296,List1B,white,man,,,,null,,,,
1551,<p><b>Answer:</b> kate is meeting beth</p>,0,html-button-response,25,239796,0.0-8.0,46296,List1B,white,man,,,,,,,,
null,<img src='img/look_eg.gif' style='height:400px;''></img>,,html-keyboard-response,26,242801,0.0-9.0,46296,List1B,white,man,,,,null,,,,
null,<p>are looking at each other</p>,,html-keyboard-response,27,244804,0.0-10.0,46296,List1B,white,man,,,,null,,,,
1789,<p><b>Answer:</b> luke and dave are looking at each other</p>,0,html-button-response,28,246596,0.0-11.0,46296,List1B,white,man,,,,,,,,
9851,"<p>Ready to start the experiment?</p><br><p><strong>Remember to describe the picture using a full sentence,</strong></p><p><strong>that combines the names of the people with the <i>exact</i> phrase given.</strong></p><p><strong>To receive full payment you must do this correctly.</strong></p><p><strong> You do not need to capitalise names or use punctuation.</strong></p><br><p>Press 'Continue' to begin.</p>",0,html-button-response,29,257448,0.0-12.0,46296,List1B,white,man,,,,,,,,
null,"<div style=""font-size:60px;"">+</div>",,html-keyboard-response,30,258951,0.0-13.0-0.0,46296,List1B,white,man,,,,null,,,,
null,"<img src=""stim_listB/talk2.gif""style=""height:400px;""></stim_listB>",,html-keyboard-response,31,260954,0.0-13.0-1.0,46296,List1B,white,man,,,,null,,,,
null,are talking to each other,,html-keyboard-response,32,262957,0.0-13.0-2.0,46296,List1B,white,man,,,,null,,,,
23529,,,survey-text,33,286488,0.0-13.0-3.0,46296,List1B,white,man,,,,,"{""Q0"":""beth and fred are talking to eachother""}","<img src=""stim_listB/talk2.gif""style=""height:400px;""></stim_listB>",are talking to each other,
null,"<div style=""font-size:60px;"">+</div>",,html-keyboard-response,34,286989,0.0-13.0-0.1,46296,List1B,white,man,,,,null,,,,
null,"<img src=""stim_listB/fight7.gif""style=""height:400px;""></stim_listB>",,html-keyboard-response,35,288993,0.0-13.0-1.1,46296,List1B,white,man,,,,null,,,,
null,is fighting,,html-keyboard-response,36,290996,0.0-13.0-2.1,46296,List1B,white,man,,,,null,,,,
8539,,,survey-text,37,299536,0.0-13.0-3.1,46296,List1B,white,man,,,,,"{""Q0"":""kate is fighting ruth""}","<img src=""stim_listB/fight7.gif""style=""height:400px;""></stim_listB>",is fighting,
null,"<div style=""font-size:60px;"">+</div>",,html-keyboard-response,38,300038,0.0-13.0-0.2,46296,List1B,white,man,,,,null,,,,
null,"<img src=""stim_listB/flirt3.gif""style=""height:400px;""></stim_listB>",,html-keyboard-response,39,302040,0.0-13.0-1.2,46296,List1B,white,man,,,,null,,,,
null,is flirting with,,html-keyboard-response,40,304043,0.0-13.0-2.2,46296,List1B,white,man,,,,null,,,,
7730,,,survey-text,41,311776,0.0-13.0-3.2,46296,List1B,white,man,,,,,"{""Q0"":""dave is flirting with ruth""}","<img src=""stim_listB/flirt3.gif""style=""height:400px;""></stim_listB>",is flirting with,
null,"<div style=""font-size:60px;"">+</div>",,html-keyboard-response,42,312277,0.0-13.0-0.3,46296,List1B,white,man,,,,null,,,,
null,"<img src=""stim_listB/marry2.gif""style=""height:400px;""></stim_listB>",,html-keyboard-response,43,314282,0.0-13.0-1.3,46296,List1B,white,man,,,,null,,,,
null,are marrying each other,,html-keyboard-response,44,316284,0.0-13.0-2.3,46296,List1B,white,man,,,,null,,,,
12837,,,survey-text,45,329124,0.0-13.0-3.3,46296,List1B,white,man,,,,,"{""Q0"":""kate and fred are marrying eachother""}","<img src=""stim_listB/marry2.gif""style=""height:400px;""></stim_listB>",are marrying each other,
null,"<div style=""font-size:60px;"">+</div>",,html-keyboard-response,46,329626,0.0-13.0-0.4,46296,List1B,white,man,,,,null,,,,
null,"<img src=""stim_listB/flirt6.gif""style=""height:400px;""></stim_listB>",,html-keyboard-response,47,331629,0.0-13.0-1.4,46296,List1B,white,man,,,,null,,,,
null,are flirting with each other,,html-keyboard-response,48,333631,0.0-13.0-2.4,46296,List1B,white,man,,,,null,,,,
13365,,,survey-text,49,346996,0.0-13.0-3.4,46296,List1B,white,man,,,,,"{""Q0"":""dave and fred are marrying eachother""}","<img src=""stim_listB/flirt6.gif""style=""height:400px;""></stim_listB>",are flirting with each other,
null,"<div style=""font-size:60px;"">+</div>",,html-keyboard-response,50,347497,0.0-13.0-0.5,46296,List1B,white,man,,,,null,,,,
null,"<img src=""stim_listB/kiss2.gif""style=""height:400px;""></stim_listB>",,html-keyboard-response,51,349501,0.0-13.0-1.5,46296,List1B,white,man,,,,null,,,,
null,are kissing each other,,html-keyboard-response,52,351502,0.0-13.0-2.5,46296,List1B,white,man,,,,null,,,,
12369,,,survey-text,53,363872,0.0-13.0-3.5,46296,List1B,white,man,,,,,"{""Q0"":""kate and fred are kissing eachother""}","<img src=""stim_listB/kiss2.gif""style=""height:400px;""></stim_listB>",are kissing each other,
null,"<div style=""font-size:60px;"">+</div>",,html-keyboard-response,54,364375,0.0-13.0-0.6,46296,List1B,white,man,,,,null,,,,
null,"<img src=""stim_listB/kiss8.gif""style=""height:400px;""></stim_listB>",,html-keyboard-response,55,366376,0.0-13.0-1.6,46296,List1B,white,man,,,,null,,,,
null,are kissing each other,,html-keyboard-response,56,368379,0.0-13.0-2.6,46296,List1B,white,man,,,,null,,,,
9418,,,survey-text,57,377801,0.0-13.0-3.6,46296,List1B,white,man,,,,,"{""Q0"":""kate and ruth are kissing eachother""}","<img src=""stim_listB/kiss8.gif""style=""height:400px;""></stim_listB>",are kissing each other,
null,"<div style=""font-size:60px;"">+</div>",,html-keyboard-response,58,378302,0.0-13.0-0.7,46296,List1B,white,man,,,,null,,,,
null,"<img src=""stim_listB/fight6.gif""style=""height:400px;""></stim_listB>",,html-keyboard-response,59,380304,0.0-13.0-1.7,46296,List1B,white,man,,,,null,,,,
null,are fighting each other,,html-keyboard-response,60,382308,0.0-13.0-2.7,46296,List1B,white,man,,,,null,,,,
9590,,,survey-text,61,391899,0.0-13.0-3.7,46296,List1B,white,man,,,,,"{""Q0"":""dave and fred are fighting""}","<img src=""stim_listB/fight6.gif""style=""height:400px;""></stim_listB>",are fighting each other,
null,"<div style=""font-size:60px;"">+</div>",,html-keyboard-response,62,392400,0.0-13.0-0.8,46296,List1B,white,man,,,,null,,,,
null,"<img src=""stim_listB/play6.gif""style=""height:400px;""></stim_listB>",,html-keyboard-response,63,394401,0.0-13.0-1.8,46296,List1B,white,man,,,,null,,,,
null,are playing with each other,,html-keyboard-response,64,396401,0.0-13.0-2.8,46296,List1B,white,man,,,,null,,,,
9086,,,survey-text,65,405488,0.0-13.0-3.8,46296,List1B,white,man,,,,,"{""Q0"":""dave and fred are playing with eachother""}","<img src=""stim_listB/play6.gif""style=""height:400px;""></stim_listB>",are playing with each other,
null,"<div style=""font-size:60px;"">+</div>",,html-keyboard-response,66,405990,0.0-13.0-0.9,46296,List1B,white,man,,,,null,,,,
null,"<img src=""stim_listB/talk6.gif""style=""height:400px;""></stim_listB>",,html-keyboard-response,67,407994,0.0-13.0-1.9,46296,List1B,white,man,,,,null,,,,
null,are talking to each other,,html-keyboard-response,68,409996,0.0-13.0-2.9,46296,List1B,white,man,,,,null,,,,
13550,,,survey-text,69,423547,0.0-13.0-3.9,46296,List1B,white,man,,,,,"{""Q0"":""fred and mike are talking to eachother""}","<img src=""stim_listB/talk6.gif""style=""height:400px;""></stim_listB>",are talking to each other,
null,"<div style=""font-size:60px;"">+</div>",,html-keyboard-response,70,424050,0.0-13.0-0.10,46296,List1B,white,man,,,,null,,,,
null,"<img src=""stim_listB/dance3.gif""style=""height:400px;""></stim_listB>",,html-keyboard-response,71,426050,0.0-13.0-1.10,46296,List1B,white,man,,,,null,,,,
null,is dancing with,,html-keyboard-response,72,428051,0.0-13.0-2.10,46296,List1B,white,man,,,,null,,,,
11683,,,survey-text,73,439735,0.0-13.0-3.10,46296,List1B,white,man,,,,,"{""Q0"":""ruth is dancing with dave""}","<img src=""stim_listB/dance3.gif""style=""height:400px;""></stim_listB>",is dancing with,
null,"<div style=""font-size:60px;"">+</div>",,html-keyboard-response,74,440237,0.0-13.0-0.11,46296,List1B,white,man,,,,null,,,,
null,"<img src=""stim_listB/talk7.gif""style=""height:400px;""></stim_listB>",,html-keyboard-response,75,442239,0.0-13.0-1.11,46296,List1B,white,man,,,,null,,,,
null,is talking to,,html-keyboard-response,76,444241,0.0-13.0-2.11,46296,List1B,white,man,,,,null,,,,
6301,,,survey-text,77,450543,0.0-13.0-3.11,46296,List1B,white,man,,,,,"{""Q0"":""ruth is talking to beth""}","<img src=""stim_listB/talk7.gif""style=""height:400px;""></stim_listB>",is talking to,
null,"<div style=""font-size:60px;"">+</div>",,html-keyboard-response,78,451045,0.0-13.0-0.12,46296,List1B,white,man,,,,null,,,,
null,"<img src=""stim_listB/argue8.gif""style=""height:400px;""></stim_listB>",,html-keyboard-response,79,453046,0.0-13.0-1.12,46296,List1B,white,man,,,,null,,,,
null,are arguing with each other,,html-keyboard-response,80,455048,0.0-13.0-2.12,46296,List1B,white,man,,,,null,,,,
10050,,,survey-text,81,465100,0.0-13.0-3.12,46296,List1B,white,man,,,,,"{""Q0"":""beth and ruth are arguing with eachother""}","<img src=""stim_listB/argue8.gif""style=""height:400px;""></stim_listB>",are arguing with each other,
null,"<div style=""font-size:60px;"">+</div>",,html-keyboard-response,82,465601,0.0-13.0-0.13,46296,List1B,white,man,,,,null,,,,
null,"<img src=""stim_listB/fight3.gif""style=""height:400px;""></stim_listB>",,html-keyboard-response,83,467607,0.0-13.0-1.13,46296,List1B,white,man,,,,null,,,,
null,is fighting,,html-keyboard-response,84,469611,0.0-13.0-2.13,46296,List1B,white,man,,,,null,,,,
6422,,,survey-text,85,476036,0.0-13.0-3.13,46296,List1B,white,man,,,,,"{""Q0"":""dave is fighting ruth""}","<img src=""stim_listB/fight3.gif""style=""height:400px;""></stim_listB>",is fighting,
null,"<div style=""font-size:60px;"">+</div>",,html-keyboard-response,86,476538,0.0-13.0-0.14,46296,List1B,white,man,,,,null,,,,
null,"<img src=""stim_listB/flirt5.gif""style=""height:400px;""></stim_listB>",,html-keyboard-response,87,478542,0.0-13.0-1.14,46296,List1B,white,man,,,,null,,,,
null,is flirting with,,html-keyboard-response,88,480543,0.0-13.0-2.14,46296,List1B,white,man,,,,null,,,,
6236,,,survey-text,89,486781,0.0-13.0-3.14,46296,List1B,white,man,,,,,"{""Q0"":""dave is flirting with fred""}","<img src=""stim_listB/flirt5.gif""style=""height:400px;""></stim_listB>",is flirting with,
null,"<div style=""font-size:60px;"">+</div>",,html-keyboard-response,90,487283,0.0-13.0-0.15,46296,List1B,white,man,,,,null,,,,
null,"<img src=""stim_listB/kiss5.gif""style=""height:400px;""></stim_listB>",,html-keyboard-response,91,489285,0.0-13.0-1.15,46296,List1B,white,man,,,,null,,,,
null,is kissing,,html-keyboard-response,92,491288,0.0-13.0-2.15,46296,List1B,white,man,,,,null,,,,
6346,,,survey-text,93,497636,0.0-13.0-3.15,46296,List1B,white,man,,,,,"{""Q0"":""fred is kissing dave""}","<img src=""stim_listB/kiss5.gif""style=""height:400px;""></stim_listB>",is kissing,
null,"<div style=""font-size:60px;"">+</div>",,html-keyboard-response,94,498136,0.0-13.0-0.16,46296,List1B,white,man,,,,null,,,,
null,"<img src=""stim_listB/marry5.gif""style=""height:400px;""></stim_listB>",,html-keyboard-response,95,500139,0.0-13.0-1.16,46296,List1B,white,man,,,,null,,,,
null,is marrying,,html-keyboard-response,96,502140,0.0-13.0-2.16,46296,List1B,white,man,,,,null,,,,
8542,,,survey-text,97,510683,0.0-13.0-3.16,46296,List1B,white,man,,,,,"{""Q0"":""dave is marrying mike""}","<img src=""stim_listB/marry5.gif""style=""height:400px;""></stim_listB>",is marrying,
null,"<div style=""font-size:60px;"">+</div>",,html-keyboard-response,98,511184,0.0-13.0-0.17,46296,List1B,white,man,,,,null,,,,
null,"<img src=""stim_listB/flirt7.gif""style=""height:400px;""></stim_listB>",,html-keyboard-response,99,513186,0.0-13.0-1.17,46296,List1B,white,man,,,,null,,,,
null,is flirting with,,html-keyboard-response,100,515186,0.0-13.0-2.17,46296,List1B,white,man,,,,null,,,,
10497,,,survey-text,101,525684,0.0-13.0-3.17,46296,List1B,white,man,,,,,"{""Q0"":""ruth is flirting with beth""}","<img src=""stim_listB/flirt7.gif""style=""height:400px;""></stim_listB>",is flirting with,
null,"<div style=""font-size:60px;"">+</div>",,html-keyboard-response,102,526186,0.0-13.0-0.18,46296,List1B,white,man,,,,null,,,,
null,"<img src=""stim_listB/shout6.gif""style=""height:400px;""></stim_listB>",,html-keyboard-response,103,528188,0.0-13.0-1.18,46296,List1B,white,man,,,,null,,,,
null,are shouting at each other,,html-keyboard-response,104,530192,0.0-13.0-2.18,46296,List1B,white,man,,,,null,,,,
9681,,,survey-text,105,539875,0.0-13.0-3.18,46296,List1B,white,man,,,,,"{""Q0"":""mike and dave are shouting at eachother""}","<img src=""stim_listB/shout6.gif""style=""height:400px;""></stim_listB>",are shouting at each other,
null,"<div style=""font-size:60px;"">+</div>",,html-keyboard-response,106,540377,0.0-13.0-0.19,46296,List1B,white,man,,,,null,,,,
null,"<img src=""stim_listB/argue3.gif""style=""height:400px;""></stim_listB>",,html-keyboard-response,107,542380,0.0-13.0-1.19,46296,List1B,white,man,,,,null,,,,
null,is arguing with,,html-keyboard-response,108,544381,0.0-13.0-2.19,46296,List1B,white,man,,,,null,,,,
27296,,,survey-text,109,571680,0.0-13.0-3.19,46296,List1B,white,man,,,,,"{""Q0"":""dave is arguing with belinda""}","<img src=""stim_listB/argue3.gif""style=""height:400px;""></stim_listB>",is arguing with,
110566,"<img src='img/portrait_matrix_list1.jpg' style='width:900px;height:500px;''></img><p>If you have memorised all the portraits and names and are ready to start, press Continue.</p><p><strong>Please note: Your memory of these faces will be tested 4 times during this experiment.</strong></p>",0,html-button-response,110,682248,0.0-14.0-0.0,46296,List1B,white,man,,,,,,,,
5330,"<img src=""portrait/BW1.jpg""style=""height:400px;""></img>",0,html-button-response,111,688584,0.0-14.0-1.0,46296,List1B,white,man,,TRUE,0,,,,,
null,CORRECT,,html-keyboard-response,112,690089,0.0-14.0-2.0-0.0,46296,List1B,white,man,,,,null,,,,
1866,"<img src=""portrait/BW2.jpg""style=""height:400px;""></img>",2,html-button-response,113,691960,0.0-14.0-4.0,46296,List1B,white,man,,TRUE,2,,,,,
null,CORRECT,,html-keyboard-response,114,693462,0.0-14.0-5.0-0.0,46296,List1B,white,man,,,,null,,,,
2182,"<img src=""portrait/BM2.jpg""style=""height:400px;""></img>",7,html-button-response,115,695648,0.0-14.0-7.0,46296,List1B,white,man,,TRUE,5,,,,,
4053,"<img src=""portrait/BM2.jpg""style=""height:400px;""></img>",5,html-button-response,116,700703,0.0-14.0-9.0-0.0,46296,List1B,white,man,,FALSE,5,,,,,
null,CORRECT,,html-keyboard-response,117,702206,0.0-14.0-9.0-1.0-0.0,46296,List1B,white,man,,,,null,,,,
11676,"<img src=""portrait/BM1.jpg""style=""height:400px;""></img>",6,html-button-response,118,713884,0.0-14.0-10.0,46296,List1B,white,man,,TRUE,4,,,,,
4134,"<img src=""portrait/BM1.jpg""style=""height:400px;""></img>",4,html-button-response,119,719023,0.0-14.0-12.0-0.0,46296,List1B,white,man,,FALSE,4,,,,,
null,CORRECT,,html-keyboard-response,120,720528,0.0-14.0-12.0-1.0-0.0,46296,List1B,white,man,,,,null,,,,
1718,"<img src=""portrait/WM1.jpg""style=""height:400px;""></img>",6,html-button-response,121,722248,0.0-14.0-13.0,46296,List1B,white,man,,TRUE,6,,,,,
null,CORRECT,,html-keyboard-response,122,723750,0.0-14.0-14.0-0.0,46296,List1B,white,man,,,,null,,,,
1872,"<img src=""portrait/WW1.jpg""style=""height:400px;""></img>",1,html-button-response,123,725623,0.0-14.0-16.0,46296,List1B,white,man,,TRUE,1,,,,,
null,CORRECT,,html-keyboard-response,124,727126,0.0-14.0-17.0-0.0,46296,List1B,white,man,,,,null,,,,
1384,"<img src=""portrait/WW2.jpg""style=""height:400px;""></img>",3,html-button-response,125,728511,0.0-14.0-19.0,46296,List1B,white,man,,TRUE,3,,,,,
null,CORRECT,,html-keyboard-response,126,730015,0.0-14.0-20.0-0.0,46296,List1B,white,man,,,,null,,,,
1400,"<img src=""portrait/WM2.jpg""style=""height:400px;""></img>",7,html-button-response,127,731415,0.0-14.0-22.0,46296,List1B,white,man,,TRUE,7,,,,,
null,CORRECT,,html-keyboard-response,128,732919,0.0-14.0-23.0-0.0,46296,List1B,white,man,,,,null,,,,
1031,<p>You got 6 out of 8 right first time. Press Continue.</p>,0,html-button-response,129,733951,0.0-14.0-25.0,46296,List1B,white,man,,,,,,,,
2947,"As you did not score 100%, the memory game will repeat. Press Continue.",0,html-button-response,130,737903,0.0-14.0-26.0-0.0,46296,List1B,white,man,,,,,,,,
3021,"<img src='img/portrait_matrix_list1.jpg' style='width:900px;height:500px;''></img><p>If you have memorised all the portraits and names and are ready to start, press Continue.</p><p><strong>Please note: Your memory of these faces will be tested 4 times during this experiment.</strong></p>",0,html-button-response,131,741927,0.0-14.1-0.1,46296,List1B,white,man,,,,,,,,
2245,"<img src=""portrait/BW1.jpg""style=""height:400px;""></img>",0,html-button-response,132,745175,0.0-14.1-1.1,46296,List1B,white,man,,TRUE,0,,,,,
null,CORRECT,,html-keyboard-response,133,746678,0.0-14.1-2.1-0.1,46296,List1B,white,man,,,,null,,,,
1832,"<img src=""portrait/BW2.jpg""style=""height:400px;""></img>",2,html-button-response,134,748511,0.0-14.1-4.1,46296,List1B,white,man,,TRUE,2,,,,,
null,CORRECT,,html-keyboard-response,135,750014,0.0-14.1-5.1-0.1,46296,List1B,white,man,,,,null,,,,
5800,"<img src=""portrait/BM2.jpg""style=""height:400px;""></img>",5,html-button-response,136,755816,0.0-14.1-7.1,46296,List1B,white,man,,TRUE,5,,,,,
null,CORRECT,,html-keyboard-response,137,757317,0.0-14.1-8.1-0.1,46296,List1B,white,man,,,,null,,,,
3441,"<img src=""portrait/BM1.jpg""style=""height:400px;""></img>",4,html-button-response,138,760760,0.0-14.1-10.1,46296,List1B,white,man,,TRUE,4,,,,,
null,CORRECT,,html-keyboard-response,139,762265,0.0-14.1-11.1-0.1,46296,List1B,white,man,,,,null,,,,
3540,"<img src=""portrait/WM1.jpg""style=""height:400px;""></img>",6,html-button-response,140,765807,0.0-14.1-13.1,46296,List1B,white,man,,TRUE,6,,,,,
null,CORRECT,,html-keyboard-response,141,767310,0.0-14.1-14.1-0.1,46296,List1B,white,man,,,,null,,,,
1976,"<img src=""portrait/WW1.jpg""style=""height:400px;""></img>",1,html-button-response,142,769287,0.0-14.1-16.1,46296,List1B,white,man,,TRUE,1,,,,,
null,CORRECT,,html-keyboard-response,143,770791,0.0-14.1-17.1-0.1,46296,List1B,white,man,,,,null,,,,
1550,"<img src=""portrait/WW2.jpg""style=""height:400px;""></img>",3,html-button-response,144,772344,0.0-14.1-19.1,46296,List1B,white,man,,TRUE,3,,,,,
null,CORRECT,,html-keyboard-response,145,773848,0.0-14.1-20.1-0.1,46296,List1B,white,man,,,,null,,,,
1743,"<img src=""portrait/WM2.jpg""style=""height:400px;""></img>",7,html-button-response,146,775591,0.0-14.1-22.1,46296,List1B,white,man,,TRUE,7,,,,,
null,CORRECT,,html-keyboard-response,147,777094,0.0-14.1-23.1-0.1,46296,List1B,white,man,,,,null,,,,
968,<p>You got 8 out of 8 right first time. Press Continue.</p>,0,html-button-response,148,778063,0.0-14.1-25.1,46296,List1B,white,man,,,,,,,,
null,"<div style=""font-size:60px;"">+</div>",,html-keyboard-response,149,779569,0.0-15.0-0.0,46296,List1B,white,man,,,,null,,,,
null,"<img src=""stim_listB/shout3.gif""style=""height:400px;""></stim_listB>",,html-keyboard-response,150,781575,0.0-15.0-1.0,46296,List1B,white,man,,,,null,,,,
null,is shouting at,,html-keyboard-response,151,783580,0.0-15.0-2.0,46296,List1B,white,man,,,,null,,,,
7039,,,survey-text,152,790623,0.0-15.0-3.0,46296,List1B,white,man,,,,,"{""Q0"":""luke is shouting at ruth""}","<img src=""stim_listB/shout3.gif""style=""height:400px;""></stim_listB>",is shouting at,
null,"<div style=""font-size:60px;"">+</div>",,html-keyboard-response,153,791125,0.0-15.0-0.1,46296,List1B,white,man,,,,null,,,,
null,"<img src=""stim_listB/touch7.gif""style=""height:400px;""></stim_listB>",,html-keyboard-response,154,793129,0.0-15.0-1.1,46296,List1B,white,man,,,,null,,,,
null,is touching,,html-keyboard-response,155,795131,0.0-15.0-2.1,46296,List1B,white,man,,,,null,,,,
21748,,,survey-text,156,816880,0.0-15.0-3.1,46296,List1B,white,man,,,,,"{""Q0"":""kate is flirting with jane""}","<img src=""stim_listB/touch7.gif""style=""height:400px;""></stim_listB>",is touching,
null,"<div style=""font-size:60px;"">+</div>",,html-keyboard-response,157,817381,0.0-15.0-0.2,46296,List1B,white,man,,,,null,,,,
null,"<img src=""stim_listB/dance2.gif""style=""height:400px;""></stim_listB>",,html-keyboard-response,158,819382,0.0-15.0-1.2,46296,List1B,white,man,,,,null,,,,
null,are dancing with each other,,html-keyboard-response,159,821385,0.0-15.0-2.2,46296,List1B,white,man,,,,null,,,,
9520,,,survey-text,160,830908,0.0-15.0-3.2,46296,List1B,white,man,,,,,"{""Q0"":""mike and beth are dancing with eachother""}","<img src=""stim_listB/dance2.gif""style=""height:400px;""></stim_listB>",are dancing with each other,
null,"<div style=""font-size:60px;"">+</div>",,html-keyboard-response,161,831410,0.0-15.0-0.3,46296,List1B,white,man,,,,null,,,,
null,"<img src=""stim_listB/argue4.gif""style=""height:400px;""></stim_listB>",,html-keyboard-response,162,833415,0.0-15.0-1.3,46296,List1B,white,man,,,,null,,,,
null,are arguing with each other,,html-keyboard-response,163,835418,0.0-15.0-2.3,46296,List1B,white,man,,,,null,,,,
9480,,,survey-text,164,844900,0.0-15.0-3.3,46296,List1B,white,man,,,,,"{""Q0"":""luke and jane are arguing with eachother""}","<img src=""stim_listB/argue4.gif""style=""height:400px;""></stim_listB>",are arguing with each other,
null,"<div style=""font-size:60px;"">+</div>",,html-keyboard-response,165,845401,0.0-15.0-0.4,46296,List1B,white,man,,,,null,,,,
null,"<img src=""stim_listB/play2.gif""style=""height:400px;""></stim_listB>",,html-keyboard-response,166,847407,0.0-15.0-1.4,46296,List1B,white,man,,,,null,,,,
null,are playing with each other,,html-keyboard-response,167,849412,0.0-15.0-2.4,46296,List1B,white,man,,,,null,,,,
8954,,,survey-text,168,858371,0.0-15.0-3.4,46296,List1B,white,man,,,,,"{""Q0"":""fred and beth are playing with each other""}","<img src=""stim_listB/play2.gif""style=""height:400px;""></stim_listB>",are playing with each other,
null,"<div style=""font-size:60px;"">+</div>",,html-keyboard-response,169,858873,0.0-15.0-0.5,46296,List1B,white,man,,,,null,,,,
null,"<img src=""stim_listB/shout1.gif""style=""height:400px;""></stim_listB>",,html-keyboard-response,170,860876,0.0-15.0-1.5,46296,List1B,white,man,,,,null,,,,
null,is shouting at,,html-keyboard-response,171,862878,0.0-15.0-2.5,46296,List1B,white,man,,,,null,,,,
8051,,,survey-text,172,870931,0.0-15.0-3.5,46296,List1B,white,man,,,,,"{""Q0"":""beth is shouting at fred""}","<img src=""stim_listB/shout1.gif""style=""height:400px;""></stim_listB>",is shouting at,
null,"<div style=""font-size:60px;"">+</div>",,html-keyboard-response,173,871434,0.0-15.0-0.6,46296,List1B,white,man,,,,null,,,,
null,"<img src=""stim_listB/talk1.gif""style=""height:400px;""></stim_listB>",,html-keyboard-response,174,873434,0.0-15.0-1.6,46296,List1B,white,man,,,,null,,,,
null,is talking to,,html-keyboard-response,175,875436,0.0-15.0-2.6,46296,List1B,white,man,,,,null,,,,
7143,,,survey-text,176,882579,0.0-15.0-3.6,46296,List1B,white,man,,,,,"{""Q0"":""kate is talking to fred""}","<img src=""stim_listB/talk1.gif""style=""height:400px;""></stim_listB>",is talking to,
null,"<div style=""font-size:60px;"">+</div>",,html-keyboard-response,177,883080,0.0-15.0-0.7,46296,List1B,white,man,,,,null,,,,
null,"<img src=""stim_listB/dance4.gif""style=""height:400px;""></stim_listB>",,html-keyboard-response,178,885082,0.0-15.0-1.7,46296,List1B,white,man,,,,null,,,,
null,are dancing with each other,,html-keyboard-response,179,887084,0.0-15.0-2.7,46296,List1B,white,man,,,,null,,,,
10070,,,survey-text,180,897155,0.0-15.0-3.7,46296,List1B,white,man,,,,,"{""Q0"":""dave and ruth are dancing with each other""}","<img src=""stim_listB/dance4.gif""style=""height:400px;""></stim_listB>",are dancing with each other,
null,"<div style=""font-size:60px;"">+</div>",,html-keyboard-response,181,897657,0.0-15.0-0.8,46296,List1B,white,man,,,,null,,,,
null,"<img src=""stim_listB/play7.gif""style=""height:400px;""></stim_listB>",,html-keyboard-response,182,899659,0.0-15.0-1.8,46296,List1B,white,man,,,,null,,,,
null,is playing with,,html-keyboard-response,183,901661,0.0-15.0-2.8,46296,List1B,white,man,,,,null,,,,
6174,,,survey-text,184,907836,0.0-15.0-3.8,46296,List1B,white,man,,,,,"{""Q0"":""kate is playing with jane""}","<img src=""stim_listB/play7.gif""style=""height:400px;""></stim_listB>",is playing with,
null,"<div style=""font-size:60px;"">+</div>",,html-keyboard-response,185,908337,0.0-15.0-0.9,46296,List1B,white,man,,,,null,,,,
null,"<img src=""stim_listB/talk3.gif""style=""height:400px;""></stim_listB>",,html-keyboard-response,186,910342,0.0-15.0-1.9,46296,List1B,white,man,,,,null,,,,
null,is talking to,,html-keyboard-response,187,912346,0.0-15.0-2.9,46296,List1B,white,man,,,,null,,,,
6271,,,survey-text,188,918620,0.0-15.0-3.9,46296,List1B,white,man,,,,,"{""Q0"":""jane is talking to luke""}","<img src=""stim_listB/talk3.gif""style=""height:400px;""></stim_listB>",is talking to,
null,"<div style=""font-size:60px;"">+</div>",,html-keyboard-response,189,919121,0.0-15.0-0.10,46296,List1B,white,man,,,,null,,,,
null,"<img src=""stim_listB/dance7.gif""style=""height:400px;""></stim_listB>",,html-keyboard-response,190,921123,0.0-15.0-1.10,46296,List1B,white,man,,,,null,,,,
null,is dancing with,,html-keyboard-response,191,923124,0.0-15.0-2.10,46296,List1B,white,man,,,,null,,,,
7102,,,survey-text,192,930228,0.0-15.0-3.10,46296,List1B,white,man,,,,,"{""Q0"":""beth is dancing with jane""}","<img src=""stim_listB/dance7.gif""style=""height:400px;""></stim_listB>",is dancing with,
null,"<div style=""font-size:60px;"">+</div>",,html-keyboard-response,193,930728,0.0-15.0-0.11,46296,List1B,white,man,,,,null,,,,
null,"<img src=""stim_listB/flirt2.gif""style=""height:400px;""></stim_listB>",,html-keyboard-response,194,932730,0.0-15.0-1.11,46296,List1B,white,man,,,,null,,,,
null,are flirting with each other,,html-keyboard-response,195,934731,0.0-15.0-2.11,46296,List1B,white,man,,,,null,,,,
9846,,,survey-text,196,944580,0.0-15.0-3.11,46296,List1B,white,man,,,,,"{""Q0"":""mike and beth are flirting with each other""}","<img src=""stim_listB/flirt2.gif""style=""height:400px;""></stim_listB>",are flirting with each other,
null,"<div style=""font-size:60px;"">+</div>",,html-keyboard-response,197,945081,0.0-15.0-0.12,46296,List1B,white,man,,,,null,,,,
null,"<img src=""stim_listB/marry3.gif""style=""height:400px;""></stim_listB>",,html-keyboard-response,198,947084,0.0-15.0-1.12,46296,List1B,white,man,,,,null,,,,
null,is marrying,,html-keyboard-response,199,949084,0.0-15.0-2.12,46296,List1B,white,man,,,,null,,,,
6399,,,survey-text,200,955483,0.0-15.0-3.12,46296,List1B,white,man,,,,,"{""Q0"":""ruth is marrying dave""}","<img src=""stim_listB/marry3.gif""style=""height:400px;""></stim_listB>",is marrying,
null,"<div style=""font-size:60px;"">+</div>",,html-keyboard-response,201,955985,0.0-15.0-0.13,46296,List1B,white,man,,,,null,,,,
null,"<img src=""stim_listB/touch6.gif""style=""height:400px;""></stim_listB>",,html-keyboard-response,202,957987,0.0-15.0-1.13,46296,List1B,white,man,,,,null,,,,
null,are touching each other,,html-keyboard-response,203,959988,0.0-15.0-2.13,46296,List1B,white,man,,,,null,,,,
8805,,,survey-text,204,968796,0.0-15.0-3.13,46296,List1B,white,man,,,,,"{""Q0"":""fred and luke are touching each other""}","<img src=""stim_listB/touch6.gif""style=""height:400px;""></stim_listB>",are touching each other,
null,"<div style=""font-size:60px;"">+</div>",,html-keyboard-response,205,969296,0.0-15.0-0.14,46296,List1B,white,man,,,,null,,,,
null,"<img src=""stim_listB/marry6.gif""style=""height:400px;""></stim_listB>",,html-keyboard-response,206,971297,0.0-15.0-1.14,46296,List1B,white,man,,,,null,,,,
null,are marrying each other,,html-keyboard-response,207,973299,0.0-15.0-2.14,46296,List1B,white,man,,,,null,,,,
12439,,,survey-text,208,985739,0.0-15.0-3.14,46296,List1B,white,man,,,,,"{""Q0"":""fred and dave are marrying each other""}","<img src=""stim_listB/marry6.gif""style=""height:400px;""></stim_listB>",are marrying each other,
null,"<div style=""font-size:60px;"">+</div>",,html-keyboard-response,209,986241,0.0-15.0-0.15,46296,List1B,white,man,,,,null,,,,
null,"<img src=""stim_listB/talk8.gif""style=""height:400px;""></stim_listB>",,html-keyboard-response,210,988241,0.0-15.0-1.15,46296,List1B,white,man,,,,null,,,,
null,are talking to each other,,html-keyboard-response,211,990243,0.0-15.0-2.15,46296,List1B,white,man,,,,null,,,,
8603,,,survey-text,212,998847,0.0-15.0-3.15,46296,List1B,white,man,,,,,"{""Q0"":""kate and ruth are talking to each other""}","<img src=""stim_listB/talk8.gif""style=""height:400px;""></stim_listB>",are talking to each other,
null,"<div style=""font-size:60px;"">+</div>",,html-keyboard-response,213,999349,0.0-15.0-0.16,46296,List1B,white,man,,,,null,,,,
null,"<img src=""stim_listB/fight8.gif""style=""height:400px;""></stim_listB>",,html-keyboard-response,214,1001351,0.0-15.0-1.16,46296,List1B,white,man,,,,null,,,,
null,are fighting each other,,html-keyboard-response,215,1003353,0.0-15.0-2.16,46296,List1B,white,man,,,,null,,,,
8198,,,survey-text,216,1011551,0.0-15.0-3.16,46296,List1B,white,man,,,,,"{""Q0"":""beth and ruth are fighting each other""}","<img src=""stim_listB/fight8.gif""style=""height:400px;""></stim_listB>",are fighting each other,
null,"<div style=""font-size:60px;"">+</div>",,html-keyboard-response,217,1012053,0.0-15.0-0.17,46296,List1B,white,man,,,,null,,,,
null,"<img src=""stim_listB/argue6.gif""style=""height:400px;""></stim_listB>",,html-keyboard-response,218,1014053,0.0-15.0-1.17,46296,List1B,white,man,,,,null,,,,
null,are arguing with each other,,html-keyboard-response,219,1016056,0.0-15.0-2.17,46296,List1B,white,man,,,,null,,,,
9701,,,survey-text,220,1025764,0.0-15.0-3.17,46296,List1B,white,man,,,,,"{""Q0"":""fred and dave are arguing with each other""}","<img src=""stim_listB/argue6.gif""style=""height:400px;""></stim_listB>",are arguing with each other,
null,"<div style=""font-size:60px;"">+</div>",,html-keyboard-response,221,1026264,0.0-15.0-0.18,46296,List1B,white,man,,,,null,,,,
null,"<img src=""stim_listB/play3.gif""style=""height:400px;""></stim_listB>",,html-keyboard-response,222,1028268,0.0-15.0-1.18,46296,List1B,white,man,,,,null,,,,
null,is playing with,,html-keyboard-response,223,1030269,0.0-15.0-2.18,46296,List1B,white,man,,,,null,,,,
6103,,,survey-text,224,1036375,0.0-15.0-3.18,46296,List1B,white,man,,,,,"{""Q0"":""jane is playing with dave""}","<img src=""stim_listB/play3.gif""style=""height:400px;""></stim_listB>",is playing with,
null,"<div style=""font-size:60px;"">+</div>",,html-keyboard-response,225,1036876,0.0-15.0-0.19,46296,List1B,white,man,,,,null,,,,
null,"<img src=""stim_listB/touch8.gif""style=""height:400px;""></stim_listB>",,html-keyboard-response,226,1038877,0.0-15.0-1.19,46296,List1B,white,man,,,,null,,,,
null,are touching each other,,html-keyboard-response,227,1040879,0.0-15.0-2.19,46296,List1B,white,man,,,,null,,,,
8879,,,survey-text,228,1049759,0.0-15.0-3.19,46296,List1B,white,man,,,,,"{""Q0"":""beth and ruth are touching each other""}","<img src=""stim_listB/touch8.gif""style=""height:400px;""></stim_listB>",are touching each other,
2862,"<img src='img/portrait_matrix_list1.jpg' style='width:900px;height:500px;''></img><p>If you have memorised all the portraits and names and are ready to start, press Continue.</p><p><strong>Please note: Your memory of these faces will be tested 4 times during this experiment.</strong></p>",0,html-button-response,229,1052623,0.0-16.0-0.0,46296,List1B,white,man,,,,,,,,
1884,"<img src=""portrait/BW1.jpg""style=""height:400px;""></img>",0,html-button-response,230,1055511,0.0-16.0-1.0,46296,List1B,white,man,,TRUE,0,,,,,
null,CORRECT,,html-keyboard-response,231,1057016,0.0-16.0-2.0-0.0,46296,List1B,white,man,,,,null,,,,
1138,"<img src=""portrait/WW2.jpg""style=""height:400px;""></img>",3,html-button-response,232,1058159,0.0-16.0-4.0,46296,List1B,white,man,,TRUE,3,,,,,
null,CORRECT,,html-keyboard-response,233,1059664,0.0-16.0-5.0-0.0,46296,List1B,white,man,,,,null,,,,
1630,"<img src=""portrait/BM1.jpg""style=""height:400px;""></img>",4,html-button-response,234,1061296,0.0-16.0-7.0,46296,List1B,white,man,,TRUE,4,,,,,
null,CORRECT,,html-keyboard-response,235,1062799,0.0-16.0-8.0-0.0,46296,List1B,white,man,,,,null,,,,
1558,"<img src=""portrait/WW1.jpg""style=""height:400px;""></img>",1,html-button-response,236,1064359,0.0-16.0-10.0,46296,List1B,white,man,,TRUE,1,,,,,
null,CORRECT,,html-keyboard-response,237,1065862,0.0-16.0-11.0-0.0,46296,List1B,white,man,,,,null,,,,
2031,"<img src=""portrait/BW2.jpg""style=""height:400px;""></img>",2,html-button-response,238,1067896,0.0-16.0-13.0,46296,List1B,white,man,,TRUE,2,,,,,
null,CORRECT,,html-keyboard-response,239,1069400,0.0-16.0-14.0-0.0,46296,List1B,white,man,,,,null,,,,
1693,"<img src=""portrait/WM1.jpg""style=""height:400px;""></img>",6,html-button-response,240,1071095,0.0-16.0-16.0,46296,List1B,white,man,,TRUE,6,,,,,
null,CORRECT,,html-keyboard-response,241,1072599,0.0-16.0-17.0-0.0,46296,List1B,white,man,,,,null,,,,
1471,"<img src=""portrait/BM2.jpg""style=""height:400px;""></img>",5,html-button-response,242,1074071,0.0-16.0-19.0,46296,List1B,white,man,,TRUE,5,,,,,
null,CORRECT,,html-keyboard-response,243,1075574,0.0-16.0-20.0-0.0,46296,List1B,white,man,,,,null,,,,
1352,"<img src=""portrait/WM2.jpg""style=""height:400px;""></img>",7,html-button-response,244,1076928,0.0-16.0-22.0,46296,List1B,white,man,,TRUE,7,,,,,
null,CORRECT,,html-keyboard-response,245,1078432,0.0-16.0-23.0-0.0,46296,List1B,white,man,,,,null,,,,
951,<p>You got 8 out of 8 right first time. Press Continue.</p>,0,html-button-response,246,1079392,0.0-16.0-25.0,46296,List1B,white,man,,,,,,,,
null,"<div style=""font-size:60px;"">+</div>",,html-keyboard-response,247,1080902,0.0-17.0-0.0,46296,List1B,white,man,,,,null,,,,
null,"<img src=""stim_listB/play1.gif""style=""height:400px;""></stim_listB>",,html-keyboard-response,248,1082908,0.0-17.0-1.0,46296,List1B,white,man,,,,null,,,,
null,is playing with,,html-keyboard-response,249,1084909,0.0-17.0-2.0,46296,List1B,white,man,,,,null,,,,
9684,,,survey-text,250,1094595,0.0-17.0-3.0,46296,List1B,white,man,,,,,"{""Q0"":""kate is playing with mike""}","<img src=""stim_listB/play1.gif""style=""height:400px;""></stim_listB>",is playing with,
null,"<div style=""font-size:60px;"">+</div>",,html-keyboard-response,251,1095096,0.0-17.0-0.1,46296,List1B,white,man,,,,null,,,,
null,"<img src=""stim_listB/touch3.gif""style=""height:400px;""></stim_listB>",,html-keyboard-response,252,1097099,0.0-17.0-1.1,46296,List1B,white,man,,,,null,,,,
null,is touching,,html-keyboard-response,253,1099100,0.0-17.0-2.1,46296,List1B,white,man,,,,null,,,,
8009,,,survey-text,254,1107111,0.0-17.0-3.1,46296,List1B,white,man,,,,,"{""Q0"":""dave is touching jane""}","<img src=""stim_listB/touch3.gif""style=""height:400px;""></stim_listB>",is touching,
null,"<div style=""font-size:60px;"">+</div>",,html-keyboard-response,255,1107612,0.0-17.0-0.2,46296,List1B,white,man,,,,null,,,,
null,"<img src=""stim_listB/shout8.gif""style=""height:400px;""></stim_listB>",,html-keyboard-response,256,1109615,0.0-17.0-1.2,46296,List1B,white,man,,,,null,,,,
null,are shouting at each other,,html-keyboard-response,257,1111616,0.0-17.0-2.2,46296,List1B,white,man,,,,null,,,,
9007,,,survey-text,258,1120624,0.0-17.0-3.2,46296,List1B,white,man,,,,,"{""Q0"":""kate and jane are shouting at each other""}","<img src=""stim_listB/shout8.gif""style=""height:400px;""></stim_listB>",are shouting at each other,
null,"<div style=""font-size:60px;"">+</div>",,html-keyboard-response,259,1121125,0.0-17.0-0.3,46296,List1B,white,man,,,,null,,,,
null,"<img src=""stim_listB/argue5.gif""style=""height:400px;""></stim_listB>",,html-keyboard-response,260,1123128,0.0-17.0-1.3,46296,List1B,white,man,,,,null,,,,
null,is arguing with,,html-keyboard-response,261,1125129,0.0-17.0-2.3,46296,List1B,white,man,,,,null,,,,
8717,,,survey-text,262,1133847,0.0-17.0-3.3,46296,List1B,white,man,,,,,"{""Q0"":""luke is arguing with mike""}","<img src=""stim_listB/argue5.gif""style=""height:400px;""></stim_listB>",is arguing with,
null,"<div style=""font-size:60px;"">+</div>",,html-keyboard-response,263,1134349,0.0-17.0-0.4,46296,List1B,white,man,,,,null,,,,
null,"<img src=""stim_listB/marry8.gif""style=""height:400px;""></stim_listB>",,html-keyboard-response,264,1136349,0.0-17.0-1.4,46296,List1B,white,man,,,,null,,,,
null,are marrying each other,,html-keyboard-response,265,1138352,0.0-17.0-2.4,46296,List1B,white,man,,,,null,,,,
8127,,,survey-text,266,1146479,0.0-17.0-3.4,46296,List1B,white,man,,,,,"{""Q0"":""beth and jane are marrying each other""}","<img src=""stim_listB/marry8.gif""style=""height:400px;""></stim_listB>",are marrying each other,
null,"<div style=""font-size:60px;"">+</div>",,html-keyboard-response,267,1146984,0.0-17.0-0.5,46296,List1B,white,man,,,,null,,,,
null,"<img src=""stim_listB/marry1.gif""style=""height:400px;""></stim_listB>",,html-keyboard-response,268,1148989,0.0-17.0-1.5,46296,List1B,white,man,,,,null,,,,
null,is marrying,,html-keyboard-response,269,1150991,0.0-17.0-2.5,46296,List1B,white,man,,,,null,,,,
6318,,,survey-text,270,1157312,0.0-17.0-3.5,46296,List1B,white,man,,,,,"{""Q0"":""beth is marrying mike""}","<img src=""stim_listB/marry1.gif""style=""height:400px;""></stim_listB>",is marrying,
null,"<div style=""font-size:60px;"">+</div>",,html-keyboard-response,271,1157813,0.0-17.0-0.6,46296,List1B,white,man,,,,null,,,,
null,"<img src=""stim_listB/flirt4.gif""style=""height:400px;""></stim_listB>",,html-keyboard-response,272,1159815,0.0-17.0-1.6,46296,List1B,white,man,,,,null,,,,
null,are flirting with each other,,html-keyboard-response,273,1161815,0.0-17.0-2.6,46296,List1B,white,man,,,,null,,,,
8922,,,survey-text,274,1170739,0.0-17.0-3.6,46296,List1B,white,man,,,,,"{""Q0"":""dave and ruth are flirting with each other""}","<img src=""stim_listB/flirt4.gif""style=""height:400px;""></stim_listB>",are flirting with each other,
null,"<div style=""font-size:60px;"">+</div>",,html-keyboard-response,275,1171242,0.0-17.0-0.7,46296,List1B,white,man,,,,null,,,,
null,"<img src=""stim_listB/talk5.gif""style=""height:400px;""></stim_listB>",,html-keyboard-response,276,1173243,0.0-17.0-1.7,46296,List1B,white,man,,,,null,,,,
null,is talking to,,html-keyboard-response,277,1175245,0.0-17.0-2.7,46296,List1B,white,man,,,,null,,,,
8037,,,survey-text,278,1183284,0.0-17.0-3.7,46296,List1B,white,man,,,,,"{""Q0"":""dave is talking to fred""}","<img src=""stim_listB/talk5.gif""style=""height:400px;""></stim_listB>",is talking to,
null,"<div style=""font-size:60px;"">+</div>",,html-keyboard-response,279,1183786,0.0-17.0-0.8,46296,List1B,white,man,,,,null,,,,
null,"<img src=""stim_listB/fight4.gif""style=""height:400px;""></stim_listB>",,html-keyboard-response,280,1185793,0.0-17.0-1.8,46296,List1B,white,man,,,,null,,,,
null,are fighting each other,,html-keyboard-response,281,1187795,0.0-17.0-2.8,46296,List1B,white,man,,,,null,,,,
11018,,,survey-text,282,1198816,0.0-17.0-3.8,46296,List1B,white,man,,,,,"{""Q0"":""luke and ruth are fighting each other""}","<img src=""stim_listB/fight4.gif""style=""height:400px;""></stim_listB>",are fighting each other,
null,"<div style=""font-size:60px;"">+</div>",,html-keyboard-response,283,1199316,0.0-17.0-0.9,46296,List1B,white,man,,,,null,,,,
null,"<img src=""stim_listB/touch4.gif""style=""height:400px;""></stim_listB>",,html-keyboard-response,284,1201318,0.0-17.0-1.9,46296,List1B,white,man,,,,null,,,,
null,are touching each other,,html-keyboard-response,285,1203319,0.0-17.0-2.9,46296,List1B,white,man,,,,null,,,,
7930,,,survey-text,286,1211251,0.0-17.0-3.9,46296,List1B,white,man,,,,,"{""Q0"":""luke and ruth are touching each other""}","<img src=""stim_listB/touch4.gif""style=""height:400px;""></stim_listB>",are touching each other,
null,"<div style=""font-size:60px;"">+</div>",,html-keyboard-response,287,1211753,0.0-17.0-0.10,46296,List1B,white,man,,,,null,,,,
null,"<img src=""stim_listB/play8.gif""style=""height:400px;""></stim_listB>",,html-keyboard-response,288,1213756,0.0-17.0-1.10,46296,List1B,white,man,,,,null,,,,
null,are playing with each other,,html-keyboard-response,289,1215758,0.0-17.0-2.10,46296,List1B,white,man,,,,null,,,,
8836,,,survey-text,290,1224595,0.0-17.0-3.10,46296,List1B,white,man,,,,,"{""Q0"":""beth and ruth are playing with each other""}","<img src=""stim_listB/play8.gif""style=""height:400px;""></stim_listB>",are playing with each other,
null,"<div style=""font-size:60px;"">+</div>",,html-keyboard-response,291,1225096,0.0-17.0-0.11,46296,List1B,white,man,,,,null,,,,
null,"<img src=""stim_listB/argue7.gif""style=""height:400px;""></stim_listB>",,html-keyboard-response,292,1227098,0.0-17.0-1.11,46296,List1B,white,man,,,,null,,,,
null,is arguing with,,html-keyboard-response,293,1229098,0.0-17.0-2.11,46296,List1B,white,man,,,,null,,,,
5928,,,survey-text,294,1235027,0.0-17.0-3.11,46296,List1B,white,man,,,,,"{""Q0"":""ruth is arguing with kate""}","<img src=""stim_listB/argue7.gif""style=""height:400px;""></stim_listB>",is arguing with,
null,"<div style=""font-size:60px;"">+</div>",,html-keyboard-response,295,1235529,0.0-17.0-0.12,46296,List1B,white,man,,,,null,,,,
null,"<img src=""stim_listB/kiss3.gif""style=""height:400px;""></stim_listB>",,html-keyboard-response,296,1237531,0.0-17.0-1.12,46296,List1B,white,man,,,,null,,,,
null,is kissing,,html-keyboard-response,297,1239531,0.0-17.0-2.12,46296,List1B,white,man,,,,null,,,,
8646,,,survey-text,298,1248180,0.0-17.0-3.12,46296,List1B,white,man,,,,,"{""Q0"":""luke is kissing ruth""}","<img src=""stim_listB/kiss3.gif""style=""height:400px;""></stim_listB>",is kissing,
null,"<div style=""font-size:60px;"">+</div>",,html-keyboard-response,299,1248682,0.0-17.0-0.13,46296,List1B,white,man,,,,null,,,,
null,"<img src=""stim_listB/play5.gif""style=""height:400px;""></stim_listB>",,html-keyboard-response,300,1250688,0.0-17.0-1.13,46296,List1B,white,man,,,,null,,,,
null,is playing with,,html-keyboard-response,301,1252692,0.0-17.0-2.13,46296,List1B,white,man,,,,null,,,,
6781,,,survey-text,302,1259475,0.0-17.0-3.13,46296,List1B,white,man,,,,,"{""Q0"":""mike is playing with dave""}","<img src=""stim_listB/play5.gif""style=""height:400px;""></stim_listB>",is playing with,
null,"<div style=""font-size:60px;"">+</div>",,html-keyboard-response,303,1259976,0.0-17.0-0.14,46296,List1B,white,man,,,,null,,,,
null,"<img src=""stim_listB/touch1.gif""style=""height:400px;""></stim_listB>",,html-keyboard-response,304,1261980,0.0-17.0-1.14,46296,List1B,white,man,,,,null,,,,
null,is touching,,html-keyboard-response,305,1263980,0.0-17.0-2.14,46296,List1B,white,man,,,,null,,,,
6404,,,survey-text,306,1270387,0.0-17.0-3.14,46296,List1B,white,man,,,,,"{""Q0"":""kate is touching mike""}","<img src=""stim_listB/touch1.gif""style=""height:400px;""></stim_listB>",is touching,
null,"<div style=""font-size:60px;"">+</div>",,html-keyboard-response,307,1270890,0.0-17.0-0.15,46296,List1B,white,man,,,,null,,,,
null,"<img src=""stim_listB/fight2.gif""style=""height:400px;""></stim_listB>",,html-keyboard-response,308,1272893,0.0-17.0-1.15,46296,List1B,white,man,,,,null,,,,
null,are fighting each other,,html-keyboard-response,309,1274894,0.0-17.0-2.15,46296,List1B,white,man,,,,null,,,,
7788,,,survey-text,310,1282683,0.0-17.0-3.15,46296,List1B,white,man,,,,,"{""Q0"":""fred and beth are fighting each other""}","<img src=""stim_listB/fight2.gif""style=""height:400px;""></stim_listB>",are fighting each other,
null,"<div style=""font-size:60px;"">+</div>",,html-keyboard-response,311,1283186,0.0-17.0-0.16,46296,List1B,white,man,,,,null,,,,
null,"<img src=""stim_listB/shout2.gif""style=""height:400px;""></stim_listB>",,html-keyboard-response,312,1285189,0.0-17.0-1.16,46296,List1B,white,man,,,,null,,,,
null,are shouting at each other,,html-keyboard-response,313,1287191,0.0-17.0-2.16,46296,List1B,white,man,,,,null,,,,
9100,,,survey-text,314,1296291,0.0-17.0-3.16,46296,List1B,white,man,,,,,"{""Q0"":""kate and mike are shouting at each other""}","<img src=""stim_listB/shout2.gif""style=""height:400px;""></stim_listB>",are shouting at each other,
null,"<div style=""font-size:60px;"">+</div>",,html-keyboard-response,315,1296793,0.0-17.0-0.17,46296,List1B,white,man,,,,null,,,,
null,"<img src=""stim_listB/marry4.gif""style=""height:400px;""></stim_listB>",,html-keyboard-response,316,1298795,0.0-17.0-1.17,46296,List1B,white,man,,,,null,,,,
null,are marrying each other,,html-keyboard-response,317,1300796,0.0-17.0-2.17,46296,List1B,white,man,,,,null,,,,
7927,,,survey-text,318,1308724,0.0-17.0-3.17,46296,List1B,white,man,,,,,"{""Q0"":""luke and jane are marrying each other""}","<img src=""stim_listB/marry4.gif""style=""height:400px;""></stim_listB>",are marrying each other,
null,"<div style=""font-size:60px;"">+</div>",,html-keyboard-response,319,1309225,0.0-17.0-0.18,46296,List1B,white,man,,,,null,,,,
null,"<img src=""stim_listB/argue2.gif""style=""height:400px;""></stim_listB>",,html-keyboard-response,320,1311228,0.0-17.0-1.18,46296,List1B,white,man,,,,null,,,,
null,are arguing with each other,,html-keyboard-response,321,1313229,0.0-17.0-2.18,46296,List1B,white,man,,,,null,,,,
10742,,,survey-text,322,1323971,0.0-17.0-3.18,46296,List1B,white,man,,,,,"{""Q0"":""fred and kate are arguing with each other""}","<img src=""stim_listB/argue2.gif""style=""height:400px;""></stim_listB>",are arguing with each other,
null,"<div style=""font-size:60px;"">+</div>",,html-keyboard-response,323,1324473,0.0-17.0-0.19,46296,List1B,white,man,,,,null,,,,
null,"<img src=""stim_listB/shout5.gif""style=""height:400px;""></stim_listB>",,html-keyboard-response,324,1326475,0.0-17.0-1.19,46296,List1B,white,man,,,,null,,,,
null,is shouting at,,html-keyboard-response,325,1328476,0.0-17.0-2.19,46296,List1B,white,man,,,,null,,,,
9817,,,survey-text,326,1338296,0.0-17.0-3.19,46296,List1B,white,man,,,,,"{""Q0"":""luke is shouting at fred""}","<img src=""stim_listB/shout5.gif""style=""height:400px;""></stim_listB>",is shouting at,
1951,"<img src='img/portrait_matrix_list1.jpg' style='width:900px;height:500px;''></img><p>If you have memorised all the portraits and names and are ready to start, press Continue.</p><p><strong>Please note: Your memory of these faces will be tested 4 times during this experiment.</strong></p>",0,html-button-response,327,1340248,0.0-18.0-0.0,46296,List1B,white,man,,,,,,,,
1324,"<img src=""portrait/BW2.jpg""style=""height:400px;""></img>",2,html-button-response,328,1342576,0.0-18.0-1.0,46296,List1B,white,man,,TRUE,2,,,,,
null,CORRECT,,html-keyboard-response,329,1344080,0.0-18.0-2.0-0.0,46296,List1B,white,man,,,,null,,,,
1880,"<img src=""portrait/WM1.jpg""style=""height:400px;""></img>",6,html-button-response,330,1345968,0.0-18.0-4.0,46296,List1B,white,man,,TRUE,6,,,,,
null,CORRECT,,html-keyboard-response,331,1347472,0.0-18.0-5.0-0.0,46296,List1B,white,man,,,,null,,,,
1726,"<img src=""portrait/BW1.jpg""style=""height:400px;""></img>",0,html-button-response,332,1349199,0.0-18.0-7.0,46296,List1B,white,man,,TRUE,0,,,,,
null,CORRECT,,html-keyboard-response,333,1350702,0.0-18.0-8.0-0.0,46296,List1B,white,man,,,,null,,,,
1671,"<img src=""portrait/WW1.jpg""style=""height:400px;""></img>",1,html-button-response,334,1352376,0.0-18.0-10.0,46296,List1B,white,man,,TRUE,1,,,,,
null,CORRECT,,html-keyboard-response,335,1353877,0.0-18.0-11.0-0.0,46296,List1B,white,man,,,,null,,,,
1286,"<img src=""portrait/WM2.jpg""style=""height:400px;""></img>",7,html-button-response,336,1355168,0.0-18.0-13.0,46296,List1B,white,man,,TRUE,7,,,,,
null,CORRECT,,html-keyboard-response,337,1356672,0.0-18.0-14.0-0.0,46296,List1B,white,man,,,,null,,,,
1261,"<img src=""portrait/BM1.jpg""style=""height:400px;""></img>",4,html-button-response,338,1357936,0.0-18.0-16.0,46296,List1B,white,man,,TRUE,4,,,,,
null,CORRECT,,html-keyboard-response,339,1359438,0.0-18.0-17.0-0.0,46296,List1B,white,man,,,,null,,,,
1456,"<img src=""portrait/BM2.jpg""style=""height:400px;""></img>",5,html-button-response,340,1360895,0.0-18.0-19.0,46296,List1B,white,man,,TRUE,5,,,,,
null,CORRECT,,html-keyboard-response,341,1362396,0.0-18.0-20.0-0.0,46296,List1B,white,man,,,,null,,,,
1402,"<img src=""portrait/WW2.jpg""style=""height:400px;""></img>",3,html-button-response,342,1363799,0.0-18.0-22.0,46296,List1B,white,man,,TRUE,3,,,,,
null,CORRECT,,html-keyboard-response,343,1365301,0.0-18.0-23.0-0.0,46296,List1B,white,man,,,,null,,,,
1301,<p>You got 8 out of 8 right first time. Press Continue.</p>,0,html-button-response,344,1366608,0.0-18.0-25.0,46296,List1B,white,man,,,,,,,,
null,"<div style=""font-size:60px;"">+</div>",,html-keyboard-response,345,1368111,0.0-19.0-0.0,46296,List1B,white,man,,,,null,,,,
null,"<img src=""stim_listB/kiss4.gif""style=""height:400px;""></stim_listB>",,html-keyboard-response,346,1370115,0.0-19.0-1.0,46296,List1B,white,man,,,,null,,,,
null,are kissing each other,,html-keyboard-response,347,1372116,0.0-19.0-2.0,46296,List1B,white,man,,,,null,,,,
8169,,,survey-text,348,1380288,0.0-19.0-3.0,46296,List1B,white,man,,,,,"{""Q0"":""dave and jane are kissing each other""}","<img src=""stim_listB/kiss4.gif""style=""height:400px;""></stim_listB>",are kissing each other,
null,"<div style=""font-size:60px;"">+</div>",,html-keyboard-response,349,1380790,0.0-19.0-0.1,46296,List1B,white,man,,,,null,,,,
null,"<img src=""stim_listB/talk4.gif""style=""height:400px;""></stim_listB>",,html-keyboard-response,350,1382792,0.0-19.0-1.1,46296,List1B,white,man,,,,null,,,,
null,are talking to each other,,html-keyboard-response,351,1384794,0.0-19.0-2.1,46296,List1B,white,man,,,,null,,,,
9067,,,survey-text,352,1393863,0.0-19.0-3.1,46296,List1B,white,man,,,,,"{""Q0"":""dave and ruth are talking to each other""}","<img src=""stim_listB/talk4.gif""style=""height:400px;""></stim_listB>",are talking to each other,
null,"<div style=""font-size:60px;"">+</div>",,html-keyboard-response,353,1394366,0.0-19.0-0.2,46296,List1B,white,man,,,,null,,,,
null,"<img src=""stim_listB/touch5.gif""style=""height:400px;""></stim_listB>",,html-keyboard-response,354,1396367,0.0-19.0-1.2,46296,List1B,white,man,,,,null,,,,
null,is touching,,html-keyboard-response,355,1398368,0.0-19.0-2.2,46296,List1B,white,man,,,,null,,,,
5526,,,survey-text,356,1403896,0.0-19.0-3.2,46296,List1B,white,man,,,,,"{""Q0"":""dave is touching mike""}","<img src=""stim_listB/touch5.gif""style=""height:400px;""></stim_listB>",is touching,
null,"<div style=""font-size:60px;"">+</div>",,html-keyboard-response,357,1404398,0.0-19.0-0.3,46296,List1B,white,man,,,,null,,,,
null,"<img src=""stim_listB/flirt8.gif""style=""height:400px;""></stim_listB>",,html-keyboard-response,358,1406402,0.0-19.0-1.3,46296,List1B,white,man,,,,null,,,,
null,are flirting with each other,,html-keyboard-response,359,1408407,0.0-19.0-2.3,46296,List1B,white,man,,,,null,,,,
8164,,,survey-text,360,1416575,0.0-19.0-3.3,46296,List1B,white,man,,,,,"{""Q0"":""kate and ruth are flirtin with each other""}","<img src=""stim_listB/flirt8.gif""style=""height:400px;""></stim_listB>",are flirting with each other,
null,"<div style=""font-size:60px;"">+</div>",,html-keyboard-response,361,1417076,0.0-19.0-0.4,46296,List1B,white,man,,,,null,,,,
null,"<img src=""stim_listB/dance5.gif""style=""height:400px;""></stim_listB>",,html-keyboard-response,362,1419078,0.0-19.0-1.4,46296,List1B,white,man,,,,null,,,,
null,is dancing with,,html-keyboard-response,363,1421082,0.0-19.0-2.4,46296,List1B,white,man,,,,null,,,,
8404,,,survey-text,364,1429487,0.0-19.0-3.4,46296,List1B,white,man,,,,,"{""Q0"":""fred is dancing with dave""}","<img src=""stim_listB/dance5.gif""style=""height:400px;""></stim_listB>",is dancing with,
null,"<div style=""font-size:60px;"">+</div>",,html-keyboard-response,365,1429988,0.0-19.0-0.5,46296,List1B,white,man,,,,null,,,,
null,"<img src=""stim_listB/play4.gif""style=""height:400px;""></stim_listB>",,html-keyboard-response,366,1431990,0.0-19.0-1.5,46296,List1B,white,man,,,,null,,,,
null,are playing with each other,,html-keyboard-response,367,1433992,0.0-19.0-2.5,46296,List1B,white,man,,,,null,,,,
8559,,,survey-text,368,1442552,0.0-19.0-3.5,46296,List1B,white,man,,,,,"{""Q0"":""luke and ruth are playing with each other""}","<img src=""stim_listB/play4.gif""style=""height:400px;""></stim_listB>",are playing with each other,
null,"<div style=""font-size:60px;"">+</div>",,html-keyboard-response,369,1443053,0.0-19.0-0.6,46296,List1B,white,man,,,,null,,,,
null,"<img src=""stim_listB/touch2.gif""style=""height:400px;""></stim_listB>",,html-keyboard-response,370,1445056,0.0-19.0-1.6,46296,List1B,white,man,,,,null,,,,
null,are touching each other,,html-keyboard-response,371,1447058,0.0-19.0-2.6,46296,List1B,white,man,,,,null,,,,
8101,,,survey-text,372,1455160,0.0-19.0-3.6,46296,List1B,white,man,,,,,"{""Q0"":""fred and beth are touching each other""}","<img src=""stim_listB/touch2.gif""style=""height:400px;""></stim_listB>",are touching each other,
null,"<div style=""font-size:60px;"">+</div>",,html-keyboard-response,373,1455661,0.0-19.0-0.7,46296,List1B,white,man,,,,null,,,,
null,"<img src=""stim_listB/marry7.gif""style=""height:400px;""></stim_listB>",,html-keyboard-response,374,1457661,0.0-19.0-1.7,46296,List1B,white,man,,,,null,,,,
null,is marrying,,html-keyboard-response,375,1459663,0.0-19.0-2.7,46296,List1B,white,man,,,,null,,,,
7408,,,survey-text,376,1467072,0.0-19.0-3.7,46296,List1B,white,man,,,,,"{""Q0"":""ruth is marrying kate""}","<img src=""stim_listB/marry7.gif""style=""height:400px;""></stim_listB>",is marrying,
null,"<div style=""font-size:60px;"">+</div>",,html-keyboard-response,377,1467574,0.0-19.0-0.8,46296,List1B,white,man,,,,null,,,,
null,"<img src=""stim_listB/argue1.gif""style=""height:400px;""></stim_listB>",,html-keyboard-response,378,1469579,0.0-19.0-1.8,46296,List1B,white,man,,,,null,,,,
null,is arguing with,,html-keyboard-response,379,1471582,0.0-19.0-2.8,46296,List1B,white,man,,,,null,,,,
6295,,,survey-text,380,1477879,0.0-19.0-3.8,46296,List1B,white,man,,,,,"{""Q0"":""beth is arguing with mike""}","<img src=""stim_listB/argue1.gif""style=""height:400px;""></stim_listB>",is arguing with,
null,"<div style=""font-size:60px;"">+</div>",,html-keyboard-response,381,1478381,0.0-19.0-0.9,46296,List1B,white,man,,,,null,,,,
null,"<img src=""stim_listB/shout4.gif""style=""height:400px;""></stim_listB>",,html-keyboard-response,382,1480382,0.0-19.0-1.9,46296,List1B,white,man,,,,null,,,,
null,are shouting at each other,,html-keyboard-response,383,1482383,0.0-19.0-2.9,46296,List1B,white,man,,,,null,,,,
7327,,,survey-text,384,1489710,0.0-19.0-3.9,46296,List1B,white,man,,,,,"{""Q0"":""dave and jane are shouting at each other""}","<img src=""stim_listB/shout4.gif""style=""height:400px;""></stim_listB>",are shouting at each other,
null,"<div style=""font-size:60px;"">+</div>",,html-keyboard-response,385,1490212,0.0-19.0-0.10,46296,List1B,white,man,,,,null,,,,
null,"<img src=""stim_listB/kiss1.gif""style=""height:400px;""></stim_listB>",,html-keyboard-response,386,1492214,0.0-19.0-1.10,46296,List1B,white,man,,,,null,,,,
null,is kissing,,html-keyboard-response,387,1494216,0.0-19.0-2.10,46296,List1B,white,man,,,,null,,,,
8942,,,survey-text,388,1503159,0.0-19.0-3.10,46296,List1B,white,man,,,,,"{""Q0"":""fred is kissing beth""}","<img src=""stim_listB/kiss1.gif""style=""height:400px;""></stim_listB>",is kissing,
null,"<div style=""font-size:60px;"">+</div>",,html-keyboard-response,389,1503660,0.0-19.0-0.11,46296,List1B,white,man,,,,null,,,,
null,"<img src=""stim_listB/fight1.gif""style=""height:400px;""></stim_listB>",,html-keyboard-response,390,1505661,0.0-19.0-1.11,46296,List1B,white,man,,,,null,,,,
null,is fighting,,html-keyboard-response,391,1507663,0.0-19.0-2.11,46296,List1B,white,man,,,,null,,,,
5831,,,survey-text,392,1513495,0.0-19.0-3.11,46296,List1B,white,man,,,,,"{""Q0"":""kate is fighting mike""}","<img src=""stim_listB/fight1.gif""style=""height:400px;""></stim_listB>",is fighting,
null,"<div style=""font-size:60px;"">+</div>",,html-keyboard-response,393,1513996,0.0-19.0-0.12,46296,List1B,white,man,,,,null,,,,
null,"<img src=""stim_listB/dance6.gif""style=""height:400px;""></stim_listB>",,html-keyboard-response,394,1515998,0.0-19.0-1.12,46296,List1B,white,man,,,,null,,,,
null,are dancing with each other,,html-keyboard-response,395,1518000,0.0-19.0-2.12,46296,List1B,white,man,,,,null,,,,
8642,,,survey-text,396,1526642,0.0-19.0-3.12,46296,List1B,white,man,,,,,"{""Q0"":""mike and luke are dancing with each other""}","<img src=""stim_listB/dance6.gif""style=""height:400px;""></stim_listB>",are dancing with each other,
null,"<div style=""font-size:60px;"">+</div>",,html-keyboard-response,397,1527145,0.0-19.0-0.13,46296,List1B,white,man,,,,null,,,,
null,"<img src=""stim_listB/fight5.gif""style=""height:400px;""></stim_listB>",,html-keyboard-response,398,1529147,0.0-19.0-1.13,46296,List1B,white,man,,,,null,,,,
null,is fighting,,html-keyboard-response,399,1531148,0.0-19.0-2.13,46296,List1B,white,man,,,,null,,,,
5406,,,survey-text,400,1536555,0.0-19.0-3.13,46296,List1B,white,man,,,,,"{""Q0"":""dave is fighting mike""}","<img src=""stim_listB/fight5.gif""style=""height:400px;""></stim_listB>",is fighting,
null,"<div style=""font-size:60px;"">+</div>",,html-keyboard-response,401,1537057,0.0-19.0-0.14,46296,List1B,white,man,,,,null,,,,
null,"<img src=""stim_listB/kiss6.gif""style=""height:400px;""></stim_listB>",,html-keyboard-response,402,1539059,0.0-19.0-1.14,46296,List1B,white,man,,,,null,,,,
null,are kissing each other,,html-keyboard-response,403,1541060,0.0-19.0-2.14,46296,List1B,white,man,,,,null,,,,
8998,,,survey-text,404,1550060,0.0-19.0-3.14,46296,List1B,white,man,,,,,"{""Q0"":""dave and mike are kissing each other""}","<img src=""stim_listB/kiss6.gif""style=""height:400px;""></stim_listB>",are kissing each other,
null,"<div style=""font-size:60px;"">+</div>",,html-keyboard-response,405,1550562,0.0-19.0-0.15,46296,List1B,white,man,,,,null,,,,
null,"<img src=""stim_listB/kiss7.gif""style=""height:400px;""></stim_listB>",,html-keyboard-response,406,1552568,0.0-19.0-1.15,46296,List1B,white,man,,,,null,,,,
null,is kissing,,html-keyboard-response,407,1554571,0.0-19.0-2.15,46296,List1B,white,man,,,,null,,,,
8671,,,survey-text,408,1563243,0.0-19.0-3.15,46296,List1B,white,man,,,,,"{""Q0"":""ruth is kissing beth""}","<img src=""stim_listB/kiss7.gif""style=""height:400px;""></stim_listB>",is kissing,
null,"<div style=""font-size:60px;"">+</div>",,html-keyboard-response,409,1563744,0.0-19.0-0.16,46296,List1B,white,man,,,,null,,,,
null,"<img src=""stim_listB/dance8.gif""style=""height:400px;""></stim_listB>",,html-keyboard-response,410,1565746,0.0-19.0-1.16,46296,List1B,white,man,,,,null,,,,
null,are dancing with each other,,html-keyboard-response,411,1567747,0.0-19.0-2.16,46296,List1B,white,man,,,,null,,,,
7880,,,survey-text,412,1575628,0.0-19.0-3.16,46296,List1B,white,man,,,,,"{""Q0"":""kate and ruth are dancing with each other""}","<img src=""stim_listB/dance8.gif""style=""height:400px;""></stim_listB>",are dancing with each other,
null,"<div style=""font-size:60px;"">+</div>",,html-keyboard-response,413,1576130,0.0-19.0-0.17,46296,List1B,white,man,,,,null,,,,
null,"<img src=""stim_listB/dance1.gif""style=""height:400px;""></stim_listB>",,html-keyboard-response,414,1578131,0.0-19.0-1.17,46296,List1B,white,man,,,,null,,,,
null,is dancing with,,html-keyboard-response,415,1580134,0.0-19.0-2.17,46296,List1B,white,man,,,,null,,,,
8844,,,survey-text,416,1588979,0.0-19.0-3.17,46296,List1B,white,man,,,,,"{""Q0"":""fred is dancing with kate""}","<img src=""stim_listB/dance1.gif""style=""height:400px;""></stim_listB>",is dancing with,
null,"<div style=""font-size:60px;"">+</div>",,html-keyboard-response,417,1589481,0.0-19.0-0.18,46296,List1B,white,man,,,,null,,,,
null,"<img src=""stim_listB/flirt1.gif""style=""height:400px;""></stim_listB>",,html-keyboard-response,418,1591483,0.0-19.0-1.18,46296,List1B,white,man,,,,null,,,,
null,is flirting with,,html-keyboard-response,419,1593484,0.0-19.0-2.18,46296,List1B,white,man,,,,null,,,,
7350,,,survey-text,420,1600835,0.0-19.0-3.18,46296,List1B,white,man,,,,,"{""Q0"":""fred is flirting with kate""}","<img src=""stim_listB/flirt1.gif""style=""height:400px;""></stim_listB>",is flirting with,
null,"<div style=""font-size:60px;"">+</div>",,html-keyboard-response,421,1601337,0.0-19.0-0.19,46296,List1B,white,man,,,,null,,,,
null,"<img src=""stim_listB/shout7.gif""style=""height:400px;""></stim_listB>",,html-keyboard-response,422,1603339,0.0-19.0-1.19,46296,List1B,white,man,,,,null,,,,
null,is shouting at,,html-keyboard-response,423,1605340,0.0-19.0-2.19,46296,List1B,white,man,,,,null,,,,
5983,,,survey-text,424,1611324,0.0-19.0-3.19,46296,List1B,white,man,,,,,"{""Q0"":""ruth is shouting at beth""}","<img src=""stim_listB/shout7.gif""style=""height:400px;""></stim_listB>",is shouting at,
2934,<p>Thank you for completing that task.</p><p>The final part of this session is a short questionnaire.</p><p>Press Continue.</p>,0,html-button-response,425,1614259,0.0-20.0,46296,List1B,white,man,,,,,,,,
19362,,,survey-text,426,1634627,0.0-21.0,46296,List1B,white,man,,,,,"{""Q0"":""34"",""Q1"":""english"",""Q2"":""english"",""Q3"":""Wales"",""Q4"":""White"",""Q5"":""Male""}",,,demographics
11403,,,survey-likert,427,1646033,0.0-22.0,46296,List1B,white,man,,,,,"{""Q0"":4}",,,likert_ESS
5777,,,survey-likert,428,1651812,0.0-23.0,46296,List1B,white,man,,,,,"{""Q0"":4}",,,likert_NSSAL_Q1
4410,,,survey-likert,429,1656223,0.0-24.0,46296,List1B,white,man,,,,,"{""Q0"":4}",,,likert_NSSAL_Q2
3667,,,survey-likert,430,1659892,0.0-25.0,46296,List1B,white,man,,,,,"{""Q0"":4}",,,likert_CGRS_Q1
3407,,,survey-likert,431,1663300,0.0-26.0,46296,List1B,white,man,,,,,"{""Q0"":4}",,,likert_CGRS_Q2
3127,,,survey-likert,432,1666428,0.0-27.0,46296,List1B,white,man,,,,,"{""Q0"":4}",,,likert_CGRS_Q3
3746,,,survey-text,433,1670175,0.0-28.0,46296,List1B,white,man,,,,,"{""Q0"":""ccc""}",,,worker_id
3045,,,external-html,434,1673279,0.0-29.0,46296,List1B,white,man,debrief.html,,,,,,,
