rt,stimulus,button_pressed,trial_type,trial_index,time_elapsed,internal_node_id,subject,list,ppt_race,ppt_gender,url,first_guess,correct,key_press,responses,image_type,phrase_type,test_part
1561,Welcome to the experiment. Press Continue to begin.,0,html-button-response,0,1567,0.0-0.0,46514,List1B,black,man,,,,,,,,
21402,,,external-html,1,24077,0.0-1.0,46514,List1B,black,man,consent.html,,,,,,,
5605,"<p>On the next page, you will see portraits of 8 people and their names.</p><p>Your first task is to take a few minutes to memorise the names of these people.</p><p>You will have to recall their names during the rest of the experiment, so it is</p><p>essential that you try to memorise these people and their names as best as you can.</p><br><p><strong>You will then be tested on your memory of these names and portraits.</strong></p><br><p>The experiment will start after you have completed this memory test.</p><br><p>Ready?</p>",0,html-button-response,2,29684,0.0-2.0,46514,List1B,black,man,,,,,,,,
32916,"<img src='img/portrait_matrix_list1.jpg' style='width:900px;height:500px;''></img><p>If you have memorised all the portraits and names and are ready to start, press Continue.</p><p><strong>Please note: Your memory of these faces will be tested 4 times during this experiment.</strong></p>",0,html-button-response,3,63605,0.0-3.0-0.0,46514,List1B,black,man,,,,,,,,
2356,"<img src=""portrait/BM1.jpg""style=""height:400px;""></img>",4,html-button-response,4,66965,0.0-3.0-1.0,46514,List1B,black,man,,TRUE,4,,,,,
null,CORRECT,,html-keyboard-response,5,68477,0.0-3.0-2.0-0.0,46514,List1B,black,man,,,,null,,,,
2372,"<img src=""portrait/BM2.jpg""style=""height:400px;""></img>",5,html-button-response,6,70852,0.0-3.0-4.0,46514,List1B,black,man,,TRUE,5,,,,,
null,CORRECT,,html-keyboard-response,7,72356,0.0-3.0-5.0-0.0,46514,List1B,black,man,,,,null,,,,
1911,"<img src=""portrait/WM2.jpg""style=""height:400px;""></img>",7,html-button-response,8,74268,0.0-3.0-7.0,46514,List1B,black,man,,TRUE,7,,,,,
null,CORRECT,,html-keyboard-response,9,75793,0.0-3.0-8.0-0.0,46514,List1B,black,man,,,,null,,,,
3394,"<img src=""portrait/BW1.jpg""style=""height:400px;""></img>",0,html-button-response,10,79189,0.0-3.0-10.0,46514,List1B,black,man,,TRUE,0,,,,,
null,CORRECT,,html-keyboard-response,11,80694,0.0-3.0-11.0-0.0,46514,List1B,black,man,,,,null,,,,
2093,"<img src=""portrait/WW2.jpg""style=""height:400px;""></img>",3,html-button-response,12,82789,0.0-3.0-13.0,46514,List1B,black,man,,TRUE,3,,,,,
null,CORRECT,,html-keyboard-response,13,84298,0.0-3.0-14.0-0.0,46514,List1B,black,man,,,,null,,,,
1922,"<img src=""portrait/BW2.jpg""style=""height:400px;""></img>",2,html-button-response,14,86220,0.0-3.0-16.0,46514,List1B,black,man,,TRUE,2,,,,,
null,CORRECT,,html-keyboard-response,15,87722,0.0-3.0-17.0-0.0,46514,List1B,black,man,,,,null,,,,
2465,"<img src=""portrait/WW1.jpg""style=""height:400px;""></img>",1,html-button-response,16,90189,0.0-3.0-19.0,46514,List1B,black,man,,TRUE,1,,,,,
null,CORRECT,,html-keyboard-response,17,91692,0.0-3.0-20.0-0.0,46514,List1B,black,man,,,,null,,,,
3343,"<img src=""portrait/WM1.jpg""style=""height:400px;""></img>",6,html-button-response,18,95037,0.0-3.0-22.0,46514,List1B,black,man,,TRUE,6,,,,,
null,CORRECT,,html-keyboard-response,19,96537,0.0-3.0-23.0-0.0,46514,List1B,black,man,,,,null,,,,
1312,<p>You got 8 out of 8 right first time. Press Continue.</p>,0,html-button-response,20,97852,0.0-3.0-25.0,46514,List1B,black,man,,,,,,,,
13843,"<p>In this experiment, you will view photographs of the people from the memory game interacting.</p><p>By using the <strong>exact</strong> phrase given <i>after</i> the photograph appears and recalling the correct names of the people in the photographs, form a sentence describing the interaction. You do not need to capitalise names.</p><p>Type your answer in the space provided. Please complete every sentence before moving onto the next trial.</p><p>You will only have a few seconds to memorise each given photograph and phrase before you can respond, so try your best to focus.</p><p>An example is given below. Press 'Continue' when you are ready.</p><img src='img/speaking_example.jpg' style='width:800px;height:460px;''></img>",0,html-button-response,21,112700,0.0-4.0,46514,List1B,black,man,,,,,,,,
2454,"<p>Before the experiment starts, you will watch two example trials. Press 'Continue'.</p>",0,html-button-response,22,116156,0.0-5.0,46514,List1B,black,man,,,,,,,,
null,<img src='img/meet_eg.gif' style='height:400px;''></img>,,html-keyboard-response,23,119158,0.0-6.0,46514,List1B,black,man,,,,null,,,,
null,<p>is meeting</p>,,html-keyboard-response,24,121159,0.0-7.0,46514,List1B,black,man,,,,null,,,,
1627,<p><b>Answer:</b> kate is meeting beth</p>,0,html-button-response,25,122788,0.0-8.0,46514,List1B,black,man,,,,,,,,
null,<img src='img/look_eg.gif' style='height:400px;''></img>,,html-keyboard-response,26,125808,0.0-9.0,46514,List1B,black,man,,,,null,,,,
null,<p>are looking at each other</p>,,html-keyboard-response,27,127813,0.0-10.0,46514,List1B,black,man,,,,null,,,,
2206,<p><b>Answer:</b> luke and dave are looking at each other</p>,0,html-button-response,28,130020,0.0-11.0,46514,List1B,black,man,,,,,,,,
2114,"<p>Ready to start the experiment?</p><br><p><strong>Remember to describe the picture using a full sentence,</strong></p><p><strong>that combines the names of the people with the <i>exact</i> phrase given.</strong></p><p><strong>To receive full payment you must do this correctly.</strong></p><p><strong> You do not need to capitalise names or use punctuation.</strong></p><br><p>Press 'Continue' to begin.</p>",0,html-button-response,29,133136,0.0-12.0,46514,List1B,black,man,,,,,,,,
null,"<div style=""font-size:60px;"">+</div>",,html-keyboard-response,30,134641,0.0-13.0-0.0,46514,List1B,black,man,,,,null,,,,
null,"<img src=""stim_listB/kiss2.gif""style=""height:400px;""></stim_listB>",,html-keyboard-response,31,136672,0.0-13.0-1.0,46514,List1B,black,man,,,,null,,,,
null,are kissing each other,,html-keyboard-response,32,138672,0.0-13.0-2.0,46514,List1B,black,man,,,,null,,,,
7665,,,survey-text,33,146337,0.0-13.0-3.0,46514,List1B,black,man,,,,,"{""Q0"":""Mike and kate are kissing each other""}","<img src=""stim_listB/kiss2.gif""style=""height:400px;""></stim_listB>",are kissing each other,
null,"<div style=""font-size:60px;"">+</div>",,html-keyboard-response,34,146841,0.0-13.0-0.1,46514,List1B,black,man,,,,null,,,,
null,"<img src=""stim_listB/play6.gif""style=""height:400px;""></stim_listB>",,html-keyboard-response,35,148841,0.0-13.0-1.1,46514,List1B,black,man,,,,null,,,,
null,are playing with each other,,html-keyboard-response,36,150842,0.0-13.0-2.1,46514,List1B,black,man,,,,null,,,,
10241,,,survey-text,37,161084,0.0-13.0-3.1,46514,List1B,black,man,,,,,"{""Q0"":""Fred and Luke are playing with each other""}","<img src=""stim_listB/play6.gif""style=""height:400px;""></stim_listB>",are playing with each other,
null,"<div style=""font-size:60px;"">+</div>",,html-keyboard-response,38,161589,0.0-13.0-0.2,46514,List1B,black,man,,,,null,,,,
null,"<img src=""stim_listB/dance3.gif""style=""height:400px;""></stim_listB>",,html-keyboard-response,39,163589,0.0-13.0-1.2,46514,List1B,black,man,,,,null,,,,
null,is dancing with,,html-keyboard-response,40,165590,0.0-13.0-2.2,46514,List1B,black,man,,,,null,,,,
5543,,,survey-text,41,171134,0.0-13.0-3.2,46514,List1B,black,man,,,,,"{""Q0"":""Luke is dancing with jane""}","<img src=""stim_listB/dance3.gif""style=""height:400px;""></stim_listB>",is dancing with,
null,"<div style=""font-size:60px;"">+</div>",,html-keyboard-response,42,171634,0.0-13.0-0.3,46514,List1B,black,man,,,,null,,,,
null,"<img src=""stim_listB/talk2.gif""style=""height:400px;""></stim_listB>",,html-keyboard-response,43,173637,0.0-13.0-1.3,46514,List1B,black,man,,,,null,,,,
null,are talking to each other,,html-keyboard-response,44,175638,0.0-13.0-2.3,46514,List1B,black,man,,,,null,,,,
6547,,,survey-text,45,182186,0.0-13.0-3.3,46514,List1B,black,man,,,,,"{""Q0"":""Beth and mike are talking to each other""}","<img src=""stim_listB/talk2.gif""style=""height:400px;""></stim_listB>",are talking to each other,
null,"<div style=""font-size:60px;"">+</div>",,html-keyboard-response,46,182686,0.0-13.0-0.4,46514,List1B,black,man,,,,null,,,,
null,"<img src=""stim_listB/dance6.gif""style=""height:400px;""></stim_listB>",,html-keyboard-response,47,184689,0.0-13.0-1.4,46514,List1B,black,man,,,,null,,,,
null,are dancing with each other,,html-keyboard-response,48,186690,0.0-13.0-2.4,46514,List1B,black,man,,,,null,,,,
8103,,,survey-text,49,194795,0.0-13.0-3.4,46514,List1B,black,man,,,,,"{""Q0"":""Luke and mike are dancing with each other""}","<img src=""stim_listB/dance6.gif""style=""height:400px;""></stim_listB>",are dancing with each other,
null,"<div style=""font-size:60px;"">+</div>",,html-keyboard-response,50,195297,0.0-13.0-0.5,46514,List1B,black,man,,,,null,,,,
null,"<img src=""stim_listB/touch8.gif""style=""height:400px;""></stim_listB>",,html-keyboard-response,51,197300,0.0-13.0-1.5,46514,List1B,black,man,,,,null,,,,
null,are touching each other,,html-keyboard-response,52,199313,0.0-13.0-2.5,46514,List1B,black,man,,,,null,,,,
8838,,,survey-text,53,208151,0.0-13.0-3.5,46514,List1B,black,man,,,,,"{""Q0"":""Beth and ruth are touching each other""}","<img src=""stim_listB/touch8.gif""style=""height:400px;""></stim_listB>",are touching each other,
null,"<div style=""font-size:60px;"">+</div>",,html-keyboard-response,54,208655,0.0-13.0-0.6,46514,List1B,black,man,,,,null,,,,
null,"<img src=""stim_listB/touch2.gif""style=""height:400px;""></stim_listB>",,html-keyboard-response,55,210655,0.0-13.0-1.6,46514,List1B,black,man,,,,null,,,,
null,are touching each other,,html-keyboard-response,56,212656,0.0-13.0-2.6,46514,List1B,black,man,,,,null,,,,
7392,,,survey-text,57,220049,0.0-13.0-3.6,46514,List1B,black,man,,,,,"{""Q0"":""Fred and beth are touching each other""}","<img src=""stim_listB/touch2.gif""style=""height:400px;""></stim_listB>",are touching each other,
null,"<div style=""font-size:60px;"">+</div>",,html-keyboard-response,58,220549,0.0-13.0-0.7,46514,List1B,black,man,,,,null,,,,
null,"<img src=""stim_listB/talk8.gif""style=""height:400px;""></stim_listB>",,html-keyboard-response,59,222552,0.0-13.0-1.7,46514,List1B,black,man,,,,null,,,,
null,are talking to each other,,html-keyboard-response,60,224553,0.0-13.0-2.7,46514,List1B,black,man,,,,null,,,,
7746,,,survey-text,61,232300,0.0-13.0-3.7,46514,List1B,black,man,,,,,"{""Q0"":""Kate and ruth are talking to each other""}","<img src=""stim_listB/talk8.gif""style=""height:400px;""></stim_listB>",are talking to each other,
null,"<div style=""font-size:60px;"">+</div>",,html-keyboard-response,62,232800,0.0-13.0-0.8,46514,List1B,black,man,,,,null,,,,
null,"<img src=""stim_listB/argue4.gif""style=""height:400px;""></stim_listB>",,html-keyboard-response,63,234803,0.0-13.0-1.8,46514,List1B,black,man,,,,null,,,,
null,are arguing with each other,,html-keyboard-response,64,236803,0.0-13.0-2.8,46514,List1B,black,man,,,,null,,,,
6545,,,survey-text,65,243364,0.0-13.0-3.8,46514,List1B,black,man,,,,,"{""Q0"":""Luke and jane are arguing with each other""}","<img src=""stim_listB/argue4.gif""style=""height:400px;""></stim_listB>",are arguing with each other,
null,"<div style=""font-size:60px;"">+</div>",,html-keyboard-response,66,243868,0.0-13.0-0.9,46514,List1B,black,man,,,,null,,,,
null,"<img src=""stim_listB/play2.gif""style=""height:400px;""></stim_listB>",,html-keyboard-response,67,245870,0.0-13.0-1.9,46514,List1B,black,man,,,,null,,,,
null,are playing with each other,,html-keyboard-response,68,247875,0.0-13.0-2.9,46514,List1B,black,man,,,,null,,,,
6511,,,survey-text,69,254387,0.0-13.0-3.9,46514,List1B,black,man,,,,,"{""Q0"":""Fred and beth are playing with each other""}","<img src=""stim_listB/play2.gif""style=""height:400px;""></stim_listB>",are playing with each other,
null,"<div style=""font-size:60px;"">+</div>",,html-keyboard-response,70,254888,0.0-13.0-0.10,46514,List1B,black,man,,,,null,,,,
null,"<img src=""stim_listB/kiss4.gif""style=""height:400px;""></stim_listB>",,html-keyboard-response,71,256890,0.0-13.0-1.10,46514,List1B,black,man,,,,null,,,,
null,are kissing each other,,html-keyboard-response,72,258891,0.0-13.0-2.10,46514,List1B,black,man,,,,null,,,,
11622,,,survey-text,73,270514,0.0-13.0-3.10,46514,List1B,black,man,,,,,"{""Q0"":""Dave and jane are kissing each other""}","<img src=""stim_listB/kiss4.gif""style=""height:400px;""></stim_listB>",are kissing each other,
null,"<div style=""font-size:60px;"">+</div>",,html-keyboard-response,74,271014,0.0-13.0-0.11,46514,List1B,black,man,,,,null,,,,
null,"<img src=""stim_listB/dance2.gif""style=""height:400px;""></stim_listB>",,html-keyboard-response,75,273019,0.0-13.0-1.11,46514,List1B,black,man,,,,null,,,,
null,are dancing with each other,,html-keyboard-response,76,275019,0.0-13.0-2.11,46514,List1B,black,man,,,,null,,,,
6407,,,survey-text,77,281428,0.0-13.0-3.11,46514,List1B,black,man,,,,,"{""Q0"":""Beth and mike are dancing with each other""}","<img src=""stim_listB/dance2.gif""style=""height:400px;""></stim_listB>",are dancing with each other,
null,"<div style=""font-size:60px;"">+</div>",,html-keyboard-response,78,281929,0.0-13.0-0.12,46514,List1B,black,man,,,,null,,,,
null,"<img src=""stim_listB/touch3.gif""style=""height:400px;""></stim_listB>",,html-keyboard-response,79,283931,0.0-13.0-1.12,46514,List1B,black,man,,,,null,,,,
null,is touching,,html-keyboard-response,80,285944,0.0-13.0-2.12,46514,List1B,black,man,,,,null,,,,
5131,,,survey-text,81,291076,0.0-13.0-3.12,46514,List1B,black,man,,,,,"{""Q0"":""Dave is touching jane""}","<img src=""stim_listB/touch3.gif""style=""height:400px;""></stim_listB>",is touching,
null,"<div style=""font-size:60px;"">+</div>",,html-keyboard-response,82,291588,0.0-13.0-0.13,46514,List1B,black,man,,,,null,,,,
null,"<img src=""stim_listB/flirt2.gif""style=""height:400px;""></stim_listB>",,html-keyboard-response,83,293594,0.0-13.0-1.13,46514,List1B,black,man,,,,null,,,,
null,are flirting with each other,,html-keyboard-response,84,295609,0.0-13.0-2.13,46514,List1B,black,man,,,,null,,,,
7755,,,survey-text,85,303380,0.0-13.0-3.13,46514,List1B,black,man,,,,,"{""Q0"":""Beth and mike are flirting with each other""}","<img src=""stim_listB/flirt2.gif""style=""height:400px;""></stim_listB>",are flirting with each other,
null,"<div style=""font-size:60px;"">+</div>",,html-keyboard-response,86,303884,0.0-13.0-0.14,46514,List1B,black,man,,,,null,,,,
null,"<img src=""stim_listB/kiss3.gif""style=""height:400px;""></stim_listB>",,html-keyboard-response,87,305893,0.0-13.0-1.14,46514,List1B,black,man,,,,null,,,,
null,is kissing,,html-keyboard-response,88,307893,0.0-13.0-2.14,46514,List1B,black,man,,,,null,,,,
9419,,,survey-text,89,317313,0.0-13.0-3.14,46514,List1B,black,man,,,,,"{""Q0"":""Luke is kissing ruth""}","<img src=""stim_listB/kiss3.gif""style=""height:400px;""></stim_listB>",is kissing,
null,"<div style=""font-size:60px;"">+</div>",,html-keyboard-response,90,317819,0.0-13.0-0.15,46514,List1B,black,man,,,,null,,,,
null,"<img src=""stim_listB/shout3.gif""style=""height:400px;""></stim_listB>",,html-keyboard-response,91,319831,0.0-13.0-1.15,46514,List1B,black,man,,,,null,,,,
null,is shouting at,,html-keyboard-response,92,321845,0.0-13.0-2.15,46514,List1B,black,man,,,,null,,,,
20309,,,survey-text,93,342155,0.0-13.0-3.15,46514,List1B,black,man,,,,,"{""Q0"":""Luke is shouting at ruth""}","<img src=""stim_listB/shout3.gif""style=""height:400px;""></stim_listB>",is shouting at,
null,"<div style=""font-size:60px;"">+</div>",,html-keyboard-response,94,342656,0.0-13.0-0.16,46514,List1B,black,man,,,,null,,,,
null,"<img src=""stim_listB/touch6.gif""style=""height:400px;""></stim_listB>",,html-keyboard-response,95,344672,0.0-13.0-1.16,46514,List1B,black,man,,,,null,,,,
null,are touching each other,,html-keyboard-response,96,346673,0.0-13.0-2.16,46514,List1B,black,man,,,,null,,,,
6738,,,survey-text,97,353412,0.0-13.0-3.16,46514,List1B,black,man,,,,,"{""Q0"":""Luke and fred are touching each other""}","<img src=""stim_listB/touch6.gif""style=""height:400px;""></stim_listB>",are touching each other,
null,"<div style=""font-size:60px;"">+</div>",,html-keyboard-response,98,353925,0.0-13.0-0.17,46514,List1B,black,man,,,,null,,,,
null,"<img src=""stim_listB/shout2.gif""style=""height:400px;""></stim_listB>",,html-keyboard-response,99,355925,0.0-13.0-1.17,46514,List1B,black,man,,,,null,,,,
null,are shouting at each other,,html-keyboard-response,100,357936,0.0-13.0-2.17,46514,List1B,black,man,,,,null,,,,
6509,,,survey-text,101,364445,0.0-13.0-3.17,46514,List1B,black,man,,,,,"{""Q0"":""Kate and mike are shouting at each other""}","<img src=""stim_listB/shout2.gif""style=""height:400px;""></stim_listB>",are shouting at each other,
null,"<div style=""font-size:60px;"">+</div>",,html-keyboard-response,102,364947,0.0-13.0-0.18,46514,List1B,black,man,,,,null,,,,
null,"<img src=""stim_listB/marry2.gif""style=""height:400px;""></stim_listB>",,html-keyboard-response,103,366948,0.0-13.0-1.18,46514,List1B,black,man,,,,null,,,,
null,are marrying each other,,html-keyboard-response,104,368948,0.0-13.0-2.18,46514,List1B,black,man,,,,null,,,,
7078,,,survey-text,105,376028,0.0-13.0-3.18,46514,List1B,black,man,,,,,"{""Q0"":""Kate and fred are marrying each other""}","<img src=""stim_listB/marry2.gif""style=""height:400px;""></stim_listB>",are marrying each other,
null,"<div style=""font-size:60px;"">+</div>",,html-keyboard-response,106,376530,0.0-13.0-0.19,46514,List1B,black,man,,,,null,,,,
null,"<img src=""stim_listB/touch1.gif""style=""height:400px;""></stim_listB>",,html-keyboard-response,107,378532,0.0-13.0-1.19,46514,List1B,black,man,,,,null,,,,
null,is touching,,html-keyboard-response,108,380536,0.0-13.0-2.19,46514,List1B,black,man,,,,null,,,,
4907,,,survey-text,109,385443,0.0-13.0-3.19,46514,List1B,black,man,,,,,"{""Q0"":""Kate is touching mike""}","<img src=""stim_listB/touch1.gif""style=""height:400px;""></stim_listB>",is touching,
4332,"<img src='img/portrait_matrix_list1.jpg' style='width:900px;height:500px;''></img><p>If you have memorised all the portraits and names and are ready to start, press Continue.</p><p><strong>Please note: Your memory of these faces will be tested 4 times during this experiment.</strong></p>",0,html-button-response,110,389777,0.0-14.0-0.0,46514,List1B,black,man,,,,,,,,
2497,"<img src=""portrait/WM2.jpg""style=""height:400px;""></img>",7,html-button-response,111,393276,0.0-14.0-1.0,46514,List1B,black,man,,TRUE,7,,,,,
null,CORRECT,,html-keyboard-response,112,394777,0.0-14.0-2.0-0.0,46514,List1B,black,man,,,,null,,,,
2897,"<img src=""portrait/WW1.jpg""style=""height:400px;""></img>",1,html-button-response,113,397676,0.0-14.0-4.0,46514,List1B,black,man,,TRUE,1,,,,,
null,CORRECT,,html-keyboard-response,114,399177,0.0-14.0-5.0-0.0,46514,List1B,black,man,,,,null,,,,
1548,"<img src=""portrait/BW2.jpg""style=""height:400px;""></img>",2,html-button-response,115,400726,0.0-14.0-7.0,46514,List1B,black,man,,TRUE,2,,,,,
null,CORRECT,,html-keyboard-response,116,402235,0.0-14.0-8.0-0.0,46514,List1B,black,man,,,,null,,,,
1432,"<img src=""portrait/BM1.jpg""style=""height:400px;""></img>",4,html-button-response,117,403669,0.0-14.0-10.0,46514,List1B,black,man,,TRUE,4,,,,,
null,CORRECT,,html-keyboard-response,118,405169,0.0-14.0-11.0-0.0,46514,List1B,black,man,,,,null,,,,
2385,"<img src=""portrait/BW1.jpg""style=""height:400px;""></img>",0,html-button-response,119,407555,0.0-14.0-13.0,46514,List1B,black,man,,TRUE,0,,,,,
null,CORRECT,,html-keyboard-response,120,409055,0.0-14.0-14.0-0.0,46514,List1B,black,man,,,,null,,,,
2485,"<img src=""portrait/WM1.jpg""style=""height:400px;""></img>",6,html-button-response,121,411557,0.0-14.0-16.0,46514,List1B,black,man,,TRUE,6,,,,,
null,CORRECT,,html-keyboard-response,122,413059,0.0-14.0-17.0-0.0,46514,List1B,black,man,,,,null,,,,
1854,"<img src=""portrait/WW2.jpg""style=""height:400px;""></img>",3,html-button-response,123,414916,0.0-14.0-19.0,46514,List1B,black,man,,TRUE,3,,,,,
null,CORRECT,,html-keyboard-response,124,416423,0.0-14.0-20.0-0.0,46514,List1B,black,man,,,,null,,,,
2458,"<img src=""portrait/BM2.jpg""style=""height:400px;""></img>",5,html-button-response,125,418885,0.0-14.0-22.0,46514,List1B,black,man,,TRUE,5,,,,,
null,CORRECT,,html-keyboard-response,126,420390,0.0-14.0-23.0-0.0,46514,List1B,black,man,,,,null,,,,
1437,<p>You got 8 out of 8 right first time. Press Continue.</p>,0,html-button-response,127,421840,0.0-14.0-25.0,46514,List1B,black,man,,,,,,,,
null,"<div style=""font-size:60px;"">+</div>",,html-keyboard-response,128,423469,0.0-15.0-0.0,46514,List1B,black,man,,,,null,,,,
null,"<img src=""stim_listB/kiss7.gif""style=""height:400px;""></stim_listB>",,html-keyboard-response,129,425835,0.0-15.0-1.0,46514,List1B,black,man,,,,null,,,,
null,is kissing,,html-keyboard-response,130,427836,0.0-15.0-2.0,46514,List1B,black,man,,,,null,,,,
4815,,,survey-text,131,432653,0.0-15.0-3.0,46514,List1B,black,man,,,,,"{""Q0"":""Beth is kissing ruth""}","<img src=""stim_listB/kiss7.gif""style=""height:400px;""></stim_listB>",is kissing,
null,"<div style=""font-size:60px;"">+</div>",,html-keyboard-response,132,433154,0.0-15.0-0.1,46514,List1B,black,man,,,,null,,,,
null,"<img src=""stim_listB/dance8.gif""style=""height:400px;""></stim_listB>",,html-keyboard-response,133,435181,0.0-15.0-1.1,46514,List1B,black,man,,,,null,,,,
null,are dancing with each other,,html-keyboard-response,134,437205,0.0-15.0-2.1,46514,List1B,black,man,,,,null,,,,
6165,,,survey-text,135,443372,0.0-15.0-3.1,46514,List1B,black,man,,,,,"{""Q0"":""Kate and ruth are dancing with each other""}","<img src=""stim_listB/dance8.gif""style=""height:400px;""></stim_listB>",are dancing with each other,
null,"<div style=""font-size:60px;"">+</div>",,html-keyboard-response,136,443873,0.0-15.0-0.2,46514,List1B,black,man,,,,null,,,,
null,"<img src=""stim_listB/argue2.gif""style=""height:400px;""></stim_listB>",,html-keyboard-response,137,445883,0.0-15.0-1.2,46514,List1B,black,man,,,,null,,,,
null,are arguing with each other,,html-keyboard-response,138,447883,0.0-15.0-2.2,46514,List1B,black,man,,,,null,,,,
9940,,,survey-text,139,457824,0.0-15.0-3.2,46514,List1B,black,man,,,,,"{""Q0"":""Fred and kate are arguing with each other""}","<img src=""stim_listB/argue2.gif""style=""height:400px;""></stim_listB>",are arguing with each other,
null,"<div style=""font-size:60px;"">+</div>",,html-keyboard-response,140,461352,0.0-15.0-0.3,46514,List1B,black,man,,,,null,,,,
null,"<img src=""stim_listB/talk4.gif""style=""height:400px;""></stim_listB>",,html-keyboard-response,141,463518,0.0-15.0-1.3,46514,List1B,black,man,,,,null,,,,
null,are talking to each other,,html-keyboard-response,142,465519,0.0-15.0-2.3,46514,List1B,black,man,,,,null,,,,
6004,,,survey-text,143,471524,0.0-15.0-3.3,46514,List1B,black,man,,,,,"{""Q0"":""Dave and ruth are talking to each other""}","<img src=""stim_listB/talk4.gif""style=""height:400px;""></stim_listB>",are talking to each other,
null,"<div style=""font-size:60px;"">+</div>",,html-keyboard-response,144,472038,0.0-15.0-0.4,46514,List1B,black,man,,,,null,,,,
null,"<img src=""stim_listB/shout5.gif""style=""height:400px;""></stim_listB>",,html-keyboard-response,145,474047,0.0-15.0-1.4,46514,List1B,black,man,,,,null,,,,
null,is shouting at,,html-keyboard-response,146,476047,0.0-15.0-2.4,46514,List1B,black,man,,,,null,,,,
4754,,,survey-text,147,480803,0.0-15.0-3.4,46514,List1B,black,man,,,,,"{""Q0"":""Fred is shouting at luke""}","<img src=""stim_listB/shout5.gif""style=""height:400px;""></stim_listB>",is shouting at,
null,"<div style=""font-size:60px;"">+</div>",,html-keyboard-response,148,481319,0.0-15.0-0.5,46514,List1B,black,man,,,,null,,,,
null,"<img src=""stim_listB/marry4.gif""style=""height:400px;""></stim_listB>",,html-keyboard-response,149,483319,0.0-15.0-1.5,46514,List1B,black,man,,,,null,,,,
null,are marrying each other,,html-keyboard-response,150,485321,0.0-15.0-2.5,46514,List1B,black,man,,,,null,,,,
6202,,,survey-text,151,491525,0.0-15.0-3.5,46514,List1B,black,man,,,,,"{""Q0"":""Jane and luke are marrying each other""}","<img src=""stim_listB/marry4.gif""style=""height:400px;""></stim_listB>",are marrying each other,
null,"<div style=""font-size:60px;"">+</div>",,html-keyboard-response,152,492026,0.0-15.0-0.6,46514,List1B,black,man,,,,null,,,,
null,"<img src=""stim_listB/fight2.gif""style=""height:400px;""></stim_listB>",,html-keyboard-response,153,494030,0.0-15.0-1.6,46514,List1B,black,man,,,,null,,,,
null,are fighting each other,,html-keyboard-response,154,496037,0.0-15.0-2.6,46514,List1B,black,man,,,,null,,,,
6237,,,survey-text,155,502274,0.0-15.0-3.6,46514,List1B,black,man,,,,,"{""Q0"":""Fred and beth are fighting each other""}","<img src=""stim_listB/fight2.gif""style=""height:400px;""></stim_listB>",are fighting each other,
null,"<div style=""font-size:60px;"">+</div>",,html-keyboard-response,156,502777,0.0-15.0-0.7,46514,List1B,black,man,,,,null,,,,
null,"<img src=""stim_listB/marry5.gif""style=""height:400px;""></stim_listB>",,html-keyboard-response,157,504778,0.0-15.0-1.7,46514,List1B,black,man,,,,null,,,,
null,is marrying,,html-keyboard-response,158,506779,0.0-15.0-2.7,46514,List1B,black,man,,,,null,,,,
4768,,,survey-text,159,511549,0.0-15.0-3.7,46514,List1B,black,man,,,,,"{""Q0"":""Luke is marrying mike""}","<img src=""stim_listB/marry5.gif""style=""height:400px;""></stim_listB>",is marrying,
null,"<div style=""font-size:60px;"">+</div>",,html-keyboard-response,160,512050,0.0-15.0-0.8,46514,List1B,black,man,,,,null,,,,
null,"<img src=""stim_listB/argue8.gif""style=""height:400px;""></stim_listB>",,html-keyboard-response,161,514055,0.0-15.0-1.8,46514,List1B,black,man,,,,null,,,,
null,are arguing with each other,,html-keyboard-response,162,516055,0.0-15.0-2.8,46514,List1B,black,man,,,,null,,,,
7451,,,survey-text,163,523508,0.0-15.0-3.8,46514,List1B,black,man,,,,,"{""Q0"":""Beth and jane are arguing with each other""}","<img src=""stim_listB/argue8.gif""style=""height:400px;""></stim_listB>",are arguing with each other,
null,"<div style=""font-size:60px;"">+</div>",,html-keyboard-response,164,524010,0.0-15.0-0.9,46514,List1B,black,man,,,,null,,,,
null,"<img src=""stim_listB/flirt1.gif""style=""height:400px;""></stim_listB>",,html-keyboard-response,165,526012,0.0-15.0-1.9,46514,List1B,black,man,,,,null,,,,
null,is flirting with,,html-keyboard-response,166,528013,0.0-15.0-2.9,46514,List1B,black,man,,,,null,,,,
6629,,,survey-text,167,534644,0.0-15.0-3.9,46514,List1B,black,man,,,,,"{""Q0"":""Fred is flirting with kate""}","<img src=""stim_listB/flirt1.gif""style=""height:400px;""></stim_listB>",is flirting with,
null,"<div style=""font-size:60px;"">+</div>",,html-keyboard-response,168,535145,0.0-15.0-0.10,46514,List1B,black,man,,,,null,,,,
null,"<img src=""stim_listB/fight8.gif""style=""height:400px;""></stim_listB>",,html-keyboard-response,169,537159,0.0-15.0-1.10,46514,List1B,black,man,,,,null,,,,
null,are fighting each other,,html-keyboard-response,170,539159,0.0-15.0-2.10,46514,List1B,black,man,,,,null,,,,
6292,,,survey-text,171,545468,0.0-15.0-3.10,46514,List1B,black,man,,,,,"{""Q0"":""Ruth and beth are fighting each other""}","<img src=""stim_listB/fight8.gif""style=""height:400px;""></stim_listB>",are fighting each other,
null,"<div style=""font-size:60px;"">+</div>",,html-keyboard-response,172,545973,0.0-15.0-0.11,46514,List1B,black,man,,,,null,,,,
null,"<img src=""stim_listB/flirt4.gif""style=""height:400px;""></stim_listB>",,html-keyboard-response,173,547973,0.0-15.0-1.11,46514,List1B,black,man,,,,null,,,,
null,are flirting with each other,,html-keyboard-response,174,549974,0.0-15.0-2.11,46514,List1B,black,man,,,,null,,,,
6060,,,survey-text,175,556035,0.0-15.0-3.11,46514,List1B,black,man,,,,,"{""Q0"":""Dave and ruth are flirting with each other""}","<img src=""stim_listB/flirt4.gif""style=""height:400px;""></stim_listB>",are flirting with each other,
null,"<div style=""font-size:60px;"">+</div>",,html-keyboard-response,176,556535,0.0-15.0-0.12,46514,List1B,black,man,,,,null,,,,
null,"<img src=""stim_listB/fight3.gif""style=""height:400px;""></stim_listB>",,html-keyboard-response,177,558537,0.0-15.0-1.12,46514,List1B,black,man,,,,null,,,,
null,is fighting,,html-keyboard-response,178,560538,0.0-15.0-2.12,46514,List1B,black,man,,,,null,,,,
6795,,,survey-text,179,567334,0.0-15.0-3.12,46514,List1B,black,man,,,,,"{""Q0"":""Dave is fighting jane""}","<img src=""stim_listB/fight3.gif""style=""height:400px;""></stim_listB>",is fighting,
null,"<div style=""font-size:60px;"">+</div>",,html-keyboard-response,180,567840,0.0-15.0-0.13,46514,List1B,black,man,,,,null,,,,
null,"<img src=""stim_listB/play3.gif""style=""height:400px;""></stim_listB>",,html-keyboard-response,181,569856,0.0-15.0-1.13,46514,List1B,black,man,,,,null,,,,
null,is playing with,,html-keyboard-response,182,571865,0.0-15.0-2.13,46514,List1B,black,man,,,,null,,,,
4919,,,survey-text,183,576784,0.0-15.0-3.13,46514,List1B,black,man,,,,,"{""Q0"":""Dave is playing with jane""}","<img src=""stim_listB/play3.gif""style=""height:400px;""></stim_listB>",is playing with,
null,"<div style=""font-size:60px;"">+</div>",,html-keyboard-response,184,577284,0.0-15.0-0.14,46514,List1B,black,man,,,,null,,,,
null,"<img src=""stim_listB/play7.gif""style=""height:400px;""></stim_listB>",,html-keyboard-response,185,579297,0.0-15.0-1.14,46514,List1B,black,man,,,,null,,,,
null,is playing with,,html-keyboard-response,186,581297,0.0-15.0-2.14,46514,List1B,black,man,,,,null,,,,
6615,,,survey-text,187,587914,0.0-15.0-3.14,46514,List1B,black,man,,,,,"{""Q0"":""jane is playing with kate""}","<img src=""stim_listB/play7.gif""style=""height:400px;""></stim_listB>",is playing with,
null,"<div style=""font-size:60px;"">+</div>",,html-keyboard-response,188,588415,0.0-15.0-0.15,46514,List1B,black,man,,,,null,,,,
null,"<img src=""stim_listB/fight1.gif""style=""height:400px;""></stim_listB>",,html-keyboard-response,189,590418,0.0-15.0-1.15,46514,List1B,black,man,,,,null,,,,
null,is fighting,,html-keyboard-response,190,592419,0.0-15.0-2.15,46514,List1B,black,man,,,,null,,,,
4781,,,survey-text,191,597201,0.0-15.0-3.15,46514,List1B,black,man,,,,,"{""Q0"":""Mike is fighting kate""}","<img src=""stim_listB/fight1.gif""style=""height:400px;""></stim_listB>",is fighting,
null,"<div style=""font-size:60px;"">+</div>",,html-keyboard-response,192,597701,0.0-15.0-0.16,46514,List1B,black,man,,,,null,,,,
null,"<img src=""stim_listB/argue6.gif""style=""height:400px;""></stim_listB>",,html-keyboard-response,193,599706,0.0-15.0-1.16,46514,List1B,black,man,,,,null,,,,
null,are arguing with each other,,html-keyboard-response,194,601719,0.0-15.0-2.16,46514,List1B,black,man,,,,null,,,,
6517,,,survey-text,195,608236,0.0-15.0-3.16,46514,List1B,black,man,,,,,"{""Q0"":""Dave and fred are arguing with each other""}","<img src=""stim_listB/argue6.gif""style=""height:400px;""></stim_listB>",are arguing with each other,
null,"<div style=""font-size:60px;"">+</div>",,html-keyboard-response,196,608737,0.0-15.0-0.17,46514,List1B,black,man,,,,null,,,,
null,"<img src=""stim_listB/talk1.gif""style=""height:400px;""></stim_listB>",,html-keyboard-response,197,610740,0.0-15.0-1.17,46514,List1B,black,man,,,,null,,,,
null,is talking to,,html-keyboard-response,198,612743,0.0-15.0-2.17,46514,List1B,black,man,,,,null,,,,
3612,,,survey-text,199,616357,0.0-15.0-3.17,46514,List1B,black,man,,,,,"{""Q0"":""Fred is talking to kate""}","<img src=""stim_listB/talk1.gif""style=""height:400px;""></stim_listB>",is talking to,
null,"<div style=""font-size:60px;"">+</div>",,html-keyboard-response,200,616858,0.0-15.0-0.18,46514,List1B,black,man,,,,null,,,,
null,"<img src=""stim_listB/kiss1.gif""style=""height:400px;""></stim_listB>",,html-keyboard-response,201,618860,0.0-15.0-1.18,46514,List1B,black,man,,,,null,,,,
null,is kissing,,html-keyboard-response,202,620861,0.0-15.0-2.18,46514,List1B,black,man,,,,null,,,,
3872,,,survey-text,203,624734,0.0-15.0-3.18,46514,List1B,black,man,,,,,"{""Q0"":""fred is kissing beth""}","<img src=""stim_listB/kiss1.gif""style=""height:400px;""></stim_listB>",is kissing,
null,"<div style=""font-size:60px;"">+</div>",,html-keyboard-response,204,625263,0.0-15.0-0.19,46514,List1B,black,man,,,,null,,,,
null,"<img src=""stim_listB/talk3.gif""style=""height:400px;""></stim_listB>",,html-keyboard-response,205,627265,0.0-15.0-1.19,46514,List1B,black,man,,,,null,,,,
null,is talking to,,html-keyboard-response,206,629266,0.0-15.0-2.19,46514,List1B,black,man,,,,null,,,,
4849,,,survey-text,207,634116,0.0-15.0-3.19,46514,List1B,black,man,,,,,"{""Q0"":""luke is talking to jane""}","<img src=""stim_listB/talk3.gif""style=""height:400px;""></stim_listB>",is talking to,
2256,"<img src='img/portrait_matrix_list1.jpg' style='width:900px;height:500px;''></img><p>If you have memorised all the portraits and names and are ready to start, press Continue.</p><p><strong>Please note: Your memory of these faces will be tested 4 times during this experiment.</strong></p>",0,html-button-response,208,636373,0.0-16.0-0.0,46514,List1B,black,man,,,,,,,,
1747,"<img src=""portrait/BM2.jpg""style=""height:400px;""></img>",5,html-button-response,209,639126,0.0-16.0-1.0,46514,List1B,black,man,,TRUE,5,,,,,
null,CORRECT,,html-keyboard-response,210,640641,0.0-16.0-2.0-0.0,46514,List1B,black,man,,,,null,,,,
1458,"<img src=""portrait/BM1.jpg""style=""height:400px;""></img>",4,html-button-response,211,642101,0.0-16.0-4.0,46514,List1B,black,man,,TRUE,4,,,,,
null,CORRECT,,html-keyboard-response,212,643610,0.0-16.0-5.0-0.0,46514,List1B,black,man,,,,null,,,,
1215,"<img src=""portrait/WM2.jpg""style=""height:400px;""></img>",7,html-button-response,213,644829,0.0-16.0-7.0,46514,List1B,black,man,,TRUE,7,,,,,
null,CORRECT,,html-keyboard-response,214,646329,0.0-16.0-8.0-0.0,46514,List1B,black,man,,,,null,,,,
1420,"<img src=""portrait/WM1.jpg""style=""height:400px;""></img>",6,html-button-response,215,647751,0.0-16.0-10.0,46514,List1B,black,man,,TRUE,6,,,,,
null,CORRECT,,html-keyboard-response,216,649252,0.0-16.0-11.0-0.0,46514,List1B,black,man,,,,null,,,,
1176,"<img src=""portrait/BW2.jpg""style=""height:400px;""></img>",2,html-button-response,217,650429,0.0-16.0-13.0,46514,List1B,black,man,,TRUE,2,,,,,
null,CORRECT,,html-keyboard-response,218,651952,0.0-16.0-14.0-0.0,46514,List1B,black,man,,,,null,,,,
1140,"<img src=""portrait/WW2.jpg""style=""height:400px;""></img>",3,html-button-response,219,653093,0.0-16.0-16.0,46514,List1B,black,man,,TRUE,3,,,,,
null,CORRECT,,html-keyboard-response,220,654594,0.0-16.0-17.0-0.0,46514,List1B,black,man,,,,null,,,,
1425,"<img src=""portrait/BW1.jpg""style=""height:400px;""></img>",0,html-button-response,221,656021,0.0-16.0-19.0,46514,List1B,black,man,,TRUE,0,,,,,
null,CORRECT,,html-keyboard-response,222,657537,0.0-16.0-20.0-0.0,46514,List1B,black,man,,,,null,,,,
1410,"<img src=""portrait/WW1.jpg""style=""height:400px;""></img>",1,html-button-response,223,658948,0.0-16.0-22.0,46514,List1B,black,man,,TRUE,1,,,,,
null,CORRECT,,html-keyboard-response,224,660448,0.0-16.0-23.0-0.0,46514,List1B,black,man,,,,null,,,,
1050,<p>You got 8 out of 8 right first time. Press Continue.</p>,0,html-button-response,225,661500,0.0-16.0-25.0,46514,List1B,black,man,,,,,,,,
null,"<div style=""font-size:60px;"">+</div>",,html-keyboard-response,226,663001,0.0-17.0-0.0,46514,List1B,black,man,,,,null,,,,
null,"<img src=""stim_listB/talk7.gif""style=""height:400px;""></stim_listB>",,html-keyboard-response,227,665004,0.0-17.0-1.0,46514,List1B,black,man,,,,null,,,,
null,is talking to,,html-keyboard-response,228,667004,0.0-17.0-2.0,46514,List1B,black,man,,,,null,,,,
4160,,,survey-text,229,671165,0.0-17.0-3.0,46514,List1B,black,man,,,,,"{""Q0"":""beth is talking to jane""}","<img src=""stim_listB/talk7.gif""style=""height:400px;""></stim_listB>",is talking to,
null,"<div style=""font-size:60px;"">+</div>",,html-keyboard-response,230,671665,0.0-17.0-0.1,46514,List1B,black,man,,,,null,,,,
null,"<img src=""stim_listB/kiss6.gif""style=""height:400px;""></stim_listB>",,html-keyboard-response,231,673667,0.0-17.0-1.1,46514,List1B,black,man,,,,null,,,,
null,are kissing each other,,html-keyboard-response,232,675675,0.0-17.0-2.1,46514,List1B,black,man,,,,null,,,,
5576,,,survey-text,233,681252,0.0-17.0-3.1,46514,List1B,black,man,,,,,"{""Q0"":""dave and mike are kissing each other""}","<img src=""stim_listB/kiss6.gif""style=""height:400px;""></stim_listB>",are kissing each other,
null,"<div style=""font-size:60px;"">+</div>",,html-keyboard-response,234,681753,0.0-17.0-0.2,46514,List1B,black,man,,,,null,,,,
null,"<img src=""stim_listB/marry1.gif""style=""height:400px;""></stim_listB>",,html-keyboard-response,235,683755,0.0-17.0-1.2,46514,List1B,black,man,,,,null,,,,
null,is marrying,,html-keyboard-response,236,685756,0.0-17.0-2.2,46514,List1B,black,man,,,,null,,,,
4224,,,survey-text,237,689996,0.0-17.0-3.2,46514,List1B,black,man,,,,,"{""Q0"":""mike is marrying beth""}","<img src=""stim_listB/marry1.gif""style=""height:400px;""></stim_listB>",is marrying,
null,"<div style=""font-size:60px;"">+</div>",,html-keyboard-response,238,690496,0.0-17.0-0.3,46514,List1B,black,man,,,,null,,,,
null,"<img src=""stim_listB/dance7.gif""style=""height:400px;""></stim_listB>",,html-keyboard-response,239,692498,0.0-17.0-1.3,46514,List1B,black,man,,,,null,,,,
null,is dancing with,,html-keyboard-response,240,694500,0.0-17.0-2.3,46514,List1B,black,man,,,,null,,,,
3967,,,survey-text,241,698468,0.0-17.0-3.3,46514,List1B,black,man,,,,,"{""Q0"":""beth is dancing with jane""}","<img src=""stim_listB/dance7.gif""style=""height:400px;""></stim_listB>",is dancing with,
null,"<div style=""font-size:60px;"">+</div>",,html-keyboard-response,242,698969,0.0-17.0-0.4,46514,List1B,black,man,,,,null,,,,
null,"<img src=""stim_listB/dance5.gif""style=""height:400px;""></stim_listB>",,html-keyboard-response,243,700971,0.0-17.0-1.4,46514,List1B,black,man,,,,null,,,,
null,is dancing with,,html-keyboard-response,244,702972,0.0-17.0-2.4,46514,List1B,black,man,,,,null,,,,
5286,,,survey-text,245,708260,0.0-17.0-3.4,46514,List1B,black,man,,,,,"{""Q0"":""fred is dancing with dave""}","<img src=""stim_listB/dance5.gif""style=""height:400px;""></stim_listB>",is dancing with,
null,"<div style=""font-size:60px;"">+</div>",,html-keyboard-response,246,708763,0.0-17.0-0.5,46514,List1B,black,man,,,,null,,,,
null,"<img src=""stim_listB/argue5.gif""style=""height:400px;""></stim_listB>",,html-keyboard-response,247,710766,0.0-17.0-1.5,46514,List1B,black,man,,,,null,,,,
null,is arguing with,,html-keyboard-response,248,712767,0.0-17.0-2.5,46514,List1B,black,man,,,,null,,,,
5045,,,survey-text,249,717813,0.0-17.0-3.5,46514,List1B,black,man,,,,,"{""Q0"":""luke is arguing with mike""}","<img src=""stim_listB/argue5.gif""style=""height:400px;""></stim_listB>",is arguing with,
null,"<div style=""font-size:60px;"">+</div>",,html-keyboard-response,250,718314,0.0-17.0-0.6,46514,List1B,black,man,,,,null,,,,
null,"<img src=""stim_listB/argue3.gif""style=""height:400px;""></stim_listB>",,html-keyboard-response,251,720316,0.0-17.0-1.6,46514,List1B,black,man,,,,null,,,,
null,is arguing with,,html-keyboard-response,252,722317,0.0-17.0-2.6,46514,List1B,black,man,,,,null,,,,
4421,,,survey-text,253,726740,0.0-17.0-3.6,46514,List1B,black,man,,,,,"{""Q0"":""ruth is arguing with dave""}","<img src=""stim_listB/argue3.gif""style=""height:400px;""></stim_listB>",is arguing with,
null,"<div style=""font-size:60px;"">+</div>",,html-keyboard-response,254,727251,0.0-17.0-0.7,46514,List1B,black,man,,,,null,,,,
null,"<img src=""stim_listB/kiss8.gif""style=""height:400px;""></stim_listB>",,html-keyboard-response,255,729251,0.0-17.0-1.7,46514,List1B,black,man,,,,null,,,,
null,are kissing each other,,html-keyboard-response,256,731252,0.0-17.0-2.7,46514,List1B,black,man,,,,null,,,,
5782,,,survey-text,257,737036,0.0-17.0-3.7,46514,List1B,black,man,,,,,"{""Q0"":""kate and jane are kissing each other""}","<img src=""stim_listB/kiss8.gif""style=""height:400px;""></stim_listB>",are kissing each other,
null,"<div style=""font-size:60px;"">+</div>",,html-keyboard-response,258,737537,0.0-17.0-0.8,46514,List1B,black,man,,,,null,,,,
null,"<img src=""stim_listB/marry8.gif""style=""height:400px;""></stim_listB>",,html-keyboard-response,259,739547,0.0-17.0-1.8,46514,List1B,black,man,,,,null,,,,
null,are marrying each other,,html-keyboard-response,260,741547,0.0-17.0-2.8,46514,List1B,black,man,,,,null,,,,
5931,,,survey-text,261,747479,0.0-17.0-3.8,46514,List1B,black,man,,,,,"{""Q0"":""beth and jane are marrying each other""}","<img src=""stim_listB/marry8.gif""style=""height:400px;""></stim_listB>",are marrying each other,
null,"<div style=""font-size:60px;"">+</div>",,html-keyboard-response,262,747982,0.0-17.0-0.9,46514,List1B,black,man,,,,null,,,,
null,"<img src=""stim_listB/play1.gif""style=""height:400px;""></stim_listB>",,html-keyboard-response,263,749982,0.0-17.0-1.9,46514,List1B,black,man,,,,null,,,,
null,is playing with,,html-keyboard-response,264,751983,0.0-17.0-2.9,46514,List1B,black,man,,,,null,,,,
5410,,,survey-text,265,757394,0.0-17.0-3.9,46514,List1B,black,man,,,,,"{""Q0"":""mike is playing with kate""}","<img src=""stim_listB/play1.gif""style=""height:400px;""></stim_listB>",is playing with,
null,"<div style=""font-size:60px;"">+</div>",,html-keyboard-response,266,757905,0.0-17.0-0.10,46514,List1B,black,man,,,,null,,,,
null,"<img src=""stim_listB/shout6.gif""style=""height:400px;""></stim_listB>",,html-keyboard-response,267,759905,0.0-17.0-1.10,46514,List1B,black,man,,,,null,,,,
null,are shouting at each other,,html-keyboard-response,268,761906,0.0-17.0-2.10,46514,List1B,black,man,,,,null,,,,
6192,,,survey-text,269,768099,0.0-17.0-3.10,46514,List1B,black,man,,,,,"{""Q0"":""dave and mike are shouting at each other""}","<img src=""stim_listB/shout6.gif""style=""height:400px;""></stim_listB>",are shouting at each other,
null,"<div style=""font-size:60px;"">+</div>",,html-keyboard-response,270,768601,0.0-17.0-0.11,46514,List1B,black,man,,,,null,,,,
null,"<img src=""stim_listB/flirt5.gif""style=""height:400px;""></stim_listB>",,html-keyboard-response,271,770604,0.0-17.0-1.11,46514,List1B,black,man,,,,null,,,,
null,is flirting with,,html-keyboard-response,272,772605,0.0-17.0-2.11,46514,List1B,black,man,,,,null,,,,
4157,,,survey-text,273,776764,0.0-17.0-3.11,46514,List1B,black,man,,,,,"{""Q0"":""dave is flirting with fred""}","<img src=""stim_listB/flirt5.gif""style=""height:400px;""></stim_listB>",is flirting with,
null,"<div style=""font-size:60px;"">+</div>",,html-keyboard-response,274,777265,0.0-17.0-0.12,46514,List1B,black,man,,,,null,,,,
null,"<img src=""stim_listB/play8.gif""style=""height:400px;""></stim_listB>",,html-keyboard-response,275,779268,0.0-17.0-1.12,46514,List1B,black,man,,,,null,,,,
null,are playing with each other,,html-keyboard-response,276,781270,0.0-17.0-2.12,46514,List1B,black,man,,,,null,,,,
7348,,,survey-text,277,788620,0.0-17.0-3.12,46514,List1B,black,man,,,,,"{""Q0"":""beth and ruth are playing with each other""}","<img src=""stim_listB/play8.gif""style=""height:400px;""></stim_listB>",are playing with each other,
null,"<div style=""font-size:60px;"">+</div>",,html-keyboard-response,278,789121,0.0-17.0-0.13,46514,List1B,black,man,,,,null,,,,
null,"<img src=""stim_listB/fight6.gif""style=""height:400px;""></stim_listB>",,html-keyboard-response,279,791123,0.0-17.0-1.13,46514,List1B,black,man,,,,null,,,,
null,are fighting each other,,html-keyboard-response,280,793139,0.0-17.0-2.13,46514,List1B,black,man,,,,null,,,,
8371,,,survey-text,281,801510,0.0-17.0-3.13,46514,List1B,black,man,,,,,"{""Q0"":""luke and fred are fighting each other""}","<img src=""stim_listB/fight6.gif""style=""height:400px;""></stim_listB>",are fighting each other,
null,"<div style=""font-size:60px;"">+</div>",,html-keyboard-response,282,802029,0.0-17.0-0.14,46514,List1B,black,man,,,,null,,,,
null,"<img src=""stim_listB/talk5.gif""style=""height:400px;""></stim_listB>",,html-keyboard-response,283,804029,0.0-17.0-1.14,46514,List1B,black,man,,,,null,,,,
null,is talking to,,html-keyboard-response,284,806035,0.0-17.0-2.14,46514,List1B,black,man,,,,null,,,,
3526,,,survey-text,285,809561,0.0-17.0-3.14,46514,List1B,black,man,,,,,"{""Q0"":""fred is talking to dave""}","<img src=""stim_listB/talk5.gif""style=""height:400px;""></stim_listB>",is talking to,
null,"<div style=""font-size:60px;"">+</div>",,html-keyboard-response,286,810072,0.0-17.0-0.15,46514,List1B,black,man,,,,null,,,,
null,"<img src=""stim_listB/touch5.gif""style=""height:400px;""></stim_listB>",,html-keyboard-response,287,812079,0.0-17.0-1.15,46514,List1B,black,man,,,,null,,,,
null,is touching,,html-keyboard-response,288,814091,0.0-17.0-2.15,46514,List1B,black,man,,,,null,,,,
3786,,,survey-text,289,817877,0.0-17.0-3.15,46514,List1B,black,man,,,,,"{""Q0"":""dave is touching mike""}","<img src=""stim_listB/touch5.gif""style=""height:400px;""></stim_listB>",is touching,
null,"<div style=""font-size:60px;"">+</div>",,html-keyboard-response,290,818377,0.0-17.0-0.16,46514,List1B,black,man,,,,null,,,,
null,"<img src=""stim_listB/shout8.gif""style=""height:400px;""></stim_listB>",,html-keyboard-response,291,820391,0.0-17.0-1.16,46514,List1B,black,man,,,,null,,,,
null,are shouting at each other,,html-keyboard-response,292,822391,0.0-17.0-2.16,46514,List1B,black,man,,,,null,,,,
5701,,,survey-text,293,828093,0.0-17.0-3.16,46514,List1B,black,man,,,,,"{""Q0"":""kate and jane are shouting at each other""}","<img src=""stim_listB/shout8.gif""style=""height:400px;""></stim_listB>",are shouting at each other,
null,"<div style=""font-size:60px;"">+</div>",,html-keyboard-response,294,828593,0.0-17.0-0.17,46514,List1B,black,man,,,,null,,,,
null,"<img src=""stim_listB/argue7.gif""style=""height:400px;""></stim_listB>",,html-keyboard-response,295,830596,0.0-17.0-1.17,46514,List1B,black,man,,,,null,,,,
null,is arguing with,,html-keyboard-response,296,832597,0.0-17.0-2.17,46514,List1B,black,man,,,,null,,,,
5195,,,survey-text,297,837793,0.0-17.0-3.17,46514,List1B,black,man,,,,,"{""Q0"":""kate is arguing with ruth""}","<img src=""stim_listB/argue7.gif""style=""height:400px;""></stim_listB>",is arguing with,
null,"<div style=""font-size:60px;"">+</div>",,html-keyboard-response,298,838293,0.0-17.0-0.18,46514,List1B,black,man,,,,null,,,,
null,"<img src=""stim_listB/argue1.gif""style=""height:400px;""></stim_listB>",,html-keyboard-response,299,840296,0.0-17.0-1.18,46514,List1B,black,man,,,,null,,,,
null,is arguing with,,html-keyboard-response,300,842297,0.0-17.0-2.18,46514,List1B,black,man,,,,null,,,,
4401,,,survey-text,301,846700,0.0-17.0-3.18,46514,List1B,black,man,,,,,"{""Q0"":""beth is arguing with mike""}","<img src=""stim_listB/argue1.gif""style=""height:400px;""></stim_listB>",is arguing with,
null,"<div style=""font-size:60px;"">+</div>",,html-keyboard-response,302,847201,0.0-17.0-0.19,46514,List1B,black,man,,,,null,,,,
null,"<img src=""stim_listB/touch7.gif""style=""height:400px;""></stim_listB>",,html-keyboard-response,303,849211,0.0-17.0-1.19,46514,List1B,black,man,,,,null,,,,
null,is touching,,html-keyboard-response,304,851211,0.0-17.0-2.19,46514,List1B,black,man,,,,null,,,,
4728,,,survey-text,305,855941,0.0-17.0-3.19,46514,List1B,black,man,,,,,"{""Q0"":""kate is touching jane""}","<img src=""stim_listB/touch7.gif""style=""height:400px;""></stim_listB>",is touching,
1477,"<img src='img/portrait_matrix_list1.jpg' style='width:900px;height:500px;''></img><p>If you have memorised all the portraits and names and are ready to start, press Continue.</p><p><strong>Please note: Your memory of these faces will be tested 4 times during this experiment.</strong></p>",0,html-button-response,306,857421,0.0-18.0-0.0,46514,List1B,black,man,,,,,,,,
1124,"<img src=""portrait/WW2.jpg""style=""height:400px;""></img>",3,html-button-response,307,859549,0.0-18.0-1.0,46514,List1B,black,man,,TRUE,3,,,,,
null,CORRECT,,html-keyboard-response,308,861077,0.0-18.0-2.0-0.0,46514,List1B,black,man,,,,null,,,,
1230,"<img src=""portrait/BM2.jpg""style=""height:400px;""></img>",5,html-button-response,309,862307,0.0-18.0-4.0,46514,List1B,black,man,,TRUE,5,,,,,
null,CORRECT,,html-keyboard-response,310,863818,0.0-18.0-5.0-0.0,46514,List1B,black,man,,,,null,,,,
1322,"<img src=""portrait/WW1.jpg""style=""height:400px;""></img>",1,html-button-response,311,865141,0.0-18.0-7.0,46514,List1B,black,man,,TRUE,1,,,,,
null,CORRECT,,html-keyboard-response,312,866642,0.0-18.0-8.0-0.0,46514,List1B,black,man,,,,null,,,,
1099,"<img src=""portrait/BW2.jpg""style=""height:400px;""></img>",2,html-button-response,313,867742,0.0-18.0-10.0,46514,List1B,black,man,,TRUE,2,,,,,
null,CORRECT,,html-keyboard-response,314,869242,0.0-18.0-11.0-0.0,46514,List1B,black,man,,,,null,,,,
1064,"<img src=""portrait/WM2.jpg""style=""height:400px;""></img>",7,html-button-response,315,870307,0.0-18.0-13.0,46514,List1B,black,man,,TRUE,7,,,,,
null,CORRECT,,html-keyboard-response,316,871807,0.0-18.0-14.0-0.0,46514,List1B,black,man,,,,null,,,,
1233,"<img src=""portrait/BW1.jpg""style=""height:400px;""></img>",0,html-button-response,317,873042,0.0-18.0-16.0,46514,List1B,black,man,,TRUE,0,,,,,
null,CORRECT,,html-keyboard-response,318,874544,0.0-18.0-17.0-0.0,46514,List1B,black,man,,,,null,,,,
1447,"<img src=""portrait/BM1.jpg""style=""height:400px;""></img>",4,html-button-response,319,875992,0.0-18.0-19.0,46514,List1B,black,man,,TRUE,4,,,,,
null,CORRECT,,html-keyboard-response,320,877502,0.0-18.0-20.0-0.0,46514,List1B,black,man,,,,null,,,,
1518,"<img src=""portrait/WM1.jpg""style=""height:400px;""></img>",6,html-button-response,321,879022,0.0-18.0-22.0,46514,List1B,black,man,,TRUE,6,,,,,
null,CORRECT,,html-keyboard-response,322,880531,0.0-18.0-23.0-0.0,46514,List1B,black,man,,,,null,,,,
1194,<p>You got 8 out of 8 right first time. Press Continue.</p>,0,html-button-response,323,881725,0.0-18.0-25.0,46514,List1B,black,man,,,,,,,,
null,"<div style=""font-size:60px;"">+</div>",,html-keyboard-response,324,883246,0.0-19.0-0.0,46514,List1B,black,man,,,,null,,,,
null,"<img src=""stim_listB/shout1.gif""style=""height:400px;""></stim_listB>",,html-keyboard-response,325,885260,0.0-19.0-1.0,46514,List1B,black,man,,,,null,,,,
null,is shouting at,,html-keyboard-response,326,887265,0.0-19.0-2.0,46514,List1B,black,man,,,,null,,,,
5298,,,survey-text,327,892564,0.0-19.0-3.0,46514,List1B,black,man,,,,,"{""Q0"":""fred is shouting at beth""}","<img src=""stim_listB/shout1.gif""style=""height:400px;""></stim_listB>",is shouting at,
null,"<div style=""font-size:60px;"">+</div>",,html-keyboard-response,328,893066,0.0-19.0-0.1,46514,List1B,black,man,,,,null,,,,
null,"<img src=""stim_listB/play4.gif""style=""height:400px;""></stim_listB>",,html-keyboard-response,329,895078,0.0-19.0-1.1,46514,List1B,black,man,,,,null,,,,
null,are playing with each other,,html-keyboard-response,330,897087,0.0-19.0-2.1,46514,List1B,black,man,,,,null,,,,
6603,,,survey-text,331,903690,0.0-19.0-3.1,46514,List1B,black,man,,,,,"{""Q0"":""ruth and luke are playing with each other""}","<img src=""stim_listB/play4.gif""style=""height:400px;""></stim_listB>",are playing with each other,
null,"<div style=""font-size:60px;"">+</div>",,html-keyboard-response,332,904190,0.0-19.0-0.2,46514,List1B,black,man,,,,null,,,,
null,"<img src=""stim_listB/play5.gif""style=""height:400px;""></stim_listB>",,html-keyboard-response,333,906195,0.0-19.0-1.2,46514,List1B,black,man,,,,null,,,,
null,is playing with,,html-keyboard-response,334,908203,0.0-19.0-2.2,46514,List1B,black,man,,,,null,,,,
4254,,,survey-text,335,912457,0.0-19.0-3.2,46514,List1B,black,man,,,,,"{""Q0"":""mike is playing with dave""}","<img src=""stim_listB/play5.gif""style=""height:400px;""></stim_listB>",is playing with,
null,"<div style=""font-size:60px;"">+</div>",,html-keyboard-response,336,912961,0.0-19.0-0.3,46514,List1B,black,man,,,,null,,,,
null,"<img src=""stim_listB/marry6.gif""style=""height:400px;""></stim_listB>",,html-keyboard-response,337,914962,0.0-19.0-1.3,46514,List1B,black,man,,,,null,,,,
null,are marrying each other,,html-keyboard-response,338,916963,0.0-19.0-2.3,46514,List1B,black,man,,,,null,,,,
5257,,,survey-text,339,922221,0.0-19.0-3.3,46514,List1B,black,man,,,,,"{""Q0"":""fred and dave are marrying each other""}","<img src=""stim_listB/marry6.gif""style=""height:400px;""></stim_listB>",are marrying each other,
null,"<div style=""font-size:60px;"">+</div>",,html-keyboard-response,340,922721,0.0-19.0-0.4,46514,List1B,black,man,,,,null,,,,
null,"<img src=""stim_listB/fight4.gif""style=""height:400px;""></stim_listB>",,html-keyboard-response,341,924724,0.0-19.0-1.4,46514,List1B,black,man,,,,null,,,,
null,are fighting each other,,html-keyboard-response,342,926725,0.0-19.0-2.4,46514,List1B,black,man,,,,null,,,,
5781,,,survey-text,343,932507,0.0-19.0-3.4,46514,List1B,black,man,,,,,"{""Q0"":""ruth and luke are fighting each other""}","<img src=""stim_listB/fight4.gif""style=""height:400px;""></stim_listB>",are fighting each other,
null,"<div style=""font-size:60px;"">+</div>",,html-keyboard-response,344,933010,0.0-19.0-0.5,46514,List1B,black,man,,,,null,,,,
null,"<img src=""stim_listB/marry7.gif""style=""height:400px;""></stim_listB>",,html-keyboard-response,345,935016,0.0-19.0-1.5,46514,List1B,black,man,,,,null,,,,
null,is marrying,,html-keyboard-response,346,937028,0.0-19.0-2.5,46514,List1B,black,man,,,,null,,,,
4743,,,survey-text,347,941771,0.0-19.0-3.5,46514,List1B,black,man,,,,,"{""Q0"":""kate is marrying ruth""}","<img src=""stim_listB/marry7.gif""style=""height:400px;""></stim_listB>",is marrying,
null,"<div style=""font-size:60px;"">+</div>",,html-keyboard-response,348,942276,0.0-19.0-0.6,46514,List1B,black,man,,,,null,,,,
null,"<img src=""stim_listB/flirt3.gif""style=""height:400px;""></stim_listB>",,html-keyboard-response,349,944283,0.0-19.0-1.6,46514,List1B,black,man,,,,null,,,,
null,is flirting with,,html-keyboard-response,350,946283,0.0-19.0-2.6,46514,List1B,black,man,,,,null,,,,
4456,,,survey-text,351,950739,0.0-19.0-3.6,46514,List1B,black,man,,,,,"{""Q0"":""luke is flirting with jane""}","<img src=""stim_listB/flirt3.gif""style=""height:400px;""></stim_listB>",is flirting with,
null,"<div style=""font-size:60px;"">+</div>",,html-keyboard-response,352,951241,0.0-19.0-0.7,46514,List1B,black,man,,,,null,,,,
null,"<img src=""stim_listB/fight5.gif""style=""height:400px;""></stim_listB>",,html-keyboard-response,353,953242,0.0-19.0-1.7,46514,List1B,black,man,,,,null,,,,
null,is fighting,,html-keyboard-response,354,955242,0.0-19.0-2.7,46514,List1B,black,man,,,,null,,,,
4673,,,survey-text,355,959917,0.0-19.0-3.7,46514,List1B,black,man,,,,,"{""Q0"":""mike is fighting with dave""}","<img src=""stim_listB/fight5.gif""style=""height:400px;""></stim_listB>",is fighting,
null,"<div style=""font-size:60px;"">+</div>",,html-keyboard-response,356,960424,0.0-19.0-0.8,46514,List1B,black,man,,,,null,,,,
null,"<img src=""stim_listB/kiss5.gif""style=""height:400px;""></stim_listB>",,html-keyboard-response,357,962439,0.0-19.0-1.8,46514,List1B,black,man,,,,null,,,,
null,is kissing,,html-keyboard-response,358,964439,0.0-19.0-2.8,46514,List1B,black,man,,,,null,,,,
4724,,,survey-text,359,969165,0.0-19.0-3.8,46514,List1B,black,man,,,,,"{""Q0"":""fred is kissing luke""}","<img src=""stim_listB/kiss5.gif""style=""height:400px;""></stim_listB>",is kissing,
null,"<div style=""font-size:60px;"">+</div>",,html-keyboard-response,360,969675,0.0-19.0-0.9,46514,List1B,black,man,,,,null,,,,
null,"<img src=""stim_listB/flirt8.gif""style=""height:400px;""></stim_listB>",,html-keyboard-response,361,971687,0.0-19.0-1.9,46514,List1B,black,man,,,,null,,,,
null,are flirting with each other,,html-keyboard-response,362,973689,0.0-19.0-2.9,46514,List1B,black,man,,,,null,,,,
7466,,,survey-text,363,981155,0.0-19.0-3.9,46514,List1B,black,man,,,,,"{""Q0"":""kate and ruth are flirting with each other""}","<img src=""stim_listB/flirt8.gif""style=""height:400px;""></stim_listB>",are flirting with each other,
null,"<div style=""font-size:60px;"">+</div>",,html-keyboard-response,364,981655,0.0-19.0-0.10,46514,List1B,black,man,,,,null,,,,
null,"<img src=""stim_listB/touch4.gif""style=""height:400px;""></stim_listB>",,html-keyboard-response,365,983658,0.0-19.0-1.10,46514,List1B,black,man,,,,null,,,,
null,are touching each other,,html-keyboard-response,366,985660,0.0-19.0-2.10,46514,List1B,black,man,,,,null,,,,
5455,,,survey-text,367,991117,0.0-19.0-3.10,46514,List1B,black,man,,,,,"{""Q0"":""luke and ruth are touching each other""}","<img src=""stim_listB/touch4.gif""style=""height:400px;""></stim_listB>",are touching each other,
null,"<div style=""font-size:60px;"">+</div>",,html-keyboard-response,368,991626,0.0-19.0-0.11,46514,List1B,black,man,,,,null,,,,
null,"<img src=""stim_listB/flirt6.gif""style=""height:400px;""></stim_listB>",,html-keyboard-response,369,993626,0.0-19.0-1.11,46514,List1B,black,man,,,,null,,,,
null,are flirting with each other,,html-keyboard-response,370,995628,0.0-19.0-2.11,46514,List1B,black,man,,,,null,,,,
6903,,,survey-text,371,1002532,0.0-19.0-3.11,46514,List1B,black,man,,,,,"{""Q0"":""luke and mike are flirting with each other""}","<img src=""stim_listB/flirt6.gif""style=""height:400px;""></stim_listB>",are flirting with each other,
null,"<div style=""font-size:60px;"">+</div>",,html-keyboard-response,372,1003040,0.0-19.0-0.12,46514,List1B,black,man,,,,null,,,,
null,"<img src=""stim_listB/dance1.gif""style=""height:400px;""></stim_listB>",,html-keyboard-response,373,1005040,0.0-19.0-1.12,46514,List1B,black,man,,,,null,,,,
null,is dancing with,,html-keyboard-response,374,1007041,0.0-19.0-2.12,46514,List1B,black,man,,,,null,,,,
4426,,,survey-text,375,1011469,0.0-19.0-3.12,46514,List1B,black,man,,,,,"{""Q0"":""fred is dancing with kate""}","<img src=""stim_listB/dance1.gif""style=""height:400px;""></stim_listB>",is dancing with,
null,"<div style=""font-size:60px;"">+</div>",,html-keyboard-response,376,1011972,0.0-19.0-0.13,46514,List1B,black,man,,,,null,,,,
null,"<img src=""stim_listB/shout4.gif""style=""height:400px;""></stim_listB>",,html-keyboard-response,377,1013972,0.0-19.0-1.13,46514,List1B,black,man,,,,null,,,,
null,are shouting at each other,,html-keyboard-response,378,1015972,0.0-19.0-2.13,46514,List1B,black,man,,,,null,,,,
5911,,,survey-text,379,1021885,0.0-19.0-3.13,46514,List1B,black,man,,,,,"{""Q0"":""dave and jane are shouting at each other""}","<img src=""stim_listB/shout4.gif""style=""height:400px;""></stim_listB>",are shouting at each other,
null,"<div style=""font-size:60px;"">+</div>",,html-keyboard-response,380,1022393,0.0-19.0-0.14,46514,List1B,black,man,,,,null,,,,
null,"<img src=""stim_listB/marry3.gif""style=""height:400px;""></stim_listB>",,html-keyboard-response,381,1024408,0.0-19.0-1.14,46514,List1B,black,man,,,,null,,,,
null,is marrying,,html-keyboard-response,382,1026409,0.0-19.0-2.14,46514,List1B,black,man,,,,null,,,,
4249,,,survey-text,383,1030660,0.0-19.0-3.14,46514,List1B,black,man,,,,,"{""Q0"":""dave is marrying ruth""}","<img src=""stim_listB/marry3.gif""style=""height:400px;""></stim_listB>",is marrying,
null,"<div style=""font-size:60px;"">+</div>",,html-keyboard-response,384,1031161,0.0-19.0-0.15,46514,List1B,black,man,,,,null,,,,
null,"<img src=""stim_listB/fight7.gif""style=""height:400px;""></stim_listB>",,html-keyboard-response,385,1033176,0.0-19.0-1.15,46514,List1B,black,man,,,,null,,,,
null,is fighting,,html-keyboard-response,386,1035176,0.0-19.0-2.15,46514,List1B,black,man,,,,null,,,,
4282,,,survey-text,387,1039460,0.0-19.0-3.15,46514,List1B,black,man,,,,,"{""Q0"":""jane is fighting kate""}","<img src=""stim_listB/fight7.gif""style=""height:400px;""></stim_listB>",is fighting,
null,"<div style=""font-size:60px;"">+</div>",,html-keyboard-response,388,1039961,0.0-19.0-0.16,46514,List1B,black,man,,,,null,,,,
null,"<img src=""stim_listB/shout7.gif""style=""height:400px;""></stim_listB>",,html-keyboard-response,389,1041970,0.0-19.0-1.16,46514,List1B,black,man,,,,null,,,,
null,is shouting at,,html-keyboard-response,390,1043970,0.0-19.0-2.16,46514,List1B,black,man,,,,null,,,,
6031,,,survey-text,391,1050002,0.0-19.0-3.16,46514,List1B,black,man,,,,,"{""Q0"":""beth is shouting at ruth""}","<img src=""stim_listB/shout7.gif""style=""height:400px;""></stim_listB>",is shouting at,
null,"<div style=""font-size:60px;"">+</div>",,html-keyboard-response,392,1050502,0.0-19.0-0.17,46514,List1B,black,man,,,,null,,,,
null,"<img src=""stim_listB/dance4.gif""style=""height:400px;""></stim_listB>",,html-keyboard-response,393,1052505,0.0-19.0-1.17,46514,List1B,black,man,,,,null,,,,
null,are dancing with each other,,html-keyboard-response,394,1054506,0.0-19.0-2.17,46514,List1B,black,man,,,,null,,,,
6011,,,survey-text,395,1060518,0.0-19.0-3.17,46514,List1B,black,man,,,,,"{""Q0"":""dave and ruth are dancing with each other""}","<img src=""stim_listB/dance4.gif""style=""height:400px;""></stim_listB>",are dancing with each other,
null,"<div style=""font-size:60px;"">+</div>",,html-keyboard-response,396,1061036,0.0-19.0-0.18,46514,List1B,black,man,,,,null,,,,
null,"<img src=""stim_listB/flirt7.gif""style=""height:400px;""></stim_listB>",,html-keyboard-response,397,1063036,0.0-19.0-1.18,46514,List1B,black,man,,,,null,,,,
null,is flirting with,,html-keyboard-response,398,1065037,0.0-19.0-2.18,46514,List1B,black,man,,,,null,,,,
3853,,,survey-text,399,1068892,0.0-19.0-3.18,46514,List1B,black,man,,,,,"{""Q0"":""beth is flirting with jane""}","<img src=""stim_listB/flirt7.gif""style=""height:400px;""></stim_listB>",is flirting with,
null,"<div style=""font-size:60px;"">+</div>",,html-keyboard-response,400,1069407,0.0-19.0-0.19,46514,List1B,black,man,,,,null,,,,
null,"<img src=""stim_listB/talk6.gif""style=""height:400px;""></stim_listB>",,html-keyboard-response,401,1071407,0.0-19.0-1.19,46514,List1B,black,man,,,,null,,,,
null,are talking to each other,,html-keyboard-response,402,1073407,0.0-19.0-2.19,46514,List1B,black,man,,,,null,,,,
5242,,,survey-text,403,1078650,0.0-19.0-3.19,46514,List1B,black,man,,,,,"{""Q0"":""mike and luke are talking to each other""}","<img src=""stim_listB/talk6.gif""style=""height:400px;""></stim_listB>",are talking to each other,
1120,<p>Thank you for completing that task.</p><p>The final part of this session is a short questionnaire.</p><p>Press Continue.</p>,0,html-button-response,404,1079771,0.0-20.0,46514,List1B,black,man,,,,,,,,
14628,,,survey-text,405,1095404,0.0-21.0,46514,List1B,black,man,,,,,"{""Q0"":""26"",""Q1"":""english"",""Q2"":""english"",""Q3"":""USA"",""Q4"":""black"",""Q5"":""male""}",,,demographics
4834,,,survey-likert,406,1100245,0.0-22.0,46514,List1B,black,man,,,,,"{""Q0"":4}",,,likert_ESS
5707,,,survey-likert,407,1105957,0.0-23.0,46514,List1B,black,man,,,,,"{""Q0"":4}",,,likert_NSSAL_Q1
2572,,,survey-likert,408,1108533,0.0-24.0,46514,List1B,black,man,,,,,"{""Q0"":4}",,,likert_NSSAL_Q2
2564,,,survey-likert,409,1111101,0.0-25.0,46514,List1B,black,man,,,,,"{""Q0"":4}",,,likert_CGRS_Q1
2205,,,survey-likert,410,1113309,0.0-26.0,46514,List1B,black,man,,,,,"{""Q0"":4}",,,likert_CGRS_Q2
1420,,,survey-likert,411,1114732,0.0-27.0,46514,List1B,black,man,,,,,"{""Q0"":4}",,,likert_CGRS_Q3
2892,,,survey-text,412,1117627,0.0-28.0,46514,List1B,black,man,,,,,"{""Q0"":""ccc""}",,,worker_id
12365,,,external-html,413,1130540,0.0-29.0,46514,List1B,black,man,debrief.html,,,,,,,
