rt,stimulus,button_pressed,trial_type,trial_index,time_elapsed,internal_node_id,subject,list,ppt_race,ppt_gender,url,first_guess,correct,key_press,responses,image_type,phrase_type,test_part
1649,Welcome to the experiment. Press Continue to begin.,0,html-button-response,0,1651,0.0-0.0,46569,List2B,white,woman,,,,,,,,
63472,,,external-html,1,66162,0.0-1.0,46569,List2B,white,woman,consent.html,,,,,,,
8670,"<p>On the next page, you will see portraits of 8 people and their names.</p><p>Your first task is to take a few minutes to memorise the names of these people.</p><p>You will have to recall their names during the rest of the experiment, so it is</p><p>essential that you try to memorise these people and their names as best as you can.</p><br><p><strong>You will then be tested on your memory of these names and portraits.</strong></p><br><p>The experiment will start after you have completed this memory test.</p><br><p>Ready?</p>",0,html-button-response,2,74834,0.0-2.0,46569,List2B,white,woman,,,,,,,,
68923,"<img src='img/portrait_matrix_list2.jpg' style='width:900px;height:500px;''></img><p>If you have memorised all the portraits and names and are ready to start, press Continue.</p><p><strong>Please note: Your memory of these faces will be tested 4 times during this experiment.</strong></p>",0,html-button-response,3,144762,0.0-3.0-0.0,46569,List2B,white,woman,,,,,,,,
2486,"<img src=""portrait/WW2.jpg""style=""height:400px;""></img>",3,html-button-response,4,148250,0.0-3.0-1.0,46569,List2B,white,woman,,TRUE,3,,,,,
null,CORRECT,,html-keyboard-response,5,149757,0.0-3.0-2.0-0.0,46569,List2B,white,woman,,,,null,,,,
1916,"<img src=""portrait/WM2.jpg""style=""height:400px;""></img>",7,html-button-response,6,151674,0.0-3.0-4.0,46569,List2B,white,woman,,TRUE,7,,,,,
null,CORRECT,,html-keyboard-response,7,153196,0.0-3.0-5.0-0.0,46569,List2B,white,woman,,,,null,,,,
2253,"<img src=""portrait/WM1.jpg""style=""height:400px;""></img>",6,html-button-response,8,155450,0.0-3.0-7.0,46569,List2B,white,woman,,TRUE,6,,,,,
null,CORRECT,,html-keyboard-response,9,156958,0.0-3.0-8.0-0.0,46569,List2B,white,woman,,,,null,,,,
3380,"<img src=""portrait/BM1.jpg""style=""height:400px;""></img>",4,html-button-response,10,160338,0.0-3.0-10.0,46569,List2B,white,woman,,TRUE,4,,,,,
null,CORRECT,,html-keyboard-response,11,161859,0.0-3.0-11.0-0.0,46569,List2B,white,woman,,,,null,,,,
6807,"<img src=""portrait/BW2.jpg""style=""height:400px;""></img>",2,html-button-response,12,168666,0.0-3.0-13.0,46569,List2B,white,woman,,TRUE,2,,,,,
null,CORRECT,,html-keyboard-response,13,170191,0.0-3.0-14.0-0.0,46569,List2B,white,woman,,,,null,,,,
2170,"<img src=""portrait/BM2.jpg""style=""height:400px;""></img>",6,html-button-response,14,172362,0.0-3.0-16.0,46569,List2B,white,woman,,TRUE,5,,,,,
3832,"<img src=""portrait/BM2.jpg""style=""height:400px;""></img>",5,html-button-response,15,177202,0.0-3.0-18.0-0.0,46569,List2B,white,woman,,FALSE,5,,,,,
null,CORRECT,,html-keyboard-response,16,178714,0.0-3.0-18.0-1.0-0.0,46569,List2B,white,woman,,,,null,,,,
4735,"<img src=""portrait/BW1.jpg""style=""height:400px;""></img>",0,html-button-response,17,183450,0.0-3.0-19.0,46569,List2B,white,woman,,TRUE,0,,,,,
null,CORRECT,,html-keyboard-response,18,184967,0.0-3.0-20.0-0.0,46569,List2B,white,woman,,,,null,,,,
5513,"<img src=""portrait/WW1.jpg""style=""height:400px;""></img>",1,html-button-response,19,190482,0.0-3.0-22.0,46569,List2B,white,woman,,TRUE,1,,,,,
null,CORRECT,,html-keyboard-response,20,191995,0.0-3.0-23.0-0.0,46569,List2B,white,woman,,,,null,,,,
1846,<p>You got 7 out of 8 right first time. Press Continue.</p>,0,html-button-response,21,193842,0.0-3.0-25.0,46569,List2B,white,woman,,,,,,,,
2394,"As you did not score 100%, the memory game will repeat. Press Continue.",0,html-button-response,22,197250,0.0-3.0-26.0-0.0,46569,List2B,white,woman,,,,,,,,
9547,"<img src='img/portrait_matrix_list2.jpg' style='width:900px;height:500px;''></img><p>If you have memorised all the portraits and names and are ready to start, press Continue.</p><p><strong>Please note: Your memory of these faces will be tested 4 times during this experiment.</strong></p>",0,html-button-response,23,207802,0.0-3.1-0.1,46569,List2B,white,woman,,,,,,,,
2934,"<img src=""portrait/WW2.jpg""style=""height:400px;""></img>",3,html-button-response,24,211737,0.0-3.1-1.1,46569,List2B,white,woman,,TRUE,3,,,,,
null,CORRECT,,html-keyboard-response,25,213250,0.0-3.1-2.1-0.1,46569,List2B,white,woman,,,,null,,,,
1519,"<img src=""portrait/WM2.jpg""style=""height:400px;""></img>",7,html-button-response,26,214770,0.0-3.1-4.1,46569,List2B,white,woman,,TRUE,7,,,,,
null,CORRECT,,html-keyboard-response,27,216288,0.0-3.1-5.1-0.1,46569,List2B,white,woman,,,,null,,,,
2841,"<img src=""portrait/WM1.jpg""style=""height:400px;""></img>",6,html-button-response,28,219130,0.0-3.1-7.1,46569,List2B,white,woman,,TRUE,6,,,,,
null,CORRECT,,html-keyboard-response,29,220651,0.0-3.1-8.1-0.1,46569,List2B,white,woman,,,,null,,,,
2125,"<img src=""portrait/BM1.jpg""style=""height:400px;""></img>",4,html-button-response,30,222778,0.0-3.1-10.1,46569,List2B,white,woman,,TRUE,4,,,,,
null,CORRECT,,html-keyboard-response,31,224294,0.0-3.1-11.1-0.1,46569,List2B,white,woman,,,,null,,,,
3571,"<img src=""portrait/BW2.jpg""style=""height:400px;""></img>",2,html-button-response,32,227865,0.0-3.1-13.1,46569,List2B,white,woman,,TRUE,2,,,,,
null,CORRECT,,html-keyboard-response,33,229376,0.0-3.1-14.1-0.1,46569,List2B,white,woman,,,,null,,,,
1753,"<img src=""portrait/BM2.jpg""style=""height:400px;""></img>",5,html-button-response,34,231130,0.0-3.1-16.1,46569,List2B,white,woman,,TRUE,5,,,,,
null,CORRECT,,html-keyboard-response,35,232635,0.0-3.1-17.1-0.1,46569,List2B,white,woman,,,,null,,,,
1630,"<img src=""portrait/BW1.jpg""style=""height:400px;""></img>",0,html-button-response,36,234266,0.0-3.1-19.1,46569,List2B,white,woman,,TRUE,0,,,,,
null,CORRECT,,html-keyboard-response,37,235782,0.0-3.1-20.1-0.1,46569,List2B,white,woman,,,,null,,,,
2715,"<img src=""portrait/WW1.jpg""style=""height:400px;""></img>",1,html-button-response,38,238498,0.0-3.1-22.1,46569,List2B,white,woman,,TRUE,1,,,,,
null,CORRECT,,html-keyboard-response,39,240012,0.0-3.1-23.1-0.1,46569,List2B,white,woman,,,,null,,,,
1188,<p>You got 8 out of 8 right first time. Press Continue.</p>,0,html-button-response,40,241201,0.0-3.1-25.1,46569,List2B,white,woman,,,,,,,,
27476,"<p>In this experiment, you will view photographs of the people from the memory game interacting.</p><p>By using the <strong>exact</strong> phrase given <i>after</i> the photograph appears and recalling the correct names of the people in the photographs, form a sentence describing the interaction. You do not need to capitalise names.</p><p>Type your answer in the space provided. Please complete every sentence before moving onto the next trial.</p><p>You will only have a few seconds to memorise each given photograph and phrase before you can respond, so try your best to focus.</p><p>An example is given below. Press 'Continue' when you are ready.</p><img src='img/speaking_example.jpg' style='width:800px;height:460px;''></img>",0,html-button-response,41,269689,0.0-4.0,46569,List2B,white,woman,,,,,,,,
1855,"<p>Before the experiment starts, you will watch two example trials. Press 'Continue'.</p>",0,html-button-response,42,272545,0.0-5.0,46569,List2B,white,woman,,,,,,,,
null,<img src='img/meet_eg.gif' style='height:400px;''></img>,,html-keyboard-response,43,275566,0.0-6.0,46569,List2B,white,woman,,,,null,,,,
null,<p>is meeting</p>,,html-keyboard-response,44,277574,0.0-7.0,46569,List2B,white,woman,,,,null,,,,
2298,<p><b>Answer:</b> jane is meeting ruth</p>,0,html-button-response,45,279874,0.0-8.0,46569,List2B,white,woman,,,,,,,,
null,<img src='img/look_eg.gif' style='height:400px;''></img>,,html-keyboard-response,46,282879,0.0-9.0,46569,List2B,white,woman,,,,null,,,,
null,<p>are looking at each other</p>,,html-keyboard-response,47,284882,0.0-10.0,46569,List2B,white,woman,,,,null,,,,
1823,<p><b>Answer:</b> fred and mike are looking at each other</p>,0,html-button-response,48,286705,0.0-11.0,46569,List2B,white,woman,,,,,,,,
6601,"<p>Ready to start the experiment?</p><br><p><strong>Remember to describe the picture using a full sentence,</strong></p><p><strong>that combines the names of the people with the <i>exact</i> phrase given.</strong></p><p><strong>To receive full payment you must do this correctly.</strong></p><p><strong> You do not need to capitalise names or use punctuation.</strong></p><br><p>Press 'Continue' to begin.</p>",0,html-button-response,49,294314,0.0-12.0,46569,List2B,white,woman,,,,,,,,
null,"<div style=""font-size:60px;"">+</div>",,html-keyboard-response,50,295834,0.0-13.0-0.0,46569,List2B,white,woman,,,,null,,,,
null,"<img src=""stim_listB/argue1.gif""style=""height:400px;""></stim_listB>",,html-keyboard-response,51,297836,0.0-13.0-1.0,46569,List2B,white,woman,,,,null,,,,
null,is arguing with,,html-keyboard-response,52,299839,0.0-13.0-2.0,46569,List2B,white,woman,,,,null,,,,
8442,,,survey-text,53,308282,0.0-13.0-3.0,46569,List2B,white,woman,,,,,"{""Q0"":""jane is arguing with dave""}","<img src=""stim_listB/argue1.gif""style=""height:400px;""></stim_listB>",is arguing with,
null,"<div style=""font-size:60px;"">+</div>",,html-keyboard-response,54,308784,0.0-13.0-0.1,46569,List2B,white,woman,,,,null,,,,
null,"<img src=""stim_listB/kiss7.gif""style=""height:400px;""></stim_listB>",,html-keyboard-response,55,310785,0.0-13.0-1.1,46569,List2B,white,woman,,,,null,,,,
null,is kissing,,html-keyboard-response,56,312796,0.0-13.0-2.1,46569,List2B,white,woman,,,,null,,,,
7236,,,survey-text,57,320034,0.0-13.0-3.1,46569,List2B,white,woman,,,,,"{""Q0"":""ruth is kissing beth""}","<img src=""stim_listB/kiss7.gif""style=""height:400px;""></stim_listB>",is kissing,
null,"<div style=""font-size:60px;"">+</div>",,html-keyboard-response,58,320544,0.0-13.0-0.2,46569,List2B,white,woman,,,,null,,,,
null,"<img src=""stim_listB/touch7.gif""style=""height:400px;""></stim_listB>",,html-keyboard-response,59,322551,0.0-13.0-1.2,46569,List2B,white,woman,,,,null,,,,
null,is touching,,html-keyboard-response,60,324552,0.0-13.0-2.2,46569,List2B,white,woman,,,,null,,,,
6689,,,survey-text,61,331241,0.0-13.0-3.2,46569,List2B,white,woman,,,,,"{""Q0"":""jane is touching jenny""}","<img src=""stim_listB/touch7.gif""style=""height:400px;""></stim_listB>",is touching,
null,"<div style=""font-size:60px;"">+</div>",,html-keyboard-response,62,331743,0.0-13.0-0.3,46569,List2B,white,woman,,,,null,,,,
null,"<img src=""stim_listB/touch2.gif""style=""height:400px;""></stim_listB>",,html-keyboard-response,63,333758,0.0-13.0-1.3,46569,List2B,white,woman,,,,null,,,,
null,are touching each other,,html-keyboard-response,64,335759,0.0-13.0-2.3,46569,List2B,white,woman,,,,null,,,,
14578,,,survey-text,65,350337,0.0-13.0-3.3,46569,List2B,white,woman,,,,,"{""Q0"":""luke and ruth are touching each other""}","<img src=""stim_listB/touch2.gif""style=""height:400px;""></stim_listB>",are touching each other,
null,"<div style=""font-size:60px;"">+</div>",,html-keyboard-response,66,350849,0.0-13.0-0.4,46569,List2B,white,woman,,,,null,,,,
null,"<img src=""stim_listB/play3.gif""style=""height:400px;""></stim_listB>",,html-keyboard-response,67,352851,0.0-13.0-1.4,46569,List2B,white,woman,,,,null,,,,
null,is playing with,,html-keyboard-response,68,354865,0.0-13.0-2.4,46569,List2B,white,woman,,,,null,,,,
6935,,,survey-text,69,361801,0.0-13.0-3.4,46569,List2B,white,woman,,,,,"{""Q0"":""jane is playing with mike""}","<img src=""stim_listB/play3.gif""style=""height:400px;""></stim_listB>",is playing with,
null,"<div style=""font-size:60px;"">+</div>",,html-keyboard-response,70,362314,0.0-13.0-0.5,46569,List2B,white,woman,,,,null,,,,
null,"<img src=""stim_listB/flirt3.gif""style=""height:400px;""></stim_listB>",,html-keyboard-response,71,364319,0.0-13.0-1.5,46569,List2B,white,woman,,,,null,,,,
null,is flirting with,,html-keyboard-response,72,366320,0.0-13.0-2.5,46569,List2B,white,woman,,,,null,,,,
10593,,,survey-text,73,376914,0.0-13.0-3.5,46569,List2B,white,woman,,,,,"{""Q0"":""fred is flirting with jenny""}","<img src=""stim_listB/flirt3.gif""style=""height:400px;""></stim_listB>",is flirting with,
null,"<div style=""font-size:60px;"">+</div>",,html-keyboard-response,74,377425,0.0-13.0-0.6,46569,List2B,white,woman,,,,null,,,,
null,"<img src=""stim_listB/talk2.gif""style=""height:400px;""></stim_listB>",,html-keyboard-response,75,379431,0.0-13.0-1.6,46569,List2B,white,woman,,,,null,,,,
null,are talking to each other,,html-keyboard-response,76,381432,0.0-13.0-2.6,46569,List2B,white,woman,,,,null,,,,
10320,,,survey-text,77,391754,0.0-13.0-3.6,46569,List2B,white,woman,,,,,"{""Q0"":""dave and ruth are talking to each other""}","<img src=""stim_listB/talk2.gif""style=""height:400px;""></stim_listB>",are talking to each other,
null,"<div style=""font-size:60px;"">+</div>",,html-keyboard-response,78,392266,0.0-13.0-0.7,46569,List2B,white,woman,,,,null,,,,
null,"<img src=""stim_listB/argue8.gif""style=""height:400px;""></stim_listB>",,html-keyboard-response,79,394271,0.0-13.0-1.7,46569,List2B,white,woman,,,,null,,,,
null,are arguing with each other,,html-keyboard-response,80,396273,0.0-13.0-2.7,46569,List2B,white,woman,,,,null,,,,
8432,,,survey-text,81,404706,0.0-13.0-3.7,46569,List2B,white,woman,,,,,"{""Q0"":""jane and jenny are arguing with each other""}","<img src=""stim_listB/argue8.gif""style=""height:400px;""></stim_listB>",are arguing with each other,
null,"<div style=""font-size:60px;"">+</div>",,html-keyboard-response,82,405215,0.0-13.0-0.8,46569,List2B,white,woman,,,,null,,,,
null,"<img src=""stim_listB/shout7.gif""style=""height:400px;""></stim_listB>",,html-keyboard-response,83,407224,0.0-13.0-1.8,46569,List2B,white,woman,,,,null,,,,
null,is shouting at,,html-keyboard-response,84,409232,0.0-13.0-2.8,46569,List2B,white,woman,,,,null,,,,
5448,,,survey-text,85,414682,0.0-13.0-3.8,46569,List2B,white,woman,,,,,"{""Q0"":""jane is shouting at beth""}","<img src=""stim_listB/shout7.gif""style=""height:400px;""></stim_listB>",is shouting at,
null,"<div style=""font-size:60px;"">+</div>",,html-keyboard-response,86,415192,0.0-13.0-0.9,46569,List2B,white,woman,,,,null,,,,
null,"<img src=""stim_listB/kiss2.gif""style=""height:400px;""></stim_listB>",,html-keyboard-response,87,417201,0.0-13.0-1.9,46569,List2B,white,woman,,,,null,,,,
null,are kissing each other,,html-keyboard-response,88,419202,0.0-13.0-2.9,46569,List2B,white,woman,,,,null,,,,
11424,,,survey-text,89,430626,0.0-13.0-3.9,46569,List2B,white,woman,,,,,"{""Q0"":""dave and jenny are kissing each other""}","<img src=""stim_listB/kiss2.gif""style=""height:400px;""></stim_listB>",are kissing each other,
null,"<div style=""font-size:60px;"">+</div>",,html-keyboard-response,90,431127,0.0-13.0-0.10,46569,List2B,white,woman,,,,null,,,,
null,"<img src=""stim_listB/marry2.gif""style=""height:400px;""></stim_listB>",,html-keyboard-response,91,433129,0.0-13.0-1.10,46569,List2B,white,woman,,,,null,,,,
null,are marrying each other,,html-keyboard-response,92,435138,0.0-13.0-2.10,46569,List2B,white,woman,,,,null,,,,
9776,,,survey-text,93,444914,0.0-13.0-3.10,46569,List2B,white,woman,,,,,"{""Q0"":""luke and jane are marrying each other""}","<img src=""stim_listB/marry2.gif""style=""height:400px;""></stim_listB>",are marrying each other,
null,"<div style=""font-size:60px;"">+</div>",,html-keyboard-response,94,445426,0.0-13.0-0.11,46569,List2B,white,woman,,,,null,,,,
null,"<img src=""stim_listB/touch1.gif""style=""height:400px;""></stim_listB>",,html-keyboard-response,95,447434,0.0-13.0-1.11,46569,List2B,white,woman,,,,null,,,,
null,is touching,,html-keyboard-response,96,449435,0.0-13.0-2.11,46569,List2B,white,woman,,,,null,,,,
6175,,,survey-text,97,455610,0.0-13.0-3.11,46569,List2B,white,woman,,,,,"{""Q0"":""dave is touching jane""}","<img src=""stim_listB/touch1.gif""style=""height:400px;""></stim_listB>",is touching,
null,"<div style=""font-size:60px;"">+</div>",,html-keyboard-response,98,456112,0.0-13.0-0.12,46569,List2B,white,woman,,,,null,,,,
null,"<img src=""stim_listB/fight8.gif""style=""height:400px;""></stim_listB>",,html-keyboard-response,99,458118,0.0-13.0-1.12,46569,List2B,white,woman,,,,null,,,,
null,are fighting each other,,html-keyboard-response,100,460120,0.0-13.0-2.12,46569,List2B,white,woman,,,,null,,,,
9410,,,survey-text,101,469530,0.0-13.0-3.12,46569,List2B,white,woman,,,,,"{""Q0"":""ruth and beth are fighting each other""}","<img src=""stim_listB/fight8.gif""style=""height:400px;""></stim_listB>",are fighting each other,
null,"<div style=""font-size:60px;"">+</div>",,html-keyboard-response,102,470031,0.0-13.0-0.13,46569,List2B,white,woman,,,,null,,,,
null,"<img src=""stim_listB/touch6.gif""style=""height:400px;""></stim_listB>",,html-keyboard-response,103,472032,0.0-13.0-1.13,46569,List2B,white,woman,,,,null,,,,
null,are touching each other,,html-keyboard-response,104,474033,0.0-13.0-2.13,46569,List2B,white,woman,,,,null,,,,
7871,,,survey-text,105,481906,0.0-13.0-3.13,46569,List2B,white,woman,,,,,"{""Q0"":""luke and fred are touching each other""}","<img src=""stim_listB/touch6.gif""style=""height:400px;""></stim_listB>",are touching each other,
null,"<div style=""font-size:60px;"">+</div>",,html-keyboard-response,106,482406,0.0-13.0-0.14,46569,List2B,white,woman,,,,null,,,,
null,"<img src=""stim_listB/play8.gif""style=""height:400px;""></stim_listB>",,html-keyboard-response,107,484414,0.0-13.0-1.14,46569,List2B,white,woman,,,,null,,,,
null,are playing with each other,,html-keyboard-response,108,486415,0.0-13.0-2.14,46569,List2B,white,woman,,,,null,,,,
8874,,,survey-text,109,495290,0.0-13.0-3.14,46569,List2B,white,woman,,,,,"{""Q0"":""ruth and beth are playing with each other""}","<img src=""stim_listB/play8.gif""style=""height:400px;""></stim_listB>",are playing with each other,
null,"<div style=""font-size:60px;"">+</div>",,html-keyboard-response,110,495792,0.0-13.0-0.15,46569,List2B,white,woman,,,,null,,,,
null,"<img src=""stim_listB/touch3.gif""style=""height:400px;""></stim_listB>",,html-keyboard-response,111,497796,0.0-13.0-1.15,46569,List2B,white,woman,,,,null,,,,
null,is touching,,html-keyboard-response,112,499798,0.0-13.0-2.15,46569,List2B,white,woman,,,,null,,,,
7628,,,survey-text,113,507426,0.0-13.0-3.15,46569,List2B,white,woman,,,,,"{""Q0"":""jenny is touching luke""}","<img src=""stim_listB/touch3.gif""style=""height:400px;""></stim_listB>",is touching,
null,"<div style=""font-size:60px;"">+</div>",,html-keyboard-response,114,507928,0.0-13.0-0.16,46569,List2B,white,woman,,,,null,,,,
null,"<img src=""stim_listB/argue5.gif""style=""height:400px;""></stim_listB>",,html-keyboard-response,115,509929,0.0-13.0-1.16,46569,List2B,white,woman,,,,null,,,,
null,is arguing with,,html-keyboard-response,116,511939,0.0-13.0-2.16,46569,List2B,white,woman,,,,null,,,,
6757,,,survey-text,117,518698,0.0-13.0-3.16,46569,List2B,white,woman,,,,,"{""Q0"":""fred is arguing with dave""}","<img src=""stim_listB/argue5.gif""style=""height:400px;""></stim_listB>",is arguing with,
null,"<div style=""font-size:60px;"">+</div>",,html-keyboard-response,118,519209,0.0-13.0-0.17,46569,List2B,white,woman,,,,null,,,,
null,"<img src=""stim_listB/talk8.gif""style=""height:400px;""></stim_listB>",,html-keyboard-response,119,521214,0.0-13.0-1.17,46569,List2B,white,woman,,,,null,,,,
null,are talking to each other,,html-keyboard-response,120,523223,0.0-13.0-2.17,46569,List2B,white,woman,,,,null,,,,
10243,,,survey-text,121,533466,0.0-13.0-3.17,46569,List2B,white,woman,,,,,"{""Q0"":""beth and jane are talking to each other""}","<img src=""stim_listB/talk8.gif""style=""height:400px;""></stim_listB>",are talking to each other,
null,"<div style=""font-size:60px;"">+</div>",,html-keyboard-response,122,533969,0.0-13.0-0.18,46569,List2B,white,woman,,,,null,,,,
null,"<img src=""stim_listB/play4.gif""style=""height:400px;""></stim_listB>",,html-keyboard-response,123,535978,0.0-13.0-1.18,46569,List2B,white,woman,,,,null,,,,
null,are playing with each other,,html-keyboard-response,124,537980,0.0-13.0-2.18,46569,List2B,white,woman,,,,null,,,,
10309,,,survey-text,125,548290,0.0-13.0-3.18,46569,List2B,white,woman,,,,,"{""Q0"":""beth and fred are playing with each other""}","<img src=""stim_listB/play4.gif""style=""height:400px;""></stim_listB>",are playing with each other,
null,"<div style=""font-size:60px;"">+</div>",,html-keyboard-response,126,548792,0.0-13.0-0.19,46569,List2B,white,woman,,,,null,,,,
null,"<img src=""stim_listB/argue7.gif""style=""height:400px;""></stim_listB>",,html-keyboard-response,127,550800,0.0-13.0-1.19,46569,List2B,white,woman,,,,null,,,,
null,is arguing with,,html-keyboard-response,128,552801,0.0-13.0-2.19,46569,List2B,white,woman,,,,null,,,,
11144,,,survey-text,129,563946,0.0-13.0-3.19,46569,List2B,white,woman,,,,,"{""Q0"":""jane is arguing with beth""}","<img src=""stim_listB/argue7.gif""style=""height:400px;""></stim_listB>",is arguing with,
8750,"<img src='img/portrait_matrix_list2.jpg' style='width:900px;height:500px;''></img><p>If you have memorised all the portraits and names and are ready to start, press Continue.</p><p><strong>Please note: Your memory of these faces will be tested 4 times during this experiment.</strong></p>",0,html-button-response,130,572697,0.0-14.0-0.0,46569,List2B,white,woman,,,,,,,,
1706,"<img src=""portrait/BW1.jpg""style=""height:400px;""></img>",0,html-button-response,131,575410,0.0-14.0-1.0,46569,List2B,white,woman,,TRUE,0,,,,,
null,CORRECT,,html-keyboard-response,132,576939,0.0-14.0-2.0-0.0,46569,List2B,white,woman,,,,null,,,,
2885,"<img src=""portrait/BM1.jpg""style=""height:400px;""></img>",4,html-button-response,133,579826,0.0-14.0-4.0,46569,List2B,white,woman,,TRUE,4,,,,,
null,CORRECT,,html-keyboard-response,134,581345,0.0-14.0-5.0-0.0,46569,List2B,white,woman,,,,null,,,,
3552,"<img src=""portrait/WM1.jpg""style=""height:400px;""></img>",6,html-button-response,135,584898,0.0-14.0-7.0,46569,List2B,white,woman,,TRUE,6,,,,,
null,CORRECT,,html-keyboard-response,136,586405,0.0-14.0-8.0-0.0,46569,List2B,white,woman,,,,null,,,,
1941,"<img src=""portrait/WW2.jpg""style=""height:400px;""></img>",3,html-button-response,137,588346,0.0-14.0-10.0,46569,List2B,white,woman,,TRUE,3,,,,,
null,CORRECT,,html-keyboard-response,138,589868,0.0-14.0-11.0-0.0,46569,List2B,white,woman,,,,null,,,,
5004,"<img src=""portrait/BW2.jpg""style=""height:400px;""></img>",2,html-button-response,139,594874,0.0-14.0-13.0,46569,List2B,white,woman,,TRUE,2,,,,,
null,CORRECT,,html-keyboard-response,140,596378,0.0-14.0-14.0-0.0,46569,List2B,white,woman,,,,null,,,,
4695,"<img src=""portrait/BM2.jpg""style=""height:400px;""></img>",6,html-button-response,141,601074,0.0-14.0-16.0,46569,List2B,white,woman,,TRUE,5,,,,,
3641,"<img src=""portrait/BM2.jpg""style=""height:400px;""></img>",5,html-button-response,142,605730,0.0-14.0-18.0-0.0,46569,List2B,white,woman,,FALSE,5,,,,,
null,CORRECT,,html-keyboard-response,143,607242,0.0-14.0-18.0-1.0-0.0,46569,List2B,white,woman,,,,null,,,,
2758,"<img src=""portrait/WW1.jpg""style=""height:400px;""></img>",1,html-button-response,144,610002,0.0-14.0-19.0,46569,List2B,white,woman,,TRUE,1,,,,,
null,CORRECT,,html-keyboard-response,145,611529,0.0-14.0-20.0-0.0,46569,List2B,white,woman,,,,null,,,,
3280,"<img src=""portrait/WM2.jpg""style=""height:400px;""></img>",7,html-button-response,146,614810,0.0-14.0-22.0,46569,List2B,white,woman,,TRUE,7,,,,,
null,CORRECT,,html-keyboard-response,147,616339,0.0-14.0-23.0-0.0,46569,List2B,white,woman,,,,null,,,,
2461,<p>You got 7 out of 8 right first time. Press Continue.</p>,0,html-button-response,148,618802,0.0-14.0-25.0,46569,List2B,white,woman,,,,,,,,
1906,"As you did not score 100%, the memory game will repeat. Press Continue.",0,html-button-response,149,621722,0.0-14.0-26.0-0.0,46569,List2B,white,woman,,,,,,,,
1266,"<img src='img/portrait_matrix_list2.jpg' style='width:900px;height:500px;''></img><p>If you have memorised all the portraits and names and are ready to start, press Continue.</p><p><strong>Please note: Your memory of these faces will be tested 4 times during this experiment.</strong></p>",0,html-button-response,150,623994,0.0-14.1-0.1,46569,List2B,white,woman,,,,,,,,
2172,"<img src=""portrait/BW1.jpg""style=""height:400px;""></img>",0,html-button-response,151,627178,0.0-14.1-1.1,46569,List2B,white,woman,,TRUE,0,,,,,
null,CORRECT,,html-keyboard-response,152,628682,0.0-14.1-2.1-0.1,46569,List2B,white,woman,,,,null,,,,
1534,"<img src=""portrait/BM1.jpg""style=""height:400px;""></img>",6,html-button-response,153,630218,0.0-14.1-4.1,46569,List2B,white,woman,,TRUE,4,,,,,
3042,"<img src=""portrait/BM1.jpg""style=""height:400px;""></img>",4,html-button-response,154,634266,0.0-14.1-6.1-0.1,46569,List2B,white,woman,,FALSE,4,,,,,
null,CORRECT,,html-keyboard-response,155,635768,0.0-14.1-6.1-1.1-0.1,46569,List2B,white,woman,,,,null,,,,
1201,"<img src=""portrait/WM1.jpg""style=""height:400px;""></img>",6,html-button-response,156,636970,0.0-14.1-7.1,46569,List2B,white,woman,,TRUE,6,,,,,
null,CORRECT,,html-keyboard-response,157,638486,0.0-14.1-8.1-0.1,46569,List2B,white,woman,,,,null,,,,
1274,"<img src=""portrait/WW2.jpg""style=""height:400px;""></img>",3,html-button-response,158,639762,0.0-14.1-10.1,46569,List2B,white,woman,,TRUE,3,,,,,
null,CORRECT,,html-keyboard-response,159,641286,0.0-14.1-11.1-0.1,46569,List2B,white,woman,,,,null,,,,
1346,"<img src=""portrait/BW2.jpg""style=""height:400px;""></img>",2,html-button-response,160,642633,0.0-14.1-13.1,46569,List2B,white,woman,,TRUE,2,,,,,
null,CORRECT,,html-keyboard-response,161,644156,0.0-14.1-14.1-0.1,46569,List2B,white,woman,,,,null,,,,
2660,"<img src=""portrait/BM2.jpg""style=""height:400px;""></img>",5,html-button-response,162,646818,0.0-14.1-16.1,46569,List2B,white,woman,,TRUE,5,,,,,
null,CORRECT,,html-keyboard-response,163,648331,0.0-14.1-17.1-0.1,46569,List2B,white,woman,,,,null,,,,
3654,"<img src=""portrait/WW1.jpg""style=""height:400px;""></img>",1,html-button-response,164,651985,0.0-14.1-19.1,46569,List2B,white,woman,,TRUE,1,,,,,
null,CORRECT,,html-keyboard-response,165,653502,0.0-14.1-20.1-0.1,46569,List2B,white,woman,,,,null,,,,
1874,"<img src=""portrait/WM2.jpg""style=""height:400px;""></img>",7,html-button-response,166,655378,0.0-14.1-22.1,46569,List2B,white,woman,,TRUE,7,,,,,
null,CORRECT,,html-keyboard-response,167,656898,0.0-14.1-23.1-0.1,46569,List2B,white,woman,,,,null,,,,
1263,<p>You got 7 out of 8 right first time. Press Continue.</p>,0,html-button-response,168,658161,0.0-14.1-25.1,46569,List2B,white,woman,,,,,,,,
1035,"As you did not score 100%, the memory game will repeat. Press Continue.",0,html-button-response,169,660209,0.0-14.1-26.1-0.1,46569,List2B,white,woman,,,,,,,,
1006,"<img src='img/portrait_matrix_list2.jpg' style='width:900px;height:500px;''></img><p>If you have memorised all the portraits and names and are ready to start, press Continue.</p><p><strong>Please note: Your memory of these faces will be tested 4 times during this experiment.</strong></p>",0,html-button-response,170,662217,0.0-14.2-0.2,46569,List2B,white,woman,,,,,,,,
1872,"<img src=""portrait/BW1.jpg""style=""height:400px;""></img>",0,html-button-response,171,665105,0.0-14.2-1.2,46569,List2B,white,woman,,TRUE,0,,,,,
null,CORRECT,,html-keyboard-response,172,666615,0.0-14.2-2.2-0.2,46569,List2B,white,woman,,,,null,,,,
1609,"<img src=""portrait/BM1.jpg""style=""height:400px;""></img>",4,html-button-response,173,668226,0.0-14.2-4.2,46569,List2B,white,woman,,TRUE,4,,,,,
null,CORRECT,,html-keyboard-response,174,669732,0.0-14.2-5.2-0.2,46569,List2B,white,woman,,,,null,,,,
1372,"<img src=""portrait/WM1.jpg""style=""height:400px;""></img>",6,html-button-response,175,671105,0.0-14.2-7.2,46569,List2B,white,woman,,TRUE,6,,,,,
null,CORRECT,,html-keyboard-response,176,672607,0.0-14.2-8.2-0.2,46569,List2B,white,woman,,,,null,,,,
6129,"<img src=""portrait/WW2.jpg""style=""height:400px;""></img>",3,html-button-response,177,678737,0.0-14.2-10.2,46569,List2B,white,woman,,TRUE,3,,,,,
null,CORRECT,,html-keyboard-response,178,680263,0.0-14.2-11.2-0.2,46569,List2B,white,woman,,,,null,,,,
1170,"<img src=""portrait/BW2.jpg""style=""height:400px;""></img>",2,html-button-response,179,681433,0.0-14.2-13.2,46569,List2B,white,woman,,TRUE,2,,,,,
null,CORRECT,,html-keyboard-response,180,682936,0.0-14.2-14.2-0.2,46569,List2B,white,woman,,,,null,,,,
2601,"<img src=""portrait/BM2.jpg""style=""height:400px;""></img>",5,html-button-response,181,685538,0.0-14.2-16.2,46569,List2B,white,woman,,TRUE,5,,,,,
null,CORRECT,,html-keyboard-response,182,687061,0.0-14.2-17.2-0.2,46569,List2B,white,woman,,,,null,,,,
1707,"<img src=""portrait/WW1.jpg""style=""height:400px;""></img>",1,html-button-response,183,688769,0.0-14.2-19.2,46569,List2B,white,woman,,TRUE,1,,,,,
null,CORRECT,,html-keyboard-response,184,690288,0.0-14.2-20.2-0.2,46569,List2B,white,woman,,,,null,,,,
1232,"<img src=""portrait/WM2.jpg""style=""height:400px;""></img>",7,html-button-response,185,691521,0.0-14.2-22.2,46569,List2B,white,woman,,TRUE,7,,,,,
null,CORRECT,,html-keyboard-response,186,693023,0.0-14.2-23.2-0.2,46569,List2B,white,woman,,,,null,,,,
1689,<p>You got 8 out of 8 right first time. Press Continue.</p>,0,html-button-response,187,694713,0.0-14.2-25.2,46569,List2B,white,woman,,,,,,,,
null,"<div style=""font-size:60px;"">+</div>",,html-keyboard-response,188,696221,0.0-15.0-0.0,46569,List2B,white,woman,,,,null,,,,
null,"<img src=""stim_listB/marry8.gif""style=""height:400px;""></stim_listB>",,html-keyboard-response,189,698222,0.0-15.0-1.0,46569,List2B,white,woman,,,,null,,,,
null,are marrying each other,,html-keyboard-response,190,700222,0.0-15.0-2.0,46569,List2B,white,woman,,,,null,,,,
10226,,,survey-text,191,710450,0.0-15.0-3.0,46569,List2B,white,woman,,,,,"{""Q0"":""ruth and jane are marrying each other""}","<img src=""stim_listB/marry8.gif""style=""height:400px;""></stim_listB>",are marrying each other,
null,"<div style=""font-size:60px;"">+</div>",,html-keyboard-response,192,710951,0.0-15.0-0.1,46569,List2B,white,woman,,,,null,,,,
null,"<img src=""stim_listB/play5.gif""style=""height:400px;""></stim_listB>",,html-keyboard-response,193,712952,0.0-15.0-1.1,46569,List2B,white,woman,,,,null,,,,
null,is playing with,,html-keyboard-response,194,714954,0.0-15.0-2.1,46569,List2B,white,woman,,,,null,,,,
5471,,,survey-text,195,720426,0.0-15.0-3.1,46569,List2B,white,woman,,,,,"{""Q0"":""mike is playing with dave""}","<img src=""stim_listB/play5.gif""style=""height:400px;""></stim_listB>",is playing with,
null,"<div style=""font-size:60px;"">+</div>",,html-keyboard-response,196,720927,0.0-15.0-0.2,46569,List2B,white,woman,,,,null,,,,
null,"<img src=""stim_listB/play7.gif""style=""height:400px;""></stim_listB>",,html-keyboard-response,197,722929,0.0-15.0-1.2,46569,List2B,white,woman,,,,null,,,,
null,is playing with,,html-keyboard-response,198,724935,0.0-15.0-2.2,46569,List2B,white,woman,,,,null,,,,
6433,,,survey-text,199,731370,0.0-15.0-3.2,46569,List2B,white,woman,,,,,"{""Q0"":""jane is playing with kate""}","<img src=""stim_listB/play7.gif""style=""height:400px;""></stim_listB>",is playing with,
null,"<div style=""font-size:60px;"">+</div>",,html-keyboard-response,200,731870,0.0-15.0-0.3,46569,List2B,white,woman,,,,null,,,,
null,"<img src=""stim_listB/talk7.gif""style=""height:400px;""></stim_listB>",,html-keyboard-response,201,733873,0.0-15.0-1.3,46569,List2B,white,woman,,,,null,,,,
null,is talking to,,html-keyboard-response,202,735886,0.0-15.0-2.3,46569,List2B,white,woman,,,,null,,,,
9595,,,survey-text,203,745481,0.0-15.0-3.3,46569,List2B,white,woman,,,,,"{""Q0"":""kate is talking to ruth""}","<img src=""stim_listB/talk7.gif""style=""height:400px;""></stim_listB>",is talking to,
null,"<div style=""font-size:60px;"">+</div>",,html-keyboard-response,204,745987,0.0-15.0-0.4,46569,List2B,white,woman,,,,null,,,,
null,"<img src=""stim_listB/play6.gif""style=""height:400px;""></stim_listB>",,html-keyboard-response,205,747991,0.0-15.0-1.4,46569,List2B,white,woman,,,,null,,,,
null,are playing with each other,,html-keyboard-response,206,750000,0.0-15.0-2.4,46569,List2B,white,woman,,,,null,,,,
9225,,,survey-text,207,759226,0.0-15.0-3.4,46569,List2B,white,woman,,,,,"{""Q0"":""luke and fred are playing with each other""}","<img src=""stim_listB/play6.gif""style=""height:400px;""></stim_listB>",are playing with each other,
null,"<div style=""font-size:60px;"">+</div>",,html-keyboard-response,208,759738,0.0-15.0-0.5,46569,List2B,white,woman,,,,null,,,,
null,"<img src=""stim_listB/shout6.gif""style=""height:400px;""></stim_listB>",,html-keyboard-response,209,761739,0.0-15.0-1.5,46569,List2B,white,woman,,,,null,,,,
null,are shouting at each other,,html-keyboard-response,210,763740,0.0-15.0-2.5,46569,List2B,white,woman,,,,null,,,,
8476,,,survey-text,211,772218,0.0-15.0-3.5,46569,List2B,white,woman,,,,,"{""Q0"":""mike and dave are shouting at each other""}","<img src=""stim_listB/shout6.gif""style=""height:400px;""></stim_listB>",are shouting at each other,
null,"<div style=""font-size:60px;"">+</div>",,html-keyboard-response,212,772732,0.0-15.0-0.6,46569,List2B,white,woman,,,,null,,,,
null,"<img src=""stim_listB/touch8.gif""style=""height:400px;""></stim_listB>",,html-keyboard-response,213,774733,0.0-15.0-1.6,46569,List2B,white,woman,,,,null,,,,
null,are touching each other,,html-keyboard-response,214,776741,0.0-15.0-2.6,46569,List2B,white,woman,,,,null,,,,
7301,,,survey-text,215,784042,0.0-15.0-3.6,46569,List2B,white,woman,,,,,"{""Q0"":""ruth and beth are touching each other""}","<img src=""stim_listB/touch8.gif""style=""height:400px;""></stim_listB>",are touching each other,
null,"<div style=""font-size:60px;"">+</div>",,html-keyboard-response,216,784551,0.0-15.0-0.7,46569,List2B,white,woman,,,,null,,,,
null,"<img src=""stim_listB/shout2.gif""style=""height:400px;""></stim_listB>",,html-keyboard-response,217,786552,0.0-15.0-1.7,46569,List2B,white,woman,,,,null,,,,
null,are shouting at each other,,html-keyboard-response,218,788553,0.0-15.0-2.7,46569,List2B,white,woman,,,,null,,,,
7809,,,survey-text,219,796362,0.0-15.0-3.7,46569,List2B,white,woman,,,,,"{""Q0"":""dave and jane are shouting at each other""}","<img src=""stim_listB/shout2.gif""style=""height:400px;""></stim_listB>",are shouting at each other,
null,"<div style=""font-size:60px;"">+</div>",,html-keyboard-response,220,796877,0.0-15.0-0.8,46569,List2B,white,woman,,,,null,,,,
null,"<img src=""stim_listB/touch5.gif""style=""height:400px;""></stim_listB>",,html-keyboard-response,221,798890,0.0-15.0-1.8,46569,List2B,white,woman,,,,null,,,,
null,is touching,,html-keyboard-response,222,800891,0.0-15.0-2.8,46569,List2B,white,woman,,,,null,,,,
5613,,,survey-text,223,806506,0.0-15.0-3.8,46569,List2B,white,woman,,,,,"{""Q0"":""mike is touching dave""}","<img src=""stim_listB/touch5.gif""style=""height:400px;""></stim_listB>",is touching,
null,"<div style=""font-size:60px;"">+</div>",,html-keyboard-response,224,807015,0.0-15.0-0.9,46569,List2B,white,woman,,,,null,,,,
null,"<img src=""stim_listB/fight5.gif""style=""height:400px;""></stim_listB>",,html-keyboard-response,225,809021,0.0-15.0-1.9,46569,List2B,white,woman,,,,null,,,,
null,is fighting,,html-keyboard-response,226,811024,0.0-15.0-2.9,46569,List2B,white,woman,,,,null,,,,
5529,,,survey-text,227,816553,0.0-15.0-3.9,46569,List2B,white,woman,,,,,"{""Q0"":""dave is fighting mike""}","<img src=""stim_listB/fight5.gif""style=""height:400px;""></stim_listB>",is fighting,
null,"<div style=""font-size:60px;"">+</div>",,html-keyboard-response,228,817054,0.0-15.0-0.10,46569,List2B,white,woman,,,,null,,,,
null,"<img src=""stim_listB/shout8.gif""style=""height:400px;""></stim_listB>",,html-keyboard-response,229,819064,0.0-15.0-1.10,46569,List2B,white,woman,,,,null,,,,
null,are shouting at each other,,html-keyboard-response,230,821064,0.0-15.0-2.10,46569,List2B,white,woman,,,,null,,,,
8895,,,survey-text,231,829961,0.0-15.0-3.10,46569,List2B,white,woman,,,,,"{""Q0"":""jane and kate are shouting at each other""}","<img src=""stim_listB/shout8.gif""style=""height:400px;""></stim_listB>",are shouting at each other,
null,"<div style=""font-size:60px;"">+</div>",,html-keyboard-response,232,830477,0.0-15.0-0.11,46569,List2B,white,woman,,,,null,,,,
null,"<img src=""stim_listB/shout4.gif""style=""height:400px;""></stim_listB>",,html-keyboard-response,233,832485,0.0-15.0-1.11,46569,List2B,white,woman,,,,null,,,,
null,are shouting at each other,,html-keyboard-response,234,834486,0.0-15.0-2.11,46569,List2B,white,woman,,,,null,,,,
9843,,,survey-text,235,844329,0.0-15.0-3.11,46569,List2B,white,woman,,,,,"{""Q0"":""mike and kate are shouting at each other""}","<img src=""stim_listB/shout4.gif""style=""height:400px;""></stim_listB>",are shouting at each other,
null,"<div style=""font-size:60px;"">+</div>",,html-keyboard-response,236,844831,0.0-15.0-0.12,46569,List2B,white,woman,,,,null,,,,
null,"<img src=""stim_listB/dance6.gif""style=""height:400px;""></stim_listB>",,html-keyboard-response,237,846846,0.0-15.0-1.12,46569,List2B,white,woman,,,,null,,,,
null,are dancing with each other,,html-keyboard-response,238,848848,0.0-15.0-2.12,46569,List2B,white,woman,,,,null,,,,
9721,,,survey-text,239,858569,0.0-15.0-3.12,46569,List2B,white,woman,,,,,"{""Q0"":""dave and fred are dancing with each other""}","<img src=""stim_listB/dance6.gif""style=""height:400px;""></stim_listB>",are dancing with each other,
null,"<div style=""font-size:60px;"">+</div>",,html-keyboard-response,240,859072,0.0-15.0-0.13,46569,List2B,white,woman,,,,null,,,,
null,"<img src=""stim_listB/fight3.gif""style=""height:400px;""></stim_listB>",,html-keyboard-response,241,861079,0.0-15.0-1.13,46569,List2B,white,woman,,,,null,,,,
null,is fighting,,html-keyboard-response,242,863079,0.0-15.0-2.13,46569,List2B,white,woman,,,,null,,,,
5065,,,survey-text,243,868145,0.0-15.0-3.13,46569,List2B,white,woman,,,,,"{""Q0"":""kate is fighting mike""}","<img src=""stim_listB/fight3.gif""style=""height:400px;""></stim_listB>",is fighting,
null,"<div style=""font-size:60px;"">+</div>",,html-keyboard-response,244,868646,0.0-15.0-0.14,46569,List2B,white,woman,,,,null,,,,
null,"<img src=""stim_listB/marry7.gif""style=""height:400px;""></stim_listB>",,html-keyboard-response,245,870648,0.0-15.0-1.14,46569,List2B,white,woman,,,,null,,,,
null,is marrying,,html-keyboard-response,246,872649,0.0-15.0-2.14,46569,List2B,white,woman,,,,null,,,,
6800,,,survey-text,247,879450,0.0-15.0-3.14,46569,List2B,white,woman,,,,,"{""Q0"":""beth is marrying jane""}","<img src=""stim_listB/marry7.gif""style=""height:400px;""></stim_listB>",is marrying,
null,"<div style=""font-size:60px;"">+</div>",,html-keyboard-response,248,879951,0.0-15.0-0.15,46569,List2B,white,woman,,,,null,,,,
null,"<img src=""stim_listB/flirt6.gif""style=""height:400px;""></stim_listB>",,html-keyboard-response,249,881967,0.0-15.0-1.15,46569,List2B,white,woman,,,,null,,,,
null,are flirting with each other,,html-keyboard-response,250,883971,0.0-15.0-2.15,46569,List2B,white,woman,,,,null,,,,
7767,,,survey-text,251,891738,0.0-15.0-3.15,46569,List2B,white,woman,,,,,"{""Q0"":""fred and dave are flirting with each other""}","<img src=""stim_listB/flirt6.gif""style=""height:400px;""></stim_listB>",are flirting with each other,
null,"<div style=""font-size:60px;"">+</div>",,html-keyboard-response,252,892241,0.0-15.0-0.16,46569,List2B,white,woman,,,,null,,,,
null,"<img src=""stim_listB/fight2.gif""style=""height:400px;""></stim_listB>",,html-keyboard-response,253,894246,0.0-15.0-1.16,46569,List2B,white,woman,,,,null,,,,
null,are fighting each other,,html-keyboard-response,254,896248,0.0-15.0-2.16,46569,List2B,white,woman,,,,null,,,,
9690,,,survey-text,255,905938,0.0-15.0-3.16,46569,List2B,white,woman,,,,,"{""Q0"":""luke and ruth are fighting each other""}","<img src=""stim_listB/fight2.gif""style=""height:400px;""></stim_listB>",are fighting each other,
null,"<div style=""font-size:60px;"">+</div>",,html-keyboard-response,256,906440,0.0-15.0-0.17,46569,List2B,white,woman,,,,null,,,,
null,"<img src=""stim_listB/talk4.gif""style=""height:400px;""></stim_listB>",,html-keyboard-response,257,908443,0.0-15.0-1.17,46569,List2B,white,woman,,,,null,,,,
null,are talking to each other,,html-keyboard-response,258,910445,0.0-15.0-2.17,46569,List2B,white,woman,,,,null,,,,
8405,,,survey-text,259,918850,0.0-15.0-3.17,46569,List2B,white,woman,,,,,"{""Q0"":""mike and beth are talking to each other""}","<img src=""stim_listB/talk4.gif""style=""height:400px;""></stim_listB>",are talking to each other,
null,"<div style=""font-size:60px;"">+</div>",,html-keyboard-response,260,919351,0.0-15.0-0.18,46569,List2B,white,woman,,,,null,,,,
null,"<img src=""stim_listB/shout5.gif""style=""height:400px;""></stim_listB>",,html-keyboard-response,261,921367,0.0-15.0-1.18,46569,List2B,white,woman,,,,null,,,,
null,is shouting at,,html-keyboard-response,262,923368,0.0-15.0-2.18,46569,List2B,white,woman,,,,null,,,,
6769,,,survey-text,263,930138,0.0-15.0-3.18,46569,List2B,white,woman,,,,,"{""Q0"":""fred is shouting at luke""}","<img src=""stim_listB/shout5.gif""style=""height:400px;""></stim_listB>",is shouting at,
null,"<div style=""font-size:60px;"">+</div>",,html-keyboard-response,264,930642,0.0-15.0-0.19,46569,List2B,white,woman,,,,null,,,,
null,"<img src=""stim_listB/fight4.gif""style=""height:400px;""></stim_listB>",,html-keyboard-response,265,932656,0.0-15.0-1.19,46569,List2B,white,woman,,,,null,,,,
null,are fighting each other,,html-keyboard-response,266,934657,0.0-15.0-2.19,46569,List2B,white,woman,,,,null,,,,
9568,,,survey-text,267,944225,0.0-15.0-3.19,46569,List2B,white,woman,,,,,"{""Q0"":""fred and beth are fighting each other""}","<img src=""stim_listB/fight4.gif""style=""height:400px;""></stim_listB>",are fighting each other,
1687,"<img src='img/portrait_matrix_list2.jpg' style='width:900px;height:500px;''></img><p>If you have memorised all the portraits and names and are ready to start, press Continue.</p><p><strong>Please note: Your memory of these faces will be tested 4 times during this experiment.</strong></p>",0,html-button-response,268,945913,0.0-16.0-0.0,46569,List2B,white,woman,,,,,,,,
2560,"<img src=""portrait/WW2.jpg""style=""height:400px;""></img>",3,html-button-response,269,949481,0.0-16.0-1.0,46569,List2B,white,woman,,TRUE,3,,,,,
null,CORRECT,,html-keyboard-response,270,951000,0.0-16.0-2.0-0.0,46569,List2B,white,woman,,,,null,,,,
1785,"<img src=""portrait/WW1.jpg""style=""height:400px;""></img>",1,html-button-response,271,952785,0.0-16.0-4.0,46569,List2B,white,woman,,TRUE,1,,,,,
null,CORRECT,,html-keyboard-response,272,954290,0.0-16.0-5.0-0.0,46569,List2B,white,woman,,,,null,,,,
2102,"<img src=""portrait/BW1.jpg""style=""height:400px;""></img>",0,html-button-response,273,956393,0.0-16.0-7.0,46569,List2B,white,woman,,TRUE,0,,,,,
null,CORRECT,,html-keyboard-response,274,957901,0.0-16.0-8.0-0.0,46569,List2B,white,woman,,,,null,,,,
1196,"<img src=""portrait/WM1.jpg""style=""height:400px;""></img>",6,html-button-response,275,959097,0.0-16.0-10.0,46569,List2B,white,woman,,TRUE,6,,,,,
null,CORRECT,,html-keyboard-response,276,960610,0.0-16.0-11.0-0.0,46569,List2B,white,woman,,,,null,,,,
1822,"<img src=""portrait/BM1.jpg""style=""height:400px;""></img>",4,html-button-response,277,962433,0.0-16.0-13.0,46569,List2B,white,woman,,TRUE,4,,,,,
null,CORRECT,,html-keyboard-response,278,963942,0.0-16.0-14.0-0.0,46569,List2B,white,woman,,,,null,,,,
1675,"<img src=""portrait/WM2.jpg""style=""height:400px;""></img>",7,html-button-response,279,965617,0.0-16.0-16.0,46569,List2B,white,woman,,TRUE,7,,,,,
null,CORRECT,,html-keyboard-response,280,967121,0.0-16.0-17.0-0.0,46569,List2B,white,woman,,,,null,,,,
3207,"<img src=""portrait/BM2.jpg""style=""height:400px;""></img>",5,html-button-response,281,970330,0.0-16.0-19.0,46569,List2B,white,woman,,TRUE,5,,,,,
null,CORRECT,,html-keyboard-response,282,971833,0.0-16.0-20.0-0.0,46569,List2B,white,woman,,,,null,,,,
1624,"<img src=""portrait/BW2.jpg""style=""height:400px;""></img>",3,html-button-response,283,973457,0.0-16.0-22.0,46569,List2B,white,woman,,TRUE,2,,,,,
1526,"<img src=""portrait/BW2.jpg""style=""height:400px;""></img>",2,html-button-response,284,975985,0.0-16.0-24.0-0.0,46569,List2B,white,woman,,FALSE,2,,,,,
null,CORRECT,,html-keyboard-response,285,977509,0.0-16.0-24.0-1.0-0.0,46569,List2B,white,woman,,,,null,,,,
1267,<p>You got 7 out of 8 right first time. Press Continue.</p>,0,html-button-response,286,978777,0.0-16.0-25.0,46569,List2B,white,woman,,,,,,,,
1577,"As you did not score 100%, the memory game will repeat. Press Continue.",0,html-button-response,287,981361,0.0-16.0-26.0-0.0,46569,List2B,white,woman,,,,,,,,
1346,"<img src='img/portrait_matrix_list2.jpg' style='width:900px;height:500px;''></img><p>If you have memorised all the portraits and names and are ready to start, press Continue.</p><p><strong>Please note: Your memory of these faces will be tested 4 times during this experiment.</strong></p>",0,html-button-response,288,983721,0.0-16.1-0.1,46569,List2B,white,woman,,,,,,,,
1894,"<img src=""portrait/WW2.jpg""style=""height:400px;""></img>",3,html-button-response,289,986617,0.0-16.1-1.1,46569,List2B,white,woman,,TRUE,3,,,,,
null,CORRECT,,html-keyboard-response,290,988123,0.0-16.1-2.1-0.1,46569,List2B,white,woman,,,,null,,,,
6485,"<img src=""portrait/WW1.jpg""style=""height:400px;""></img>",1,html-button-response,291,994609,0.0-16.1-4.1,46569,List2B,white,woman,,TRUE,1,,,,,
null,CORRECT,,html-keyboard-response,292,996112,0.0-16.1-5.1-0.1,46569,List2B,white,woman,,,,null,,,,
1264,"<img src=""portrait/BW1.jpg""style=""height:400px;""></img>",0,html-button-response,293,997378,0.0-16.1-7.1,46569,List2B,white,woman,,TRUE,0,,,,,
null,CORRECT,,html-keyboard-response,294,998882,0.0-16.1-8.1-0.1,46569,List2B,white,woman,,,,null,,,,
3662,"<img src=""portrait/WM1.jpg""style=""height:400px;""></img>",6,html-button-response,295,1002545,0.0-16.1-10.1,46569,List2B,white,woman,,TRUE,6,,,,,
null,CORRECT,,html-keyboard-response,296,1004049,0.0-16.1-11.1-0.1,46569,List2B,white,woman,,,,null,,,,
1448,"<img src=""portrait/BM1.jpg""style=""height:400px;""></img>",4,html-button-response,297,1005497,0.0-16.1-13.1,46569,List2B,white,woman,,TRUE,4,,,,,
null,CORRECT,,html-keyboard-response,298,1007018,0.0-16.1-14.1-0.1,46569,List2B,white,woman,,,,null,,,,
2590,"<img src=""portrait/WM2.jpg""style=""height:400px;""></img>",7,html-button-response,299,1009610,0.0-16.1-16.1,46569,List2B,white,woman,,TRUE,7,,,,,
null,CORRECT,,html-keyboard-response,300,1011112,0.0-16.1-17.1-0.1,46569,List2B,white,woman,,,,null,,,,
1696,"<img src=""portrait/BM2.jpg""style=""height:400px;""></img>",5,html-button-response,301,1012810,0.0-16.1-19.1,46569,List2B,white,woman,,TRUE,5,,,,,
null,CORRECT,,html-keyboard-response,302,1014313,0.0-16.1-20.1-0.1,46569,List2B,white,woman,,,,null,,,,
1999,"<img src=""portrait/BW2.jpg""style=""height:400px;""></img>",2,html-button-response,303,1016314,0.0-16.1-22.1,46569,List2B,white,woman,,TRUE,2,,,,,
null,CORRECT,,html-keyboard-response,304,1017823,0.0-16.1-23.1-0.1,46569,List2B,white,woman,,,,null,,,,
3226,<p>You got 8 out of 8 right first time. Press Continue.</p>,0,html-button-response,305,1021049,0.0-16.1-25.1,46569,List2B,white,woman,,,,,,,,
null,"<div style=""font-size:60px;"">+</div>",,html-keyboard-response,306,1022563,0.0-17.0-0.0,46569,List2B,white,woman,,,,null,,,,
null,"<img src=""stim_listB/dance8.gif""style=""height:400px;""></stim_listB>",,html-keyboard-response,307,1024579,0.0-17.0-1.0,46569,List2B,white,woman,,,,null,,,,
null,are dancing with each other,,html-keyboard-response,308,1026580,0.0-17.0-2.0,46569,List2B,white,woman,,,,null,,,,
9020,,,survey-text,309,1035602,0.0-17.0-3.0,46569,List2B,white,woman,,,,,"{""Q0"":""jane and beth are dancing with each other""}","<img src=""stim_listB/dance8.gif""style=""height:400px;""></stim_listB>",are dancing with each other,
null,"<div style=""font-size:60px;"">+</div>",,html-keyboard-response,310,1036103,0.0-17.0-0.1,46569,List2B,white,woman,,,,null,,,,
null,"<img src=""stim_listB/dance1.gif""style=""height:400px;""></stim_listB>",,html-keyboard-response,311,1038113,0.0-17.0-1.1,46569,List2B,white,woman,,,,null,,,,
null,is dancing with,,html-keyboard-response,312,1040121,0.0-17.0-2.1,46569,List2B,white,woman,,,,null,,,,
6232,,,survey-text,313,1046354,0.0-17.0-3.1,46569,List2B,white,woman,,,,,"{""Q0"":""jane is dancing with luke""}","<img src=""stim_listB/dance1.gif""style=""height:400px;""></stim_listB>",is dancing with,
null,"<div style=""font-size:60px;"">+</div>",,html-keyboard-response,314,1046855,0.0-17.0-0.2,46569,List2B,white,woman,,,,null,,,,
null,"<img src=""stim_listB/flirt2.gif""style=""height:400px;""></stim_listB>",,html-keyboard-response,315,1048856,0.0-17.0-1.2,46569,List2B,white,woman,,,,null,,,,
null,are flirting with each other,,html-keyboard-response,316,1050858,0.0-17.0-2.2,46569,List2B,white,woman,,,,null,,,,
8422,,,survey-text,317,1059281,0.0-17.0-3.2,46569,List2B,white,woman,,,,,"{""Q0"":""ruth and dave are flirting with each other""}","<img src=""stim_listB/flirt2.gif""style=""height:400px;""></stim_listB>",are flirting with each other,
null,"<div style=""font-size:60px;"">+</div>",,html-keyboard-response,318,1059783,0.0-17.0-0.3,46569,List2B,white,woman,,,,null,,,,
null,"<img src=""stim_listB/touch4.gif""style=""height:400px;""></stim_listB>",,html-keyboard-response,319,1061788,0.0-17.0-1.3,46569,List2B,white,woman,,,,null,,,,
null,are touching each other,,html-keyboard-response,320,1063790,0.0-17.0-2.3,46569,List2B,white,woman,,,,null,,,,
7251,,,survey-text,321,1071041,0.0-17.0-3.3,46569,List2B,white,woman,,,,,"{""Q0"":""fred and beth are touching each other""}","<img src=""stim_listB/touch4.gif""style=""height:400px;""></stim_listB>",are touching each other,
null,"<div style=""font-size:60px;"">+</div>",,html-keyboard-response,322,1071543,0.0-17.0-0.4,46569,List2B,white,woman,,,,null,,,,
null,"<img src=""stim_listB/argue4.gif""style=""height:400px;""></stim_listB>",,html-keyboard-response,323,1073559,0.0-17.0-1.4,46569,List2B,white,woman,,,,null,,,,
null,are arguing with each other,,html-keyboard-response,324,1075560,0.0-17.0-2.4,46569,List2B,white,woman,,,,null,,,,
13000,,,survey-text,325,1088561,0.0-17.0-3.4,46569,List2B,white,woman,,,,,"{""Q0"":""kate and fred are arguing with each other""}","<img src=""stim_listB/argue4.gif""style=""height:400px;""></stim_listB>",are arguing with each other,
null,"<div style=""font-size:60px;"">+</div>",,html-keyboard-response,326,1089062,0.0-17.0-0.5,46569,List2B,white,woman,,,,null,,,,
null,"<img src=""stim_listB/dance2.gif""style=""height:400px;""></stim_listB>",,html-keyboard-response,327,1091077,0.0-17.0-1.5,46569,List2B,white,woman,,,,null,,,,
null,are dancing with each other,,html-keyboard-response,328,1093086,0.0-17.0-2.5,46569,List2B,white,woman,,,,null,,,,
8970,,,survey-text,329,1102057,0.0-17.0-3.5,46569,List2B,white,woman,,,,,"{""Q0"":""dave and ruth are dancing with each other""}","<img src=""stim_listB/dance2.gif""style=""height:400px;""></stim_listB>",are dancing with each other,
null,"<div style=""font-size:60px;"">+</div>",,html-keyboard-response,330,1102559,0.0-17.0-0.6,46569,List2B,white,woman,,,,null,,,,
null,"<img src=""stim_listB/flirt4.gif""style=""height:400px;""></stim_listB>",,html-keyboard-response,331,1104562,0.0-17.0-1.6,46569,List2B,white,woman,,,,null,,,,
null,are flirting with each other,,html-keyboard-response,332,1106563,0.0-17.0-2.6,46569,List2B,white,woman,,,,null,,,,
7717,,,survey-text,333,1114281,0.0-17.0-3.6,46569,List2B,white,woman,,,,,"{""Q0"":""mike and beth are flirting with each other""}","<img src=""stim_listB/flirt4.gif""style=""height:400px;""></stim_listB>",are flirting with each other,
null,"<div style=""font-size:60px;"">+</div>",,html-keyboard-response,334,1114798,0.0-17.0-0.7,46569,List2B,white,woman,,,,null,,,,
null,"<img src=""stim_listB/marry3.gif""style=""height:400px;""></stim_listB>",,html-keyboard-response,335,1116807,0.0-17.0-1.7,46569,List2B,white,woman,,,,null,,,,
null,is marrying,,html-keyboard-response,336,1118817,0.0-17.0-2.7,46569,List2B,white,woman,,,,null,,,,
5487,,,survey-text,337,1124306,0.0-17.0-3.7,46569,List2B,white,woman,,,,,"{""Q0"":""mike is marrying beth""}","<img src=""stim_listB/marry3.gif""style=""height:400px;""></stim_listB>",is marrying,
null,"<div style=""font-size:60px;"">+</div>",,html-keyboard-response,338,1124808,0.0-17.0-0.8,46569,List2B,white,woman,,,,null,,,,
null,"<img src=""stim_listB/dance5.gif""style=""height:400px;""></stim_listB>",,html-keyboard-response,339,1126809,0.0-17.0-1.8,46569,List2B,white,woman,,,,null,,,,
null,is dancing with,,html-keyboard-response,340,1128810,0.0-17.0-2.8,46569,List2B,white,woman,,,,null,,,,
5423,,,survey-text,341,1134234,0.0-17.0-3.8,46569,List2B,white,woman,,,,,"{""Q0"":""mike is dancing with luke""}","<img src=""stim_listB/dance5.gif""style=""height:400px;""></stim_listB>",is dancing with,
null,"<div style=""font-size:60px;"">+</div>",,html-keyboard-response,342,1134745,0.0-17.0-0.9,46569,List2B,white,woman,,,,null,,,,
null,"<img src=""stim_listB/argue2.gif""style=""height:400px;""></stim_listB>",,html-keyboard-response,343,1136746,0.0-17.0-1.9,46569,List2B,white,woman,,,,null,,,,
null,are arguing with each other,,html-keyboard-response,344,1138750,0.0-17.0-2.9,46569,List2B,white,woman,,,,null,,,,
11467,,,survey-text,345,1150218,0.0-17.0-3.9,46569,List2B,white,woman,,,,,"{""Q0"":""luke and jane are arguing with each other""}","<img src=""stim_listB/argue2.gif""style=""height:400px;""></stim_listB>",are arguing with each other,
null,"<div style=""font-size:60px;"">+</div>",,html-keyboard-response,346,1150728,0.0-17.0-0.10,46569,List2B,white,woman,,,,null,,,,
null,"<img src=""stim_listB/talk6.gif""style=""height:400px;""></stim_listB>",,html-keyboard-response,347,1152730,0.0-17.0-1.10,46569,List2B,white,woman,,,,null,,,,
null,are talking to each other,,html-keyboard-response,348,1154730,0.0-17.0-2.10,46569,List2B,white,woman,,,,null,,,,
10942,,,survey-text,349,1165674,0.0-17.0-3.10,46569,List2B,white,woman,,,,,"{""Q0"":""fred and dave are talking to each other""}","<img src=""stim_listB/talk6.gif""style=""height:400px;""></stim_listB>",are talking to each other,
null,"<div style=""font-size:60px;"">+</div>",,html-keyboard-response,350,1166189,0.0-17.0-0.11,46569,List2B,white,woman,,,,null,,,,
null,"<img src=""stim_listB/dance3.gif""style=""height:400px;""></stim_listB>",,html-keyboard-response,351,1168196,0.0-17.0-1.11,46569,List2B,white,woman,,,,null,,,,
null,is dancing with,,html-keyboard-response,352,1170197,0.0-17.0-2.11,46569,List2B,white,woman,,,,null,,,,
5540,,,survey-text,353,1175738,0.0-17.0-3.11,46569,List2B,white,woman,,,,,"{""Q0"":""kate is dancing with fred""}","<img src=""stim_listB/dance3.gif""style=""height:400px;""></stim_listB>",is dancing with,
null,"<div style=""font-size:60px;"">+</div>",,html-keyboard-response,354,1176250,0.0-17.0-0.12,46569,List2B,white,woman,,,,null,,,,
null,"<img src=""stim_listB/fight7.gif""style=""height:400px;""></stim_listB>",,html-keyboard-response,355,1178256,0.0-17.0-1.12,46569,List2B,white,woman,,,,null,,,,
null,is fighting,,html-keyboard-response,356,1180260,0.0-17.0-2.12,46569,List2B,white,woman,,,,null,,,,
6836,,,survey-text,357,1187098,0.0-17.0-3.12,46569,List2B,white,woman,,,,,"{""Q0"":""kate is fighting jane""}","<img src=""stim_listB/fight7.gif""style=""height:400px;""></stim_listB>",is fighting,
null,"<div style=""font-size:60px;"">+</div>",,html-keyboard-response,358,1187602,0.0-17.0-0.13,46569,List2B,white,woman,,,,null,,,,
null,"<img src=""stim_listB/flirt8.gif""style=""height:400px;""></stim_listB>",,html-keyboard-response,359,1189606,0.0-17.0-1.13,46569,List2B,white,woman,,,,null,,,,
null,are flirting with each other,,html-keyboard-response,360,1191607,0.0-17.0-2.13,46569,List2B,white,woman,,,,null,,,,
10146,,,survey-text,361,1201753,0.0-17.0-3.13,46569,List2B,white,woman,,,,,"{""Q0"":""jane and beth are flirting with each other""}","<img src=""stim_listB/flirt8.gif""style=""height:400px;""></stim_listB>",are flirting with each other,
null,"<div style=""font-size:60px;"">+</div>",,html-keyboard-response,362,1202256,0.0-17.0-0.14,46569,List2B,white,woman,,,,null,,,,
null,"<img src=""stim_listB/argue6.gif""style=""height:400px;""></stim_listB>",,html-keyboard-response,363,1204271,0.0-17.0-1.14,46569,List2B,white,woman,,,,null,,,,
null,are arguing with each other,,html-keyboard-response,364,1206274,0.0-17.0-2.14,46569,List2B,white,woman,,,,null,,,,
10670,,,survey-text,365,1216946,0.0-17.0-3.14,46569,List2B,white,woman,,,,,"{""Q0"":""luke and mike are arguing with each other""}","<img src=""stim_listB/argue6.gif""style=""height:400px;""></stim_listB>",are arguing with each other,
null,"<div style=""font-size:60px;"">+</div>",,html-keyboard-response,366,1217447,0.0-17.0-0.15,46569,List2B,white,woman,,,,null,,,,
null,"<img src=""stim_listB/talk3.gif""style=""height:400px;""></stim_listB>",,html-keyboard-response,367,1219453,0.0-17.0-1.15,46569,List2B,white,woman,,,,null,,,,
null,is talking to,,html-keyboard-response,368,1221454,0.0-17.0-2.15,46569,List2B,white,woman,,,,null,,,,
6587,,,survey-text,369,1228042,0.0-17.0-3.15,46569,List2B,white,woman,,,,,"{""Q0"":""kate is talking to fred""}","<img src=""stim_listB/talk3.gif""style=""height:400px;""></stim_listB>",is talking to,
null,"<div style=""font-size:60px;"">+</div>",,html-keyboard-response,370,1228546,0.0-17.0-0.16,46569,List2B,white,woman,,,,null,,,,
null,"<img src=""stim_listB/dance7.gif""style=""height:400px;""></stim_listB>",,html-keyboard-response,371,1230556,0.0-17.0-1.16,46569,List2B,white,woman,,,,null,,,,
null,is dancing with,,html-keyboard-response,372,1232557,0.0-17.0-2.16,46569,List2B,white,woman,,,,null,,,,
6811,,,survey-text,373,1239370,0.0-17.0-3.16,46569,List2B,white,woman,,,,,"{""Q0"":""kate is dancing with ruth""}","<img src=""stim_listB/dance7.gif""style=""height:400px;""></stim_listB>",is dancing with,
null,"<div style=""font-size:60px;"">+</div>",,html-keyboard-response,374,1239870,0.0-17.0-0.17,46569,List2B,white,woman,,,,null,,,,
null,"<img src=""stim_listB/kiss8.gif""style=""height:400px;""></stim_listB>",,html-keyboard-response,375,1241877,0.0-17.0-1.17,46569,List2B,white,woman,,,,null,,,,
null,are kissing each other,,html-keyboard-response,376,1243886,0.0-17.0-2.17,46569,List2B,white,woman,,,,null,,,,
6850,,,survey-text,377,1250738,0.0-17.0-3.17,46569,List2B,white,woman,,,,,"{""Q0"":""kate and jane are kissing each other""}","<img src=""stim_listB/kiss8.gif""style=""height:400px;""></stim_listB>",are kissing each other,
null,"<div style=""font-size:60px;"">+</div>",,html-keyboard-response,378,1251249,0.0-17.0-0.18,46569,List2B,white,woman,,,,null,,,,
null,"<img src=""stim_listB/flirt7.gif""style=""height:400px;""></stim_listB>",,html-keyboard-response,379,1253255,0.0-17.0-1.18,46569,List2B,white,woman,,,,null,,,,
null,is flirting with,,html-keyboard-response,380,1255256,0.0-17.0-2.18,46569,List2B,white,woman,,,,null,,,,
8105,,,survey-text,381,1263361,0.0-17.0-3.18,46569,List2B,white,woman,,,,,"{""Q0"":""ruth is flirting with kate""}","<img src=""stim_listB/flirt7.gif""style=""height:400px;""></stim_listB>",is flirting with,
null,"<div style=""font-size:60px;"">+</div>",,html-keyboard-response,382,1263864,0.0-17.0-0.19,46569,List2B,white,woman,,,,null,,,,
null,"<img src=""stim_listB/flirt5.gif""style=""height:400px;""></stim_listB>",,html-keyboard-response,383,1265865,0.0-17.0-1.19,46569,List2B,white,woman,,,,null,,,,
null,is flirting with,,html-keyboard-response,384,1267872,0.0-17.0-2.19,46569,List2B,white,woman,,,,null,,,,
7833,,,survey-text,385,1275705,0.0-17.0-3.19,46569,List2B,white,woman,,,,,"{""Q0"":""mike is flirting with luke""}","<img src=""stim_listB/flirt5.gif""style=""height:400px;""></stim_listB>",is flirting with,
1335,"<img src='img/portrait_matrix_list2.jpg' style='width:900px;height:500px;''></img><p>If you have memorised all the portraits and names and are ready to start, press Continue.</p><p><strong>Please note: Your memory of these faces will be tested 4 times during this experiment.</strong></p>",0,html-button-response,386,1277042,0.0-18.0-0.0,46569,List2B,white,woman,,,,,,,,
1289,"<img src=""portrait/BW1.jpg""style=""height:400px;""></img>",0,html-button-response,387,1279346,0.0-18.0-1.0,46569,List2B,white,woman,,TRUE,0,,,,,
null,CORRECT,,html-keyboard-response,388,1280873,0.0-18.0-2.0-0.0,46569,List2B,white,woman,,,,null,,,,
1624,"<img src=""portrait/WW1.jpg""style=""height:400px;""></img>",1,html-button-response,389,1282497,0.0-18.0-4.0,46569,List2B,white,woman,,TRUE,1,,,,,
null,CORRECT,,html-keyboard-response,390,1284018,0.0-18.0-5.0-0.0,46569,List2B,white,woman,,,,null,,,,
2119,"<img src=""portrait/WM1.jpg""style=""height:400px;""></img>",6,html-button-response,391,1286137,0.0-18.0-7.0,46569,List2B,white,woman,,TRUE,6,,,,,
null,CORRECT,,html-keyboard-response,392,1287652,0.0-18.0-8.0-0.0,46569,List2B,white,woman,,,,null,,,,
1164,"<img src=""portrait/WM2.jpg""style=""height:400px;""></img>",7,html-button-response,393,1288818,0.0-18.0-10.0,46569,List2B,white,woman,,TRUE,7,,,,,
null,CORRECT,,html-keyboard-response,394,1290347,0.0-18.0-11.0-0.0,46569,List2B,white,woman,,,,null,,,,
1420,"<img src=""portrait/BM1.jpg""style=""height:400px;""></img>",4,html-button-response,395,1291769,0.0-18.0-13.0,46569,List2B,white,woman,,TRUE,4,,,,,
null,CORRECT,,html-keyboard-response,396,1293285,0.0-18.0-14.0-0.0,46569,List2B,white,woman,,,,null,,,,
1388,"<img src=""portrait/BW2.jpg""style=""height:400px;""></img>",2,html-button-response,397,1294673,0.0-18.0-16.0,46569,List2B,white,woman,,TRUE,2,,,,,
null,CORRECT,,html-keyboard-response,398,1296192,0.0-18.0-17.0-0.0,46569,List2B,white,woman,,,,null,,,,
1456,"<img src=""portrait/BM2.jpg""style=""height:400px;""></img>",5,html-button-response,399,1297650,0.0-18.0-19.0,46569,List2B,white,woman,,TRUE,5,,,,,
null,CORRECT,,html-keyboard-response,400,1299167,0.0-18.0-20.0-0.0,46569,List2B,white,woman,,,,null,,,,
1449,"<img src=""portrait/WW2.jpg""style=""height:400px;""></img>",3,html-button-response,401,1300618,0.0-18.0-22.0,46569,List2B,white,woman,,TRUE,3,,,,,
null,CORRECT,,html-keyboard-response,402,1302128,0.0-18.0-23.0-0.0,46569,List2B,white,woman,,,,null,,,,
1504,<p>You got 8 out of 8 right first time. Press Continue.</p>,0,html-button-response,403,1303634,0.0-18.0-25.0,46569,List2B,white,woman,,,,,,,,
null,"<div style=""font-size:60px;"">+</div>",,html-keyboard-response,404,1305157,0.0-19.0-0.0,46569,List2B,white,woman,,,,null,,,,
null,"<img src=""stim_listB/play1.gif""style=""height:400px;""></stim_listB>",,html-keyboard-response,405,1307165,0.0-19.0-1.0,46569,List2B,white,woman,,,,null,,,,
null,is playing with,,html-keyboard-response,406,1309169,0.0-19.0-2.0,46569,List2B,white,woman,,,,null,,,,
7367,,,survey-text,407,1316537,0.0-19.0-3.0,46569,List2B,white,woman,,,,,"{""Q0"":""jane is playing with dave""}","<img src=""stim_listB/play1.gif""style=""height:400px;""></stim_listB>",is playing with,
null,"<div style=""font-size:60px;"">+</div>",,html-keyboard-response,408,1317047,0.0-19.0-0.1,46569,List2B,white,woman,,,,null,,,,
null,"<img src=""stim_listB/marry5.gif""style=""height:400px;""></stim_listB>",,html-keyboard-response,409,1319053,0.0-19.0-1.1,46569,List2B,white,woman,,,,null,,,,
null,is marrying,,html-keyboard-response,410,1321054,0.0-19.0-2.1,46569,List2B,white,woman,,,,null,,,,
6011,,,survey-text,411,1327065,0.0-19.0-3.1,46569,List2B,white,woman,,,,,"{""Q0"":""dave is marrying fred""}","<img src=""stim_listB/marry5.gif""style=""height:400px;""></stim_listB>",is marrying,
null,"<div style=""font-size:60px;"">+</div>",,html-keyboard-response,412,1327566,0.0-19.0-0.2,46569,List2B,white,woman,,,,null,,,,
null,"<img src=""stim_listB/shout3.gif""style=""height:400px;""></stim_listB>",,html-keyboard-response,413,1329581,0.0-19.0-1.2,46569,List2B,white,woman,,,,null,,,,
null,is shouting at,,html-keyboard-response,414,1331582,0.0-19.0-2.2,46569,List2B,white,woman,,,,null,,,,
7578,,,survey-text,415,1339161,0.0-19.0-3.2,46569,List2B,white,woman,,,,,"{""Q0"":""beth is shouting at fred""}","<img src=""stim_listB/shout3.gif""style=""height:400px;""></stim_listB>",is shouting at,
null,"<div style=""font-size:60px;"">+</div>",,html-keyboard-response,416,1339676,0.0-19.0-0.3,46569,List2B,white,woman,,,,null,,,,
null,"<img src=""stim_listB/dance4.gif""style=""height:400px;""></stim_listB>",,html-keyboard-response,417,1341678,0.0-19.0-1.3,46569,List2B,white,woman,,,,null,,,,
null,are dancing with each other,,html-keyboard-response,418,1343685,0.0-19.0-2.3,46569,List2B,white,woman,,,,null,,,,
7259,,,survey-text,419,1350946,0.0-19.0-3.3,46569,List2B,white,woman,,,,,"{""Q0"":""mike and beth are dancing with each other""}","<img src=""stim_listB/dance4.gif""style=""height:400px;""></stim_listB>",are dancing with each other,
null,"<div style=""font-size:60px;"">+</div>",,html-keyboard-response,420,1351447,0.0-19.0-0.4,46569,List2B,white,woman,,,,null,,,,
null,"<img src=""stim_listB/marry4.gif""style=""height:400px;""></stim_listB>",,html-keyboard-response,421,1353461,0.0-19.0-1.4,46569,List2B,white,woman,,,,null,,,,
null,are marrying each other,,html-keyboard-response,422,1355462,0.0-19.0-2.4,46569,List2B,white,woman,,,,null,,,,
7651,,,survey-text,423,1363113,0.0-19.0-3.4,46569,List2B,white,woman,,,,,"{""Q0"":""fred and kate are marrying each other""}","<img src=""stim_listB/marry4.gif""style=""height:400px;""></stim_listB>",are marrying each other,
null,"<div style=""font-size:60px;"">+</div>",,html-keyboard-response,424,1363616,0.0-19.0-0.5,46569,List2B,white,woman,,,,null,,,,
null,"<img src=""stim_listB/talk1.gif""style=""height:400px;""></stim_listB>",,html-keyboard-response,425,1365626,0.0-19.0-1.5,46569,List2B,white,woman,,,,null,,,,
null,is talking to,,html-keyboard-response,426,1367627,0.0-19.0-2.5,46569,List2B,white,woman,,,,null,,,,
4974,,,survey-text,427,1372601,0.0-19.0-3.5,46569,List2B,white,woman,,,,,"{""Q0"":""jane is talking to luke""}","<img src=""stim_listB/talk1.gif""style=""height:400px;""></stim_listB>",is talking to,
null,"<div style=""font-size:60px;"">+</div>",,html-keyboard-response,428,1373102,0.0-19.0-0.6,46569,List2B,white,woman,,,,null,,,,
null,"<img src=""stim_listB/kiss1.gif""style=""height:400px;""></stim_listB>",,html-keyboard-response,429,1375107,0.0-19.0-1.6,46569,List2B,white,woman,,,,null,,,,
null,is kissing,,html-keyboard-response,430,1377109,0.0-19.0-2.6,46569,List2B,white,woman,,,,null,,,,
5851,,,survey-text,431,1382961,0.0-19.0-3.6,46569,List2B,white,woman,,,,,"{""Q0"":""ruth is kissing luke""}","<img src=""stim_listB/kiss1.gif""style=""height:400px;""></stim_listB>",is kissing,
null,"<div style=""font-size:60px;"">+</div>",,html-keyboard-response,432,1383463,0.0-19.0-0.7,46569,List2B,white,woman,,,,null,,,,
null,"<img src=""stim_listB/marry1.gif""style=""height:400px;""></stim_listB>",,html-keyboard-response,433,1385468,0.0-19.0-1.7,46569,List2B,white,woman,,,,null,,,,
null,is marrying,,html-keyboard-response,434,1387470,0.0-19.0-2.7,46569,List2B,white,woman,,,,null,,,,
6331,,,survey-text,435,1393801,0.0-19.0-3.7,46569,List2B,white,woman,,,,,"{""Q0"":""ruth is marrying dave""}","<img src=""stim_listB/marry1.gif""style=""height:400px;""></stim_listB>",is marrying,
null,"<div style=""font-size:60px;"">+</div>",,html-keyboard-response,436,1394308,0.0-19.0-0.8,46569,List2B,white,woman,,,,null,,,,
null,"<img src=""stim_listB/marry6.gif""style=""height:400px;""></stim_listB>",,html-keyboard-response,437,1396320,0.0-19.0-1.8,46569,List2B,white,woman,,,,null,,,,
null,are marrying each other,,html-keyboard-response,438,1398321,0.0-19.0-2.8,46569,List2B,white,woman,,,,null,,,,
7928,,,survey-text,439,1406249,0.0-19.0-3.8,46569,List2B,white,woman,,,,,"{""Q0"":""luke and mike are marrying each other""}","<img src=""stim_listB/marry6.gif""style=""height:400px;""></stim_listB>",are marrying each other,
null,"<div style=""font-size:60px;"">+</div>",,html-keyboard-response,440,1406760,0.0-19.0-0.9,46569,List2B,white,woman,,,,null,,,,
null,"<img src=""stim_listB/kiss4.gif""style=""height:400px;""></stim_listB>",,html-keyboard-response,441,1408774,0.0-19.0-1.9,46569,List2B,white,woman,,,,null,,,,
null,are kissing each other,,html-keyboard-response,442,1410782,0.0-19.0-2.9,46569,List2B,white,woman,,,,null,,,,
8179,,,survey-text,443,1418961,0.0-19.0-3.9,46569,List2B,white,woman,,,,,"{""Q0"":""mike and kate are kissing each other""}","<img src=""stim_listB/kiss4.gif""style=""height:400px;""></stim_listB>",are kissing each other,
null,"<div style=""font-size:60px;"">+</div>",,html-keyboard-response,444,1419466,0.0-19.0-0.10,46569,List2B,white,woman,,,,null,,,,
null,"<img src=""stim_listB/flirt1.gif""style=""height:400px;""></stim_listB>",,html-keyboard-response,445,1421474,0.0-19.0-1.10,46569,List2B,white,woman,,,,null,,,,
null,is flirting with,,html-keyboard-response,446,1423485,0.0-19.0-2.10,46569,List2B,white,woman,,,,null,,,,
5851,,,survey-text,447,1429338,0.0-19.0-3.10,46569,List2B,white,woman,,,,,"{""Q0"":""luke is flirting with jane""}","<img src=""stim_listB/flirt1.gif""style=""height:400px;""></stim_listB>",is flirting with,
null,"<div style=""font-size:60px;"">+</div>",,html-keyboard-response,448,1429839,0.0-19.0-0.11,46569,List2B,white,woman,,,,null,,,,
null,"<img src=""stim_listB/talk5.gif""style=""height:400px;""></stim_listB>",,html-keyboard-response,449,1431848,0.0-19.0-1.11,46569,List2B,white,woman,,,,null,,,,
null,is talking to,,html-keyboard-response,450,1433849,0.0-19.0-2.11,46569,List2B,white,woman,,,,null,,,,
6039,,,survey-text,451,1439890,0.0-19.0-3.11,46569,List2B,white,woman,,,,,"{""Q0"":""mike is talking to luke""}","<img src=""stim_listB/talk5.gif""style=""height:400px;""></stim_listB>",is talking to,
null,"<div style=""font-size:60px;"">+</div>",,html-keyboard-response,452,1440402,0.0-19.0-0.12,46569,List2B,white,woman,,,,null,,,,
null,"<img src=""stim_listB/kiss3.gif""style=""height:400px;""></stim_listB>",,html-keyboard-response,453,1442404,0.0-19.0-1.12,46569,List2B,white,woman,,,,null,,,,
null,is kissing,,html-keyboard-response,454,1444420,0.0-19.0-2.12,46569,List2B,white,woman,,,,null,,,,
7277,,,survey-text,455,1451697,0.0-19.0-3.12,46569,List2B,white,woman,,,,,"{""Q0"":""fred is kissing beth""}","<img src=""stim_listB/kiss3.gif""style=""height:400px;""></stim_listB>",is kissing,
null,"<div style=""font-size:60px;"">+</div>",,html-keyboard-response,456,1452199,0.0-19.0-0.13,46569,List2B,white,woman,,,,null,,,,
null,"<img src=""stim_listB/fight6.gif""style=""height:400px;""></stim_listB>",,html-keyboard-response,457,1454207,0.0-19.0-1.13,46569,List2B,white,woman,,,,null,,,,
null,are fighting each other,,html-keyboard-response,458,1456207,0.0-19.0-2.13,46569,List2B,white,woman,,,,null,,,,
10537,,,survey-text,459,1466745,0.0-19.0-3.13,46569,List2B,white,woman,,,,,"{""Q0"":""fred and luke are fighting each other""}","<img src=""stim_listB/fight6.gif""style=""height:400px;""></stim_listB>",are fighting each other,
null,"<div style=""font-size:60px;"">+</div>",,html-keyboard-response,460,1467247,0.0-19.0-0.14,46569,List2B,white,woman,,,,null,,,,
null,"<img src=""stim_listB/play2.gif""style=""height:400px;""></stim_listB>",,html-keyboard-response,461,1469257,0.0-19.0-1.14,46569,List2B,white,woman,,,,null,,,,
null,are playing with each other,,html-keyboard-response,462,1471269,0.0-19.0-2.14,46569,List2B,white,woman,,,,null,,,,
7587,,,survey-text,463,1478857,0.0-19.0-3.14,46569,List2B,white,woman,,,,,"{""Q0"":""luke and ruth are playing each other""}","<img src=""stim_listB/play2.gif""style=""height:400px;""></stim_listB>",are playing with each other,
null,"<div style=""font-size:60px;"">+</div>",,html-keyboard-response,464,1479369,0.0-19.0-0.15,46569,List2B,white,woman,,,,null,,,,
null,"<img src=""stim_listB/shout1.gif""style=""height:400px;""></stim_listB>",,html-keyboard-response,465,1481382,0.0-19.0-1.15,46569,List2B,white,woman,,,,null,,,,
null,is shouting at,,html-keyboard-response,466,1483384,0.0-19.0-2.15,46569,List2B,white,woman,,,,null,,,,
7193,,,survey-text,467,1490578,0.0-19.0-3.15,46569,List2B,white,woman,,,,,"{""Q0"":""ruth is shouting at luke""}","<img src=""stim_listB/shout1.gif""style=""height:400px;""></stim_listB>",is shouting at,
null,"<div style=""font-size:60px;"">+</div>",,html-keyboard-response,468,1491078,0.0-19.0-0.16,46569,List2B,white,woman,,,,null,,,,
null,"<img src=""stim_listB/argue3.gif""style=""height:400px;""></stim_listB>",,html-keyboard-response,469,1493080,0.0-19.0-1.16,46569,List2B,white,woman,,,,null,,,,
null,is arguing with,,html-keyboard-response,470,1495081,0.0-19.0-2.16,46569,List2B,white,woman,,,,null,,,,
7080,,,survey-text,471,1502161,0.0-19.0-3.16,46569,List2B,white,woman,,,,,"{""Q0"":""mike is arguing with beth""}","<img src=""stim_listB/argue3.gif""style=""height:400px;""></stim_listB>",is arguing with,
null,"<div style=""font-size:60px;"">+</div>",,html-keyboard-response,472,1502664,0.0-19.0-0.17,46569,List2B,white,woman,,,,null,,,,
null,"<img src=""stim_listB/fight1.gif""style=""height:400px;""></stim_listB>",,html-keyboard-response,473,1504666,0.0-19.0-1.17,46569,List2B,white,woman,,,,null,,,,
null,is fighting,,html-keyboard-response,474,1506672,0.0-19.0-2.17,46569,List2B,white,woman,,,,null,,,,
6593,,,survey-text,475,1513266,0.0-19.0-3.17,46569,List2B,white,woman,,,,,"{""Q0"":""jane is fighting dave""}","<img src=""stim_listB/fight1.gif""style=""height:400px;""></stim_listB>",is fighting,
null,"<div style=""font-size:60px;"">+</div>",,html-keyboard-response,476,1513767,0.0-19.0-0.18,46569,List2B,white,woman,,,,null,,,,
null,"<img src=""stim_listB/kiss5.gif""style=""height:400px;""></stim_listB>",,html-keyboard-response,477,1515769,0.0-19.0-1.18,46569,List2B,white,woman,,,,null,,,,
null,is kissing,,html-keyboard-response,478,1517776,0.0-19.0-2.18,46569,List2B,white,woman,,,,null,,,,
4721,,,survey-text,479,1522498,0.0-19.0-3.18,46569,List2B,white,woman,,,,,"{""Q0"":""fred is kissing luke""}","<img src=""stim_listB/kiss5.gif""style=""height:400px;""></stim_listB>",is kissing,
null,"<div style=""font-size:60px;"">+</div>",,html-keyboard-response,480,1523009,0.0-19.0-0.19,46569,List2B,white,woman,,,,null,,,,
null,"<img src=""stim_listB/kiss6.gif""style=""height:400px;""></stim_listB>",,html-keyboard-response,481,1525021,0.0-19.0-1.19,46569,List2B,white,woman,,,,null,,,,
null,are kissing each other,,html-keyboard-response,482,1527022,0.0-19.0-2.19,46569,List2B,white,woman,,,,null,,,,
8131,,,survey-text,483,1535154,0.0-19.0-3.19,46569,List2B,white,woman,,,,,"{""Q0"":""mike and dave are kissing each other""}","<img src=""stim_listB/kiss6.gif""style=""height:400px;""></stim_listB>",are kissing each other,
1919,<p>Thank you for completing that task.</p><p>The final part of this session is a short questionnaire.</p><p>Press Continue.</p>,0,html-button-response,484,1537074,0.0-20.0,46569,List2B,white,woman,,,,,,,,
21274,,,survey-text,485,1559361,0.0-21.0,46569,List2B,white,woman,,,,,"{""Q0"":""28"",""Q1"":""English"",""Q2"":""English"",""Q3"":""UK"",""Q4"":""White British"",""Q5"":""Female""}",,,demographics
5071,,,survey-likert,486,1564434,0.0-22.0,46569,List2B,white,woman,,,,,"{""Q0"":4}",,,likert_ESS
4221,,,survey-likert,487,1568665,0.0-23.0,46569,List2B,white,woman,,,,,"{""Q0"":4}",,,likert_NSSAL_Q1
3173,,,survey-likert,488,1571849,0.0-24.0,46569,List2B,white,woman,,,,,"{""Q0"":4}",,,likert_NSSAL_Q2
4421,,,survey-likert,489,1576281,0.0-25.0,46569,List2B,white,woman,,,,,"{""Q0"":4}",,,likert_CGRS_Q1
2933,,,survey-likert,490,1579225,0.0-26.0,46569,List2B,white,woman,,,,,"{""Q0"":4}",,,likert_CGRS_Q2
3469,,,survey-likert,491,1582705,0.0-27.0,46569,List2B,white,woman,,,,,"{""Q0"":4}",,,likert_CGRS_Q3
7453,,,survey-text,492,1590169,0.0-28.0,46569,List2B,white,woman,,,,,"{""Q0"":""ccc""}",,,worker_id
26176,,,external-html,493,1616433,0.0-29.0,46569,List2B,white,woman,debrief.html,,,,,,,
