rt,stimulus,button_pressed,trial_type,trial_index,time_elapsed,internal_node_id,subject,list,ppt_race,ppt_gender,url,first_guess,correct,key_press,responses,image_type,phrase_type,test_part
4584,Welcome to the experiment. Press Continue to begin.,0,html-button-response,0,4643,0.0-0.0,46646,List2A,white,man,,,,,,,,
44669,,,external-html,1,50695,0.0-1.0,46646,List2A,white,man,consent.html,,,,,,,
7118,"<p>On the next page, you will see portraits of 8 people and their names.</p><p>Your first task is to take a few minutes to memorise the names of these people.</p><p>You will have to recall their names during the rest of the experiment, so it is</p><p>essential that you try to memorise these people and their names as best as you can.</p><br><p><strong>You will then be tested on your memory of these names and portraits.</strong></p><br><p>The experiment will start after you have completed this memory test.</p><br><p>Ready?</p>",0,html-button-response,2,57830,0.0-2.0,46646,List2A,white,man,,,,,,,,
38447,"<img src='img/portrait_matrix_list2.jpg' style='width:900px;height:500px;''></img><p>If you have memorised all the portraits and names and are ready to start, press Continue.</p><p><strong>Please note: Your memory of these faces will be tested 4 times during this experiment.</strong></p>",0,html-button-response,3,97279,0.0-3.0-0.0,46646,List2A,white,man,,,,,,,,
10551,"<img src=""portrait/WW2.jpg""style=""height:400px;""></img>",3,html-button-response,4,108845,0.0-3.0-1.0,46646,List2A,white,man,,TRUE,3,,,,,
null,CORRECT,,html-keyboard-response,5,110500,0.0-3.0-2.0-0.0,46646,List2A,white,man,,,,null,,,,
6135,"<img src=""portrait/BW1.jpg""style=""height:400px;""></img>",0,html-button-response,6,116641,0.0-3.0-4.0,46646,List2A,white,man,,TRUE,0,,,,,
null,CORRECT,,html-keyboard-response,7,118149,0.0-3.0-5.0-0.0,46646,List2A,white,man,,,,null,,,,
6610,"<img src=""portrait/BM1.jpg""style=""height:400px;""></img>",7,html-button-response,8,124759,0.0-3.0-7.0,46646,List2A,white,man,,TRUE,4,,,,,
8293,"<img src=""portrait/BM1.jpg""style=""height:400px;""></img>",4,html-button-response,9,134058,0.0-3.0-9.0-0.0,46646,List2A,white,man,,FALSE,4,,,,,
null,CORRECT,,html-keyboard-response,10,135566,0.0-3.0-9.0-1.0-0.0,46646,List2A,white,man,,,,null,,,,
4560,"<img src=""portrait/WM2.jpg""style=""height:400px;""></img>",7,html-button-response,11,140126,0.0-3.0-10.0,46646,List2A,white,man,,TRUE,7,,,,,
null,CORRECT,,html-keyboard-response,12,141649,0.0-3.0-11.0-0.0,46646,List2A,white,man,,,,null,,,,
10027,"<img src=""portrait/BW2.jpg""style=""height:400px;""></img>",1,html-button-response,13,151696,0.0-3.0-13.0,46646,List2A,white,man,,TRUE,2,,,,,
3476,"<img src=""portrait/BW2.jpg""style=""height:400px;""></img>",2,html-button-response,14,156192,0.0-3.0-15.0-0.0,46646,List2A,white,man,,FALSE,2,,,,,
null,CORRECT,,html-keyboard-response,15,157699,0.0-3.0-15.0-1.0-0.0,46646,List2A,white,man,,,,null,,,,
7792,"<img src=""portrait/BM2.jpg""style=""height:400px;""></img>",4,html-button-response,16,165491,0.0-3.0-16.0,46646,List2A,white,man,,TRUE,5,,,,,
1975,"<img src=""portrait/BM2.jpg""style=""height:400px;""></img>",5,html-button-response,17,168489,0.0-3.0-18.0-0.0,46646,List2A,white,man,,FALSE,5,,,,,
null,CORRECT,,html-keyboard-response,18,169998,0.0-3.0-18.0-1.0-0.0,46646,List2A,white,man,,,,null,,,,
4459,"<img src=""portrait/WM1.jpg""style=""height:400px;""></img>",6,html-button-response,19,174457,0.0-3.0-19.0,46646,List2A,white,man,,TRUE,6,,,,,
null,CORRECT,,html-keyboard-response,20,175965,0.0-3.0-20.0-0.0,46646,List2A,white,man,,,,null,,,,
4913,"<img src=""portrait/WW1.jpg""style=""height:400px;""></img>",6,html-button-response,21,180878,0.0-3.0-22.0,46646,List2A,white,man,,TRUE,1,,,,,
3237,"<img src=""portrait/WW1.jpg""style=""height:400px;""></img>",1,html-button-response,22,185124,0.0-3.0-24.0-0.0,46646,List2A,white,man,,FALSE,1,,,,,
null,CORRECT,,html-keyboard-response,23,186647,0.0-3.0-24.0-1.0-0.0,46646,List2A,white,man,,,,null,,,,
3910,<p>You got 4 out of 8 right first time. Press Continue.</p>,0,html-button-response,24,190573,0.0-3.0-25.0,46646,List2A,white,man,,,,,,,,
2894,"As you did not score 100%, the memory game will repeat. Press Continue.",0,html-button-response,25,194473,0.0-3.0-26.0-0.0,46646,List2A,white,man,,,,,,,,
27438,"<img src='img/portrait_matrix_list2.jpg' style='width:900px;height:500px;''></img><p>If you have memorised all the portraits and names and are ready to start, press Continue.</p><p><strong>Please note: Your memory of these faces will be tested 4 times during this experiment.</strong></p>",0,html-button-response,26,222922,0.0-3.1-0.1,46646,List2A,white,man,,,,,,,,
4413,"<img src=""portrait/WW2.jpg""style=""height:400px;""></img>",3,html-button-response,27,228339,0.0-3.1-1.1,46646,List2A,white,man,,TRUE,3,,,,,
null,CORRECT,,html-keyboard-response,28,229843,0.0-3.1-2.1-0.1,46646,List2A,white,man,,,,null,,,,
3674,"<img src=""portrait/BW1.jpg""style=""height:400px;""></img>",1,html-button-response,29,233522,0.0-3.1-4.1,46646,List2A,white,man,,TRUE,0,,,,,
2928,"<img src=""portrait/BW1.jpg""style=""height:400px;""></img>",0,html-button-response,30,237455,0.0-3.1-6.1-0.1,46646,List2A,white,man,,FALSE,0,,,,,
null,CORRECT,,html-keyboard-response,31,238972,0.0-3.1-6.1-1.1-0.1,46646,List2A,white,man,,,,null,,,,
4815,"<img src=""portrait/BM1.jpg""style=""height:400px;""></img>",7,html-button-response,32,243787,0.0-3.1-7.1,46646,List2A,white,man,,TRUE,4,,,,,
2012,"<img src=""portrait/BM1.jpg""style=""height:400px;""></img>",4,html-button-response,33,246804,0.0-3.1-9.1-0.1,46646,List2A,white,man,,FALSE,4,,,,,
null,CORRECT,,html-keyboard-response,34,248308,0.0-3.1-9.1-1.1-0.1,46646,List2A,white,man,,,,null,,,,
7281,"<img src=""portrait/WM2.jpg""style=""height:400px;""></img>",7,html-button-response,35,255605,0.0-3.1-10.1,46646,List2A,white,man,,TRUE,7,,,,,
null,CORRECT,,html-keyboard-response,36,257107,0.0-3.1-11.1-0.1,46646,List2A,white,man,,,,null,,,,
2677,"<img src=""portrait/BW2.jpg""style=""height:400px;""></img>",2,html-button-response,37,259804,0.0-3.1-13.1,46646,List2A,white,man,,TRUE,2,,,,,
null,CORRECT,,html-keyboard-response,38,261306,0.0-3.1-14.1-0.1,46646,List2A,white,man,,,,null,,,,
5376,"<img src=""portrait/BM2.jpg""style=""height:400px;""></img>",5,html-button-response,39,266687,0.0-3.1-16.1,46646,List2A,white,man,,TRUE,5,,,,,
null,CORRECT,,html-keyboard-response,40,268189,0.0-3.1-17.1-0.1,46646,List2A,white,man,,,,null,,,,
2594,"<img src=""portrait/WM1.jpg""style=""height:400px;""></img>",6,html-button-response,41,270804,0.0-3.1-19.1,46646,List2A,white,man,,TRUE,6,,,,,
null,CORRECT,,html-keyboard-response,42,272306,0.0-3.1-20.1-0.1,46646,List2A,white,man,,,,null,,,,
9359,"<img src=""portrait/WW1.jpg""style=""height:400px;""></img>",3,html-button-response,43,281686,0.0-3.1-22.1,46646,List2A,white,man,,TRUE,1,,,,,
2411,"<img src=""portrait/WW1.jpg""style=""height:400px;""></img>",1,html-button-response,44,285102,0.0-3.1-24.1-0.1,46646,List2A,white,man,,FALSE,1,,,,,
null,CORRECT,,html-keyboard-response,45,286621,0.0-3.1-24.1-1.1-0.1,46646,List2A,white,man,,,,null,,,,
1814,<p>You got 5 out of 8 right first time. Press Continue.</p>,0,html-button-response,46,288437,0.0-3.1-25.1,46646,List2A,white,man,,,,,,,,
4554,"As you did not score 100%, the memory game will repeat. Press Continue.",0,html-button-response,47,294003,0.0-3.1-26.1-0.1,46646,List2A,white,man,,,,,,,,
21661,"<img src='img/portrait_matrix_list2.jpg' style='width:900px;height:500px;''></img><p>If you have memorised all the portraits and names and are ready to start, press Continue.</p><p><strong>Please note: Your memory of these faces will be tested 4 times during this experiment.</strong></p>",0,html-button-response,48,316668,0.0-3.2-0.2,46646,List2A,white,man,,,,,,,,
2228,"<img src=""portrait/WW2.jpg""style=""height:400px;""></img>",3,html-button-response,49,319901,0.0-3.2-1.2,46646,List2A,white,man,,TRUE,3,,,,,
null,CORRECT,,html-keyboard-response,50,321403,0.0-3.2-2.2-0.2,46646,List2A,white,man,,,,null,,,,
3795,"<img src=""portrait/BW1.jpg""style=""height:400px;""></img>",2,html-button-response,51,325203,0.0-3.2-4.2,46646,List2A,white,man,,TRUE,0,,,,,
1976,"<img src=""portrait/BW1.jpg""style=""height:400px;""></img>",0,html-button-response,52,328201,0.0-3.2-6.2-0.2,46646,List2A,white,man,,FALSE,0,,,,,
null,CORRECT,,html-keyboard-response,53,329703,0.0-3.2-6.2-1.2-0.2,46646,List2A,white,man,,,,null,,,,
6477,"<img src=""portrait/BM1.jpg""style=""height:400px;""></img>",5,html-button-response,54,336200,0.0-3.2-7.2,46646,List2A,white,man,,TRUE,4,,,,,
1767,"<img src=""portrait/BM1.jpg""style=""height:400px;""></img>",4,html-button-response,55,338983,0.0-3.2-9.2-0.2,46646,List2A,white,man,,FALSE,4,,,,,
null,CORRECT,,html-keyboard-response,56,340485,0.0-3.2-9.2-1.2-0.2,46646,List2A,white,man,,,,null,,,,
3727,"<img src=""portrait/WM2.jpg""style=""height:400px;""></img>",7,html-button-response,57,344218,0.0-3.2-10.2,46646,List2A,white,man,,TRUE,7,,,,,
null,CORRECT,,html-keyboard-response,58,345719,0.0-3.2-11.2-0.2,46646,List2A,white,man,,,,null,,,,
4025,"<img src=""portrait/BW2.jpg""style=""height:400px;""></img>",2,html-button-response,59,349751,0.0-3.2-13.2,46646,List2A,white,man,,TRUE,2,,,,,
null,CORRECT,,html-keyboard-response,60,351254,0.0-3.2-14.2-0.2,46646,List2A,white,man,,,,null,,,,
3926,"<img src=""portrait/BM2.jpg""style=""height:400px;""></img>",5,html-button-response,61,355199,0.0-3.2-16.2,46646,List2A,white,man,,TRUE,5,,,,,
null,CORRECT,,html-keyboard-response,62,356701,0.0-3.2-17.2-0.2,46646,List2A,white,man,,,,null,,,,
2293,"<img src=""portrait/WM1.jpg""style=""height:400px;""></img>",6,html-button-response,63,358998,0.0-3.2-19.2,46646,List2A,white,man,,TRUE,6,,,,,
null,CORRECT,,html-keyboard-response,64,360500,0.0-3.2-20.2-0.2,46646,List2A,white,man,,,,null,,,,
2412,"<img src=""portrait/WW1.jpg""style=""height:400px;""></img>",3,html-button-response,65,362917,0.0-3.2-22.2,46646,List2A,white,man,,TRUE,1,,,,,
2577,"<img src=""portrait/WW1.jpg""style=""height:400px;""></img>",1,html-button-response,66,366499,0.0-3.2-24.2-0.2,46646,List2A,white,man,,FALSE,1,,,,,
null,CORRECT,,html-keyboard-response,67,368006,0.0-3.2-24.2-1.2-0.2,46646,List2A,white,man,,,,null,,,,
4062,<p>You got 5 out of 8 right first time. Press Continue.</p>,0,html-button-response,68,372068,0.0-3.2-25.2,46646,List2A,white,man,,,,,,,,
2113,"As you did not score 100%, the memory game will repeat. Press Continue.",0,html-button-response,69,375183,0.0-3.2-26.2-0.2,46646,List2A,white,man,,,,,,,,
21194,"<img src='img/portrait_matrix_list2.jpg' style='width:900px;height:500px;''></img><p>If you have memorised all the portraits and names and are ready to start, press Continue.</p><p><strong>Please note: Your memory of these faces will be tested 4 times during this experiment.</strong></p>",0,html-button-response,70,397381,0.0-3.3-0.3,46646,List2A,white,man,,,,,,,,
3147,"<img src=""portrait/WW2.jpg""style=""height:400px;""></img>",3,html-button-response,71,401530,0.0-3.3-1.3,46646,List2A,white,man,,TRUE,3,,,,,
null,CORRECT,,html-keyboard-response,72,403038,0.0-3.3-2.3-0.3,46646,List2A,white,man,,,,null,,,,
2960,"<img src=""portrait/BW1.jpg""style=""height:400px;""></img>",0,html-button-response,73,406013,0.0-3.3-4.3,46646,List2A,white,man,,TRUE,0,,,,,
null,CORRECT,,html-keyboard-response,74,407525,0.0-3.3-5.3-0.3,46646,List2A,white,man,,,,null,,,,
2569,"<img src=""portrait/BM1.jpg""style=""height:400px;""></img>",4,html-button-response,75,410098,0.0-3.3-7.3,46646,List2A,white,man,,TRUE,4,,,,,
null,CORRECT,,html-keyboard-response,76,411600,0.0-3.3-8.3-0.3,46646,List2A,white,man,,,,null,,,,
4642,"<img src=""portrait/WM2.jpg""style=""height:400px;""></img>",7,html-button-response,77,416248,0.0-3.3-10.3,46646,List2A,white,man,,TRUE,7,,,,,
null,CORRECT,,html-keyboard-response,78,417757,0.0-3.3-11.3-0.3,46646,List2A,white,man,,,,null,,,,
6875,"<img src=""portrait/BW2.jpg""style=""height:400px;""></img>",2,html-button-response,79,424632,0.0-3.3-13.3,46646,List2A,white,man,,TRUE,2,,,,,
null,CORRECT,,html-keyboard-response,80,426134,0.0-3.3-14.3-0.3,46646,List2A,white,man,,,,null,,,,
4425,"<img src=""portrait/BM2.jpg""style=""height:400px;""></img>",5,html-button-response,81,430580,0.0-3.3-16.3,46646,List2A,white,man,,TRUE,5,,,,,
null,CORRECT,,html-keyboard-response,82,432094,0.0-3.3-17.3-0.3,46646,List2A,white,man,,,,null,,,,
3887,"<img src=""portrait/WM1.jpg""style=""height:400px;""></img>",6,html-button-response,83,435997,0.0-3.3-19.3,46646,List2A,white,man,,TRUE,6,,,,,
null,CORRECT,,html-keyboard-response,84,437521,0.0-3.3-20.3-0.3,46646,List2A,white,man,,,,null,,,,
6244,"<img src=""portrait/WW1.jpg""style=""height:400px;""></img>",1,html-button-response,85,443765,0.0-3.3-22.3,46646,List2A,white,man,,TRUE,1,,,,,
null,CORRECT,,html-keyboard-response,86,445288,0.0-3.3-23.3-0.3,46646,List2A,white,man,,,,null,,,,
3643,<p>You got 8 out of 8 right first time. Press Continue.</p>,0,html-button-response,87,448931,0.0-3.3-25.3,46646,List2A,white,man,,,,,,,,
41546,"<p>In this experiment, you will view photographs of the people from the memory game interacting.</p><p>By using the <strong>exact</strong> phrase given <i>after</i> the photograph appears and recalling the correct names of the people in the photographs, form a sentence describing the interaction. You do not need to capitalise names.</p><p>Type your answer in the space provided. Please complete every sentence before moving onto the next trial.</p><p>You will only have a few seconds to memorise each given photograph and phrase before you can respond, so try your best to focus.</p><p>An example is given below. Press 'Continue' when you are ready.</p><img src='img/speaking_example.jpg' style='width:800px;height:460px;''></img>",0,html-button-response,88,491480,0.0-4.0,46646,List2A,white,man,,,,,,,,
2315,"<p>Before the experiment starts, you will watch two example trials. Press 'Continue'.</p>",0,html-button-response,89,494797,0.0-5.0,46646,List2A,white,man,,,,,,,,
null,<img src='img/meet_eg.gif' style='height:400px;''></img>,,html-keyboard-response,90,497823,0.0-6.0,46646,List2A,white,man,,,,null,,,,
null,<p>is meeting</p>,,html-keyboard-response,91,499836,0.0-7.0,46646,List2A,white,man,,,,null,,,,
2809,<p><b>Answer:</b> jane is meeting ruth</p>,0,html-button-response,92,502645,0.0-8.0,46646,List2A,white,man,,,,,,,,
null,<img src='img/look_eg.gif' style='height:400px;''></img>,,html-keyboard-response,93,505664,0.0-9.0,46646,List2A,white,man,,,,null,,,,
null,<p>are looking at each other</p>,,html-keyboard-response,94,507674,0.0-10.0,46646,List2A,white,man,,,,null,,,,
2104,<p><b>Answer:</b> fred and mike are looking at each other</p>,0,html-button-response,95,509793,0.0-11.0,46646,List2A,white,man,,,,,,,,
17482,"<p>Ready to start the experiment?</p><br><p><strong>Remember to describe the picture using a full sentence,</strong></p><p><strong>that combines the names of the people with the <i>exact</i> phrase given.</strong></p><p><strong>To receive full payment you must do this correctly.</strong></p><p><strong> You do not need to capitalise names or use punctuation.</strong></p><br><p>Press 'Continue' to begin.</p>",0,html-button-response,96,528278,0.0-12.0,46646,List2A,white,man,,,,,,,,
null,"<div style=""font-size:60px;"">+</div>",,html-keyboard-response,97,529791,0.0-13.0-0.0,46646,List2A,white,man,,,,null,,,,
null,"<img src=""stim_listA/marry3.gif""style=""height:400px;""></stim_listA>",,html-keyboard-response,98,531793,0.0-13.0-1.0,46646,List2A,white,man,,,,null,,,,
null,is marrying,,html-keyboard-response,99,533802,0.0-13.0-2.0,46646,List2A,white,man,,,,null,,,,
28911,,,survey-text,100,562713,0.0-13.0-3.0,46646,List2A,white,man,,,,,"{""Q0"":""beth is marrying mike""}","<img src=""stim_listA/marry3.gif""style=""height:400px;""></stim_listA>",is marrying,
null,"<div style=""font-size:60px;"">+</div>",,html-keyboard-response,101,563228,0.0-13.0-0.1,46646,List2A,white,man,,,,null,,,,
null,"<img src=""stim_listA/argue3.gif""style=""height:400px;""></stim_listA>",,html-keyboard-response,102,565236,0.0-13.0-1.1,46646,List2A,white,man,,,,null,,,,
null,is arguing with,,html-keyboard-response,103,567250,0.0-13.0-2.1,46646,List2A,white,man,,,,null,,,,
26942,,,survey-text,104,594208,0.0-13.0-3.1,46646,List2A,white,man,,,,,"{""Q0"":""beth is arguing with mike""}","<img src=""stim_listA/argue3.gif""style=""height:400px;""></stim_listA>",is arguing with,
null,"<div style=""font-size:60px;"">+</div>",,html-keyboard-response,105,594714,0.0-13.0-0.2,46646,List2A,white,man,,,,null,,,,
null,"<img src=""stim_listA/play1.gif""style=""height:400px;""></stim_listA>",,html-keyboard-response,106,596723,0.0-13.0-1.2,46646,List2A,white,man,,,,null,,,,
null,is playing with,,html-keyboard-response,107,598732,0.0-13.0-2.2,46646,List2A,white,man,,,,null,,,,
28822,,,survey-text,108,627554,0.0-13.0-3.2,46646,List2A,white,man,,,,,"{""Q0"":""dave is playing with jane""}","<img src=""stim_listA/play1.gif""style=""height:400px;""></stim_listA>",is playing with,
null,"<div style=""font-size:60px;"">+</div>",,html-keyboard-response,109,628063,0.0-13.0-0.3,46646,List2A,white,man,,,,null,,,,
null,"<img src=""stim_listA/flirt4.gif""style=""height:400px;""></stim_listA>",,html-keyboard-response,110,630066,0.0-13.0-1.3,46646,List2A,white,man,,,,null,,,,
null,are flirting with each other,,html-keyboard-response,111,632081,0.0-13.0-2.3,46646,List2A,white,man,,,,null,,,,
57589,,,survey-text,112,689670,0.0-13.0-3.3,46646,List2A,white,man,,,,,"{""Q0"":""mike and beth are flirting with eachother""}","<img src=""stim_listA/flirt4.gif""style=""height:400px;""></stim_listA>",are flirting with each other,
null,"<div style=""font-size:60px;"">+</div>",,html-keyboard-response,113,690179,0.0-13.0-0.4,46646,List2A,white,man,,,,null,,,,
null,"<img src=""stim_listA/dance2.gif""style=""height:400px;""></stim_listA>",,html-keyboard-response,114,692184,0.0-13.0-1.4,46646,List2A,white,man,,,,null,,,,
null,are dancing with each other,,html-keyboard-response,115,694195,0.0-13.0-2.4,46646,List2A,white,man,,,,null,,,,
48607,,,survey-text,116,742802,0.0-13.0-3.4,46646,List2A,white,man,,,,,"{""Q0"":""ruth and dave are dancing with each other""}","<img src=""stim_listA/dance2.gif""style=""height:400px;""></stim_listA>",are dancing with each other,
null,"<div style=""font-size:60px;"">+</div>",,html-keyboard-response,117,743310,0.0-13.0-0.5,46646,List2A,white,man,,,,null,,,,
null,"<img src=""stim_listA/touch1.gif""style=""height:400px;""></stim_listA>",,html-keyboard-response,118,745313,0.0-13.0-1.5,46646,List2A,white,man,,,,null,,,,
null,is touching,,html-keyboard-response,119,747326,0.0-13.0-2.5,46646,List2A,white,man,,,,null,,,,
49292,,,survey-text,120,796618,0.0-13.0-3.5,46646,List2A,white,man,,,,,"{""Q0"":""jane is touching dave""}","<img src=""stim_listA/touch1.gif""style=""height:400px;""></stim_listA>",is touching,
null,"<div style=""font-size:60px;"">+</div>",,html-keyboard-response,121,797123,0.0-13.0-0.6,46646,List2A,white,man,,,,null,,,,
null,"<img src=""stim_listA/touch8.gif""style=""height:400px;""></stim_listA>",,html-keyboard-response,122,799137,0.0-13.0-1.6,46646,List2A,white,man,,,,null,,,,
null,are touching each other,,html-keyboard-response,123,801151,0.0-13.0-2.6,46646,List2A,white,man,,,,null,,,,
45979,,,survey-text,124,847130,0.0-13.0-3.6,46646,List2A,white,man,,,,,"{""Q0"":""beth and ruth are touching each other""}","<img src=""stim_listA/touch8.gif""style=""height:400px;""></stim_listA>",are touching each other,
null,"<div style=""font-size:60px;"">+</div>",,html-keyboard-response,125,847639,0.0-13.0-0.7,46646,List2A,white,man,,,,null,,,,
null,"<img src=""stim_listA/talk1.gif""style=""height:400px;""></stim_listA>",,html-keyboard-response,126,849648,0.0-13.0-1.7,46646,List2A,white,man,,,,null,,,,
null,is talking to,,html-keyboard-response,127,851661,0.0-13.0-2.7,46646,List2A,white,man,,,,null,,,,
23220,,,survey-text,128,874897,0.0-13.0-3.7,46646,List2A,white,man,,,,,"{""Q0"":""luke is talking to beth""}","<img src=""stim_listA/talk1.gif""style=""height:400px;""></stim_listA>",is talking to,
null,"<div style=""font-size:60px;"">+</div>",,html-keyboard-response,129,875405,0.0-13.0-0.8,46646,List2A,white,man,,,,null,,,,
null,"<img src=""stim_listA/play2.gif""style=""height:400px;""></stim_listA>",,html-keyboard-response,130,877405,0.0-13.0-1.8,46646,List2A,white,man,,,,null,,,,
null,are playing with each other,,html-keyboard-response,131,879418,0.0-13.0-2.8,46646,List2A,white,man,,,,null,,,,
37600,,,survey-text,132,917018,0.0-13.0-3.8,46646,List2A,white,man,,,,,"{""Q0"":""luke and beth are playing with each other""}","<img src=""stim_listA/play2.gif""style=""height:400px;""></stim_listA>",are playing with each other,
null,"<div style=""font-size:60px;"">+</div>",,html-keyboard-response,133,917532,0.0-13.0-0.9,46646,List2A,white,man,,,,null,,,,
null,"<img src=""stim_listA/shout5.gif""style=""height:400px;""></stim_listA>",,html-keyboard-response,134,919543,0.0-13.0-1.9,46646,List2A,white,man,,,,null,,,,
null,is shouting at,,html-keyboard-response,135,921542,0.0-13.0-2.9,46646,List2A,white,man,,,,null,,,,
7669,,,survey-text,136,929214,0.0-13.0-3.9,46646,List2A,white,man,,,,,"{""Q0"":""luke is shouting at fred""}","<img src=""stim_listA/shout5.gif""style=""height:400px;""></stim_listA>",is shouting at,
null,"<div style=""font-size:60px;"">+</div>",,html-keyboard-response,137,929714,0.0-13.0-0.10,46646,List2A,white,man,,,,null,,,,
null,"<img src=""stim_listA/talk6.gif""style=""height:400px;""></stim_listA>",,html-keyboard-response,138,931730,0.0-13.0-1.10,46646,List2A,white,man,,,,null,,,,
null,are talking to each other,,html-keyboard-response,139,933731,0.0-13.0-2.10,46646,List2A,white,man,,,,null,,,,
12882,,,survey-text,140,946615,0.0-13.0-3.10,46646,List2A,white,man,,,,,"{""Q0"":""fred and dave are talking to each other""}","<img src=""stim_listA/talk6.gif""style=""height:400px;""></stim_listA>",are talking to each other,
null,"<div style=""font-size:60px;"">+</div>",,html-keyboard-response,141,947116,0.0-13.0-0.11,46646,List2A,white,man,,,,null,,,,
null,"<img src=""stim_listA/play5.gif""style=""height:400px;""></stim_listA>",,html-keyboard-response,142,949128,0.0-13.0-1.11,46646,List2A,white,man,,,,null,,,,
null,is playing with,,html-keyboard-response,143,951128,0.0-13.0-2.11,46646,List2A,white,man,,,,null,,,,
11762,,,survey-text,144,962893,0.0-13.0-3.11,46646,List2A,white,man,,,,,"{""Q0"":""dave is playing with mike""}","<img src=""stim_listA/play5.gif""style=""height:400px;""></stim_listA>",is playing with,
null,"<div style=""font-size:60px;"">+</div>",,html-keyboard-response,145,963400,0.0-13.0-0.12,46646,List2A,white,man,,,,null,,,,
null,"<img src=""stim_listA/marry5.gif""style=""height:400px;""></stim_listA>",,html-keyboard-response,146,965408,0.0-13.0-1.12,46646,List2A,white,man,,,,null,,,,
null,is marrying,,html-keyboard-response,147,967408,0.0-13.0-2.12,46646,List2A,white,man,,,,null,,,,
10101,,,survey-text,148,977512,0.0-13.0-3.12,46646,List2A,white,man,,,,,"{""Q0"":""fred is marrying dave""}","<img src=""stim_listA/marry5.gif""style=""height:400px;""></stim_listA>",is marrying,
null,"<div style=""font-size:60px;"">+</div>",,html-keyboard-response,149,978016,0.0-13.0-0.13,46646,List2A,white,man,,,,null,,,,
null,"<img src=""stim_listA/touch4.gif""style=""height:400px;""></stim_listA>",,html-keyboard-response,150,980024,0.0-13.0-1.13,46646,List2A,white,man,,,,null,,,,
null,are touching each other,,html-keyboard-response,151,982025,0.0-13.0-2.13,46646,List2A,white,man,,,,null,,,,
11851,,,survey-text,152,993878,0.0-13.0-3.13,46646,List2A,white,man,,,,,"{""Q0"":""beth and fred are touching each other""}","<img src=""stim_listA/touch4.gif""style=""height:400px;""></stim_listA>",are touching each other,
null,"<div style=""font-size:60px;"">+</div>",,html-keyboard-response,153,994378,0.0-13.0-0.14,46646,List2A,white,man,,,,null,,,,
null,"<img src=""stim_listA/touch2.gif""style=""height:400px;""></stim_listA>",,html-keyboard-response,154,996396,0.0-13.0-1.14,46646,List2A,white,man,,,,null,,,,
null,are touching each other,,html-keyboard-response,155,998408,0.0-13.0-2.14,46646,List2A,white,man,,,,null,,,,
8487,,,survey-text,156,1006895,0.0-13.0-3.14,46646,List2A,white,man,,,,,"{""Q0"":""jane and luke are touching each other""}","<img src=""stim_listA/touch2.gif""style=""height:400px;""></stim_listA>",are touching each other,
null,"<div style=""font-size:60px;"">+</div>",,html-keyboard-response,157,1007416,0.0-13.0-0.15,46646,List2A,white,man,,,,null,,,,
null,"<img src=""stim_listA/dance5.gif""style=""height:400px;""></stim_listA>",,html-keyboard-response,158,1009416,0.0-13.0-1.15,46646,List2A,white,man,,,,null,,,,
null,is dancing with,,html-keyboard-response,159,1011416,0.0-13.0-2.15,46646,List2A,white,man,,,,null,,,,
9574,,,survey-text,160,1020993,0.0-13.0-3.15,46646,List2A,white,man,,,,,"{""Q0"":""luke is dancing with fred""}","<img src=""stim_listA/dance5.gif""style=""height:400px;""></stim_listA>",is dancing with,
null,"<div style=""font-size:60px;"">+</div>",,html-keyboard-response,161,1021514,0.0-13.0-0.16,46646,List2A,white,man,,,,null,,,,
null,"<img src=""stim_listA/fight4.gif""style=""height:400px;""></stim_listA>",,html-keyboard-response,162,1023525,0.0-13.0-1.16,46646,List2A,white,man,,,,null,,,,
null,are fighting each other,,html-keyboard-response,163,1025525,0.0-13.0-2.16,46646,List2A,white,man,,,,null,,,,
12200,,,survey-text,164,1037728,0.0-13.0-3.16,46646,List2A,white,man,,,,,"{""Q0"":""fred and beth are fighting each other""}","<img src=""stim_listA/fight4.gif""style=""height:400px;""></stim_listA>",are fighting each other,
null,"<div style=""font-size:60px;"">+</div>",,html-keyboard-response,165,1038247,0.0-13.0-0.17,46646,List2A,white,man,,,,null,,,,
null,"<img src=""stim_listA/touch5.gif""style=""height:400px;""></stim_listA>",,html-keyboard-response,166,1040255,0.0-13.0-1.17,46646,List2A,white,man,,,,null,,,,
null,is touching,,html-keyboard-response,167,1042267,0.0-13.0-2.17,46646,List2A,white,man,,,,null,,,,
7077,,,survey-text,168,1049344,0.0-13.0-3.17,46646,List2A,white,man,,,,,"{""Q0"":""dave is touching mike""}","<img src=""stim_listA/touch5.gif""style=""height:400px;""></stim_listA>",is touching,
null,"<div style=""font-size:60px;"">+</div>",,html-keyboard-response,169,1049864,0.0-13.0-0.18,46646,List2A,white,man,,,,null,,,,
null,"<img src=""stim_listA/shout4.gif""style=""height:400px;""></stim_listA>",,html-keyboard-response,170,1051873,0.0-13.0-1.18,46646,List2A,white,man,,,,null,,,,
null,are shouting at each other,,html-keyboard-response,171,1053876,0.0-13.0-2.18,46646,List2A,white,man,,,,null,,,,
19122,,,survey-text,172,1073000,0.0-13.0-3.18,46646,List2A,white,man,,,,,"{""Q0"":""kate and mike are shouting at each other""}","<img src=""stim_listA/shout4.gif""style=""height:400px;""></stim_listA>",are shouting at each other,
null,"<div style=""font-size:60px;"">+</div>",,html-keyboard-response,173,1073512,0.0-13.0-0.19,46646,List2A,white,man,,,,null,,,,
null,"<img src=""stim_listA/kiss1.gif""style=""height:400px;""></stim_listA>",,html-keyboard-response,174,1075522,0.0-13.0-1.19,46646,List2A,white,man,,,,null,,,,
null,is kissing,,html-keyboard-response,175,1077535,0.0-13.0-2.19,46646,List2A,white,man,,,,null,,,,
6258,,,survey-text,176,1083795,0.0-13.0-3.19,46646,List2A,white,man,,,,,"{""Q0"":""luke is kissing jane""}","<img src=""stim_listA/kiss1.gif""style=""height:400px;""></stim_listA>",is kissing,
13543,"<img src='img/portrait_matrix_list2.jpg' style='width:900px;height:500px;''></img><p>If you have memorised all the portraits and names and are ready to start, press Continue.</p><p><strong>Please note: Your memory of these faces will be tested 4 times during this experiment.</strong></p>",0,html-button-response,177,1097357,0.0-14.0-0.0,46646,List2A,white,man,,,,,,,,
2993,"<img src=""portrait/BM1.jpg""style=""height:400px;""></img>",4,html-button-response,178,1101354,0.0-14.0-1.0,46646,List2A,white,man,,TRUE,4,,,,,
null,CORRECT,,html-keyboard-response,179,1102859,0.0-14.0-2.0-0.0,46646,List2A,white,man,,,,null,,,,
3724,"<img src=""portrait/BM2.jpg""style=""height:400px;""></img>",5,html-button-response,180,1106587,0.0-14.0-4.0,46646,List2A,white,man,,TRUE,5,,,,,
null,CORRECT,,html-keyboard-response,181,1108089,0.0-14.0-5.0-0.0,46646,List2A,white,man,,,,null,,,,
2610,"<img src=""portrait/WM1.jpg""style=""height:400px;""></img>",6,html-button-response,182,1110703,0.0-14.0-7.0,46646,List2A,white,man,,TRUE,6,,,,,
null,CORRECT,,html-keyboard-response,183,1112205,0.0-14.0-8.0-0.0,46646,List2A,white,man,,,,null,,,,
3343,"<img src=""portrait/BW2.jpg""style=""height:400px;""></img>",2,html-button-response,184,1115569,0.0-14.0-10.0,46646,List2A,white,man,,TRUE,2,,,,,
null,CORRECT,,html-keyboard-response,185,1117072,0.0-14.0-11.0-0.0,46646,List2A,white,man,,,,null,,,,
4756,"<img src=""portrait/WM2.jpg""style=""height:400px;""></img>",7,html-button-response,186,1121836,0.0-14.0-13.0,46646,List2A,white,man,,TRUE,7,,,,,
null,CORRECT,,html-keyboard-response,187,1123338,0.0-14.0-14.0-0.0,46646,List2A,white,man,,,,null,,,,
4928,"<img src=""portrait/WW1.jpg""style=""height:400px;""></img>",1,html-button-response,188,1128270,0.0-14.0-16.0,46646,List2A,white,man,,TRUE,1,,,,,
null,CORRECT,,html-keyboard-response,189,1129772,0.0-14.0-17.0-0.0,46646,List2A,white,man,,,,null,,,,
5610,"<img src=""portrait/WW2.jpg""style=""height:400px;""></img>",3,html-button-response,190,1135402,0.0-14.0-19.0,46646,List2A,white,man,,TRUE,3,,,,,
null,CORRECT,,html-keyboard-response,191,1136906,0.0-14.0-20.0-0.0,46646,List2A,white,man,,,,null,,,,
5391,"<img src=""portrait/BW1.jpg""style=""height:400px;""></img>",0,html-button-response,192,1142301,0.0-14.0-22.0,46646,List2A,white,man,,TRUE,0,,,,,
null,CORRECT,,html-keyboard-response,193,1143819,0.0-14.0-23.0-0.0,46646,List2A,white,man,,,,null,,,,
2081,<p>You got 8 out of 8 right first time. Press Continue.</p>,0,html-button-response,194,1145921,0.0-14.0-25.0,46646,List2A,white,man,,,,,,,,
null,"<div style=""font-size:60px;"">+</div>",,html-keyboard-response,195,1147438,0.0-15.0-0.0,46646,List2A,white,man,,,,null,,,,
null,"<img src=""stim_listA/play3.gif""style=""height:400px;""></stim_listA>",,html-keyboard-response,196,1149440,0.0-15.0-1.0,46646,List2A,white,man,,,,null,,,,
null,is playing with,,html-keyboard-response,197,1151442,0.0-15.0-2.0,46646,List2A,white,man,,,,null,,,,
10828,,,survey-text,198,1162273,0.0-15.0-3.0,46646,List2A,white,man,,,,,"{""Q0"":""mike is playing with kate""}","<img src=""stim_listA/play3.gif""style=""height:400px;""></stim_listA>",is playing with,
null,"<div style=""font-size:60px;"">+</div>",,html-keyboard-response,199,1162777,0.0-15.0-0.1,46646,List2A,white,man,,,,null,,,,
null,"<img src=""stim_listA/flirt2.gif""style=""height:400px;""></stim_listA>",,html-keyboard-response,200,1164782,0.0-15.0-1.1,46646,List2A,white,man,,,,null,,,,
null,are flirting with each other,,html-keyboard-response,201,1166782,0.0-15.0-2.1,46646,List2A,white,man,,,,null,,,,
11019,,,survey-text,202,1177804,0.0-15.0-3.1,46646,List2A,white,man,,,,,"{""Q0"":""ruth and dave are flirting with each other""}","<img src=""stim_listA/flirt2.gif""style=""height:400px;""></stim_listA>",are flirting with each other,
null,"<div style=""font-size:60px;"">+</div>",,html-keyboard-response,203,1178309,0.0-15.0-0.2,46646,List2A,white,man,,,,null,,,,
null,"<img src=""stim_listA/fight8.gif""style=""height:400px;""></stim_listA>",,html-keyboard-response,204,1180317,0.0-15.0-1.2,46646,List2A,white,man,,,,null,,,,
null,are fighting each other,,html-keyboard-response,205,1182318,0.0-15.0-2.2,46646,List2A,white,man,,,,null,,,,
10117,,,survey-text,206,1192437,0.0-15.0-3.2,46646,List2A,white,man,,,,,"{""Q0"":""kate and ruth are fighting each other""}","<img src=""stim_listA/fight8.gif""style=""height:400px;""></stim_listA>",are fighting each other,
null,"<div style=""font-size:60px;"">+</div>",,html-keyboard-response,207,1192942,0.0-15.0-0.3,46646,List2A,white,man,,,,null,,,,
null,"<img src=""stim_listA/kiss2.gif""style=""height:400px;""></stim_listA>",,html-keyboard-response,208,1194951,0.0-15.0-1.3,46646,List2A,white,man,,,,null,,,,
null,are kissing each other,,html-keyboard-response,209,1196951,0.0-15.0-2.3,46646,List2A,white,man,,,,null,,,,
12665,,,survey-text,210,1209620,0.0-15.0-3.3,46646,List2A,white,man,,,,,"{""Q0"":""dave and jane are kissing each other""}","<img src=""stim_listA/kiss2.gif""style=""height:400px;""></stim_listA>",are kissing each other,
null,"<div style=""font-size:60px;"">+</div>",,html-keyboard-response,211,1210139,0.0-15.0-0.4,46646,List2A,white,man,,,,null,,,,
null,"<img src=""stim_listA/flirt3.gif""style=""height:400px;""></stim_listA>",,html-keyboard-response,212,1212143,0.0-15.0-1.4,46646,List2A,white,man,,,,null,,,,
null,is flirting with,,html-keyboard-response,213,1214143,0.0-15.0-2.4,46646,List2A,white,man,,,,null,,,,
7423,,,survey-text,214,1221569,0.0-15.0-3.4,46646,List2A,white,man,,,,,"{""Q0"":""fred is flirting with kate""}","<img src=""stim_listA/flirt3.gif""style=""height:400px;""></stim_listA>",is flirting with,
null,"<div style=""font-size:60px;"">+</div>",,html-keyboard-response,215,1222074,0.0-15.0-0.5,46646,List2A,white,man,,,,null,,,,
null,"<img src=""stim_listA/flirt8.gif""style=""height:400px;""></stim_listA>",,html-keyboard-response,216,1224077,0.0-15.0-1.5,46646,List2A,white,man,,,,null,,,,
null,are flirting with each other,,html-keyboard-response,217,1226080,0.0-15.0-2.5,46646,List2A,white,man,,,,null,,,,
12456,,,survey-text,218,1238536,0.0-15.0-3.5,46646,List2A,white,man,,,,,"{""Q0"":""jane and kate are flirting with each other""}","<img src=""stim_listA/flirt8.gif""style=""height:400px;""></stim_listA>",are flirting with each other,
null,"<div style=""font-size:60px;"">+</div>",,html-keyboard-response,219,1239039,0.0-15.0-0.6,46646,List2A,white,man,,,,null,,,,
null,"<img src=""stim_listA/play7.gif""style=""height:400px;""></stim_listA>",,html-keyboard-response,220,1241049,0.0-15.0-1.6,46646,List2A,white,man,,,,null,,,,
null,is playing with,,html-keyboard-response,221,1243059,0.0-15.0-2.6,46646,List2A,white,man,,,,null,,,,
15642,,,survey-text,222,1258701,0.0-15.0-3.6,46646,List2A,white,man,,,,,"{""Q0"":""kate is playing with jane""}","<img src=""stim_listA/play7.gif""style=""height:400px;""></stim_listA>",is playing with,
null,"<div style=""font-size:60px;"">+</div>",,html-keyboard-response,223,1259221,0.0-15.0-0.7,46646,List2A,white,man,,,,null,,,,
null,"<img src=""stim_listA/talk3.gif""style=""height:400px;""></stim_listA>",,html-keyboard-response,224,1261231,0.0-15.0-1.7,46646,List2A,white,man,,,,null,,,,
null,is talking to,,html-keyboard-response,225,1263242,0.0-15.0-2.7,46646,List2A,white,man,,,,null,,,,
6177,,,survey-text,226,1269419,0.0-15.0-3.7,46646,List2A,white,man,,,,,"{""Q0"":""kate is talking to fred""}","<img src=""stim_listA/talk3.gif""style=""height:400px;""></stim_listA>",is talking to,
null,"<div style=""font-size:60px;"">+</div>",,html-keyboard-response,227,1269923,0.0-15.0-0.8,46646,List2A,white,man,,,,null,,,,
null,"<img src=""stim_listA/kiss6.gif""style=""height:400px;""></stim_listA>",,html-keyboard-response,228,1271934,0.0-15.0-1.8,46646,List2A,white,man,,,,null,,,,
null,are kissing each other,,html-keyboard-response,229,1273934,0.0-15.0-2.8,46646,List2A,white,man,,,,null,,,,
8311,,,survey-text,230,1282248,0.0-15.0-3.8,46646,List2A,white,man,,,,,"{""Q0"":""dave and mike are kissing each other""}","<img src=""stim_listA/kiss6.gif""style=""height:400px;""></stim_listA>",are kissing each other,
null,"<div style=""font-size:60px;"">+</div>",,html-keyboard-response,231,1282755,0.0-15.0-0.9,46646,List2A,white,man,,,,null,,,,
null,"<img src=""stim_listA/marry4.gif""style=""height:400px;""></stim_listA>",,html-keyboard-response,232,1284764,0.0-15.0-1.9,46646,List2A,white,man,,,,null,,,,
null,are marrying each other,,html-keyboard-response,233,1286766,0.0-15.0-2.9,46646,List2A,white,man,,,,null,,,,
9133,,,survey-text,234,1295899,0.0-15.0-3.9,46646,List2A,white,man,,,,,"{""Q0"":""kate and fred are marrying each other""}","<img src=""stim_listA/marry4.gif""style=""height:400px;""></stim_listA>",are marrying each other,
null,"<div style=""font-size:60px;"">+</div>",,html-keyboard-response,235,1296404,0.0-15.0-0.10,46646,List2A,white,man,,,,null,,,,
null,"<img src=""stim_listA/talk5.gif""style=""height:400px;""></stim_listA>",,html-keyboard-response,236,1298413,0.0-15.0-1.10,46646,List2A,white,man,,,,null,,,,
null,is talking to,,html-keyboard-response,237,1300416,0.0-15.0-2.10,46646,List2A,white,man,,,,null,,,,
6200,,,survey-text,238,1306616,0.0-15.0-3.10,46646,List2A,white,man,,,,,"{""Q0"":""luke is talking to mike""}","<img src=""stim_listA/talk5.gif""style=""height:400px;""></stim_listA>",is talking to,
null,"<div style=""font-size:60px;"">+</div>",,html-keyboard-response,239,1307120,0.0-15.0-0.11,46646,List2A,white,man,,,,null,,,,
null,"<img src=""stim_listA/argue5.gif""style=""height:400px;""></stim_listA>",,html-keyboard-response,240,1309132,0.0-15.0-1.11,46646,List2A,white,man,,,,null,,,,
null,is arguing with,,html-keyboard-response,241,1311145,0.0-15.0-2.11,46646,List2A,white,man,,,,null,,,,
8020,,,survey-text,242,1319165,0.0-15.0-3.11,46646,List2A,white,man,,,,,"{""Q0"":""dave is arguing with fred""}","<img src=""stim_listA/argue5.gif""style=""height:400px;""></stim_listA>",is arguing with,
null,"<div style=""font-size:60px;"">+</div>",,html-keyboard-response,243,1319673,0.0-15.0-0.12,46646,List2A,white,man,,,,null,,,,
null,"<img src=""stim_listA/dance6.gif""style=""height:400px;""></stim_listA>",,html-keyboard-response,244,1321679,0.0-15.0-1.12,46646,List2A,white,man,,,,null,,,,
null,are dancing with each other,,html-keyboard-response,245,1323679,0.0-15.0-2.12,46646,List2A,white,man,,,,null,,,,
9816,,,survey-text,246,1333498,0.0-15.0-3.12,46646,List2A,white,man,,,,,"{""Q0"":""fred and dave are dancing with each other""}","<img src=""stim_listA/dance6.gif""style=""height:400px;""></stim_listA>",are dancing with each other,
null,"<div style=""font-size:60px;"">+</div>",,html-keyboard-response,247,1334003,0.0-15.0-0.13,46646,List2A,white,man,,,,null,,,,
null,"<img src=""stim_listA/talk8.gif""style=""height:400px;""></stim_listA>",,html-keyboard-response,248,1336011,0.0-15.0-1.13,46646,List2A,white,man,,,,null,,,,
null,are talking to each other,,html-keyboard-response,249,1338024,0.0-15.0-2.13,46646,List2A,white,man,,,,null,,,,
10722,,,survey-text,250,1348746,0.0-15.0-3.13,46646,List2A,white,man,,,,,"{""Q0"":""jane and kate are talking to each other""}","<img src=""stim_listA/talk8.gif""style=""height:400px;""></stim_listA>",are talking to each other,
null,"<div style=""font-size:60px;"">+</div>",,html-keyboard-response,251,1349252,0.0-15.0-0.14,46646,List2A,white,man,,,,null,,,,
null,"<img src=""stim_listA/flirt5.gif""style=""height:400px;""></stim_listA>",,html-keyboard-response,252,1351260,0.0-15.0-1.14,46646,List2A,white,man,,,,null,,,,
null,is flirting with,,html-keyboard-response,253,1353273,0.0-15.0-2.14,46646,List2A,white,man,,,,null,,,,
10025,,,survey-text,254,1363298,0.0-15.0-3.14,46646,List2A,white,man,,,,,"{""Q0"":""luke is flirting with mike""}","<img src=""stim_listA/flirt5.gif""style=""height:400px;""></stim_listA>",is flirting with,
null,"<div style=""font-size:60px;"">+</div>",,html-keyboard-response,255,1363802,0.0-15.0-0.15,46646,List2A,white,man,,,,null,,,,
null,"<img src=""stim_listA/argue1.gif""style=""height:400px;""></stim_listA>",,html-keyboard-response,256,1365813,0.0-15.0-1.15,46646,List2A,white,man,,,,null,,,,
null,is arguing with,,html-keyboard-response,257,1367826,0.0-15.0-2.15,46646,List2A,white,man,,,,null,,,,
9270,,,survey-text,258,1377096,0.0-15.0-3.15,46646,List2A,white,man,,,,,"{""Q0"":""dave is arguing with ruth""}","<img src=""stim_listA/argue1.gif""style=""height:400px;""></stim_listA>",is arguing with,
null,"<div style=""font-size:60px;"">+</div>",,html-keyboard-response,259,1377616,0.0-15.0-0.16,46646,List2A,white,man,,,,null,,,,
null,"<img src=""stim_listA/marry8.gif""style=""height:400px;""></stim_listA>",,html-keyboard-response,260,1379624,0.0-15.0-1.16,46646,List2A,white,man,,,,null,,,,
null,are marrying each other,,html-keyboard-response,261,1381637,0.0-15.0-2.16,46646,List2A,white,man,,,,null,,,,
8858,,,survey-text,262,1390495,0.0-15.0-3.16,46646,List2A,white,man,,,,,"{""Q0"":""ruth and kate are marrying each other""}","<img src=""stim_listA/marry8.gif""style=""height:400px;""></stim_listA>",are marrying each other,
null,"<div style=""font-size:60px;"">+</div>",,html-keyboard-response,263,1390999,0.0-15.0-0.17,46646,List2A,white,man,,,,null,,,,
null,"<img src=""stim_listA/marry6.gif""style=""height:400px;""></stim_listA>",,html-keyboard-response,264,1393009,0.0-15.0-1.17,46646,List2A,white,man,,,,null,,,,
null,are marrying each other,,html-keyboard-response,265,1395021,0.0-15.0-2.17,46646,List2A,white,man,,,,null,,,,
11374,,,survey-text,266,1406395,0.0-15.0-3.17,46646,List2A,white,man,,,,,"{""Q0"":""luke and mike are marrying each other""}","<img src=""stim_listA/marry6.gif""style=""height:400px;""></stim_listA>",are marrying each other,
null,"<div style=""font-size:60px;"">+</div>",,html-keyboard-response,267,1406900,0.0-15.0-0.18,46646,List2A,white,man,,,,null,,,,
null,"<img src=""stim_listA/talk7.gif""style=""height:400px;""></stim_listA>",,html-keyboard-response,268,1408903,0.0-15.0-1.18,46646,List2A,white,man,,,,null,,,,
null,is talking to,,html-keyboard-response,269,1410913,0.0-15.0-2.18,46646,List2A,white,man,,,,null,,,,
10981,,,survey-text,270,1421894,0.0-15.0-3.18,46646,List2A,white,man,,,,,"{""Q0"":""jane is talking to dave""}","<img src=""stim_listA/talk7.gif""style=""height:400px;""></stim_listA>",is talking to,
null,"<div style=""font-size:60px;"">+</div>",,html-keyboard-response,271,1422399,0.0-15.0-0.19,46646,List2A,white,man,,,,null,,,,
null,"<img src=""stim_listA/argue4.gif""style=""height:400px;""></stim_listA>",,html-keyboard-response,272,1424411,0.0-15.0-1.19,46646,List2A,white,man,,,,null,,,,
null,are arguing with each other,,html-keyboard-response,273,1426413,0.0-15.0-2.19,46646,List2A,white,man,,,,null,,,,
24670,,,survey-text,274,1451085,0.0-15.0-3.19,46646,List2A,white,man,,,,,"{""Q0"":""kate and ruth are arguing with each other""}","<img src=""stim_listA/argue4.gif""style=""height:400px;""></stim_listA>",are arguing with each other,
8145,"<img src='img/portrait_matrix_list2.jpg' style='width:900px;height:500px;''></img><p>If you have memorised all the portraits and names and are ready to start, press Continue.</p><p><strong>Please note: Your memory of these faces will be tested 4 times during this experiment.</strong></p>",0,html-button-response,275,1459237,0.0-16.0-0.0,46646,List2A,white,man,,,,,,,,
17145,"<img src=""portrait/WW1.jpg""style=""height:400px;""></img>",1,html-button-response,276,1477392,0.0-16.0-1.0,46646,List2A,white,man,,TRUE,1,,,,,
null,CORRECT,,html-keyboard-response,277,1478894,0.0-16.0-2.0-0.0,46646,List2A,white,man,,,,null,,,,
6526,"<img src=""portrait/BW1.jpg""style=""height:400px;""></img>",0,html-button-response,278,1485425,0.0-16.0-4.0,46646,List2A,white,man,,TRUE,0,,,,,
null,CORRECT,,html-keyboard-response,279,1486928,0.0-16.0-5.0-0.0,46646,List2A,white,man,,,,null,,,,
7025,"<img src=""portrait/WM2.jpg""style=""height:400px;""></img>",7,html-button-response,280,1493957,0.0-16.0-7.0,46646,List2A,white,man,,TRUE,7,,,,,
null,CORRECT,,html-keyboard-response,281,1495459,0.0-16.0-8.0-0.0,46646,List2A,white,man,,,,null,,,,
1861,"<img src=""portrait/WM1.jpg""style=""height:400px;""></img>",6,html-button-response,282,1497325,0.0-16.0-10.0,46646,List2A,white,man,,TRUE,6,,,,,
null,CORRECT,,html-keyboard-response,283,1498830,0.0-16.0-11.0-0.0,46646,List2A,white,man,,,,null,,,,
2107,"<img src=""portrait/BM1.jpg""style=""height:400px;""></img>",4,html-button-response,284,1500941,0.0-16.0-13.0,46646,List2A,white,man,,TRUE,4,,,,,
null,CORRECT,,html-keyboard-response,285,1502456,0.0-16.0-14.0-0.0,46646,List2A,white,man,,,,null,,,,
2147,"<img src=""portrait/BW2.jpg""style=""height:400px;""></img>",2,html-button-response,286,1504608,0.0-16.0-16.0,46646,List2A,white,man,,TRUE,2,,,,,
null,CORRECT,,html-keyboard-response,287,1506108,0.0-16.0-17.0-0.0,46646,List2A,white,man,,,,null,,,,
3863,"<img src=""portrait/BM2.jpg""style=""height:400px;""></img>",5,html-button-response,288,1509975,0.0-16.0-19.0,46646,List2A,white,man,,TRUE,5,,,,,
null,CORRECT,,html-keyboard-response,289,1511477,0.0-16.0-20.0-0.0,46646,List2A,white,man,,,,null,,,,
8757,"<img src=""portrait/WW2.jpg""style=""height:400px;""></img>",3,html-button-response,290,1520242,0.0-16.0-22.0,46646,List2A,white,man,,TRUE,3,,,,,
null,CORRECT,,html-keyboard-response,291,1521746,0.0-16.0-23.0-0.0,46646,List2A,white,man,,,,null,,,,
1923,<p>You got 8 out of 8 right first time. Press Continue.</p>,0,html-button-response,292,1523690,0.0-16.0-25.0,46646,List2A,white,man,,,,,,,,
null,"<div style=""font-size:60px;"">+</div>",,html-keyboard-response,293,1525204,0.0-17.0-0.0,46646,List2A,white,man,,,,null,,,,
null,"<img src=""stim_listA/kiss3.gif""style=""height:400px;""></stim_listA>",,html-keyboard-response,294,1527215,0.0-17.0-1.0,46646,List2A,white,man,,,,null,,,,
null,is kissing,,html-keyboard-response,295,1529215,0.0-17.0-2.0,46646,List2A,white,man,,,,null,,,,
6655,,,survey-text,296,1535873,0.0-17.0-3.0,46646,List2A,white,man,,,,,"{""Q0"":""fred is kissing kate""}","<img src=""stim_listA/kiss3.gif""style=""height:400px;""></stim_listA>",is kissing,
null,"<div style=""font-size:60px;"">+</div>",,html-keyboard-response,297,1536379,0.0-17.0-0.1,46646,List2A,white,man,,,,null,,,,
null,"<img src=""stim_listA/shout7.gif""style=""height:400px;""></stim_listA>",,html-keyboard-response,298,1538390,0.0-17.0-1.1,46646,List2A,white,man,,,,null,,,,
null,is shouting at,,html-keyboard-response,299,1540399,0.0-17.0-2.1,46646,List2A,white,man,,,,null,,,,
7041,,,survey-text,300,1547440,0.0-17.0-3.1,46646,List2A,white,man,,,,,"{""Q0"":""ruth is shouting at kate""}","<img src=""stim_listA/shout7.gif""style=""height:400px;""></stim_listA>",is shouting at,
null,"<div style=""font-size:60px;"">+</div>",,html-keyboard-response,301,1547941,0.0-17.0-0.2,46646,List2A,white,man,,,,null,,,,
null,"<img src=""stim_listA/shout6.gif""style=""height:400px;""></stim_listA>",,html-keyboard-response,302,1549951,0.0-17.0-1.2,46646,List2A,white,man,,,,null,,,,
null,are shouting at each other,,html-keyboard-response,303,1551951,0.0-17.0-2.2,46646,List2A,white,man,,,,null,,,,
12653,,,survey-text,304,1564607,0.0-17.0-3.2,46646,List2A,white,man,,,,,"{""Q0"":""dave and mike are shouting at each other""}","<img src=""stim_listA/shout6.gif""style=""height:400px;""></stim_listA>",are shouting at each other,
null,"<div style=""font-size:60px;"">+</div>",,html-keyboard-response,305,1565126,0.0-17.0-0.3,46646,List2A,white,man,,,,null,,,,
null,"<img src=""stim_listA/flirt1.gif""style=""height:400px;""></stim_listA>",,html-keyboard-response,306,1567139,0.0-17.0-1.3,46646,List2A,white,man,,,,null,,,,
null,is flirting with,,html-keyboard-response,307,1569152,0.0-17.0-2.3,46646,List2A,white,man,,,,null,,,,
10355,,,survey-text,308,1579507,0.0-17.0-3.3,46646,List2A,white,man,,,,,"{""Q0"":""luke is flirting with jane""}","<img src=""stim_listA/flirt1.gif""style=""height:400px;""></stim_listA>",is flirting with,
null,"<div style=""font-size:60px;"">+</div>",,html-keyboard-response,309,1580026,0.0-17.0-0.4,46646,List2A,white,man,,,,null,,,,
null,"<img src=""stim_listA/dance1.gif""style=""height:400px;""></stim_listA>",,html-keyboard-response,310,1582036,0.0-17.0-1.4,46646,List2A,white,man,,,,null,,,,
null,is dancing with,,html-keyboard-response,311,1584036,0.0-17.0-2.4,46646,List2A,white,man,,,,null,,,,
6118,,,survey-text,312,1590157,0.0-17.0-3.4,46646,List2A,white,man,,,,,"{""Q0"":""jane is dancing with luke""}","<img src=""stim_listA/dance1.gif""style=""height:400px;""></stim_listA>",is dancing with,
null,"<div style=""font-size:60px;"">+</div>",,html-keyboard-response,313,1590677,0.0-17.0-0.5,46646,List2A,white,man,,,,null,,,,
null,"<img src=""stim_listA/talk2.gif""style=""height:400px;""></stim_listA>",,html-keyboard-response,314,1592687,0.0-17.0-1.5,46646,List2A,white,man,,,,null,,,,
null,are talking to each other,,html-keyboard-response,315,1594701,0.0-17.0-2.5,46646,List2A,white,man,,,,null,,,,
8487,,,survey-text,316,1603204,0.0-17.0-3.5,46646,List2A,white,man,,,,,"{""Q0"":""ruth and dave are talking to each other""}","<img src=""stim_listA/talk2.gif""style=""height:400px;""></stim_listA>",are talking to each other,
null,"<div style=""font-size:60px;"">+</div>",,html-keyboard-response,317,1603708,0.0-17.0-0.6,46646,List2A,white,man,,,,null,,,,
null,"<img src=""stim_listA/fight5.gif""style=""height:400px;""></stim_listA>",,html-keyboard-response,318,1605713,0.0-17.0-1.6,46646,List2A,white,man,,,,null,,,,
null,is fighting,,html-keyboard-response,319,1607720,0.0-17.0-2.6,46646,List2A,white,man,,,,null,,,,
5867,,,survey-text,320,1613587,0.0-17.0-3.6,46646,List2A,white,man,,,,,"{""Q0"":""dave is fighting mike""}","<img src=""stim_listA/fight5.gif""style=""height:400px;""></stim_listA>",is fighting,
null,"<div style=""font-size:60px;"">+</div>",,html-keyboard-response,321,1614108,0.0-17.0-0.7,46646,List2A,white,man,,,,null,,,,
null,"<img src=""stim_listA/play8.gif""style=""height:400px;""></stim_listA>",,html-keyboard-response,322,1616120,0.0-17.0-1.7,46646,List2A,white,man,,,,null,,,,
null,are playing with each other,,html-keyboard-response,323,1618131,0.0-17.0-2.7,46646,List2A,white,man,,,,null,,,,
11541,,,survey-text,324,1629687,0.0-17.0-3.7,46646,List2A,white,man,,,,,"{""Q0"":""beth and ruth are playing with each other""}","<img src=""stim_listA/play8.gif""style=""height:400px;""></stim_listA>",are playing with each other,
null,"<div style=""font-size:60px;"">+</div>",,html-keyboard-response,325,1630193,0.0-17.0-0.8,46646,List2A,white,man,,,,null,,,,
null,"<img src=""stim_listA/marry2.gif""style=""height:400px;""></stim_listA>",,html-keyboard-response,326,1632202,0.0-17.0-1.8,46646,List2A,white,man,,,,null,,,,
null,are marrying each other,,html-keyboard-response,327,1634216,0.0-17.0-2.8,46646,List2A,white,man,,,,null,,,,
9036,,,survey-text,328,1643252,0.0-17.0-3.8,46646,List2A,white,man,,,,,"{""Q0"":""jane and luke are marrying each other""}","<img src=""stim_listA/marry2.gif""style=""height:400px;""></stim_listA>",are marrying each other,
null,"<div style=""font-size:60px;"">+</div>",,html-keyboard-response,329,1643758,0.0-17.0-0.9,46646,List2A,white,man,,,,null,,,,
null,"<img src=""stim_listA/dance7.gif""style=""height:400px;""></stim_listA>",,html-keyboard-response,330,1645760,0.0-17.0-1.9,46646,List2A,white,man,,,,null,,,,
null,is dancing with,,html-keyboard-response,331,1647766,0.0-17.0-2.9,46646,List2A,white,man,,,,null,,,,
7170,,,survey-text,332,1654936,0.0-17.0-3.9,46646,List2A,white,man,,,,,"{""Q0"":""ruth is dancing with kate""}","<img src=""stim_listA/dance7.gif""style=""height:400px;""></stim_listA>",is dancing with,
null,"<div style=""font-size:60px;"">+</div>",,html-keyboard-response,333,1655455,0.0-17.0-0.10,46646,List2A,white,man,,,,null,,,,
null,"<img src=""stim_listA/touch7.gif""style=""height:400px;""></stim_listA>",,html-keyboard-response,334,1657463,0.0-17.0-1.10,46646,List2A,white,man,,,,null,,,,
null,is touching,,html-keyboard-response,335,1659477,0.0-17.0-2.10,46646,List2A,white,man,,,,null,,,,
6408,,,survey-text,336,1665885,0.0-17.0-3.10,46646,List2A,white,man,,,,,"{""Q0"":""jane is touching kate""}","<img src=""stim_listA/touch7.gif""style=""height:400px;""></stim_listA>",is touching,
null,"<div style=""font-size:60px;"">+</div>",,html-keyboard-response,337,1666388,0.0-17.0-0.11,46646,List2A,white,man,,,,null,,,,
null,"<img src=""stim_listA/kiss5.gif""style=""height:400px;""></stim_listA>",,html-keyboard-response,338,1668394,0.0-17.0-1.11,46646,List2A,white,man,,,,null,,,,
null,is kissing,,html-keyboard-response,339,1670408,0.0-17.0-2.11,46646,List2A,white,man,,,,null,,,,
6810,,,survey-text,340,1677218,0.0-17.0-3.11,46646,List2A,white,man,,,,,"{""Q0"":""luke is kissing fred""}","<img src=""stim_listA/kiss5.gif""style=""height:400px;""></stim_listA>",is kissing,
null,"<div style=""font-size:60px;"">+</div>",,html-keyboard-response,341,1677721,0.0-17.0-0.12,46646,List2A,white,man,,,,null,,,,
null,"<img src=""stim_listA/fight3.gif""style=""height:400px;""></stim_listA>",,html-keyboard-response,342,1679734,0.0-17.0-1.12,46646,List2A,white,man,,,,null,,,,
null,is fighting,,html-keyboard-response,343,1681735,0.0-17.0-2.12,46646,List2A,white,man,,,,null,,,,
5745,,,survey-text,344,1687499,0.0-17.0-3.12,46646,List2A,white,man,,,,,"{""Q0"":""kate is fighting mike""}","<img src=""stim_listA/fight3.gif""style=""height:400px;""></stim_listA>",is fighting,
null,"<div style=""font-size:60px;"">+</div>",,html-keyboard-response,345,1688004,0.0-17.0-0.13,46646,List2A,white,man,,,,null,,,,
null,"<img src=""stim_listA/shout8.gif""style=""height:400px;""></stim_listA>",,html-keyboard-response,346,1690014,0.0-17.0-1.13,46646,List2A,white,man,,,,null,,,,
null,are shouting at each other,,html-keyboard-response,347,1692027,0.0-17.0-2.13,46646,List2A,white,man,,,,null,,,,
10690,,,survey-text,348,1702717,0.0-17.0-3.13,46646,List2A,white,man,,,,,"{""Q0"":""jane and kate are shouting at each other""}","<img src=""stim_listA/shout8.gif""style=""height:400px;""></stim_listA>",are shouting at each other,
null,"<div style=""font-size:60px;"">+</div>",,html-keyboard-response,349,1703221,0.0-17.0-0.14,46646,List2A,white,man,,,,null,,,,
null,"<img src=""stim_listA/argue2.gif""style=""height:400px;""></stim_listA>",,html-keyboard-response,350,1705234,0.0-17.0-1.14,46646,List2A,white,man,,,,null,,,,
null,are arguing with each other,,html-keyboard-response,351,1707247,0.0-17.0-2.14,46646,List2A,white,man,,,,null,,,,
10617,,,survey-text,352,1717864,0.0-17.0-3.14,46646,List2A,white,man,,,,,"{""Q0"":""luke and jane are shouting at each other""}","<img src=""stim_listA/argue2.gif""style=""height:400px;""></stim_listA>",are arguing with each other,
null,"<div style=""font-size:60px;"">+</div>",,html-keyboard-response,353,1718387,0.0-17.0-0.15,46646,List2A,white,man,,,,null,,,,
null,"<img src=""stim_listA/argue8.gif""style=""height:400px;""></stim_listA>",,html-keyboard-response,354,1720392,0.0-17.0-1.15,46646,List2A,white,man,,,,null,,,,
null,are arguing with each other,,html-keyboard-response,355,1722399,0.0-17.0-2.15,46646,List2A,white,man,,,,null,,,,
8768,,,survey-text,356,1731167,0.0-17.0-3.15,46646,List2A,white,man,,,,,"{""Q0"":""kate and ruth are arguing with each other""}","<img src=""stim_listA/argue8.gif""style=""height:400px;""></stim_listA>",are arguing with each other,
null,"<div style=""font-size:60px;"">+</div>",,html-keyboard-response,357,1731672,0.0-17.0-0.16,46646,List2A,white,man,,,,null,,,,
null,"<img src=""stim_listA/flirt6.gif""style=""height:400px;""></stim_listA>",,html-keyboard-response,358,1733682,0.0-17.0-1.16,46646,List2A,white,man,,,,null,,,,
null,are flirting with each other,,html-keyboard-response,359,1735695,0.0-17.0-2.16,46646,List2A,white,man,,,,null,,,,
11672,,,survey-text,360,1747367,0.0-17.0-3.16,46646,List2A,white,man,,,,,"{""Q0"":""dave and fred are flirting with each other""}","<img src=""stim_listA/flirt6.gif""style=""height:400px;""></stim_listA>",are flirting with each other,
null,"<div style=""font-size:60px;"">+</div>",,html-keyboard-response,361,1747871,0.0-17.0-0.17,46646,List2A,white,man,,,,null,,,,
null,"<img src=""stim_listA/fight2.gif""style=""height:400px;""></stim_listA>",,html-keyboard-response,362,1749879,0.0-17.0-1.17,46646,List2A,white,man,,,,null,,,,
null,are fighting each other,,html-keyboard-response,363,1751882,0.0-17.0-2.17,46646,List2A,white,man,,,,null,,,,
10034,,,survey-text,364,1761931,0.0-17.0-3.17,46646,List2A,white,man,,,,,"{""Q0"":""ruth and luke are fighting each other""}","<img src=""stim_listA/fight2.gif""style=""height:400px;""></stim_listA>",are fighting each other,
null,"<div style=""font-size:60px;"">+</div>",,html-keyboard-response,365,1762435,0.0-17.0-0.18,46646,List2A,white,man,,,,null,,,,
null,"<img src=""stim_listA/argue6.gif""style=""height:400px;""></stim_listA>",,html-keyboard-response,366,1764443,0.0-17.0-1.18,46646,List2A,white,man,,,,null,,,,
null,are arguing with each other,,html-keyboard-response,367,1766443,0.0-17.0-2.18,46646,List2A,white,man,,,,null,,,,
9435,,,survey-text,368,1775881,0.0-17.0-3.18,46646,List2A,white,man,,,,,"{""Q0"":""luke and mike are arguing with each other""}","<img src=""stim_listA/argue6.gif""style=""height:400px;""></stim_listA>",are arguing with each other,
null,"<div style=""font-size:60px;"">+</div>",,html-keyboard-response,369,1776400,0.0-17.0-0.19,46646,List2A,white,man,,,,null,,,,
null,"<img src=""stim_listA/shout2.gif""style=""height:400px;""></stim_listA>",,html-keyboard-response,370,1778409,0.0-17.0-1.19,46646,List2A,white,man,,,,null,,,,
null,are shouting at each other,,html-keyboard-response,371,1780409,0.0-17.0-2.19,46646,List2A,white,man,,,,null,,,,
9783,,,survey-text,372,1790195,0.0-17.0-3.19,46646,List2A,white,man,,,,,"{""Q0"":""jane and dave are shouting at each other""}","<img src=""stim_listA/shout2.gif""style=""height:400px;""></stim_listA>",are shouting at each other,
7880,"<img src='img/portrait_matrix_list2.jpg' style='width:900px;height:500px;''></img><p>If you have memorised all the portraits and names and are ready to start, press Continue.</p><p><strong>Please note: Your memory of these faces will be tested 4 times during this experiment.</strong></p>",0,html-button-response,373,1798075,0.0-18.0-0.0,46646,List2A,white,man,,,,,,,,
6098,"<img src=""portrait/BW1.jpg""style=""height:400px;""></img>",0,html-button-response,374,1805194,0.0-18.0-1.0,46646,List2A,white,man,,TRUE,0,,,,,
null,CORRECT,,html-keyboard-response,375,1806697,0.0-18.0-2.0-0.0,46646,List2A,white,man,,,,null,,,,
6230,"<img src=""portrait/WW2.jpg""style=""height:400px;""></img>",3,html-button-response,376,1812943,0.0-18.0-4.0,46646,List2A,white,man,,TRUE,3,,,,,
null,CORRECT,,html-keyboard-response,377,1814446,0.0-18.0-5.0-0.0,46646,List2A,white,man,,,,null,,,,
2126,"<img src=""portrait/WM1.jpg""style=""height:400px;""></img>",6,html-button-response,378,1816575,0.0-18.0-7.0,46646,List2A,white,man,,TRUE,6,,,,,
null,CORRECT,,html-keyboard-response,379,1818085,0.0-18.0-8.0-0.0,46646,List2A,white,man,,,,null,,,,
2606,"<img src=""portrait/WM2.jpg""style=""height:400px;""></img>",7,html-button-response,380,1820691,0.0-18.0-10.0,46646,List2A,white,man,,TRUE,7,,,,,
null,CORRECT,,html-keyboard-response,381,1822193,0.0-18.0-11.0-0.0,46646,List2A,white,man,,,,null,,,,
5793,"<img src=""portrait/WW1.jpg""style=""height:400px;""></img>",1,html-button-response,382,1827991,0.0-18.0-13.0,46646,List2A,white,man,,TRUE,1,,,,,
null,CORRECT,,html-keyboard-response,383,1829492,0.0-18.0-14.0-0.0,46646,List2A,white,man,,,,null,,,,
1776,"<img src=""portrait/BW2.jpg""style=""height:400px;""></img>",2,html-button-response,384,1831273,0.0-18.0-16.0,46646,List2A,white,man,,TRUE,2,,,,,
null,CORRECT,,html-keyboard-response,385,1832777,0.0-18.0-17.0-0.0,46646,List2A,white,man,,,,null,,,,
2006,"<img src=""portrait/BM1.jpg""style=""height:400px;""></img>",4,html-button-response,386,1834789,0.0-18.0-19.0,46646,List2A,white,man,,TRUE,4,,,,,
null,CORRECT,,html-keyboard-response,387,1836290,0.0-18.0-20.0-0.0,46646,List2A,white,man,,,,null,,,,
1631,"<img src=""portrait/BM2.jpg""style=""height:400px;""></img>",5,html-button-response,388,1837926,0.0-18.0-22.0,46646,List2A,white,man,,TRUE,5,,,,,
null,CORRECT,,html-keyboard-response,389,1839429,0.0-18.0-23.0-0.0,46646,List2A,white,man,,,,null,,,,
1989,<p>You got 8 out of 8 right first time. Press Continue.</p>,0,html-button-response,390,1841423,0.0-18.0-25.0,46646,List2A,white,man,,,,,,,,
null,"<div style=""font-size:60px;"">+</div>",,html-keyboard-response,391,1842929,0.0-19.0-0.0,46646,List2A,white,man,,,,null,,,,
null,"<img src=""stim_listA/kiss8.gif""style=""height:400px;""></stim_listA>",,html-keyboard-response,392,1844937,0.0-19.0-1.0,46646,List2A,white,man,,,,null,,,,
null,are kissing each other,,html-keyboard-response,393,1846937,0.0-19.0-2.0,46646,List2A,white,man,,,,null,,,,
9389,,,survey-text,394,1856328,0.0-19.0-3.0,46646,List2A,white,man,,,,,"{""Q0"":""kate and jane are kissing each other""}","<img src=""stim_listA/kiss8.gif""style=""height:400px;""></stim_listA>",are kissing each other,
null,"<div style=""font-size:60px;"">+</div>",,html-keyboard-response,395,1856847,0.0-19.0-0.1,46646,List2A,white,man,,,,null,,,,
null,"<img src=""stim_listA/dance3.gif""style=""height:400px;""></stim_listA>",,html-keyboard-response,396,1858857,0.0-19.0-1.1,46646,List2A,white,man,,,,null,,,,
null,is dancing with,,html-keyboard-response,397,1860857,0.0-19.0-2.1,46646,List2A,white,man,,,,null,,,,
7351,,,survey-text,398,1868211,0.0-19.0-3.1,46646,List2A,white,man,,,,,"{""Q0"":""kate is dancing with fred""}","<img src=""stim_listA/dance3.gif""style=""height:400px;""></stim_listA>",is dancing with,
null,"<div style=""font-size:60px;"">+</div>",,html-keyboard-response,399,1868715,0.0-19.0-0.2,46646,List2A,white,man,,,,null,,,,
null,"<img src=""stim_listA/fight7.gif""style=""height:400px;""></stim_listA>",,html-keyboard-response,400,1870724,0.0-19.0-1.2,46646,List2A,white,man,,,,null,,,,
null,is fighting,,html-keyboard-response,401,1872726,0.0-19.0-2.2,46646,List2A,white,man,,,,null,,,,
5436,,,survey-text,402,1878162,0.0-19.0-3.2,46646,List2A,white,man,,,,,"{""Q0"":""jane is fighting kate""}","<img src=""stim_listA/fight7.gif""style=""height:400px;""></stim_listA>",is fighting,
null,"<div style=""font-size:60px;"">+</div>",,html-keyboard-response,403,1878663,0.0-19.0-0.3,46646,List2A,white,man,,,,null,,,,
null,"<img src=""stim_listA/kiss7.gif""style=""height:400px;""></stim_listA>",,html-keyboard-response,404,1880677,0.0-19.0-1.3,46646,List2A,white,man,,,,null,,,,
null,is kissing,,html-keyboard-response,405,1882685,0.0-19.0-2.3,46646,List2A,white,man,,,,null,,,,
18691,,,survey-text,406,1901391,0.0-19.0-3.3,46646,List2A,white,man,,,,,"{""Q0"":""jane is kissing beth""}","<img src=""stim_listA/kiss7.gif""style=""height:400px;""></stim_listA>",is kissing,
null,"<div style=""font-size:60px;"">+</div>",,html-keyboard-response,407,1901895,0.0-19.0-0.4,46646,List2A,white,man,,,,null,,,,
null,"<img src=""stim_listA/fight6.gif""style=""height:400px;""></stim_listA>",,html-keyboard-response,408,1903909,0.0-19.0-1.4,46646,List2A,white,man,,,,null,,,,
null,are fighting each other,,html-keyboard-response,409,1905910,0.0-19.0-2.4,46646,List2A,white,man,,,,null,,,,
9030,,,survey-text,410,1914942,0.0-19.0-3.4,46646,List2A,white,man,,,,,"{""Q0"":""fred and luke are fighting each other""}","<img src=""stim_listA/fight6.gif""style=""height:400px;""></stim_listA>",are fighting each other,
null,"<div style=""font-size:60px;"">+</div>",,html-keyboard-response,411,1915447,0.0-19.0-0.5,46646,List2A,white,man,,,,null,,,,
null,"<img src=""stim_listA/shout3.gif""style=""height:400px;""></stim_listA>",,html-keyboard-response,412,1917452,0.0-19.0-1.5,46646,List2A,white,man,,,,null,,,,
null,is shouting at,,html-keyboard-response,413,1919467,0.0-19.0-2.5,46646,List2A,white,man,,,,null,,,,
6622,,,survey-text,414,1926092,0.0-19.0-3.5,46646,List2A,white,man,,,,,"{""Q0"":""fred is shouting at beth""}","<img src=""stim_listA/shout3.gif""style=""height:400px;""></stim_listA>",is shouting at,
null,"<div style=""font-size:60px;"">+</div>",,html-keyboard-response,415,1926595,0.0-19.0-0.6,46646,List2A,white,man,,,,null,,,,
null,"<img src=""stim_listA/shout1.gif""style=""height:400px;""></stim_listA>",,html-keyboard-response,416,1928601,0.0-19.0-1.6,46646,List2A,white,man,,,,null,,,,
null,is shouting at,,html-keyboard-response,417,1930602,0.0-19.0-2.6,46646,List2A,white,man,,,,null,,,,
6235,,,survey-text,418,1936839,0.0-19.0-3.6,46646,List2A,white,man,,,,,"{""Q0"":""ruth is shouting at luke""}","<img src=""stim_listA/shout1.gif""style=""height:400px;""></stim_listA>",is shouting at,
null,"<div style=""font-size:60px;"">+</div>",,html-keyboard-response,419,1937360,0.0-19.0-0.7,46646,List2A,white,man,,,,null,,,,
null,"<img src=""stim_listA/marry7.gif""style=""height:400px;""></stim_listA>",,html-keyboard-response,420,1939373,0.0-19.0-1.7,46646,List2A,white,man,,,,null,,,,
null,is marrying,,html-keyboard-response,421,1941374,0.0-19.0-2.7,46646,List2A,white,man,,,,null,,,,
5252,,,survey-text,422,1946640,0.0-19.0-3.7,46646,List2A,white,man,,,,,"{""Q0"":""jane is marrying kate""}","<img src=""stim_listA/marry7.gif""style=""height:400px;""></stim_listA>",is marrying,
null,"<div style=""font-size:60px;"">+</div>",,html-keyboard-response,423,1947145,0.0-19.0-0.8,46646,List2A,white,man,,,,null,,,,
null,"<img src=""stim_listA/touch3.gif""style=""height:400px;""></stim_listA>",,html-keyboard-response,424,1949200,0.0-19.0-1.8,46646,List2A,white,man,,,,null,,,,
null,is touching,,html-keyboard-response,425,1951201,0.0-19.0-2.8,46646,List2A,white,man,,,,null,,,,
5788,,,survey-text,426,1956992,0.0-19.0-3.8,46646,List2A,white,man,,,,,"{""Q0"":""mike is touching kate""}","<img src=""stim_listA/touch3.gif""style=""height:400px;""></stim_listA>",is touching,
null,"<div style=""font-size:60px;"">+</div>",,html-keyboard-response,427,1957495,0.0-19.0-0.9,46646,List2A,white,man,,,,null,,,,
null,"<img src=""stim_listA/kiss4.gif""style=""height:400px;""></stim_listA>",,html-keyboard-response,428,1959582,0.0-19.0-1.9,46646,List2A,white,man,,,,null,,,,
null,are kissing each other,,html-keyboard-response,429,1961582,0.0-19.0-2.9,46646,List2A,white,man,,,,null,,,,
7206,,,survey-text,430,1968791,0.0-19.0-3.9,46646,List2A,white,man,,,,,"{""Q0"":""kate and mike are kissing each other""}","<img src=""stim_listA/kiss4.gif""style=""height:400px;""></stim_listA>",are kissing each other,
null,"<div style=""font-size:60px;"">+</div>",,html-keyboard-response,431,1969310,0.0-19.0-0.10,46646,List2A,white,man,,,,null,,,,
null,"<img src=""stim_listA/talk4.gif""style=""height:400px;""></stim_listA>",,html-keyboard-response,432,1971320,0.0-19.0-1.10,46646,List2A,white,man,,,,null,,,,
null,are talking to each other,,html-keyboard-response,433,1973333,0.0-19.0-2.10,46646,List2A,white,man,,,,null,,,,
12690,,,survey-text,434,1986023,0.0-19.0-3.10,46646,List2A,white,man,,,,,"{""Q0"":""mike and beth are talking to each other""}","<img src=""stim_listA/talk4.gif""style=""height:400px;""></stim_listA>",are talking to each other,
null,"<div style=""font-size:60px;"">+</div>",,html-keyboard-response,435,1986527,0.0-19.0-0.11,46646,List2A,white,man,,,,null,,,,
null,"<img src=""stim_listA/dance8.gif""style=""height:400px;""></stim_listA>",,html-keyboard-response,436,1988533,0.0-19.0-1.11,46646,List2A,white,man,,,,null,,,,
null,are dancing with each other,,html-keyboard-response,437,1990547,0.0-19.0-2.11,46646,List2A,white,man,,,,null,,,,
12440,,,survey-text,438,2002987,0.0-19.0-3.11,46646,List2A,white,man,,,,,"{""Q0"":""ruth and beth are dancing with each other""}","<img src=""stim_listA/dance8.gif""style=""height:400px;""></stim_listA>",are dancing with each other,
null,"<div style=""font-size:60px;"">+</div>",,html-keyboard-response,439,2003508,0.0-19.0-0.12,46646,List2A,white,man,,,,null,,,,
null,"<img src=""stim_listA/marry1.gif""style=""height:400px;""></stim_listA>",,html-keyboard-response,440,2005521,0.0-19.0-1.12,46646,List2A,white,man,,,,null,,,,
null,is marrying,,html-keyboard-response,441,2007521,0.0-19.0-2.12,46646,List2A,white,man,,,,null,,,,
5827,,,survey-text,442,2013351,0.0-19.0-3.12,46646,List2A,white,man,,,,,"{""Q0"":""dave is marrying ruth""}","<img src=""stim_listA/marry1.gif""style=""height:400px;""></stim_listA>",is marrying,
null,"<div style=""font-size:60px;"">+</div>",,html-keyboard-response,443,2013859,0.0-19.0-0.13,46646,List2A,white,man,,,,null,,,,
null,"<img src=""stim_listA/play4.gif""style=""height:400px;""></stim_listA>",,html-keyboard-response,444,2015868,0.0-19.0-1.13,46646,List2A,white,man,,,,null,,,,
null,are playing with each other,,html-keyboard-response,445,2017868,0.0-19.0-2.13,46646,List2A,white,man,,,,null,,,,
8599,,,survey-text,446,2026470,0.0-19.0-3.13,46646,List2A,white,man,,,,,"{""Q0"":""beth and fred are playing with each other""}","<img src=""stim_listA/play4.gif""style=""height:400px;""></stim_listA>",are playing with each other,
null,"<div style=""font-size:60px;"">+</div>",,html-keyboard-response,447,2026990,0.0-19.0-0.14,46646,List2A,white,man,,,,null,,,,
null,"<img src=""stim_listA/play6.gif""style=""height:400px;""></stim_listA>",,html-keyboard-response,448,2029005,0.0-19.0-1.14,46646,List2A,white,man,,,,null,,,,
null,are playing with each other,,html-keyboard-response,449,2031006,0.0-19.0-2.14,46646,List2A,white,man,,,,null,,,,
8813,,,survey-text,450,2039821,0.0-19.0-3.14,46646,List2A,white,man,,,,,"{""Q0"":""luke and fred are playing with each other""}","<img src=""stim_listA/play6.gif""style=""height:400px;""></stim_listA>",are playing with each other,
null,"<div style=""font-size:60px;"">+</div>",,html-keyboard-response,451,2040325,0.0-19.0-0.15,46646,List2A,white,man,,,,null,,,,
null,"<img src=""stim_listA/flirt7.gif""style=""height:400px;""></stim_listA>",,html-keyboard-response,452,2042331,0.0-19.0-1.15,46646,List2A,white,man,,,,null,,,,
null,is flirting with,,html-keyboard-response,453,2044331,0.0-19.0-2.15,46646,List2A,white,man,,,,null,,,,
8601,,,survey-text,454,2052935,0.0-19.0-3.15,46646,List2A,white,man,,,,,"{""Q0"":""kate is flirting with ruth""}","<img src=""stim_listA/flirt7.gif""style=""height:400px;""></stim_listA>",is flirting with,
null,"<div style=""font-size:60px;"">+</div>",,html-keyboard-response,455,2053441,0.0-19.0-0.16,46646,List2A,white,man,,,,null,,,,
null,"<img src=""stim_listA/argue7.gif""style=""height:400px;""></stim_listA>",,html-keyboard-response,456,2055453,0.0-19.0-1.16,46646,List2A,white,man,,,,null,,,,
null,is arguing with,,html-keyboard-response,457,2057454,0.0-19.0-2.16,46646,List2A,white,man,,,,null,,,,
9729,,,survey-text,458,2067186,0.0-19.0-3.16,46646,List2A,white,man,,,,,"{""Q0"":""beth is arguing with jane""}","<img src=""stim_listA/argue7.gif""style=""height:400px;""></stim_listA>",is arguing with,
null,"<div style=""font-size:60px;"">+</div>",,html-keyboard-response,459,2067705,0.0-19.0-0.17,46646,List2A,white,man,,,,null,,,,
null,"<img src=""stim_listA/touch6.gif""style=""height:400px;""></stim_listA>",,html-keyboard-response,460,2069718,0.0-19.0-1.17,46646,List2A,white,man,,,,null,,,,
null,are touching each other,,html-keyboard-response,461,2071732,0.0-19.0-2.17,46646,List2A,white,man,,,,null,,,,
8222,,,survey-text,462,2079954,0.0-19.0-3.17,46646,List2A,white,man,,,,,"{""Q0"":""fred and luke are touching each other""}","<img src=""stim_listA/touch6.gif""style=""height:400px;""></stim_listA>",are touching each other,
null,"<div style=""font-size:60px;"">+</div>",,html-keyboard-response,463,2080458,0.0-19.0-0.18,46646,List2A,white,man,,,,null,,,,
null,"<img src=""stim_listA/dance4.gif""style=""height:400px;""></stim_listA>",,html-keyboard-response,464,2082468,0.0-19.0-1.18,46646,List2A,white,man,,,,null,,,,
null,are dancing with each other,,html-keyboard-response,465,2084481,0.0-19.0-2.18,46646,List2A,white,man,,,,null,,,,
15855,,,survey-text,466,2100351,0.0-19.0-3.18,46646,List2A,white,man,,,,,"{""Q0"":""mike and beth are dancing with each other""}","<img src=""stim_listA/dance4.gif""style=""height:400px;""></stim_listA>",are dancing with each other,
null,"<div style=""font-size:60px;"">+</div>",,html-keyboard-response,467,2100855,0.0-19.0-0.19,46646,List2A,white,man,,,,null,,,,
null,"<img src=""stim_listA/fight1.gif""style=""height:400px;""></stim_listA>",,html-keyboard-response,468,2102869,0.0-19.0-1.19,46646,List2A,white,man,,,,null,,,,
null,is fighting,,html-keyboard-response,469,2104870,0.0-19.0-2.19,46646,List2A,white,man,,,,null,,,,
6595,,,survey-text,470,2111483,0.0-19.0-3.19,46646,List2A,white,man,,,,,"{""Q0"":""dave is fighting jane""}","<img src=""stim_listA/fight1.gif""style=""height:400px;""></stim_listA>",is fighting,
3232,<p>Thank you for completing that task.</p><p>The final part of this session is a short questionnaire.</p><p>Press Continue.</p>,0,html-button-response,471,2114715,0.0-20.0,46646,List2A,white,man,,,,,,,,
48545,,,survey-text,472,2164379,0.0-21.0,46646,List2A,white,man,,,,,"{""Q0"":""30"",""Q1"":""english"",""Q2"":""english"",""Q3"":""united states"",""Q4"":""white"",""Q5"":""male""}",,,demographics
8568,,,survey-likert,473,2173561,0.0-22.0,46646,List2A,white,man,,,,,"{""Q0"":4}",,,likert_ESS
8323,,,survey-likert,474,2181980,0.0-23.0,46646,List2A,white,man,,,,,"{""Q0"":4}",,,likert_NSSAL_Q1
4233,,,survey-likert,475,2186250,0.0-24.0,46646,List2A,white,man,,,,,"{""Q0"":4}",,,likert_NSSAL_Q2
5138,,,survey-likert,476,2191430,0.0-25.0,46646,List2A,white,man,,,,,"{""Q0"":4}",,,likert_CGRS_Q1
3793,,,survey-likert,477,2195261,0.0-26.0,46646,List2A,white,man,,,,,"{""Q0"":4}",,,likert_CGRS_Q2
2767,,,survey-likert,478,2198064,0.0-27.0,46646,List2A,white,man,,,,,"{""Q0"":4}",,,likert_CGRS_Q3
10634,,,survey-text,479,2208813,0.0-28.0,46646,List2A,white,man,,,,,"{""Q0"":""ccc""}",,,worker_id
27347,,,external-html,480,2236860,0.0-29.0,46646,List2A,white,man,debrief.html,,,,,,,
