rt,stimulus,button_pressed,trial_type,trial_index,time_elapsed,internal_node_id,subject,list,ppt_race,ppt_gender,url,first_guess,correct,key_press,responses,image_type,phrase_type,test_part
9237,Welcome to the experiment. Press Continue to begin.,0,html-button-response,0,9242,0.0-0.0,46998,List2A,white,man,,,,,,,,
39716,,,external-html,1,50087,0.0-1.0,46998,List2A,white,man,consent.html,,,,,,,
21148,"<p>On the next page, you will see portraits of 8 people and their names.</p><p>Your first task is to take a few minutes to memorise the names of these people.</p><p>You will have to recall their names during the rest of the experiment, so it is</p><p>essential that you try to memorise these people and their names as best as you can.</p><br><p><strong>You will then be tested on your memory of these names and portraits.</strong></p><br><p>The experiment will start after you have completed this memory test.</p><br><p>Ready?</p>",0,html-button-response,2,71237,0.0-2.0,46998,List2A,white,man,,,,,,,,
33288,"<img src='img/portrait_matrix_list2.jpg' style='width:900px;height:500px;''></img><p>If you have memorised all the portraits and names and are ready to start, press Continue.</p><p><strong>Please note: Your memory of these faces will be tested 4 times during this experiment.</strong></p>",0,html-button-response,3,105527,0.0-3.0-0.0,46998,List2A,white,man,,,,,,,,
4381,"<img src=""portrait/BW2.jpg""style=""height:400px;""></img>",2,html-button-response,4,110913,0.0-3.0-1.0,46998,List2A,white,man,,TRUE,2,,,,,
null,CORRECT,,html-keyboard-response,5,112419,0.0-3.0-2.0-0.0,46998,List2A,white,man,,,,null,,,,
2274,"<img src=""portrait/BM2.jpg""style=""height:400px;""></img>",5,html-button-response,6,114694,0.0-3.0-4.0,46998,List2A,white,man,,TRUE,5,,,,,
null,CORRECT,,html-keyboard-response,7,116198,0.0-3.0-5.0-0.0,46998,List2A,white,man,,,,null,,,,
3904,"<img src=""portrait/BM1.jpg""style=""height:400px;""></img>",4,html-button-response,8,120105,0.0-3.0-7.0,46998,List2A,white,man,,TRUE,4,,,,,
null,CORRECT,,html-keyboard-response,9,121609,0.0-3.0-8.0-0.0,46998,List2A,white,man,,,,null,,,,
3703,"<img src=""portrait/WM2.jpg""style=""height:400px;""></img>",6,html-button-response,10,125314,0.0-3.0-10.0,46998,List2A,white,man,,TRUE,7,,,,,
2707,"<img src=""portrait/WM2.jpg""style=""height:400px;""></img>",7,html-button-response,11,129023,0.0-3.0-12.0-0.0,46998,List2A,white,man,,FALSE,7,,,,,
null,CORRECT,,html-keyboard-response,12,130528,0.0-3.0-12.0-1.0-0.0,46998,List2A,white,man,,,,null,,,,
6338,"<img src=""portrait/WW2.jpg""style=""height:400px;""></img>",3,html-button-response,13,136867,0.0-3.0-13.0,46998,List2A,white,man,,TRUE,3,,,,,
null,CORRECT,,html-keyboard-response,14,138371,0.0-3.0-14.0-0.0,46998,List2A,white,man,,,,null,,,,
2201,"<img src=""portrait/BW1.jpg""style=""height:400px;""></img>",2,html-button-response,15,140573,0.0-3.0-16.0,46998,List2A,white,man,,TRUE,0,,,,,
2102,"<img src=""portrait/BW1.jpg""style=""height:400px;""></img>",0,html-button-response,16,143678,0.0-3.0-18.0-0.0,46998,List2A,white,man,,FALSE,0,,,,,
null,CORRECT,,html-keyboard-response,17,145183,0.0-3.0-18.0-1.0-0.0,46998,List2A,white,man,,,,null,,,,
2042,"<img src=""portrait/WM1.jpg""style=""height:400px;""></img>",6,html-button-response,18,147226,0.0-3.0-19.0,46998,List2A,white,man,,TRUE,6,,,,,
null,CORRECT,,html-keyboard-response,19,148731,0.0-3.0-20.0-0.0,46998,List2A,white,man,,,,null,,,,
2288,"<img src=""portrait/WW1.jpg""style=""height:400px;""></img>",1,html-button-response,20,151020,0.0-3.0-22.0,46998,List2A,white,man,,TRUE,1,,,,,
null,CORRECT,,html-keyboard-response,21,152524,0.0-3.0-23.0-0.0,46998,List2A,white,man,,,,null,,,,
1647,<p>You got 6 out of 8 right first time. Press Continue.</p>,0,html-button-response,22,154173,0.0-3.0-25.0,46998,List2A,white,man,,,,,,,,
2905,"As you did not score 100%, the memory game will repeat. Press Continue.",0,html-button-response,23,158080,0.0-3.0-26.0-0.0,46998,List2A,white,man,,,,,,,,
4886,"<img src='img/portrait_matrix_list2.jpg' style='width:900px;height:500px;''></img><p>If you have memorised all the portraits and names and are ready to start, press Continue.</p><p><strong>Please note: Your memory of these faces will be tested 4 times during this experiment.</strong></p>",0,html-button-response,24,163970,0.0-3.1-0.1,46998,List2A,white,man,,,,,,,,
3948,"<img src=""portrait/BW2.jpg""style=""height:400px;""></img>",2,html-button-response,25,168921,0.0-3.1-1.1,46998,List2A,white,man,,TRUE,2,,,,,
null,CORRECT,,html-keyboard-response,26,170426,0.0-3.1-2.1-0.1,46998,List2A,white,man,,,,null,,,,
2055,"<img src=""portrait/BM2.jpg""style=""height:400px;""></img>",5,html-button-response,27,172482,0.0-3.1-4.1,46998,List2A,white,man,,TRUE,5,,,,,
null,CORRECT,,html-keyboard-response,28,173986,0.0-3.1-5.1-0.1,46998,List2A,white,man,,,,null,,,,
4524,"<img src=""portrait/BM1.jpg""style=""height:400px;""></img>",4,html-button-response,29,178511,0.0-3.1-7.1,46998,List2A,white,man,,TRUE,4,,,,,
null,CORRECT,,html-keyboard-response,30,180015,0.0-3.1-8.1-0.1,46998,List2A,white,man,,,,null,,,,
2533,"<img src=""portrait/WM2.jpg""style=""height:400px;""></img>",7,html-button-response,31,182551,0.0-3.1-10.1,46998,List2A,white,man,,TRUE,7,,,,,
null,CORRECT,,html-keyboard-response,32,184055,0.0-3.1-11.1-0.1,46998,List2A,white,man,,,,null,,,,
3297,"<img src=""portrait/WW2.jpg""style=""height:400px;""></img>",3,html-button-response,33,187355,0.0-3.1-13.1,46998,List2A,white,man,,TRUE,3,,,,,
null,CORRECT,,html-keyboard-response,34,188859,0.0-3.1-14.1-0.1,46998,List2A,white,man,,,,null,,,,
1831,"<img src=""portrait/BW1.jpg""style=""height:400px;""></img>",0,html-button-response,35,190691,0.0-3.1-16.1,46998,List2A,white,man,,TRUE,0,,,,,
null,CORRECT,,html-keyboard-response,36,192195,0.0-3.1-17.1-0.1,46998,List2A,white,man,,,,null,,,,
2422,"<img src=""portrait/WM1.jpg""style=""height:400px;""></img>",6,html-button-response,37,194619,0.0-3.1-19.1,46998,List2A,white,man,,TRUE,6,,,,,
null,CORRECT,,html-keyboard-response,38,196123,0.0-3.1-20.1-0.1,46998,List2A,white,man,,,,null,,,,
1862,"<img src=""portrait/WW1.jpg""style=""height:400px;""></img>",1,html-button-response,39,197987,0.0-3.1-22.1,46998,List2A,white,man,,TRUE,1,,,,,
null,CORRECT,,html-keyboard-response,40,199492,0.0-3.1-23.1-0.1,46998,List2A,white,man,,,,null,,,,
1945,<p>You got 8 out of 8 right first time. Press Continue.</p>,0,html-button-response,41,201438,0.0-3.1-25.1,46998,List2A,white,man,,,,,,,,
27972,"<p>In this experiment, you will view photographs of the people from the memory game interacting.</p><p>By using the <strong>exact</strong> phrase given <i>after</i> the photograph appears and recalling the correct names of the people in the photographs, form a sentence describing the interaction. You do not need to capitalise names.</p><p>Type your answer in the space provided. Please complete every sentence before moving onto the next trial.</p><p>You will only have a few seconds to memorise each given photograph and phrase before you can respond, so try your best to focus.</p><p>An example is given below. Press 'Continue' when you are ready.</p><img src='img/speaking_example.jpg' style='width:800px;height:460px;''></img>",0,html-button-response,42,230414,0.0-4.0,46998,List2A,white,man,,,,,,,,
3083,"<p>Before the experiment starts, you will watch two example trials. Press 'Continue'.</p>",0,html-button-response,43,234500,0.0-5.0,46998,List2A,white,man,,,,,,,,
null,<img src='img/meet_eg.gif' style='height:400px;''></img>,,html-keyboard-response,44,237504,0.0-6.0,46998,List2A,white,man,,,,null,,,,
null,<p>is meeting</p>,,html-keyboard-response,45,239507,0.0-7.0,46998,List2A,white,man,,,,null,,,,
2802,<p><b>Answer:</b> jane is meeting ruth</p>,0,html-button-response,46,242310,0.0-8.0,46998,List2A,white,man,,,,,,,,
null,<img src='img/look_eg.gif' style='height:400px;''></img>,,html-keyboard-response,47,245314,0.0-9.0,46998,List2A,white,man,,,,null,,,,
null,<p>are looking at each other</p>,,html-keyboard-response,48,247320,0.0-10.0,46998,List2A,white,man,,,,null,,,,
2930,<p><b>Answer:</b> fred and mike are looking at each other</p>,0,html-button-response,49,250251,0.0-11.0,46998,List2A,white,man,,,,,,,,
13199,"<p>Ready to start the experiment?</p><br><p><strong>Remember to describe the picture using a full sentence,</strong></p><p><strong>that combines the names of the people with the <i>exact</i> phrase given.</strong></p><p><strong>To receive full payment you must do this correctly.</strong></p><p><strong> You do not need to capitalise names or use punctuation.</strong></p><br><p>Press 'Continue' to begin.</p>",0,html-button-response,50,264452,0.0-12.0,46998,List2A,white,man,,,,,,,,
null,"<div style=""font-size:60px;"">+</div>",,html-keyboard-response,51,265957,0.0-13.0-0.0,46998,List2A,white,man,,,,null,,,,
null,"<img src=""stim_listA/argue5.gif""style=""height:400px;""></stim_listA>",,html-keyboard-response,52,267961,0.0-13.0-1.0,46998,List2A,white,man,,,,null,,,,
null,is arguing with,,html-keyboard-response,53,269966,0.0-13.0-2.0,46998,List2A,white,man,,,,null,,,,
18181,,,survey-text,54,288149,0.0-13.0-3.0,46998,List2A,white,man,,,,,"{""Q0"":""fred is arguing with dave""}","<img src=""stim_listA/argue5.gif""style=""height:400px;""></stim_listA>",is arguing with,
null,"<div style=""font-size:60px;"">+</div>",,html-keyboard-response,55,288652,0.0-13.0-0.1,46998,List2A,white,man,,,,null,,,,
null,"<img src=""stim_listA/shout6.gif""style=""height:400px;""></stim_listA>",,html-keyboard-response,56,290656,0.0-13.0-1.1,46998,List2A,white,man,,,,null,,,,
null,are shouting at each other,,html-keyboard-response,57,292659,0.0-13.0-2.1,46998,List2A,white,man,,,,null,,,,
16586,,,survey-text,58,309247,0.0-13.0-3.1,46998,List2A,white,man,,,,,"{""Q0"":""Dave are shouting at mike ""}","<img src=""stim_listA/shout6.gif""style=""height:400px;""></stim_listA>",are shouting at each other,
null,"<div style=""font-size:60px;"">+</div>",,html-keyboard-response,59,309750,0.0-13.0-0.2,46998,List2A,white,man,,,,null,,,,
null,"<img src=""stim_listA/dance7.gif""style=""height:400px;""></stim_listA>",,html-keyboard-response,60,311753,0.0-13.0-1.2,46998,List2A,white,man,,,,null,,,,
null,is dancing with,,html-keyboard-response,61,313756,0.0-13.0-2.2,46998,List2A,white,man,,,,null,,,,
9035,,,survey-text,62,322793,0.0-13.0-3.2,46998,List2A,white,man,,,,,"{""Q0"":""ruth is dancing with Kate""}","<img src=""stim_listA/dance7.gif""style=""height:400px;""></stim_listA>",is dancing with,
null,"<div style=""font-size:60px;"">+</div>",,html-keyboard-response,63,323296,0.0-13.0-0.3,46998,List2A,white,man,,,,null,,,,
null,"<img src=""stim_listA/play6.gif""style=""height:400px;""></stim_listA>",,html-keyboard-response,64,325299,0.0-13.0-1.3,46998,List2A,white,man,,,,null,,,,
null,are playing with each other,,html-keyboard-response,65,327302,0.0-13.0-2.3,46998,List2A,white,man,,,,null,,,,
15448,,,survey-text,66,342751,0.0-13.0-3.3,46998,List2A,white,man,,,,,"{""Q0"":""Fred are playing with Luke ""}","<img src=""stim_listA/play6.gif""style=""height:400px;""></stim_listA>",are playing with each other,
null,"<div style=""font-size:60px;"">+</div>",,html-keyboard-response,67,343254,0.0-13.0-0.4,46998,List2A,white,man,,,,null,,,,
null,"<img src=""stim_listA/touch5.gif""style=""height:400px;""></stim_listA>",,html-keyboard-response,68,345257,0.0-13.0-1.4,46998,List2A,white,man,,,,null,,,,
null,is touching,,html-keyboard-response,69,347260,0.0-13.0-2.4,46998,List2A,white,man,,,,null,,,,
7822,,,survey-text,70,355085,0.0-13.0-3.4,46998,List2A,white,man,,,,,"{""Q0"":""mike is touching Dave""}","<img src=""stim_listA/touch5.gif""style=""height:400px;""></stim_listA>",is touching,
null,"<div style=""font-size:60px;"">+</div>",,html-keyboard-response,71,355588,0.0-13.0-0.5,46998,List2A,white,man,,,,null,,,,
null,"<img src=""stim_listA/play2.gif""style=""height:400px;""></stim_listA>",,html-keyboard-response,72,357591,0.0-13.0-1.5,46998,List2A,white,man,,,,null,,,,
null,are playing with each other,,html-keyboard-response,73,359594,0.0-13.0-2.5,46998,List2A,white,man,,,,null,,,,
27934,,,survey-text,74,387530,0.0-13.0-3.5,46998,List2A,white,man,,,,,"{""Q0"":""ruth and Luke are playing with each other""}","<img src=""stim_listA/play2.gif""style=""height:400px;""></stim_listA>",are playing with each other,
null,"<div style=""font-size:60px;"">+</div>",,html-keyboard-response,75,388033,0.0-13.0-0.6,46998,List2A,white,man,,,,null,,,,
null,"<img src=""stim_listA/kiss2.gif""style=""height:400px;""></stim_listA>",,html-keyboard-response,76,390037,0.0-13.0-1.6,46998,List2A,white,man,,,,null,,,,
null,are kissing each other,,html-keyboard-response,77,392040,0.0-13.0-2.6,46998,List2A,white,man,,,,null,,,,
11215,,,survey-text,78,403256,0.0-13.0-3.6,46998,List2A,white,man,,,,,"{""Q0"":""Jane and Dave are kissing each other""}","<img src=""stim_listA/kiss2.gif""style=""height:400px;""></stim_listA>",are kissing each other,
null,"<div style=""font-size:60px;"">+</div>",,html-keyboard-response,79,403759,0.0-13.0-0.7,46998,List2A,white,man,,,,null,,,,
null,"<img src=""stim_listA/dance2.gif""style=""height:400px;""></stim_listA>",,html-keyboard-response,80,405763,0.0-13.0-1.7,46998,List2A,white,man,,,,null,,,,
null,are dancing with each other,,html-keyboard-response,81,407766,0.0-13.0-2.7,46998,List2A,white,man,,,,null,,,,
13300,,,survey-text,82,421068,0.0-13.0-3.7,46998,List2A,white,man,,,,,"{""Q0"":""ruth and Dave are dancing with each other ""}","<img src=""stim_listA/dance2.gif""style=""height:400px;""></stim_listA>",are dancing with each other,
null,"<div style=""font-size:60px;"">+</div>",,html-keyboard-response,83,421571,0.0-13.0-0.8,46998,List2A,white,man,,,,null,,,,
null,"<img src=""stim_listA/shout2.gif""style=""height:400px;""></stim_listA>",,html-keyboard-response,84,423574,0.0-13.0-1.8,46998,List2A,white,man,,,,null,,,,
null,are shouting at each other,,html-keyboard-response,85,425577,0.0-13.0-2.8,46998,List2A,white,man,,,,null,,,,
12276,,,survey-text,86,437855,0.0-13.0-3.8,46998,List2A,white,man,,,,,"{""Q0"":""Jane and Dave are shouting at each other""}","<img src=""stim_listA/shout2.gif""style=""height:400px;""></stim_listA>",are shouting at each other,
null,"<div style=""font-size:60px;"">+</div>",,html-keyboard-response,87,438358,0.0-13.0-0.9,46998,List2A,white,man,,,,null,,,,
null,"<img src=""stim_listA/marry4.gif""style=""height:400px;""></stim_listA>",,html-keyboard-response,88,440361,0.0-13.0-1.9,46998,List2A,white,man,,,,null,,,,
null,are marrying each other,,html-keyboard-response,89,442364,0.0-13.0-2.9,46998,List2A,white,man,,,,null,,,,
13410,,,survey-text,90,455776,0.0-13.0-3.9,46998,List2A,white,man,,,,,"{""Q0"":""Kate and fred are marrying each other ""}","<img src=""stim_listA/marry4.gif""style=""height:400px;""></stim_listA>",are marrying each other,
null,"<div style=""font-size:60px;"">+</div>",,html-keyboard-response,91,456279,0.0-13.0-0.10,46998,List2A,white,man,,,,null,,,,
null,"<img src=""stim_listA/touch4.gif""style=""height:400px;""></stim_listA>",,html-keyboard-response,92,458282,0.0-13.0-1.10,46998,List2A,white,man,,,,null,,,,
null,are touching each other,,html-keyboard-response,93,460285,0.0-13.0-2.10,46998,List2A,white,man,,,,null,,,,
9455,,,survey-text,94,469744,0.0-13.0-3.10,46998,List2A,white,man,,,,,"{""Q0"":""Beth and fred are touching each other ""}","<img src=""stim_listA/touch4.gif""style=""height:400px;""></stim_listA>",are touching each other,
null,"<div style=""font-size:60px;"">+</div>",,html-keyboard-response,95,470247,0.0-13.0-0.11,46998,List2A,white,man,,,,null,,,,
null,"<img src=""stim_listA/talk6.gif""style=""height:400px;""></stim_listA>",,html-keyboard-response,96,472251,0.0-13.0-1.11,46998,List2A,white,man,,,,null,,,,
null,are talking to each other,,html-keyboard-response,97,474255,0.0-13.0-2.11,46998,List2A,white,man,,,,null,,,,
8083,,,survey-text,98,482344,0.0-13.0-3.11,46998,List2A,white,man,,,,,"{""Q0"":""fred and Dave are talking to each other""}","<img src=""stim_listA/talk6.gif""style=""height:400px;""></stim_listA>",are talking to each other,
null,"<div style=""font-size:60px;"">+</div>",,html-keyboard-response,99,482848,0.0-13.0-0.12,46998,List2A,white,man,,,,null,,,,
null,"<img src=""stim_listA/fight7.gif""style=""height:400px;""></stim_listA>",,html-keyboard-response,100,484851,0.0-13.0-1.12,46998,List2A,white,man,,,,null,,,,
null,is fighting,,html-keyboard-response,101,486854,0.0-13.0-2.12,46998,List2A,white,man,,,,null,,,,
6091,,,survey-text,102,492946,0.0-13.0-3.12,46998,List2A,white,man,,,,,"{""Q0"":""Jane is fighting Kate ""}","<img src=""stim_listA/fight7.gif""style=""height:400px;""></stim_listA>",is fighting,
null,"<div style=""font-size:60px;"">+</div>",,html-keyboard-response,103,493449,0.0-13.0-0.13,46998,List2A,white,man,,,,null,,,,
null,"<img src=""stim_listA/fight1.gif""style=""height:400px;""></stim_listA>",,html-keyboard-response,104,495451,0.0-13.0-1.13,46998,List2A,white,man,,,,null,,,,
null,is fighting,,html-keyboard-response,105,497454,0.0-13.0-2.13,46998,List2A,white,man,,,,null,,,,
5310,,,survey-text,106,502766,0.0-13.0-3.13,46998,List2A,white,man,,,,,"{""Q0"":""Dave is fighting Jane ""}","<img src=""stim_listA/fight1.gif""style=""height:400px;""></stim_listA>",is fighting,
null,"<div style=""font-size:60px;"">+</div>",,html-keyboard-response,107,503269,0.0-13.0-0.14,46998,List2A,white,man,,,,null,,,,
null,"<img src=""stim_listA/flirt5.gif""style=""height:400px;""></stim_listA>",,html-keyboard-response,108,505272,0.0-13.0-1.14,46998,List2A,white,man,,,,null,,,,
null,is flirting with,,html-keyboard-response,109,507275,0.0-13.0-2.14,46998,List2A,white,man,,,,null,,,,
7749,,,survey-text,110,515026,0.0-13.0-3.14,46998,List2A,white,man,,,,,"{""Q0"":""mike is flirting with Luke ""}","<img src=""stim_listA/flirt5.gif""style=""height:400px;""></stim_listA>",is flirting with,
null,"<div style=""font-size:60px;"">+</div>",,html-keyboard-response,111,515529,0.0-13.0-0.15,46998,List2A,white,man,,,,null,,,,
null,"<img src=""stim_listA/play8.gif""style=""height:400px;""></stim_listA>",,html-keyboard-response,112,517533,0.0-13.0-1.15,46998,List2A,white,man,,,,null,,,,
null,are playing with each other,,html-keyboard-response,113,519536,0.0-13.0-2.15,46998,List2A,white,man,,,,null,,,,
11419,,,survey-text,114,530957,0.0-13.0-3.15,46998,List2A,white,man,,,,,"{""Q0"":""Beth and ruth are playing with each other""}","<img src=""stim_listA/play8.gif""style=""height:400px;""></stim_listA>",are playing with each other,
null,"<div style=""font-size:60px;"">+</div>",,html-keyboard-response,115,531461,0.0-13.0-0.16,46998,List2A,white,man,,,,null,,,,
null,"<img src=""stim_listA/marry5.gif""style=""height:400px;""></stim_listA>",,html-keyboard-response,116,533463,0.0-13.0-1.16,46998,List2A,white,man,,,,null,,,,
null,is marrying,,html-keyboard-response,117,535466,0.0-13.0-2.16,46998,List2A,white,man,,,,null,,,,
6970,,,survey-text,118,542437,0.0-13.0-3.16,46998,List2A,white,man,,,,,"{""Q0"":""Dave is marrying fred""}","<img src=""stim_listA/marry5.gif""style=""height:400px;""></stim_listA>",is marrying,
null,"<div style=""font-size:60px;"">+</div>",,html-keyboard-response,119,542941,0.0-13.0-0.17,46998,List2A,white,man,,,,null,,,,
null,"<img src=""stim_listA/argue2.gif""style=""height:400px;""></stim_listA>",,html-keyboard-response,120,544944,0.0-13.0-1.17,46998,List2A,white,man,,,,null,,,,
null,are arguing with each other,,html-keyboard-response,121,546947,0.0-13.0-2.17,46998,List2A,white,man,,,,null,,,,
11061,,,survey-text,122,558012,0.0-13.0-3.17,46998,List2A,white,man,,,,,"{""Q0"":""Jane and Luke are arguing with each other ""}","<img src=""stim_listA/argue2.gif""style=""height:400px;""></stim_listA>",are arguing with each other,
null,"<div style=""font-size:60px;"">+</div>",,html-keyboard-response,123,558515,0.0-13.0-0.18,46998,List2A,white,man,,,,null,,,,
null,"<img src=""stim_listA/kiss6.gif""style=""height:400px;""></stim_listA>",,html-keyboard-response,124,560518,0.0-13.0-1.18,46998,List2A,white,man,,,,null,,,,
null,are kissing each other,,html-keyboard-response,125,562521,0.0-13.0-2.18,46998,List2A,white,man,,,,null,,,,
8868,,,survey-text,126,571390,0.0-13.0-3.18,46998,List2A,white,man,,,,,"{""Q0"":""mike and Dave are kissing each other ""}","<img src=""stim_listA/kiss6.gif""style=""height:400px;""></stim_listA>",are kissing each other,
null,"<div style=""font-size:60px;"">+</div>",,html-keyboard-response,127,571893,0.0-13.0-0.19,46998,List2A,white,man,,,,null,,,,
null,"<img src=""stim_listA/play7.gif""style=""height:400px;""></stim_listA>",,html-keyboard-response,128,573897,0.0-13.0-1.19,46998,List2A,white,man,,,,null,,,,
null,is playing with,,html-keyboard-response,129,575900,0.0-13.0-2.19,46998,List2A,white,man,,,,null,,,,
5849,,,survey-text,130,581751,0.0-13.0-3.19,46998,List2A,white,man,,,,,"{""Q0"":""Jane is playing with Kate ""}","<img src=""stim_listA/play7.gif""style=""height:400px;""></stim_listA>",is playing with,
8244,"<img src='img/portrait_matrix_list2.jpg' style='width:900px;height:500px;''></img><p>If you have memorised all the portraits and names and are ready to start, press Continue.</p><p><strong>Please note: Your memory of these faces will be tested 4 times during this experiment.</strong></p>",0,html-button-response,131,589997,0.0-14.0-0.0,46998,List2A,white,man,,,,,,,,
2561,"<img src=""portrait/BM2.jpg""style=""height:400px;""></img>",5,html-button-response,132,593562,0.0-14.0-1.0,46998,List2A,white,man,,TRUE,5,,,,,
null,CORRECT,,html-keyboard-response,133,595066,0.0-14.0-2.0-0.0,46998,List2A,white,man,,,,null,,,,
2013,"<img src=""portrait/BM1.jpg""style=""height:400px;""></img>",4,html-button-response,134,597083,0.0-14.0-4.0,46998,List2A,white,man,,TRUE,4,,,,,
null,CORRECT,,html-keyboard-response,135,598587,0.0-14.0-5.0-0.0,46998,List2A,white,man,,,,null,,,,
2462,"<img src=""portrait/WW1.jpg""style=""height:400px;""></img>",1,html-button-response,136,601052,0.0-14.0-7.0,46998,List2A,white,man,,TRUE,1,,,,,
null,CORRECT,,html-keyboard-response,137,602556,0.0-14.0-8.0-0.0,46998,List2A,white,man,,,,null,,,,
1903,"<img src=""portrait/BW1.jpg""style=""height:400px;""></img>",0,html-button-response,138,604461,0.0-14.0-10.0,46998,List2A,white,man,,TRUE,0,,,,,
null,CORRECT,,html-keyboard-response,139,605965,0.0-14.0-11.0-0.0,46998,List2A,white,man,,,,null,,,,
1559,"<img src=""portrait/WW2.jpg""style=""height:400px;""></img>",3,html-button-response,140,607527,0.0-14.0-13.0,46998,List2A,white,man,,TRUE,3,,,,,
null,CORRECT,,html-keyboard-response,141,609031,0.0-14.0-14.0-0.0,46998,List2A,white,man,,,,null,,,,
1411,"<img src=""portrait/WM2.jpg""style=""height:400px;""></img>",7,html-button-response,142,610445,0.0-14.0-16.0,46998,List2A,white,man,,TRUE,7,,,,,
null,CORRECT,,html-keyboard-response,143,611949,0.0-14.0-17.0-0.0,46998,List2A,white,man,,,,null,,,,
3366,"<img src=""portrait/BW2.jpg""style=""height:400px;""></img>",2,html-button-response,144,615317,0.0-14.0-19.0,46998,List2A,white,man,,TRUE,2,,,,,
null,CORRECT,,html-keyboard-response,145,616821,0.0-14.0-20.0-0.0,46998,List2A,white,man,,,,null,,,,
1679,"<img src=""portrait/WM1.jpg""style=""height:400px;""></img>",6,html-button-response,146,618503,0.0-14.0-22.0,46998,List2A,white,man,,TRUE,6,,,,,
null,CORRECT,,html-keyboard-response,147,620007,0.0-14.0-23.0-0.0,46998,List2A,white,man,,,,null,,,,
1146,<p>You got 8 out of 8 right first time. Press Continue.</p>,0,html-button-response,148,621155,0.0-14.0-25.0,46998,List2A,white,man,,,,,,,,
null,"<div style=""font-size:60px;"">+</div>",,html-keyboard-response,149,622660,0.0-15.0-0.0,46998,List2A,white,man,,,,null,,,,
null,"<img src=""stim_listA/talk2.gif""style=""height:400px;""></stim_listA>",,html-keyboard-response,150,624663,0.0-15.0-1.0,46998,List2A,white,man,,,,null,,,,
null,are talking to each other,,html-keyboard-response,151,626667,0.0-15.0-2.0,46998,List2A,white,man,,,,null,,,,
8754,,,survey-text,152,635423,0.0-15.0-3.0,46998,List2A,white,man,,,,,"{""Q0"":""ruth and Dave are talking to each other""}","<img src=""stim_listA/talk2.gif""style=""height:400px;""></stim_listA>",are talking to each other,
null,"<div style=""font-size:60px;"">+</div>",,html-keyboard-response,153,635926,0.0-15.0-0.1,46998,List2A,white,man,,,,null,,,,
null,"<img src=""stim_listA/talk5.gif""style=""height:400px;""></stim_listA>",,html-keyboard-response,154,637930,0.0-15.0-1.1,46998,List2A,white,man,,,,null,,,,
null,is talking to,,html-keyboard-response,155,639933,0.0-15.0-2.1,46998,List2A,white,man,,,,null,,,,
5324,,,survey-text,156,645258,0.0-15.0-3.1,46998,List2A,white,man,,,,,"{""Q0"":""mike is talking to Luke ""}","<img src=""stim_listA/talk5.gif""style=""height:400px;""></stim_listA>",is talking to,
null,"<div style=""font-size:60px;"">+</div>",,html-keyboard-response,157,645761,0.0-15.0-0.2,46998,List2A,white,man,,,,null,,,,
null,"<img src=""stim_listA/play3.gif""style=""height:400px;""></stim_listA>",,html-keyboard-response,158,647765,0.0-15.0-1.2,46998,List2A,white,man,,,,null,,,,
null,is playing with,,html-keyboard-response,159,649768,0.0-15.0-2.2,46998,List2A,white,man,,,,null,,,,
5788,,,survey-text,160,655558,0.0-15.0-3.2,46998,List2A,white,man,,,,,"{""Q0"":""mike is playing with Kate ""}","<img src=""stim_listA/play3.gif""style=""height:400px;""></stim_listA>",is playing with,
null,"<div style=""font-size:60px;"">+</div>",,html-keyboard-response,161,656061,0.0-15.0-0.3,46998,List2A,white,man,,,,null,,,,
null,"<img src=""stim_listA/marry1.gif""style=""height:400px;""></stim_listA>",,html-keyboard-response,162,658064,0.0-15.0-1.3,46998,List2A,white,man,,,,null,,,,
null,is marrying,,html-keyboard-response,163,660068,0.0-15.0-2.3,46998,List2A,white,man,,,,null,,,,
6054,,,survey-text,164,666122,0.0-15.0-3.3,46998,List2A,white,man,,,,,"{""Q0"":""Dave is marrying ruth ""}","<img src=""stim_listA/marry1.gif""style=""height:400px;""></stim_listA>",is marrying,
null,"<div style=""font-size:60px;"">+</div>",,html-keyboard-response,165,666625,0.0-15.0-0.4,46998,List2A,white,man,,,,null,,,,
null,"<img src=""stim_listA/flirt7.gif""style=""height:400px;""></stim_listA>",,html-keyboard-response,166,668628,0.0-15.0-1.4,46998,List2A,white,man,,,,null,,,,
null,is flirting with,,html-keyboard-response,167,670632,0.0-15.0-2.4,46998,List2A,white,man,,,,null,,,,
11295,,,survey-text,168,681928,0.0-15.0-3.4,46998,List2A,white,man,,,,,"{""Q0"":""ruth is flirting with Kate ""}","<img src=""stim_listA/flirt7.gif""style=""height:400px;""></stim_listA>",is flirting with,
null,"<div style=""font-size:60px;"">+</div>",,html-keyboard-response,169,682431,0.0-15.0-0.5,46998,List2A,white,man,,,,null,,,,
null,"<img src=""stim_listA/fight2.gif""style=""height:400px;""></stim_listA>",,html-keyboard-response,170,684434,0.0-15.0-1.5,46998,List2A,white,man,,,,null,,,,
null,are fighting each other,,html-keyboard-response,171,686438,0.0-15.0-2.5,46998,List2A,white,man,,,,null,,,,
8807,,,survey-text,172,695247,0.0-15.0-3.5,46998,List2A,white,man,,,,,"{""Q0"":""ruth and Luke are fighting each other ""}","<img src=""stim_listA/fight2.gif""style=""height:400px;""></stim_listA>",are fighting each other,
null,"<div style=""font-size:60px;"">+</div>",,html-keyboard-response,173,695750,0.0-15.0-0.6,46998,List2A,white,man,,,,null,,,,
null,"<img src=""stim_listA/fight5.gif""style=""height:400px;""></stim_listA>",,html-keyboard-response,174,697753,0.0-15.0-1.6,46998,List2A,white,man,,,,null,,,,
null,is fighting,,html-keyboard-response,175,699756,0.0-15.0-2.6,46998,List2A,white,man,,,,null,,,,
7537,,,survey-text,176,707295,0.0-15.0-3.6,46998,List2A,white,man,,,,,"{""Q0"":""Dave is fighting mike""}","<img src=""stim_listA/fight5.gif""style=""height:400px;""></stim_listA>",is fighting,
null,"<div style=""font-size:60px;"">+</div>",,html-keyboard-response,177,707798,0.0-15.0-0.7,46998,List2A,white,man,,,,null,,,,
null,"<img src=""stim_listA/flirt1.gif""style=""height:400px;""></stim_listA>",,html-keyboard-response,178,709802,0.0-15.0-1.7,46998,List2A,white,man,,,,null,,,,
null,is flirting with,,html-keyboard-response,179,711805,0.0-15.0-2.7,46998,List2A,white,man,,,,null,,,,
8468,,,survey-text,180,720274,0.0-15.0-3.7,46998,List2A,white,man,,,,,"{""Q0"":""Jane is flirting with Luke ""}","<img src=""stim_listA/flirt1.gif""style=""height:400px;""></stim_listA>",is flirting with,
null,"<div style=""font-size:60px;"">+</div>",,html-keyboard-response,181,720777,0.0-15.0-0.8,46998,List2A,white,man,,,,null,,,,
null,"<img src=""stim_listA/talk4.gif""style=""height:400px;""></stim_listA>",,html-keyboard-response,182,722780,0.0-15.0-1.8,46998,List2A,white,man,,,,null,,,,
null,are talking to each other,,html-keyboard-response,183,724784,0.0-15.0-2.8,46998,List2A,white,man,,,,null,,,,
8784,,,survey-text,184,733569,0.0-15.0-3.8,46998,List2A,white,man,,,,,"{""Q0"":""Beth and mike are talking to each other ""}","<img src=""stim_listA/talk4.gif""style=""height:400px;""></stim_listA>",are talking to each other,
null,"<div style=""font-size:60px;"">+</div>",,html-keyboard-response,185,734072,0.0-15.0-0.9,46998,List2A,white,man,,,,null,,,,
null,"<img src=""stim_listA/argue3.gif""style=""height:400px;""></stim_listA>",,html-keyboard-response,186,736076,0.0-15.0-1.9,46998,List2A,white,man,,,,null,,,,
null,is arguing with,,html-keyboard-response,187,738078,0.0-15.0-2.9,46998,List2A,white,man,,,,null,,,,
6247,,,survey-text,188,744329,0.0-15.0-3.9,46998,List2A,white,man,,,,,"{""Q0"":""Beth is arguing with mike""}","<img src=""stim_listA/argue3.gif""style=""height:400px;""></stim_listA>",is arguing with,
null,"<div style=""font-size:60px;"">+</div>",,html-keyboard-response,189,744832,0.0-15.0-0.10,46998,List2A,white,man,,,,null,,,,
null,"<img src=""stim_listA/talk8.gif""style=""height:400px;""></stim_listA>",,html-keyboard-response,190,746836,0.0-15.0-1.10,46998,List2A,white,man,,,,null,,,,
null,are talking to each other,,html-keyboard-response,191,748839,0.0-15.0-2.10,46998,List2A,white,man,,,,null,,,,
7105,,,survey-text,192,755946,0.0-15.0-3.10,46998,List2A,white,man,,,,,"{""Q0"":""Beth and Jane are talking to each other ""}","<img src=""stim_listA/talk8.gif""style=""height:400px;""></stim_listA>",are talking to each other,
null,"<div style=""font-size:60px;"">+</div>",,html-keyboard-response,193,756449,0.0-15.0-0.11,46998,List2A,white,man,,,,null,,,,
null,"<img src=""stim_listA/dance6.gif""style=""height:400px;""></stim_listA>",,html-keyboard-response,194,758453,0.0-15.0-1.11,46998,List2A,white,man,,,,null,,,,
null,are dancing with each other,,html-keyboard-response,195,760456,0.0-15.0-2.11,46998,List2A,white,man,,,,null,,,,
8099,,,survey-text,196,768558,0.0-15.0-3.11,46998,List2A,white,man,,,,,"{""Q0"":""Dave and fred are dancing with each other ""}","<img src=""stim_listA/dance6.gif""style=""height:400px;""></stim_listA>",are dancing with each other,
null,"<div style=""font-size:60px;"">+</div>",,html-keyboard-response,197,769062,0.0-15.0-0.12,46998,List2A,white,man,,,,null,,,,
null,"<img src=""stim_listA/flirt8.gif""style=""height:400px;""></stim_listA>",,html-keyboard-response,198,771065,0.0-15.0-1.12,46998,List2A,white,man,,,,null,,,,
null,are flirting with each other,,html-keyboard-response,199,773068,0.0-15.0-2.12,46998,List2A,white,man,,,,null,,,,
10511,,,survey-text,200,783580,0.0-15.0-3.12,46998,List2A,white,man,,,,,"{""Q0"":""Beth and Jane are flirting with each other ""}","<img src=""stim_listA/flirt8.gif""style=""height:400px;""></stim_listA>",are flirting with each other,
null,"<div style=""font-size:60px;"">+</div>",,html-keyboard-response,201,784083,0.0-15.0-0.13,46998,List2A,white,man,,,,null,,,,
null,"<img src=""stim_listA/touch6.gif""style=""height:400px;""></stim_listA>",,html-keyboard-response,202,786086,0.0-15.0-1.13,46998,List2A,white,man,,,,null,,,,
null,are touching each other,,html-keyboard-response,203,788090,0.0-15.0-2.13,46998,List2A,white,man,,,,null,,,,
7405,,,survey-text,204,795496,0.0-15.0-3.13,46998,List2A,white,man,,,,,"{""Q0"":""fred and Luke are touching each other""}","<img src=""stim_listA/touch6.gif""style=""height:400px;""></stim_listA>",are touching each other,
null,"<div style=""font-size:60px;"">+</div>",,html-keyboard-response,205,795999,0.0-15.0-0.14,46998,List2A,white,man,,,,null,,,,
null,"<img src=""stim_listA/kiss5.gif""style=""height:400px;""></stim_listA>",,html-keyboard-response,206,798003,0.0-15.0-1.14,46998,List2A,white,man,,,,null,,,,
null,is kissing,,html-keyboard-response,207,800006,0.0-15.0-2.14,46998,List2A,white,man,,,,null,,,,
5432,,,survey-text,208,805439,0.0-15.0-3.14,46998,List2A,white,man,,,,,"{""Q0"":""fred is kissing Luke""}","<img src=""stim_listA/kiss5.gif""style=""height:400px;""></stim_listA>",is kissing,
null,"<div style=""font-size:60px;"">+</div>",,html-keyboard-response,209,805942,0.0-15.0-0.15,46998,List2A,white,man,,,,null,,,,
null,"<img src=""stim_listA/argue4.gif""style=""height:400px;""></stim_listA>",,html-keyboard-response,210,807946,0.0-15.0-1.15,46998,List2A,white,man,,,,null,,,,
null,are arguing with each other,,html-keyboard-response,211,809951,0.0-15.0-2.15,46998,List2A,white,man,,,,null,,,,
7860,,,survey-text,212,817812,0.0-15.0-3.15,46998,List2A,white,man,,,,,"{""Q0"":""Kate and fred vare arguing with each other""}","<img src=""stim_listA/argue4.gif""style=""height:400px;""></stim_listA>",are arguing with each other,
null,"<div style=""font-size:60px;"">+</div>",,html-keyboard-response,213,818316,0.0-15.0-0.16,46998,List2A,white,man,,,,null,,,,
null,"<img src=""stim_listA/play1.gif""style=""height:400px;""></stim_listA>",,html-keyboard-response,214,820319,0.0-15.0-1.16,46998,List2A,white,man,,,,null,,,,
null,is playing with,,html-keyboard-response,215,822322,0.0-15.0-2.16,46998,List2A,white,man,,,,null,,,,
6555,,,survey-text,216,828881,0.0-15.0-3.16,46998,List2A,white,man,,,,,"{""Q0"":""Dave is playing with Jane ""}","<img src=""stim_listA/play1.gif""style=""height:400px;""></stim_listA>",is playing with,
null,"<div style=""font-size:60px;"">+</div>",,html-keyboard-response,217,829384,0.0-15.0-0.17,46998,List2A,white,man,,,,null,,,,
null,"<img src=""stim_listA/marry3.gif""style=""height:400px;""></stim_listA>",,html-keyboard-response,218,831387,0.0-15.0-1.17,46998,List2A,white,man,,,,null,,,,
null,is marrying,,html-keyboard-response,219,833391,0.0-15.0-2.17,46998,List2A,white,man,,,,null,,,,
4443,,,survey-text,220,837834,0.0-15.0-3.17,46998,List2A,white,man,,,,,"{""Q0"":""mike is marrying Beth""}","<img src=""stim_listA/marry3.gif""style=""height:400px;""></stim_listA>",is marrying,
null,"<div style=""font-size:60px;"">+</div>",,html-keyboard-response,221,838337,0.0-15.0-0.18,46998,List2A,white,man,,,,null,,,,
null,"<img src=""stim_listA/touch1.gif""style=""height:400px;""></stim_listA>",,html-keyboard-response,222,840340,0.0-15.0-1.18,46998,List2A,white,man,,,,null,,,,
null,is touching,,html-keyboard-response,223,842344,0.0-15.0-2.18,46998,List2A,white,man,,,,null,,,,
5104,,,survey-text,224,847449,0.0-15.0-3.18,46998,List2A,white,man,,,,,"{""Q0"":""Dave is touching Jane""}","<img src=""stim_listA/touch1.gif""style=""height:400px;""></stim_listA>",is touching,
null,"<div style=""font-size:60px;"">+</div>",,html-keyboard-response,225,847952,0.0-15.0-0.19,46998,List2A,white,man,,,,null,,,,
null,"<img src=""stim_listA/flirt2.gif""style=""height:400px;""></stim_listA>",,html-keyboard-response,226,849955,0.0-15.0-1.19,46998,List2A,white,man,,,,null,,,,
null,are flirting with each other,,html-keyboard-response,227,851958,0.0-15.0-2.19,46998,List2A,white,man,,,,null,,,,
9463,,,survey-text,228,861423,0.0-15.0-3.19,46998,List2A,white,man,,,,,"{""Q0"":""ruth and Dave are flirting with each other""}","<img src=""stim_listA/flirt2.gif""style=""height:400px;""></stim_listA>",are flirting with each other,
1892,"<img src='img/portrait_matrix_list2.jpg' style='width:900px;height:500px;''></img><p>If you have memorised all the portraits and names and are ready to start, press Continue.</p><p><strong>Please note: Your memory of these faces will be tested 4 times during this experiment.</strong></p>",0,html-button-response,229,863317,0.0-16.0-0.0,46998,List2A,white,man,,,,,,,,
1409,"<img src=""portrait/BW1.jpg""style=""height:400px;""></img>",0,html-button-response,230,865728,0.0-16.0-1.0,46998,List2A,white,man,,TRUE,0,,,,,
null,CORRECT,,html-keyboard-response,231,867232,0.0-16.0-2.0-0.0,46998,List2A,white,man,,,,null,,,,
1352,"<img src=""portrait/WW2.jpg""style=""height:400px;""></img>",3,html-button-response,232,868587,0.0-16.0-4.0,46998,List2A,white,man,,TRUE,3,,,,,
null,CORRECT,,html-keyboard-response,233,870091,0.0-16.0-5.0-0.0,46998,List2A,white,man,,,,null,,,,
1764,"<img src=""portrait/BM2.jpg""style=""height:400px;""></img>",5,html-button-response,234,871858,0.0-16.0-7.0,46998,List2A,white,man,,TRUE,5,,,,,
null,CORRECT,,html-keyboard-response,235,873365,0.0-16.0-8.0-0.0,46998,List2A,white,man,,,,null,,,,
1378,"<img src=""portrait/WM2.jpg""style=""height:400px;""></img>",7,html-button-response,236,874747,0.0-16.0-10.0,46998,List2A,white,man,,TRUE,7,,,,,
null,CORRECT,,html-keyboard-response,237,876251,0.0-16.0-11.0-0.0,46998,List2A,white,man,,,,null,,,,
2092,"<img src=""portrait/BM1.jpg""style=""height:400px;""></img>",4,html-button-response,238,878346,0.0-16.0-13.0,46998,List2A,white,man,,TRUE,4,,,,,
null,CORRECT,,html-keyboard-response,239,879850,0.0-16.0-14.0-0.0,46998,List2A,white,man,,,,null,,,,
1861,"<img src=""portrait/BW2.jpg""style=""height:400px;""></img>",2,html-button-response,240,881714,0.0-16.0-16.0,46998,List2A,white,man,,TRUE,2,,,,,
null,CORRECT,,html-keyboard-response,241,883218,0.0-16.0-17.0-0.0,46998,List2A,white,man,,,,null,,,,
1818,"<img src=""portrait/WM1.jpg""style=""height:400px;""></img>",6,html-button-response,242,885038,0.0-16.0-19.0,46998,List2A,white,man,,TRUE,6,,,,,
null,CORRECT,,html-keyboard-response,243,886542,0.0-16.0-20.0-0.0,46998,List2A,white,man,,,,null,,,,
1586,"<img src=""portrait/WW1.jpg""style=""height:400px;""></img>",1,html-button-response,244,888132,0.0-16.0-22.0,46998,List2A,white,man,,TRUE,1,,,,,
null,CORRECT,,html-keyboard-response,245,889636,0.0-16.0-23.0-0.0,46998,List2A,white,man,,,,null,,,,
1142,<p>You got 8 out of 8 right first time. Press Continue.</p>,0,html-button-response,246,890779,0.0-16.0-25.0,46998,List2A,white,man,,,,,,,,
null,"<div style=""font-size:60px;"">+</div>",,html-keyboard-response,247,892286,0.0-17.0-0.0,46998,List2A,white,man,,,,null,,,,
null,"<img src=""stim_listA/marry2.gif""style=""height:400px;""></stim_listA>",,html-keyboard-response,248,894290,0.0-17.0-1.0,46998,List2A,white,man,,,,null,,,,
null,are marrying each other,,html-keyboard-response,249,896293,0.0-17.0-2.0,46998,List2A,white,man,,,,null,,,,
7199,,,survey-text,250,903493,0.0-17.0-3.0,46998,List2A,white,man,,,,,"{""Q0"":""Jane and Luke are marrying each other ""}","<img src=""stim_listA/marry2.gif""style=""height:400px;""></stim_listA>",are marrying each other,
null,"<div style=""font-size:60px;"">+</div>",,html-keyboard-response,251,903997,0.0-17.0-0.1,46998,List2A,white,man,,,,null,,,,
null,"<img src=""stim_listA/kiss1.gif""style=""height:400px;""></stim_listA>",,html-keyboard-response,252,906000,0.0-17.0-1.1,46998,List2A,white,man,,,,null,,,,
null,is kissing,,html-keyboard-response,253,908003,0.0-17.0-2.1,46998,List2A,white,man,,,,null,,,,
5014,,,survey-text,254,913020,0.0-17.0-3.1,46998,List2A,white,man,,,,,"{""Q0"":""Luke is kissing ruth ""}","<img src=""stim_listA/kiss1.gif""style=""height:400px;""></stim_listA>",is kissing,
null,"<div style=""font-size:60px;"">+</div>",,html-keyboard-response,255,913523,0.0-17.0-0.2,46998,List2A,white,man,,,,null,,,,
null,"<img src=""stim_listA/flirt6.gif""style=""height:400px;""></stim_listA>",,html-keyboard-response,256,915525,0.0-17.0-1.2,46998,List2A,white,man,,,,null,,,,
null,are flirting with each other,,html-keyboard-response,257,917528,0.0-17.0-2.2,46998,List2A,white,man,,,,null,,,,
8329,,,survey-text,258,925860,0.0-17.0-3.2,46998,List2A,white,man,,,,,"{""Q0"":""fred and Dave are flirting with each other""}","<img src=""stim_listA/flirt6.gif""style=""height:400px;""></stim_listA>",are flirting with each other,
null,"<div style=""font-size:60px;"">+</div>",,html-keyboard-response,259,926363,0.0-17.0-0.3,46998,List2A,white,man,,,,null,,,,
null,"<img src=""stim_listA/play5.gif""style=""height:400px;""></stim_listA>",,html-keyboard-response,260,928367,0.0-17.0-1.3,46998,List2A,white,man,,,,null,,,,
null,is playing with,,html-keyboard-response,261,930370,0.0-17.0-2.3,46998,List2A,white,man,,,,null,,,,
7679,,,survey-text,262,938053,0.0-17.0-3.3,46998,List2A,white,man,,,,,"{""Q0"":""mike is playing with Dave""}","<img src=""stim_listA/play5.gif""style=""height:400px;""></stim_listA>",is playing with,
null,"<div style=""font-size:60px;"">+</div>",,html-keyboard-response,263,938556,0.0-17.0-0.4,46998,List2A,white,man,,,,null,,,,
null,"<img src=""stim_listA/kiss4.gif""style=""height:400px;""></stim_listA>",,html-keyboard-response,264,940559,0.0-17.0-1.4,46998,List2A,white,man,,,,null,,,,
null,are kissing each other,,html-keyboard-response,265,942562,0.0-17.0-2.4,46998,List2A,white,man,,,,null,,,,
7784,,,survey-text,266,950347,0.0-17.0-3.4,46998,List2A,white,man,,,,,"{""Q0"":""Kate and mike are kissing each other ""}","<img src=""stim_listA/kiss4.gif""style=""height:400px;""></stim_listA>",are kissing each other,
null,"<div style=""font-size:60px;"">+</div>",,html-keyboard-response,267,950852,0.0-17.0-0.5,46998,List2A,white,man,,,,null,,,,
null,"<img src=""stim_listA/argue1.gif""style=""height:400px;""></stim_listA>",,html-keyboard-response,268,952856,0.0-17.0-1.5,46998,List2A,white,man,,,,null,,,,
null,is arguing with,,html-keyboard-response,269,954859,0.0-17.0-2.5,46998,List2A,white,man,,,,null,,,,
5413,,,survey-text,270,960275,0.0-17.0-3.5,46998,List2A,white,man,,,,,"{""Q0"":""Dave is arguing with ruth""}","<img src=""stim_listA/argue1.gif""style=""height:400px;""></stim_listA>",is arguing with,
null,"<div style=""font-size:60px;"">+</div>",,html-keyboard-response,271,960778,0.0-17.0-0.6,46998,List2A,white,man,,,,null,,,,
null,"<img src=""stim_listA/shout1.gif""style=""height:400px;""></stim_listA>",,html-keyboard-response,272,962782,0.0-17.0-1.6,46998,List2A,white,man,,,,null,,,,
null,is shouting at,,html-keyboard-response,273,964785,0.0-17.0-2.6,46998,List2A,white,man,,,,null,,,,
5535,,,survey-text,274,970321,0.0-17.0-3.6,46998,List2A,white,man,,,,,"{""Q0"":""ruth is shouting at Luke""}","<img src=""stim_listA/shout1.gif""style=""height:400px;""></stim_listA>",is shouting at,
null,"<div style=""font-size:60px;"">+</div>",,html-keyboard-response,275,970824,0.0-17.0-0.7,46998,List2A,white,man,,,,null,,,,
null,"<img src=""stim_listA/marry8.gif""style=""height:400px;""></stim_listA>",,html-keyboard-response,276,972827,0.0-17.0-1.7,46998,List2A,white,man,,,,null,,,,
null,are marrying each other,,html-keyboard-response,277,974831,0.0-17.0-2.7,46998,List2A,white,man,,,,null,,,,
9933,,,survey-text,278,984767,0.0-17.0-3.7,46998,List2A,white,man,,,,,"{""Q0"":""Kate and ruth are marrying each other""}","<img src=""stim_listA/marry8.gif""style=""height:400px;""></stim_listA>",are marrying each other,
null,"<div style=""font-size:60px;"">+</div>",,html-keyboard-response,279,985270,0.0-17.0-0.8,46998,List2A,white,man,,,,null,,,,
null,"<img src=""stim_listA/kiss3.gif""style=""height:400px;""></stim_listA>",,html-keyboard-response,280,987274,0.0-17.0-1.8,46998,List2A,white,man,,,,null,,,,
null,is kissing,,html-keyboard-response,281,989277,0.0-17.0-2.8,46998,List2A,white,man,,,,null,,,,
6763,,,survey-text,282,996041,0.0-17.0-3.8,46998,List2A,white,man,,,,,"{""Q0"":""fred is kissing Beth""}","<img src=""stim_listA/kiss3.gif""style=""height:400px;""></stim_listA>",is kissing,
null,"<div style=""font-size:60px;"">+</div>",,html-keyboard-response,283,996545,0.0-17.0-0.9,46998,List2A,white,man,,,,null,,,,
null,"<img src=""stim_listA/argue8.gif""style=""height:400px;""></stim_listA>",,html-keyboard-response,284,998548,0.0-17.0-1.9,46998,List2A,white,man,,,,null,,,,
null,are arguing with each other,,html-keyboard-response,285,1000551,0.0-17.0-2.9,46998,List2A,white,man,,,,null,,,,
7988,,,survey-text,286,1008540,0.0-17.0-3.9,46998,List2A,white,man,,,,,"{""Q0"":""Kate and ruth are arguing with each other""}","<img src=""stim_listA/argue8.gif""style=""height:400px;""></stim_listA>",are arguing with each other,
null,"<div style=""font-size:60px;"">+</div>",,html-keyboard-response,287,1009044,0.0-17.0-0.10,46998,List2A,white,man,,,,null,,,,
null,"<img src=""stim_listA/talk7.gif""style=""height:400px;""></stim_listA>",,html-keyboard-response,288,1011047,0.0-17.0-1.10,46998,List2A,white,man,,,,null,,,,
null,is talking to,,html-keyboard-response,289,1013050,0.0-17.0-2.10,46998,List2A,white,man,,,,null,,,,
6593,,,survey-text,290,1019644,0.0-17.0-3.10,46998,List2A,white,man,,,,,"{""Q0"":""Kate is talking to ruth""}","<img src=""stim_listA/talk7.gif""style=""height:400px;""></stim_listA>",is talking to,
null,"<div style=""font-size:60px;"">+</div>",,html-keyboard-response,291,1020147,0.0-17.0-0.11,46998,List2A,white,man,,,,null,,,,
null,"<img src=""stim_listA/fight8.gif""style=""height:400px;""></stim_listA>",,html-keyboard-response,292,1022150,0.0-17.0-1.11,46998,List2A,white,man,,,,null,,,,
null,are fighting each other,,html-keyboard-response,293,1024156,0.0-17.0-2.11,46998,List2A,white,man,,,,null,,,,
8523,,,survey-text,294,1032680,0.0-17.0-3.11,46998,List2A,white,man,,,,,"{""Q0"":""Beth and ruth are fighting each other""}","<img src=""stim_listA/fight8.gif""style=""height:400px;""></stim_listA>",are fighting each other,
null,"<div style=""font-size:60px;"">+</div>",,html-keyboard-response,295,1033183,0.0-17.0-0.12,46998,List2A,white,man,,,,null,,,,
null,"<img src=""stim_listA/dance3.gif""style=""height:400px;""></stim_listA>",,html-keyboard-response,296,1035187,0.0-17.0-1.12,46998,List2A,white,man,,,,null,,,,
null,is dancing with,,html-keyboard-response,297,1037190,0.0-17.0-2.12,46998,List2A,white,man,,,,null,,,,
6026,,,survey-text,298,1043218,0.0-17.0-3.12,46998,List2A,white,man,,,,,"{""Q0"":""Kate is dancing with fred""}","<img src=""stim_listA/dance3.gif""style=""height:400px;""></stim_listA>",is dancing with,
null,"<div style=""font-size:60px;"">+</div>",,html-keyboard-response,299,1043721,0.0-17.0-0.13,46998,List2A,white,man,,,,null,,,,
null,"<img src=""stim_listA/argue6.gif""style=""height:400px;""></stim_listA>",,html-keyboard-response,300,1045725,0.0-17.0-1.13,46998,List2A,white,man,,,,null,,,,
null,are arguing with each other,,html-keyboard-response,301,1047728,0.0-17.0-2.13,46998,List2A,white,man,,,,null,,,,
8723,,,survey-text,302,1056453,0.0-17.0-3.13,46998,List2A,white,man,,,,,"{""Q0"":""mike and Luke are arguing with each other""}","<img src=""stim_listA/argue6.gif""style=""height:400px;""></stim_listA>",are arguing with each other,
null,"<div style=""font-size:60px;"">+</div>",,html-keyboard-response,303,1056957,0.0-17.0-0.14,46998,List2A,white,man,,,,null,,,,
null,"<img src=""stim_listA/dance8.gif""style=""height:400px;""></stim_listA>",,html-keyboard-response,304,1058960,0.0-17.0-1.14,46998,List2A,white,man,,,,null,,,,
null,are dancing with each other,,html-keyboard-response,305,1060964,0.0-17.0-2.14,46998,List2A,white,man,,,,null,,,,
8405,,,survey-text,306,1069369,0.0-17.0-3.14,46998,List2A,white,man,,,,,"{""Q0"":""Jane and Beth are dancing with each other""}","<img src=""stim_listA/dance8.gif""style=""height:400px;""></stim_listA>",are dancing with each other,
null,"<div style=""font-size:60px;"">+</div>",,html-keyboard-response,307,1069873,0.0-17.0-0.15,46998,List2A,white,man,,,,null,,,,
null,"<img src=""stim_listA/touch2.gif""style=""height:400px;""></stim_listA>",,html-keyboard-response,308,1071876,0.0-17.0-1.15,46998,List2A,white,man,,,,null,,,,
null,are touching each other,,html-keyboard-response,309,1073880,0.0-17.0-2.15,46998,List2A,white,man,,,,null,,,,
8046,,,survey-text,310,1081929,0.0-17.0-3.15,46998,List2A,white,man,,,,,"{""Q0"":""ruth and mike are touching each other""}","<img src=""stim_listA/touch2.gif""style=""height:400px;""></stim_listA>",are touching each other,
null,"<div style=""font-size:60px;"">+</div>",,html-keyboard-response,311,1082432,0.0-17.0-0.16,46998,List2A,white,man,,,,null,,,,
null,"<img src=""stim_listA/kiss8.gif""style=""height:400px;""></stim_listA>",,html-keyboard-response,312,1084435,0.0-17.0-1.16,46998,List2A,white,man,,,,null,,,,
null,are kissing each other,,html-keyboard-response,313,1086439,0.0-17.0-2.16,46998,List2A,white,man,,,,null,,,,
8412,,,survey-text,314,1094852,0.0-17.0-3.16,46998,List2A,white,man,,,,,"{""Q0"":""Jane and Kate are kissing each other""}","<img src=""stim_listA/kiss8.gif""style=""height:400px;""></stim_listA>",are kissing each other,
null,"<div style=""font-size:60px;"">+</div>",,html-keyboard-response,315,1095355,0.0-17.0-0.17,46998,List2A,white,man,,,,null,,,,
null,"<img src=""stim_listA/shout7.gif""style=""height:400px;""></stim_listA>",,html-keyboard-response,316,1097359,0.0-17.0-1.17,46998,List2A,white,man,,,,null,,,,
null,is shouting at,,html-keyboard-response,317,1099362,0.0-17.0-2.17,46998,List2A,white,man,,,,null,,,,
5123,,,survey-text,318,1104488,0.0-17.0-3.17,46998,List2A,white,man,,,,,"{""Q0"":""ruth is shouting at Beth""}","<img src=""stim_listA/shout7.gif""style=""height:400px;""></stim_listA>",is shouting at,
null,"<div style=""font-size:60px;"">+</div>",,html-keyboard-response,319,1104991,0.0-17.0-0.18,46998,List2A,white,man,,,,null,,,,
null,"<img src=""stim_listA/touch3.gif""style=""height:400px;""></stim_listA>",,html-keyboard-response,320,1106995,0.0-17.0-1.18,46998,List2A,white,man,,,,null,,,,
null,is touching,,html-keyboard-response,321,1108998,0.0-17.0-2.18,46998,List2A,white,man,,,,null,,,,
4857,,,survey-text,322,1113856,0.0-17.0-3.18,46998,List2A,white,man,,,,,"{""Q0"":""mike is touching Kate""}","<img src=""stim_listA/touch3.gif""style=""height:400px;""></stim_listA>",is touching,
null,"<div style=""font-size:60px;"">+</div>",,html-keyboard-response,323,1114360,0.0-17.0-0.19,46998,List2A,white,man,,,,null,,,,
null,"<img src=""stim_listA/shout4.gif""style=""height:400px;""></stim_listA>",,html-keyboard-response,324,1116363,0.0-17.0-1.19,46998,List2A,white,man,,,,null,,,,
null,are shouting at each other,,html-keyboard-response,325,1118368,0.0-17.0-2.19,46998,List2A,white,man,,,,null,,,,
9326,,,survey-text,326,1127697,0.0-17.0-3.19,46998,List2A,white,man,,,,,"{""Q0"":""Kate and mike are shouting at each other""}","<img src=""stim_listA/shout4.gif""style=""height:400px;""></stim_listA>",are shouting at each other,
1696,"<img src='img/portrait_matrix_list2.jpg' style='width:900px;height:500px;''></img><p>If you have memorised all the portraits and names and are ready to start, press Continue.</p><p><strong>Please note: Your memory of these faces will be tested 4 times during this experiment.</strong></p>",0,html-button-response,327,1129395,0.0-18.0-0.0,46998,List2A,white,man,,,,,,,,
1261,"<img src=""portrait/WM2.jpg""style=""height:400px;""></img>",7,html-button-response,328,1131659,0.0-18.0-1.0,46998,List2A,white,man,,TRUE,7,,,,,
null,CORRECT,,html-keyboard-response,329,1133163,0.0-18.0-2.0-0.0,46998,List2A,white,man,,,,null,,,,
1237,"<img src=""portrait/WM1.jpg""style=""height:400px;""></img>",6,html-button-response,330,1134403,0.0-18.0-4.0,46998,List2A,white,man,,TRUE,6,,,,,
null,CORRECT,,html-keyboard-response,331,1135907,0.0-18.0-5.0-0.0,46998,List2A,white,man,,,,null,,,,
1342,"<img src=""portrait/WW2.jpg""style=""height:400px;""></img>",3,html-button-response,332,1137253,0.0-18.0-7.0,46998,List2A,white,man,,TRUE,3,,,,,
null,CORRECT,,html-keyboard-response,333,1138757,0.0-18.0-8.0-0.0,46998,List2A,white,man,,,,null,,,,
1447,"<img src=""portrait/BM2.jpg""style=""height:400px;""></img>",5,html-button-response,334,1140209,0.0-18.0-10.0,46998,List2A,white,man,,TRUE,5,,,,,
null,CORRECT,,html-keyboard-response,335,1141714,0.0-18.0-11.0-0.0,46998,List2A,white,man,,,,null,,,,
933,"<img src=""portrait/BM1.jpg""style=""height:400px;""></img>",4,html-button-response,336,1142649,0.0-18.0-13.0,46998,List2A,white,man,,TRUE,4,,,,,
null,CORRECT,,html-keyboard-response,337,1144154,0.0-18.0-14.0-0.0,46998,List2A,white,man,,,,null,,,,
1683,"<img src=""portrait/WW1.jpg""style=""height:400px;""></img>",1,html-button-response,338,1145839,0.0-18.0-16.0,46998,List2A,white,man,,TRUE,1,,,,,
null,CORRECT,,html-keyboard-response,339,1147343,0.0-18.0-17.0-0.0,46998,List2A,white,man,,,,null,,,,
1911,"<img src=""portrait/BW2.jpg""style=""height:400px;""></img>",2,html-button-response,340,1149257,0.0-18.0-19.0,46998,List2A,white,man,,TRUE,2,,,,,
null,CORRECT,,html-keyboard-response,341,1150762,0.0-18.0-20.0-0.0,46998,List2A,white,man,,,,null,,,,
1655,"<img src=""portrait/BW1.jpg""style=""height:400px;""></img>",0,html-button-response,342,1152418,0.0-18.0-22.0,46998,List2A,white,man,,TRUE,0,,,,,
null,CORRECT,,html-keyboard-response,343,1153925,0.0-18.0-23.0-0.0,46998,List2A,white,man,,,,null,,,,
1417,<p>You got 8 out of 8 right first time. Press Continue.</p>,0,html-button-response,344,1155345,0.0-18.0-25.0,46998,List2A,white,man,,,,,,,,
null,"<div style=""font-size:60px;"">+</div>",,html-keyboard-response,345,1156849,0.0-19.0-0.0,46998,List2A,white,man,,,,null,,,,
null,"<img src=""stim_listA/marry6.gif""style=""height:400px;""></stim_listA>",,html-keyboard-response,346,1158852,0.0-19.0-1.0,46998,List2A,white,man,,,,null,,,,
null,are marrying each other,,html-keyboard-response,347,1160856,0.0-19.0-2.0,46998,List2A,white,man,,,,null,,,,
7658,,,survey-text,348,1168515,0.0-19.0-3.0,46998,List2A,white,man,,,,,"{""Q0"":""Luke and mike are marrying each other""}","<img src=""stim_listA/marry6.gif""style=""height:400px;""></stim_listA>",are marrying each other,
null,"<div style=""font-size:60px;"">+</div>",,html-keyboard-response,349,1169018,0.0-19.0-0.1,46998,List2A,white,man,,,,null,,,,
null,"<img src=""stim_listA/touch7.gif""style=""height:400px;""></stim_listA>",,html-keyboard-response,350,1171021,0.0-19.0-1.1,46998,List2A,white,man,,,,null,,,,
null,is touching,,html-keyboard-response,351,1173027,0.0-19.0-2.1,46998,List2A,white,man,,,,null,,,,
7460,,,survey-text,352,1180489,0.0-19.0-3.1,46998,List2A,white,man,,,,,"{""Q0"":""Jane is touching Kate""}","<img src=""stim_listA/touch7.gif""style=""height:400px;""></stim_listA>",is touching,
null,"<div style=""font-size:60px;"">+</div>",,html-keyboard-response,353,1180992,0.0-19.0-0.2,46998,List2A,white,man,,,,null,,,,
null,"<img src=""stim_listA/fight4.gif""style=""height:400px;""></stim_listA>",,html-keyboard-response,354,1182996,0.0-19.0-1.2,46998,List2A,white,man,,,,null,,,,
null,are fighting each other,,html-keyboard-response,355,1185000,0.0-19.0-2.2,46998,List2A,white,man,,,,null,,,,
9012,,,survey-text,356,1194013,0.0-19.0-3.2,46998,List2A,white,man,,,,,"{""Q0"":""Beth and fred are fighting each other""}","<img src=""stim_listA/fight4.gif""style=""height:400px;""></stim_listA>",are fighting each other,
null,"<div style=""font-size:60px;"">+</div>",,html-keyboard-response,357,1194517,0.0-19.0-0.3,46998,List2A,white,man,,,,null,,,,
null,"<img src=""stim_listA/shout8.gif""style=""height:400px;""></stim_listA>",,html-keyboard-response,358,1196520,0.0-19.0-1.3,46998,List2A,white,man,,,,null,,,,
null,are shouting at each other,,html-keyboard-response,359,1198524,0.0-19.0-2.3,46998,List2A,white,man,,,,null,,,,
7841,,,survey-text,360,1206368,0.0-19.0-3.3,46998,List2A,white,man,,,,,"{""Q0"":""Kate and Jane are shouting at each other""}","<img src=""stim_listA/shout8.gif""style=""height:400px;""></stim_listA>",are shouting at each other,
null,"<div style=""font-size:60px;"">+</div>",,html-keyboard-response,361,1206872,0.0-19.0-0.4,46998,List2A,white,man,,,,null,,,,
null,"<img src=""stim_listA/shout3.gif""style=""height:400px;""></stim_listA>",,html-keyboard-response,362,1208875,0.0-19.0-1.4,46998,List2A,white,man,,,,null,,,,
null,is shouting at,,html-keyboard-response,363,1210879,0.0-19.0-2.4,46998,List2A,white,man,,,,null,,,,
4795,,,survey-text,364,1215675,0.0-19.0-3.4,46998,List2A,white,man,,,,,"{""Q0"":""fred is shouting at Beth""}","<img src=""stim_listA/shout3.gif""style=""height:400px;""></stim_listA>",is shouting at,
null,"<div style=""font-size:60px;"">+</div>",,html-keyboard-response,365,1216179,0.0-19.0-0.5,46998,List2A,white,man,,,,null,,,,
null,"<img src=""stim_listA/flirt4.gif""style=""height:400px;""></stim_listA>",,html-keyboard-response,366,1218183,0.0-19.0-1.5,46998,List2A,white,man,,,,null,,,,
null,are flirting with each other,,html-keyboard-response,367,1220186,0.0-19.0-2.5,46998,List2A,white,man,,,,null,,,,
11393,,,survey-text,368,1231581,0.0-19.0-3.5,46998,List2A,white,man,,,,,"{""Q0"":""Beth and mike are flirting with each other""}","<img src=""stim_listA/flirt4.gif""style=""height:400px;""></stim_listA>",are flirting with each other,
null,"<div style=""font-size:60px;"">+</div>",,html-keyboard-response,369,1232084,0.0-19.0-0.6,46998,List2A,white,man,,,,null,,,,
null,"<img src=""stim_listA/argue7.gif""style=""height:400px;""></stim_listA>",,html-keyboard-response,370,1234088,0.0-19.0-1.6,46998,List2A,white,man,,,,null,,,,
null,is arguing with,,html-keyboard-response,371,1236091,0.0-19.0-2.6,46998,List2A,white,man,,,,null,,,,
5684,,,survey-text,372,1241776,0.0-19.0-3.6,46998,List2A,white,man,,,,,"{""Q0"":""Jane is arguing with Beth""}","<img src=""stim_listA/argue7.gif""style=""height:400px;""></stim_listA>",is arguing with,
null,"<div style=""font-size:60px;"">+</div>",,html-keyboard-response,373,1242279,0.0-19.0-0.7,46998,List2A,white,man,,,,null,,,,
null,"<img src=""stim_listA/fight6.gif""style=""height:400px;""></stim_listA>",,html-keyboard-response,374,1244283,0.0-19.0-1.7,46998,List2A,white,man,,,,null,,,,
null,are fighting each other,,html-keyboard-response,375,1246286,0.0-19.0-2.7,46998,List2A,white,man,,,,null,,,,
10784,,,survey-text,376,1257074,0.0-19.0-3.7,46998,List2A,white,man,,,,,"{""Q0"":""fred and Luke are fighting each other""}","<img src=""stim_listA/fight6.gif""style=""height:400px;""></stim_listA>",are fighting each other,
null,"<div style=""font-size:60px;"">+</div>",,html-keyboard-response,377,1257578,0.0-19.0-0.8,46998,List2A,white,man,,,,null,,,,
null,"<img src=""stim_listA/dance1.gif""style=""height:400px;""></stim_listA>",,html-keyboard-response,378,1259581,0.0-19.0-1.8,46998,List2A,white,man,,,,null,,,,
null,is dancing with,,html-keyboard-response,379,1261585,0.0-19.0-2.8,46998,List2A,white,man,,,,null,,,,
5185,,,survey-text,380,1266772,0.0-19.0-3.8,46998,List2A,white,man,,,,,"{""Q0"":""Luke is dancing with Jane""}","<img src=""stim_listA/dance1.gif""style=""height:400px;""></stim_listA>",is dancing with,
null,"<div style=""font-size:60px;"">+</div>",,html-keyboard-response,381,1267276,0.0-19.0-0.9,46998,List2A,white,man,,,,null,,,,
null,"<img src=""stim_listA/kiss7.gif""style=""height:400px;""></stim_listA>",,html-keyboard-response,382,1269279,0.0-19.0-1.9,46998,List2A,white,man,,,,null,,,,
null,is kissing,,html-keyboard-response,383,1271283,0.0-19.0-2.9,46998,List2A,white,man,,,,null,,,,
4583,,,survey-text,384,1275867,0.0-19.0-3.9,46998,List2A,white,man,,,,,"{""Q0"":""Beth is kissing ruth""}","<img src=""stim_listA/kiss7.gif""style=""height:400px;""></stim_listA>",is kissing,
null,"<div style=""font-size:60px;"">+</div>",,html-keyboard-response,385,1276372,0.0-19.0-0.10,46998,List2A,white,man,,,,null,,,,
null,"<img src=""stim_listA/dance5.gif""style=""height:400px;""></stim_listA>",,html-keyboard-response,386,1278378,0.0-19.0-1.10,46998,List2A,white,man,,,,null,,,,
null,is dancing with,,html-keyboard-response,387,1280381,0.0-19.0-2.10,46998,List2A,white,man,,,,null,,,,
5455,,,survey-text,388,1285838,0.0-19.0-3.10,46998,List2A,white,man,,,,,"{""Q0"":""mike is dancing with Luke""}","<img src=""stim_listA/dance5.gif""style=""height:400px;""></stim_listA>",is dancing with,
null,"<div style=""font-size:60px;"">+</div>",,html-keyboard-response,389,1286341,0.0-19.0-0.11,46998,List2A,white,man,,,,null,,,,
null,"<img src=""stim_listA/shout5.gif""style=""height:400px;""></stim_listA>",,html-keyboard-response,390,1288344,0.0-19.0-1.11,46998,List2A,white,man,,,,null,,,,
null,is shouting at,,html-keyboard-response,391,1290348,0.0-19.0-2.11,46998,List2A,white,man,,,,null,,,,
6118,,,survey-text,392,1296469,0.0-19.0-3.11,46998,List2A,white,man,,,,,"{""Q0"":""Luke is shouting at fred""}","<img src=""stim_listA/shout5.gif""style=""height:400px;""></stim_listA>",is shouting at,
null,"<div style=""font-size:60px;"">+</div>",,html-keyboard-response,393,1296972,0.0-19.0-0.12,46998,List2A,white,man,,,,null,,,,
null,"<img src=""stim_listA/touch8.gif""style=""height:400px;""></stim_listA>",,html-keyboard-response,394,1298976,0.0-19.0-1.12,46998,List2A,white,man,,,,null,,,,
null,are touching each other,,html-keyboard-response,395,1300979,0.0-19.0-2.12,46998,List2A,white,man,,,,null,,,,
7835,,,survey-text,396,1308816,0.0-19.0-3.12,46998,List2A,white,man,,,,,"{""Q0"":""Beth and ruth are touching each other ""}","<img src=""stim_listA/touch8.gif""style=""height:400px;""></stim_listA>",are touching each other,
null,"<div style=""font-size:60px;"">+</div>",,html-keyboard-response,397,1309319,0.0-19.0-0.13,46998,List2A,white,man,,,,null,,,,
null,"<img src=""stim_listA/fight3.gif""style=""height:400px;""></stim_listA>",,html-keyboard-response,398,1311322,0.0-19.0-1.13,46998,List2A,white,man,,,,null,,,,
null,is fighting,,html-keyboard-response,399,1313326,0.0-19.0-2.13,46998,List2A,white,man,,,,null,,,,
10340,,,survey-text,400,1323666,0.0-19.0-3.13,46998,List2A,white,man,,,,,"{""Q0"":""Kate and mike are fighting""}","<img src=""stim_listA/fight3.gif""style=""height:400px;""></stim_listA>",is fighting,
null,"<div style=""font-size:60px;"">+</div>",,html-keyboard-response,401,1324170,0.0-19.0-0.14,46998,List2A,white,man,,,,null,,,,
null,"<img src=""stim_listA/play4.gif""style=""height:400px;""></stim_listA>",,html-keyboard-response,402,1326173,0.0-19.0-1.14,46998,List2A,white,man,,,,null,,,,
null,are playing with each other,,html-keyboard-response,403,1328176,0.0-19.0-2.14,46998,List2A,white,man,,,,null,,,,
11224,,,survey-text,404,1339402,0.0-19.0-3.14,46998,List2A,white,man,,,,,"{""Q0"":""Beth and fred are playing with each other""}","<img src=""stim_listA/play4.gif""style=""height:400px;""></stim_listA>",are playing with each other,
null,"<div style=""font-size:60px;"">+</div>",,html-keyboard-response,405,1339905,0.0-19.0-0.15,46998,List2A,white,man,,,,null,,,,
null,"<img src=""stim_listA/dance4.gif""style=""height:400px;""></stim_listA>",,html-keyboard-response,406,1341908,0.0-19.0-1.15,46998,List2A,white,man,,,,null,,,,
null,are dancing with each other,,html-keyboard-response,407,1343914,0.0-19.0-2.15,46998,List2A,white,man,,,,null,,,,
9436,,,survey-text,408,1353351,0.0-19.0-3.15,46998,List2A,white,man,,,,,"{""Q0"":""Beth and mike are dancing with each other""}","<img src=""stim_listA/dance4.gif""style=""height:400px;""></stim_listA>",are dancing with each other,
null,"<div style=""font-size:60px;"">+</div>",,html-keyboard-response,409,1353854,0.0-19.0-0.16,46998,List2A,white,man,,,,null,,,,
null,"<img src=""stim_listA/flirt3.gif""style=""height:400px;""></stim_listA>",,html-keyboard-response,410,1355858,0.0-19.0-1.16,46998,List2A,white,man,,,,null,,,,
null,is flirting with,,html-keyboard-response,411,1357861,0.0-19.0-2.16,46998,List2A,white,man,,,,null,,,,
6444,,,survey-text,412,1364308,0.0-19.0-3.16,46998,List2A,white,man,,,,,"{""Q0"":""fred is flirting with Kate""}","<img src=""stim_listA/flirt3.gif""style=""height:400px;""></stim_listA>",is flirting with,
null,"<div style=""font-size:60px;"">+</div>",,html-keyboard-response,413,1364812,0.0-19.0-0.17,46998,List2A,white,man,,,,null,,,,
null,"<img src=""stim_listA/talk3.gif""style=""height:400px;""></stim_listA>",,html-keyboard-response,414,1366816,0.0-19.0-1.17,46998,List2A,white,man,,,,null,,,,
null,is talking to,,html-keyboard-response,415,1368820,0.0-19.0-2.17,46998,List2A,white,man,,,,null,,,,
5001,,,survey-text,416,1373824,0.0-19.0-3.17,46998,List2A,white,man,,,,,"{""Q0"":""fred is talking to Kate""}","<img src=""stim_listA/talk3.gif""style=""height:400px;""></stim_listA>",is talking to,
null,"<div style=""font-size:60px;"">+</div>",,html-keyboard-response,417,1374327,0.0-19.0-0.18,46998,List2A,white,man,,,,null,,,,
null,"<img src=""stim_listA/marry7.gif""style=""height:400px;""></stim_listA>",,html-keyboard-response,418,1376330,0.0-19.0-1.18,46998,List2A,white,man,,,,null,,,,
null,is marrying,,html-keyboard-response,419,1378334,0.0-19.0-2.18,46998,List2A,white,man,,,,null,,,,
4291,,,survey-text,420,1382627,0.0-19.0-3.18,46998,List2A,white,man,,,,,"{""Q0"":""Beth is marrying Jane""}","<img src=""stim_listA/marry7.gif""style=""height:400px;""></stim_listA>",is marrying,
null,"<div style=""font-size:60px;"">+</div>",,html-keyboard-response,421,1383130,0.0-19.0-0.19,46998,List2A,white,man,,,,null,,,,
null,"<img src=""stim_listA/talk1.gif""style=""height:400px;""></stim_listA>",,html-keyboard-response,422,1385133,0.0-19.0-1.19,46998,List2A,white,man,,,,null,,,,
null,is talking to,,html-keyboard-response,423,1387137,0.0-19.0-2.19,46998,List2A,white,man,,,,null,,,,
4850,,,survey-text,424,1391988,0.0-19.0-3.19,46998,List2A,white,man,,,,,"{""Q0"":""Luke is talking to Jane""}","<img src=""stim_listA/talk1.gif""style=""height:400px;""></stim_listA>",is talking to,
2521,<p>Thank you for completing that task.</p><p>The final part of this session is a short questionnaire.</p><p>Press Continue.</p>,0,html-button-response,425,1394511,0.0-20.0,46998,List2A,white,man,,,,,,,,
18349,,,survey-text,426,1413863,0.0-21.0,46998,List2A,white,man,,,,,"{""Q0"":""19"",""Q1"":""english"",""Q2"":""English"",""Q3"":""uk"",""Q4"":""white"",""Q5"":""male""}",,,demographics
8316,,,survey-likert,427,1422183,0.0-22.0,46998,List2A,white,man,,,,,"{""Q0"":4}",,,likert_ESS
4205,,,survey-likert,428,1426392,0.0-23.0,46998,List2A,white,man,,,,,"{""Q0"":""""}",,,likert_NSSAL_Q1
10172,,,survey-likert,429,1436568,0.0-24.0,46998,List2A,white,man,,,,,"{""Q0"":4}",,,likert_NSSAL_Q2
5796,,,survey-likert,430,1442369,0.0-25.0,46998,List2A,white,man,,,,,"{""Q0"":4}",,,likert_CGRS_Q1
4647,,,survey-likert,431,1447021,0.0-26.0,46998,List2A,white,man,,,,,"{""Q0"":4}",,,likert_CGRS_Q2
3926,,,survey-likert,432,1450952,0.0-27.0,46998,List2A,white,man,,,,,"{""Q0"":4}",,,likert_CGRS_Q3
8609,,,survey-text,433,1459566,0.0-28.0,46998,List2A,white,man,,,,,"{""Q0"":""ccc""}",,,worker_id
5019,,,external-html,434,1464722,0.0-29.0,46998,List2A,white,man,debrief.html,,,,,,,
