rt,stimulus,button_pressed,trial_type,trial_index,time_elapsed,internal_node_id,subject,list,ppt_race,ppt_gender,url,first_guess,correct,key_press,responses,image_type,phrase_type,test_part
4166,Welcome to the experiment. Press Continue to begin.,0,html-button-response,0,4168,0.0-0.0,47134,List1B,white,man,,,,,,,,
28625,,,external-html,1,33892,0.0-1.0,47134,List1B,white,man,consent.html,,,,,,,
11633,"<p>On the next page, you will see portraits of 8 people and their names.</p><p>Your first task is to take a few minutes to memorise the names of these people.</p><p>You will have to recall their names during the rest of the experiment, so it is</p><p>essential that you try to memorise these people and their names as best as you can.</p><br><p><strong>You will then be tested on your memory of these names and portraits.</strong></p><br><p>The experiment will start after you have completed this memory test.</p><br><p>Ready?</p>",0,html-button-response,2,45528,0.0-2.0,47134,List1B,white,man,,,,,,,,
134566,"<img src='img/portrait_matrix_list1.jpg' style='width:900px;height:500px;''></img><p>If you have memorised all the portraits and names and are ready to start, press Continue.</p><p><strong>Please note: Your memory of these faces will be tested 4 times during this experiment.</strong></p>",0,html-button-response,3,181101,0.0-3.0-0.0,47134,List1B,white,man,,,,,,,,
5606,"<img src=""portrait/BM2.jpg""style=""height:400px;""></img>",5,html-button-response,4,187712,0.0-3.0-1.0,47134,List1B,white,man,,TRUE,5,,,,,
null,CORRECT,,html-keyboard-response,5,189246,0.0-3.0-2.0-0.0,47134,List1B,white,man,,,,null,,,,
3206,"<img src=""portrait/WW1.jpg""style=""height:400px;""></img>",0,html-button-response,6,192453,0.0-3.0-4.0,47134,List1B,white,man,,TRUE,1,,,,,
2853,"<img src=""portrait/WW1.jpg""style=""height:400px;""></img>",1,html-button-response,7,196313,0.0-3.0-6.0-0.0,47134,List1B,white,man,,FALSE,1,,,,,
null,CORRECT,,html-keyboard-response,8,197822,0.0-3.0-6.0-1.0-0.0,47134,List1B,white,man,,,,null,,,,
7052,"<img src=""portrait/WM2.jpg""style=""height:400px;""></img>",7,html-button-response,9,204878,0.0-3.0-7.0,47134,List1B,white,man,,TRUE,7,,,,,
null,CORRECT,,html-keyboard-response,10,206382,0.0-3.0-8.0-0.0,47134,List1B,white,man,,,,null,,,,
5227,"<img src=""portrait/WW2.jpg""style=""height:400px;""></img>",2,html-button-response,11,211609,0.0-3.0-10.0,47134,List1B,white,man,,TRUE,3,,,,,
1687,"<img src=""portrait/WW2.jpg""style=""height:400px;""></img>",3,html-button-response,12,214302,0.0-3.0-12.0-0.0,47134,List1B,white,man,,FALSE,3,,,,,
null,CORRECT,,html-keyboard-response,13,215809,0.0-3.0-12.0-1.0-0.0,47134,List1B,white,man,,,,null,,,,
7615,"<img src=""portrait/BM1.jpg""style=""height:400px;""></img>",4,html-button-response,14,223426,0.0-3.0-13.0,47134,List1B,white,man,,TRUE,4,,,,,
null,CORRECT,,html-keyboard-response,15,224934,0.0-3.0-14.0-0.0,47134,List1B,white,man,,,,null,,,,
7829,"<img src=""portrait/WM1.jpg""style=""height:400px;""></img>",5,html-button-response,16,232766,0.0-3.0-16.0,47134,List1B,white,man,,TRUE,6,,,,,
1740,"<img src=""portrait/WM1.jpg""style=""height:400px;""></img>",6,html-button-response,17,235512,0.0-3.0-18.0-0.0,47134,List1B,white,man,,FALSE,6,,,,,
null,CORRECT,,html-keyboard-response,18,237020,0.0-3.0-18.0-1.0-0.0,47134,List1B,white,man,,,,null,,,,
2938,"<img src=""portrait/BW1.jpg""style=""height:400px;""></img>",0,html-button-response,19,239961,0.0-3.0-19.0,47134,List1B,white,man,,TRUE,0,,,,,
null,CORRECT,,html-keyboard-response,20,241468,0.0-3.0-20.0-0.0,47134,List1B,white,man,,,,null,,,,
6463,"<img src=""portrait/BW2.jpg""style=""height:400px;""></img>",3,html-button-response,21,247933,0.0-3.0-22.0,47134,List1B,white,man,,TRUE,2,,,,,
1799,"<img src=""portrait/BW2.jpg""style=""height:400px;""></img>",2,html-button-response,22,250737,0.0-3.0-24.0-0.0,47134,List1B,white,man,,FALSE,2,,,,,
null,CORRECT,,html-keyboard-response,23,252244,0.0-3.0-24.0-1.0-0.0,47134,List1B,white,man,,,,null,,,,
1901,<p>You got 4 out of 8 right first time. Press Continue.</p>,0,html-button-response,24,254147,0.0-3.0-25.0,47134,List1B,white,man,,,,,,,,
4631,"As you did not score 100%, the memory game will repeat. Press Continue.",0,html-button-response,25,259784,0.0-3.0-26.0-0.0,47134,List1B,white,man,,,,,,,,
11962,"<img src='img/portrait_matrix_list1.jpg' style='width:900px;height:500px;''></img><p>If you have memorised all the portraits and names and are ready to start, press Continue.</p><p><strong>Please note: Your memory of these faces will be tested 4 times during this experiment.</strong></p>",0,html-button-response,26,272752,0.0-3.1-0.1,47134,List1B,white,man,,,,,,,,
1821,"<img src=""portrait/BM2.jpg""style=""height:400px;""></img>",5,html-button-response,27,275581,0.0-3.1-1.1,47134,List1B,white,man,,TRUE,5,,,,,
null,CORRECT,,html-keyboard-response,28,277090,0.0-3.1-2.1-0.1,47134,List1B,white,man,,,,null,,,,
7685,"<img src=""portrait/WW1.jpg""style=""height:400px;""></img>",2,html-button-response,29,284778,0.0-3.1-4.1,47134,List1B,white,man,,TRUE,1,,,,,
1934,"<img src=""portrait/WW1.jpg""style=""height:400px;""></img>",1,html-button-response,30,287717,0.0-3.1-6.1-0.1,47134,List1B,white,man,,FALSE,1,,,,,
null,CORRECT,,html-keyboard-response,31,289224,0.0-3.1-6.1-1.1-0.1,47134,List1B,white,man,,,,null,,,,
1645,"<img src=""portrait/WM2.jpg""style=""height:400px;""></img>",7,html-button-response,32,290872,0.0-3.1-7.1,47134,List1B,white,man,,TRUE,7,,,,,
null,CORRECT,,html-keyboard-response,33,292376,0.0-3.1-8.1-0.1,47134,List1B,white,man,,,,null,,,,
4925,"<img src=""portrait/WW2.jpg""style=""height:400px;""></img>",1,html-button-response,34,297304,0.0-3.1-10.1,47134,List1B,white,man,,TRUE,3,,,,,
1783,"<img src=""portrait/WW2.jpg""style=""height:400px;""></img>",3,html-button-response,35,300094,0.0-3.1-12.1-0.1,47134,List1B,white,man,,FALSE,3,,,,,
null,CORRECT,,html-keyboard-response,36,301603,0.0-3.1-12.1-1.1-0.1,47134,List1B,white,man,,,,null,,,,
8675,"<img src=""portrait/BM1.jpg""style=""height:400px;""></img>",6,html-button-response,37,310279,0.0-3.1-13.1,47134,List1B,white,man,,TRUE,4,,,,,
1486,"<img src=""portrait/BM1.jpg""style=""height:400px;""></img>",4,html-button-response,38,312769,0.0-3.1-15.1-0.1,47134,List1B,white,man,,FALSE,4,,,,,
null,CORRECT,,html-keyboard-response,39,314277,0.0-3.1-15.1-1.1-0.1,47134,List1B,white,man,,,,null,,,,
4076,"<img src=""portrait/WM1.jpg""style=""height:400px;""></img>",5,html-button-response,40,318356,0.0-3.1-16.1,47134,List1B,white,man,,TRUE,6,,,,,
1903,"<img src=""portrait/WM1.jpg""style=""height:400px;""></img>",6,html-button-response,41,321268,0.0-3.1-18.1-0.1,47134,List1B,white,man,,FALSE,6,,,,,
null,CORRECT,,html-keyboard-response,42,322775,0.0-3.1-18.1-1.1-0.1,47134,List1B,white,man,,,,null,,,,
10701,"<img src=""portrait/BW1.jpg""style=""height:400px;""></img>",0,html-button-response,43,333479,0.0-3.1-19.1,47134,List1B,white,man,,TRUE,0,,,,,
null,CORRECT,,html-keyboard-response,44,334986,0.0-3.1-20.1-0.1,47134,List1B,white,man,,,,null,,,,
5265,"<img src=""portrait/BW2.jpg""style=""height:400px;""></img>",2,html-button-response,45,340254,0.0-3.1-22.1,47134,List1B,white,man,,TRUE,2,,,,,
null,CORRECT,,html-keyboard-response,46,341758,0.0-3.1-23.1-0.1,47134,List1B,white,man,,,,null,,,,
1801,<p>You got 4 out of 8 right first time. Press Continue.</p>,0,html-button-response,47,343563,0.0-3.1-25.1,47134,List1B,white,man,,,,,,,,
2283,"As you did not score 100%, the memory game will repeat. Press Continue.",0,html-button-response,48,346850,0.0-3.1-26.1-0.1,47134,List1B,white,man,,,,,,,,
39589,"<img src='img/portrait_matrix_list1.jpg' style='width:900px;height:500px;''></img><p>If you have memorised all the portraits and names and are ready to start, press Continue.</p><p><strong>Please note: Your memory of these faces will be tested 4 times during this experiment.</strong></p>",0,html-button-response,49,387442,0.0-3.2-0.2,47134,List1B,white,man,,,,,,,,
4233,"<img src=""portrait/BM2.jpg""style=""height:400px;""></img>",5,html-button-response,50,392676,0.0-3.2-1.2,47134,List1B,white,man,,TRUE,5,,,,,
null,CORRECT,,html-keyboard-response,51,394185,0.0-3.2-2.2-0.2,47134,List1B,white,man,,,,null,,,,
13518,"<img src=""portrait/WW1.jpg""style=""height:400px;""></img>",1,html-button-response,52,407707,0.0-3.2-4.2,47134,List1B,white,man,,TRUE,1,,,,,
null,CORRECT,,html-keyboard-response,53,409216,0.0-3.2-5.2-0.2,47134,List1B,white,man,,,,null,,,,
1524,"<img src=""portrait/WM2.jpg""style=""height:400px;""></img>",7,html-button-response,54,410743,0.0-3.2-7.2,47134,List1B,white,man,,TRUE,7,,,,,
null,CORRECT,,html-keyboard-response,55,412250,0.0-3.2-8.2-0.2,47134,List1B,white,man,,,,null,,,,
3410,"<img src=""portrait/WW2.jpg""style=""height:400px;""></img>",3,html-button-response,56,415664,0.0-3.2-10.2,47134,List1B,white,man,,TRUE,3,,,,,
null,CORRECT,,html-keyboard-response,57,417170,0.0-3.2-11.2-0.2,47134,List1B,white,man,,,,null,,,,
3665,"<img src=""portrait/BM1.jpg""style=""height:400px;""></img>",4,html-button-response,58,420839,0.0-3.2-13.2,47134,List1B,white,man,,TRUE,4,,,,,
null,CORRECT,,html-keyboard-response,59,422344,0.0-3.2-14.2-0.2,47134,List1B,white,man,,,,null,,,,
8903,"<img src=""portrait/WM1.jpg""style=""height:400px;""></img>",6,html-button-response,60,431249,0.0-3.2-16.2,47134,List1B,white,man,,TRUE,6,,,,,
null,CORRECT,,html-keyboard-response,61,432759,0.0-3.2-17.2-0.2,47134,List1B,white,man,,,,null,,,,
5218,"<img src=""portrait/BW1.jpg""style=""height:400px;""></img>",0,html-button-response,62,437980,0.0-3.2-19.2,47134,List1B,white,man,,TRUE,0,,,,,
null,CORRECT,,html-keyboard-response,63,439485,0.0-3.2-20.2-0.2,47134,List1B,white,man,,,,null,,,,
3833,"<img src=""portrait/BW2.jpg""style=""height:400px;""></img>",2,html-button-response,64,443320,0.0-3.2-22.2,47134,List1B,white,man,,TRUE,2,,,,,
null,CORRECT,,html-keyboard-response,65,444825,0.0-3.2-23.2-0.2,47134,List1B,white,man,,,,null,,,,
3496,<p>You got 8 out of 8 right first time. Press Continue.</p>,0,html-button-response,66,448322,0.0-3.2-25.2,47134,List1B,white,man,,,,,,,,
56076,"<p>In this experiment, you will view photographs of the people from the memory game interacting.</p><p>By using the <strong>exact</strong> phrase given <i>after</i> the photograph appears and recalling the correct names of the people in the photographs, form a sentence describing the interaction. You do not need to capitalise names.</p><p>Type your answer in the space provided. Please complete every sentence before moving onto the next trial.</p><p>You will only have a few seconds to memorise each given photograph and phrase before you can respond, so try your best to focus.</p><p>An example is given below. Press 'Continue' when you are ready.</p><img src='img/speaking_example.jpg' style='width:800px;height:460px;''></img>",0,html-button-response,67,505406,0.0-4.0,47134,List1B,white,man,,,,,,,,
2242,"<p>Before the experiment starts, you will watch two example trials. Press 'Continue'.</p>",0,html-button-response,68,508651,0.0-5.0,47134,List1B,white,man,,,,,,,,
null,<img src='img/meet_eg.gif' style='height:400px;''></img>,,html-keyboard-response,69,511659,0.0-6.0,47134,List1B,white,man,,,,null,,,,
null,<p>is meeting</p>,,html-keyboard-response,70,513663,0.0-7.0,47134,List1B,white,man,,,,null,,,,
7469,<p><b>Answer:</b> kate is meeting beth</p>,0,html-button-response,71,521133,0.0-8.0,47134,List1B,white,man,,,,,,,,
null,<img src='img/look_eg.gif' style='height:400px;''></img>,,html-keyboard-response,72,524136,0.0-9.0,47134,List1B,white,man,,,,null,,,,
null,<p>are looking at each other</p>,,html-keyboard-response,73,526140,0.0-10.0,47134,List1B,white,man,,,,null,,,,
5506,<p><b>Answer:</b> luke and dave are looking at each other</p>,0,html-button-response,74,531648,0.0-11.0,47134,List1B,white,man,,,,,,,,
9886,"<p>Ready to start the experiment?</p><br><p><strong>Remember to describe the picture using a full sentence,</strong></p><p><strong>that combines the names of the people with the <i>exact</i> phrase given.</strong></p><p><strong>To receive full payment you must do this correctly.</strong></p><p><strong> You do not need to capitalise names or use punctuation.</strong></p><br><p>Press 'Continue' to begin.</p>",0,html-button-response,75,542538,0.0-12.0,47134,List1B,white,man,,,,,,,,
null,"<div style=""font-size:60px;"">+</div>",,html-keyboard-response,76,544047,0.0-13.0-0.0,47134,List1B,white,man,,,,null,,,,
null,"<img src=""stim_listB/marry6.gif""style=""height:400px;""></stim_listB>",,html-keyboard-response,77,546055,0.0-13.0-1.0,47134,List1B,white,man,,,,null,,,,
null,are marrying each other,,html-keyboard-response,78,548059,0.0-13.0-2.0,47134,List1B,white,man,,,,null,,,,
13249,,,survey-text,79,561310,0.0-13.0-3.0,47134,List1B,white,man,,,,,"{""Q0"":""dave and fred are marrying each other""}","<img src=""stim_listB/marry6.gif""style=""height:400px;""></stim_listB>",are marrying each other,
null,"<div style=""font-size:60px;"">+</div>",,html-keyboard-response,80,561814,0.0-13.0-0.1,47134,List1B,white,man,,,,null,,,,
null,"<img src=""stim_listB/marry3.gif""style=""height:400px;""></stim_listB>",,html-keyboard-response,81,563816,0.0-13.0-1.1,47134,List1B,white,man,,,,null,,,,
null,is marrying,,html-keyboard-response,82,565817,0.0-13.0-2.1,47134,List1B,white,man,,,,null,,,,
15018,,,survey-text,83,580838,0.0-13.0-3.1,47134,List1B,white,man,,,,,"{""Q0"":""dave is marrying ruth""}","<img src=""stim_listB/marry3.gif""style=""height:400px;""></stim_listB>",is marrying,
null,"<div style=""font-size:60px;"">+</div>",,html-keyboard-response,84,581339,0.0-13.0-0.2,47134,List1B,white,man,,,,null,,,,
null,"<img src=""stim_listB/play6.gif""style=""height:400px;""></stim_listB>",,html-keyboard-response,85,583344,0.0-13.0-1.2,47134,List1B,white,man,,,,null,,,,
null,are playing with each other,,html-keyboard-response,86,585346,0.0-13.0-2.2,47134,List1B,white,man,,,,null,,,,
17449,,,survey-text,87,602796,0.0-13.0-3.2,47134,List1B,white,man,,,,,"{""Q0"":""fred and luke are playing with each other""}","<img src=""stim_listB/play6.gif""style=""height:400px;""></stim_listB>",are playing with each other,
null,"<div style=""font-size:60px;"">+</div>",,html-keyboard-response,88,603299,0.0-13.0-0.3,47134,List1B,white,man,,,,null,,,,
null,"<img src=""stim_listB/play8.gif""style=""height:400px;""></stim_listB>",,html-keyboard-response,89,605304,0.0-13.0-1.3,47134,List1B,white,man,,,,null,,,,
null,are playing with each other,,html-keyboard-response,90,607307,0.0-13.0-2.3,47134,List1B,white,man,,,,null,,,,
20966,,,survey-text,91,628275,0.0-13.0-3.3,47134,List1B,white,man,,,,,"{""Q0"":""ruth and beth are playing with each other""}","<img src=""stim_listB/play8.gif""style=""height:400px;""></stim_listB>",are playing with each other,
null,"<div style=""font-size:60px;"">+</div>",,html-keyboard-response,92,628783,0.0-13.0-0.4,47134,List1B,white,man,,,,null,,,,
null,"<img src=""stim_listB/argue8.gif""style=""height:400px;""></stim_listB>",,html-keyboard-response,93,630787,0.0-13.0-1.4,47134,List1B,white,man,,,,null,,,,
null,are arguing with each other,,html-keyboard-response,94,632789,0.0-13.0-2.4,47134,List1B,white,man,,,,null,,,,
15621,,,survey-text,95,648411,0.0-13.0-3.4,47134,List1B,white,man,,,,,"{""Q0"":""beth and jane are arguing with each other""}","<img src=""stim_listB/argue8.gif""style=""height:400px;""></stim_listB>",are arguing with each other,
null,"<div style=""font-size:60px;"">+</div>",,html-keyboard-response,96,648914,0.0-13.0-0.5,47134,List1B,white,man,,,,null,,,,
null,"<img src=""stim_listB/argue7.gif""style=""height:400px;""></stim_listB>",,html-keyboard-response,97,650917,0.0-13.0-1.5,47134,List1B,white,man,,,,null,,,,
null,is arguing with,,html-keyboard-response,98,652921,0.0-13.0-2.5,47134,List1B,white,man,,,,null,,,,
12496,,,survey-text,99,665419,0.0-13.0-3.5,47134,List1B,white,man,,,,,"{""Q0"":""ruth is arguing with kate""}","<img src=""stim_listB/argue7.gif""style=""height:400px;""></stim_listB>",is arguing with,
null,"<div style=""font-size:60px;"">+</div>",,html-keyboard-response,100,665924,0.0-13.0-0.6,47134,List1B,white,man,,,,null,,,,
null,"<img src=""stim_listB/dance2.gif""style=""height:400px;""></stim_listB>",,html-keyboard-response,101,667930,0.0-13.0-1.6,47134,List1B,white,man,,,,null,,,,
null,are dancing with each other,,html-keyboard-response,102,669932,0.0-13.0-2.6,47134,List1B,white,man,,,,null,,,,
13420,,,survey-text,103,683353,0.0-13.0-3.6,47134,List1B,white,man,,,,,"{""Q0"":""mike and beth are dancing with each other""}","<img src=""stim_listB/dance2.gif""style=""height:400px;""></stim_listB>",are dancing with each other,
null,"<div style=""font-size:60px;"">+</div>",,html-keyboard-response,104,683857,0.0-13.0-0.7,47134,List1B,white,man,,,,null,,,,
null,"<img src=""stim_listB/kiss2.gif""style=""height:400px;""></stim_listB>",,html-keyboard-response,105,685863,0.0-13.0-1.7,47134,List1B,white,man,,,,null,,,,
null,are kissing each other,,html-keyboard-response,106,687867,0.0-13.0-2.7,47134,List1B,white,man,,,,null,,,,
8638,,,survey-text,107,696508,0.0-13.0-3.7,47134,List1B,white,man,,,,,"{""Q0"":""mike and kate are kissing each other""}","<img src=""stim_listB/kiss2.gif""style=""height:400px;""></stim_listB>",are kissing each other,
null,"<div style=""font-size:60px;"">+</div>",,html-keyboard-response,108,697009,0.0-13.0-0.8,47134,List1B,white,man,,,,null,,,,
null,"<img src=""stim_listB/kiss4.gif""style=""height:400px;""></stim_listB>",,html-keyboard-response,109,699014,0.0-13.0-1.8,47134,List1B,white,man,,,,null,,,,
null,are kissing each other,,html-keyboard-response,110,701017,0.0-13.0-2.8,47134,List1B,white,man,,,,null,,,,
17912,,,survey-text,111,718930,0.0-13.0-3.8,47134,List1B,white,man,,,,,"{""Q0"":""dave and jane are kissing each other""}","<img src=""stim_listB/kiss4.gif""style=""height:400px;""></stim_listB>",are kissing each other,
null,"<div style=""font-size:60px;"">+</div>",,html-keyboard-response,112,719434,0.0-13.0-0.9,47134,List1B,white,man,,,,null,,,,
null,"<img src=""stim_listB/shout6.gif""style=""height:400px;""></stim_listB>",,html-keyboard-response,113,721439,0.0-13.0-1.9,47134,List1B,white,man,,,,null,,,,
null,are shouting at each other,,html-keyboard-response,114,723440,0.0-13.0-2.9,47134,List1B,white,man,,,,null,,,,
9025,,,survey-text,115,732466,0.0-13.0-3.9,47134,List1B,white,man,,,,,"{""Q0"":""dave and mike are shouting at each other""}","<img src=""stim_listB/shout6.gif""style=""height:400px;""></stim_listB>",are shouting at each other,
null,"<div style=""font-size:60px;"">+</div>",,html-keyboard-response,116,732967,0.0-13.0-0.10,47134,List1B,white,man,,,,null,,,,
null,"<img src=""stim_listB/shout7.gif""style=""height:400px;""></stim_listB>",,html-keyboard-response,117,734972,0.0-13.0-1.10,47134,List1B,white,man,,,,null,,,,
null,is shouting at,,html-keyboard-response,118,736974,0.0-13.0-2.10,47134,List1B,white,man,,,,null,,,,
10187,,,survey-text,119,747162,0.0-13.0-3.10,47134,List1B,white,man,,,,,"{""Q0"":""ruth is shouting at beth""}","<img src=""stim_listB/shout7.gif""style=""height:400px;""></stim_listB>",is shouting at,
null,"<div style=""font-size:60px;"">+</div>",,html-keyboard-response,120,747664,0.0-13.0-0.11,47134,List1B,white,man,,,,null,,,,
null,"<img src=""stim_listB/fight3.gif""style=""height:400px;""></stim_listB>",,html-keyboard-response,121,749670,0.0-13.0-1.11,47134,List1B,white,man,,,,null,,,,
null,is fighting,,html-keyboard-response,122,751673,0.0-13.0-2.11,47134,List1B,white,man,,,,null,,,,
12541,,,survey-text,123,764215,0.0-13.0-3.11,47134,List1B,white,man,,,,,"{""Q0"":""dave is fighting jane""}","<img src=""stim_listB/fight3.gif""style=""height:400px;""></stim_listB>",is fighting,
null,"<div style=""font-size:60px;"">+</div>",,html-keyboard-response,124,764717,0.0-13.0-0.12,47134,List1B,white,man,,,,null,,,,
null,"<img src=""stim_listB/shout2.gif""style=""height:400px;""></stim_listB>",,html-keyboard-response,125,766723,0.0-13.0-1.12,47134,List1B,white,man,,,,null,,,,
null,are shouting at each other,,html-keyboard-response,126,768727,0.0-13.0-2.12,47134,List1B,white,man,,,,null,,,,
10726,,,survey-text,127,779454,0.0-13.0-3.12,47134,List1B,white,man,,,,,"{""Q0"":""mike and kate are shouting at each other""}","<img src=""stim_listB/shout2.gif""style=""height:400px;""></stim_listB>",are shouting at each other,
null,"<div style=""font-size:60px;"">+</div>",,html-keyboard-response,128,779956,0.0-13.0-0.13,47134,List1B,white,man,,,,null,,,,
null,"<img src=""stim_listB/touch5.gif""style=""height:400px;""></stim_listB>",,html-keyboard-response,129,781959,0.0-13.0-1.13,47134,List1B,white,man,,,,null,,,,
null,is touching,,html-keyboard-response,130,783963,0.0-13.0-2.13,47134,List1B,white,man,,,,null,,,,
6281,,,survey-text,131,790246,0.0-13.0-3.13,47134,List1B,white,man,,,,,"{""Q0"":""dave is touching mike""}","<img src=""stim_listB/touch5.gif""style=""height:400px;""></stim_listB>",is touching,
null,"<div style=""font-size:60px;"">+</div>",,html-keyboard-response,132,790747,0.0-13.0-0.14,47134,List1B,white,man,,,,null,,,,
null,"<img src=""stim_listB/talk7.gif""style=""height:400px;""></stim_listB>",,html-keyboard-response,133,792753,0.0-13.0-1.14,47134,List1B,white,man,,,,null,,,,
null,is talking to,,html-keyboard-response,134,794757,0.0-13.0-2.14,47134,List1B,white,man,,,,null,,,,
12157,,,survey-text,135,806916,0.0-13.0-3.14,47134,List1B,white,man,,,,,"{""Q0"":""beth is talking to jane""}","<img src=""stim_listB/talk7.gif""style=""height:400px;""></stim_listB>",is talking to,
null,"<div style=""font-size:60px;"">+</div>",,html-keyboard-response,136,807417,0.0-13.0-0.15,47134,List1B,white,man,,,,null,,,,
null,"<img src=""stim_listB/flirt7.gif""style=""height:400px;""></stim_listB>",,html-keyboard-response,137,809419,0.0-13.0-1.15,47134,List1B,white,man,,,,null,,,,
null,is flirting with,,html-keyboard-response,138,811422,0.0-13.0-2.15,47134,List1B,white,man,,,,null,,,,
11047,,,survey-text,139,822471,0.0-13.0-3.15,47134,List1B,white,man,,,,,"{""Q0"":""beth is flirting with jane""}","<img src=""stim_listB/flirt7.gif""style=""height:400px;""></stim_listB>",is flirting with,
null,"<div style=""font-size:60px;"">+</div>",,html-keyboard-response,140,822974,0.0-13.0-0.16,47134,List1B,white,man,,,,null,,,,
null,"<img src=""stim_listB/touch6.gif""style=""height:400px;""></stim_listB>",,html-keyboard-response,141,824978,0.0-13.0-1.16,47134,List1B,white,man,,,,null,,,,
null,are touching each other,,html-keyboard-response,142,826983,0.0-13.0-2.16,47134,List1B,white,man,,,,null,,,,
15852,,,survey-text,143,842837,0.0-13.0-3.16,47134,List1B,white,man,,,,,"{""Q0"":""luke and fred are touching each other""}","<img src=""stim_listB/touch6.gif""style=""height:400px;""></stim_listB>",are touching each other,
null,"<div style=""font-size:60px;"">+</div>",,html-keyboard-response,144,843339,0.0-13.0-0.17,47134,List1B,white,man,,,,null,,,,
null,"<img src=""stim_listB/dance1.gif""style=""height:400px;""></stim_listB>",,html-keyboard-response,145,845345,0.0-13.0-1.17,47134,List1B,white,man,,,,null,,,,
null,is dancing with,,html-keyboard-response,146,847347,0.0-13.0-2.17,47134,List1B,white,man,,,,null,,,,
11686,,,survey-text,147,859035,0.0-13.0-3.17,47134,List1B,white,man,,,,,"{""Q0"":""kate is dancing with fred""}","<img src=""stim_listB/dance1.gif""style=""height:400px;""></stim_listB>",is dancing with,
null,"<div style=""font-size:60px;"">+</div>",,html-keyboard-response,148,859540,0.0-13.0-0.18,47134,List1B,white,man,,,,null,,,,
null,"<img src=""stim_listB/flirt3.gif""style=""height:400px;""></stim_listB>",,html-keyboard-response,149,861546,0.0-13.0-1.18,47134,List1B,white,man,,,,null,,,,
null,is flirting with,,html-keyboard-response,150,863552,0.0-13.0-2.18,47134,List1B,white,man,,,,null,,,,
7725,,,survey-text,151,871278,0.0-13.0-3.18,47134,List1B,white,man,,,,,"{""Q0"":""luke is flirting with jane""}","<img src=""stim_listB/flirt3.gif""style=""height:400px;""></stim_listB>",is flirting with,
null,"<div style=""font-size:60px;"">+</div>",,html-keyboard-response,152,871780,0.0-13.0-0.19,47134,List1B,white,man,,,,null,,,,
null,"<img src=""stim_listB/flirt1.gif""style=""height:400px;""></stim_listB>",,html-keyboard-response,153,873786,0.0-13.0-1.19,47134,List1B,white,man,,,,null,,,,
null,is flirting with,,html-keyboard-response,154,875788,0.0-13.0-2.19,47134,List1B,white,man,,,,null,,,,
13265,,,survey-text,155,889054,0.0-13.0-3.19,47134,List1B,white,man,,,,,"{""Q0"":""kate is flirting with fred""}","<img src=""stim_listB/flirt1.gif""style=""height:400px;""></stim_listB>",is flirting with,
8224,"<img src='img/portrait_matrix_list1.jpg' style='width:900px;height:500px;''></img><p>If you have memorised all the portraits and names and are ready to start, press Continue.</p><p><strong>Please note: Your memory of these faces will be tested 4 times during this experiment.</strong></p>",0,html-button-response,156,897279,0.0-14.0-0.0,47134,List1B,white,man,,,,,,,,
2569,"<img src=""portrait/WM2.jpg""style=""height:400px;""></img>",7,html-button-response,157,900856,0.0-14.0-1.0,47134,List1B,white,man,,TRUE,7,,,,,
null,CORRECT,,html-keyboard-response,158,902365,0.0-14.0-2.0-0.0,47134,List1B,white,man,,,,null,,,,
6056,"<img src=""portrait/BW1.jpg""style=""height:400px;""></img>",0,html-button-response,159,908422,0.0-14.0-4.0,47134,List1B,white,man,,TRUE,0,,,,,
null,CORRECT,,html-keyboard-response,160,909929,0.0-14.0-5.0-0.0,47134,List1B,white,man,,,,null,,,,
2837,"<img src=""portrait/BW2.jpg""style=""height:400px;""></img>",2,html-button-response,161,912768,0.0-14.0-7.0,47134,List1B,white,man,,TRUE,2,,,,,
null,CORRECT,,html-keyboard-response,162,914275,0.0-14.0-8.0-0.0,47134,List1B,white,man,,,,null,,,,
6036,"<img src=""portrait/WM1.jpg""style=""height:400px;""></img>",6,html-button-response,163,920313,0.0-14.0-10.0,47134,List1B,white,man,,TRUE,6,,,,,
null,CORRECT,,html-keyboard-response,164,921819,0.0-14.0-11.0-0.0,47134,List1B,white,man,,,,null,,,,
1724,"<img src=""portrait/WW2.jpg""style=""height:400px;""></img>",3,html-button-response,165,923545,0.0-14.0-13.0,47134,List1B,white,man,,TRUE,3,,,,,
null,CORRECT,,html-keyboard-response,166,925052,0.0-14.0-14.0-0.0,47134,List1B,white,man,,,,null,,,,
4280,"<img src=""portrait/BM2.jpg""style=""height:400px;""></img>",5,html-button-response,167,929334,0.0-14.0-16.0,47134,List1B,white,man,,TRUE,5,,,,,
null,CORRECT,,html-keyboard-response,168,930837,0.0-14.0-17.0-0.0,47134,List1B,white,man,,,,null,,,,
4499,"<img src=""portrait/WW1.jpg""style=""height:400px;""></img>",1,html-button-response,169,935339,0.0-14.0-19.0,47134,List1B,white,man,,TRUE,1,,,,,
null,CORRECT,,html-keyboard-response,170,936850,0.0-14.0-20.0-0.0,47134,List1B,white,man,,,,null,,,,
2067,"<img src=""portrait/BM1.jpg""style=""height:400px;""></img>",4,html-button-response,171,938919,0.0-14.0-22.0,47134,List1B,white,man,,TRUE,4,,,,,
null,CORRECT,,html-keyboard-response,172,940425,0.0-14.0-23.0-0.0,47134,List1B,white,man,,,,null,,,,
1662,<p>You got 8 out of 8 right first time. Press Continue.</p>,0,html-button-response,173,942090,0.0-14.0-25.0,47134,List1B,white,man,,,,,,,,
null,"<div style=""font-size:60px;"">+</div>",,html-keyboard-response,174,943598,0.0-15.0-0.0,47134,List1B,white,man,,,,null,,,,
null,"<img src=""stim_listB/talk3.gif""style=""height:400px;""></stim_listB>",,html-keyboard-response,175,945605,0.0-15.0-1.0,47134,List1B,white,man,,,,null,,,,
null,is talking to,,html-keyboard-response,176,947611,0.0-15.0-2.0,47134,List1B,white,man,,,,null,,,,
55085,,,survey-text,177,1002697,0.0-15.0-3.0,47134,List1B,white,man,,,,,"{""Q0"":""luke is talking to jane""}","<img src=""stim_listB/talk3.gif""style=""height:400px;""></stim_listB>",is talking to,
null,"<div style=""font-size:60px;"">+</div>",,html-keyboard-response,178,1003199,0.0-15.0-0.1,47134,List1B,white,man,,,,null,,,,
null,"<img src=""stim_listB/dance4.gif""style=""height:400px;""></stim_listB>",,html-keyboard-response,179,1005206,0.0-15.0-1.1,47134,List1B,white,man,,,,null,,,,
null,are dancing with each other,,html-keyboard-response,180,1007209,0.0-15.0-2.1,47134,List1B,white,man,,,,null,,,,
12247,,,survey-text,181,1019458,0.0-15.0-3.1,47134,List1B,white,man,,,,,"{""Q0"":""dave is talking to ruth""}","<img src=""stim_listB/dance4.gif""style=""height:400px;""></stim_listB>",are dancing with each other,
null,"<div style=""font-size:60px;"">+</div>",,html-keyboard-response,182,1019959,0.0-15.0-0.2,47134,List1B,white,man,,,,null,,,,
null,"<img src=""stim_listB/kiss6.gif""style=""height:400px;""></stim_listB>",,html-keyboard-response,183,1021964,0.0-15.0-1.2,47134,List1B,white,man,,,,null,,,,
null,are kissing each other,,html-keyboard-response,184,1023969,0.0-15.0-2.2,47134,List1B,white,man,,,,null,,,,
11382,,,survey-text,185,1035353,0.0-15.0-3.2,47134,List1B,white,man,,,,,"{""Q0"":""mike and dave are kissing each other""}","<img src=""stim_listB/kiss6.gif""style=""height:400px;""></stim_listB>",are kissing each other,
null,"<div style=""font-size:60px;"">+</div>",,html-keyboard-response,186,1035855,0.0-15.0-0.3,47134,List1B,white,man,,,,null,,,,
null,"<img src=""stim_listB/dance7.gif""style=""height:400px;""></stim_listB>",,html-keyboard-response,187,1037858,0.0-15.0-1.3,47134,List1B,white,man,,,,null,,,,
null,is dancing with,,html-keyboard-response,188,1039863,0.0-15.0-2.3,47134,List1B,white,man,,,,null,,,,
10734,,,survey-text,189,1050599,0.0-15.0-3.3,47134,List1B,white,man,,,,,"{""Q0"":""jane is dancing with beth""}","<img src=""stim_listB/dance7.gif""style=""height:400px;""></stim_listB>",is dancing with,
null,"<div style=""font-size:60px;"">+</div>",,html-keyboard-response,190,1051100,0.0-15.0-0.4,47134,List1B,white,man,,,,null,,,,
null,"<img src=""stim_listB/marry4.gif""style=""height:400px;""></stim_listB>",,html-keyboard-response,191,1053106,0.0-15.0-1.4,47134,List1B,white,man,,,,null,,,,
null,are marrying each other,,html-keyboard-response,192,1055107,0.0-15.0-2.4,47134,List1B,white,man,,,,null,,,,
22902,,,survey-text,193,1078011,0.0-15.0-3.4,47134,List1B,white,man,,,,,"{""Q0"":""luke and jane are marrying each other""}","<img src=""stim_listB/marry4.gif""style=""height:400px;""></stim_listB>",are marrying each other,
null,"<div style=""font-size:60px;"">+</div>",,html-keyboard-response,194,1078513,0.0-15.0-0.5,47134,List1B,white,man,,,,null,,,,
null,"<img src=""stim_listB/fight2.gif""style=""height:400px;""></stim_listB>",,html-keyboard-response,195,1080517,0.0-15.0-1.5,47134,List1B,white,man,,,,null,,,,
null,are fighting each other,,html-keyboard-response,196,1082521,0.0-15.0-2.5,47134,List1B,white,man,,,,null,,,,
17120,,,survey-text,197,1099642,0.0-15.0-3.5,47134,List1B,white,man,,,,,"{""Q0"":""beth and fred are fighting each other""}","<img src=""stim_listB/fight2.gif""style=""height:400px;""></stim_listB>",are fighting each other,
null,"<div style=""font-size:60px;"">+</div>",,html-keyboard-response,198,1100147,0.0-15.0-0.6,47134,List1B,white,man,,,,null,,,,
null,"<img src=""stim_listB/touch1.gif""style=""height:400px;""></stim_listB>",,html-keyboard-response,199,1102151,0.0-15.0-1.6,47134,List1B,white,man,,,,null,,,,
null,is touching,,html-keyboard-response,200,1104153,0.0-15.0-2.6,47134,List1B,white,man,,,,null,,,,
6242,,,survey-text,201,1110396,0.0-15.0-3.6,47134,List1B,white,man,,,,,"{""Q0"":""kate is touching mike""}","<img src=""stim_listB/touch1.gif""style=""height:400px;""></stim_listB>",is touching,
null,"<div style=""font-size:60px;"">+</div>",,html-keyboard-response,202,1110901,0.0-15.0-0.7,47134,List1B,white,man,,,,null,,,,
null,"<img src=""stim_listB/fight4.gif""style=""height:400px;""></stim_listB>",,html-keyboard-response,203,1112905,0.0-15.0-1.7,47134,List1B,white,man,,,,null,,,,
null,are fighting each other,,html-keyboard-response,204,1114907,0.0-15.0-2.7,47134,List1B,white,man,,,,null,,,,
10626,,,survey-text,205,1125534,0.0-15.0-3.7,47134,List1B,white,man,,,,,"{""Q0"":""luke and ruth are fighting each other""}","<img src=""stim_listB/fight4.gif""style=""height:400px;""></stim_listB>",are fighting each other,
null,"<div style=""font-size:60px;"">+</div>",,html-keyboard-response,206,1126037,0.0-15.0-0.8,47134,List1B,white,man,,,,null,,,,
null,"<img src=""stim_listB/touch4.gif""style=""height:400px;""></stim_listB>",,html-keyboard-response,207,1128041,0.0-15.0-1.8,47134,List1B,white,man,,,,null,,,,
null,are touching each other,,html-keyboard-response,208,1130044,0.0-15.0-2.8,47134,List1B,white,man,,,,null,,,,
17233,,,survey-text,209,1147278,0.0-15.0-3.8,47134,List1B,white,man,,,,,"{""Q0"":""luke and ruth are touching each other""}","<img src=""stim_listB/touch4.gif""style=""height:400px;""></stim_listB>",are touching each other,
null,"<div style=""font-size:60px;"">+</div>",,html-keyboard-response,210,1147780,0.0-15.0-0.9,47134,List1B,white,man,,,,null,,,,
null,"<img src=""stim_listB/touch3.gif""style=""height:400px;""></stim_listB>",,html-keyboard-response,211,1149785,0.0-15.0-1.9,47134,List1B,white,man,,,,null,,,,
null,is touching,,html-keyboard-response,212,1151789,0.0-15.0-2.9,47134,List1B,white,man,,,,null,,,,
10732,,,survey-text,213,1162522,0.0-15.0-3.9,47134,List1B,white,man,,,,,"{""Q0"":""mike is touching jane""}","<img src=""stim_listB/touch3.gif""style=""height:400px;""></stim_listB>",is touching,
null,"<div style=""font-size:60px;"">+</div>",,html-keyboard-response,214,1163025,0.0-15.0-0.10,47134,List1B,white,man,,,,null,,,,
null,"<img src=""stim_listB/dance6.gif""style=""height:400px;""></stim_listB>",,html-keyboard-response,215,1165030,0.0-15.0-1.10,47134,List1B,white,man,,,,null,,,,
null,are dancing with each other,,html-keyboard-response,216,1167034,0.0-15.0-2.10,47134,List1B,white,man,,,,null,,,,
8955,,,survey-text,217,1175990,0.0-15.0-3.10,47134,List1B,white,man,,,,,"{""Q0"":""mike and luke are dancing with each other""}","<img src=""stim_listB/dance6.gif""style=""height:400px;""></stim_listB>",are dancing with each other,
null,"<div style=""font-size:60px;"">+</div>",,html-keyboard-response,218,1176495,0.0-15.0-0.11,47134,List1B,white,man,,,,null,,,,
null,"<img src=""stim_listB/marry8.gif""style=""height:400px;""></stim_listB>",,html-keyboard-response,219,1178497,0.0-15.0-1.11,47134,List1B,white,man,,,,null,,,,
null,are marrying each other,,html-keyboard-response,220,1180502,0.0-15.0-2.11,47134,List1B,white,man,,,,null,,,,
15453,,,survey-text,221,1195957,0.0-15.0-3.11,47134,List1B,white,man,,,,,"{""Q0"":""beth and kate are marrying each other""}","<img src=""stim_listB/marry8.gif""style=""height:400px;""></stim_listB>",are marrying each other,
null,"<div style=""font-size:60px;"">+</div>",,html-keyboard-response,222,1196460,0.0-15.0-0.12,47134,List1B,white,man,,,,null,,,,
null,"<img src=""stim_listB/marry5.gif""style=""height:400px;""></stim_listB>",,html-keyboard-response,223,1198462,0.0-15.0-1.12,47134,List1B,white,man,,,,null,,,,
null,is marrying,,html-keyboard-response,224,1200464,0.0-15.0-2.12,47134,List1B,white,man,,,,null,,,,
5939,,,survey-text,225,1206404,0.0-15.0-3.12,47134,List1B,white,man,,,,,"{""Q0"":""luke is marrying mike""}","<img src=""stim_listB/marry5.gif""style=""height:400px;""></stim_listB>",is marrying,
null,"<div style=""font-size:60px;"">+</div>",,html-keyboard-response,226,1206905,0.0-15.0-0.13,47134,List1B,white,man,,,,null,,,,
null,"<img src=""stim_listB/kiss3.gif""style=""height:400px;""></stim_listB>",,html-keyboard-response,227,1208909,0.0-15.0-1.13,47134,List1B,white,man,,,,null,,,,
null,is kissing,,html-keyboard-response,228,1210914,0.0-15.0-2.13,47134,List1B,white,man,,,,null,,,,
6484,,,survey-text,229,1217399,0.0-15.0-3.13,47134,List1B,white,man,,,,,"{""Q0"":""luke is kissing ruth""}","<img src=""stim_listB/kiss3.gif""style=""height:400px;""></stim_listB>",is kissing,
null,"<div style=""font-size:60px;"">+</div>",,html-keyboard-response,230,1217901,0.0-15.0-0.14,47134,List1B,white,man,,,,null,,,,
null,"<img src=""stim_listB/talk2.gif""style=""height:400px;""></stim_listB>",,html-keyboard-response,231,1219904,0.0-15.0-1.14,47134,List1B,white,man,,,,null,,,,
null,are talking to each other,,html-keyboard-response,232,1221907,0.0-15.0-2.14,47134,List1B,white,man,,,,null,,,,
10274,,,survey-text,233,1232183,0.0-15.0-3.14,47134,List1B,white,man,,,,,"{""Q0"":""mike and beth are talking to each other""}","<img src=""stim_listB/talk2.gif""style=""height:400px;""></stim_listB>",are talking to each other,
null,"<div style=""font-size:60px;"">+</div>",,html-keyboard-response,234,1232684,0.0-15.0-0.15,47134,List1B,white,man,,,,null,,,,
null,"<img src=""stim_listB/fight8.gif""style=""height:400px;""></stim_listB>",,html-keyboard-response,235,1234688,0.0-15.0-1.15,47134,List1B,white,man,,,,null,,,,
null,are fighting each other,,html-keyboard-response,236,1236691,0.0-15.0-2.15,47134,List1B,white,man,,,,null,,,,
8855,,,survey-text,237,1245547,0.0-15.0-3.15,47134,List1B,white,man,,,,,"{""Q0"":""beth and ruth are fighting each other""}","<img src=""stim_listB/fight8.gif""style=""height:400px;""></stim_listB>",are fighting each other,
null,"<div style=""font-size:60px;"">+</div>",,html-keyboard-response,238,1246052,0.0-15.0-0.16,47134,List1B,white,man,,,,null,,,,
null,"<img src=""stim_listB/argue2.gif""style=""height:400px;""></stim_listB>",,html-keyboard-response,239,1248056,0.0-15.0-1.16,47134,List1B,white,man,,,,null,,,,
null,are arguing with each other,,html-keyboard-response,240,1250063,0.0-15.0-2.16,47134,List1B,white,man,,,,null,,,,
10016,,,survey-text,241,1260081,0.0-15.0-3.16,47134,List1B,white,man,,,,,"{""Q0"":""fred and kate are arguing with each other""}","<img src=""stim_listB/argue2.gif""style=""height:400px;""></stim_listB>",are arguing with each other,
null,"<div style=""font-size:60px;"">+</div>",,html-keyboard-response,242,1260584,0.0-15.0-0.17,47134,List1B,white,man,,,,null,,,,
null,"<img src=""stim_listB/kiss5.gif""style=""height:400px;""></stim_listB>",,html-keyboard-response,243,1262591,0.0-15.0-1.17,47134,List1B,white,man,,,,null,,,,
null,is kissing,,html-keyboard-response,244,1264595,0.0-15.0-2.17,47134,List1B,white,man,,,,null,,,,
16761,,,survey-text,245,1281358,0.0-15.0-3.17,47134,List1B,white,man,,,,,"{""Q0"":""luke is kissing fred""}","<img src=""stim_listB/kiss5.gif""style=""height:400px;""></stim_listB>",is kissing,
null,"<div style=""font-size:60px;"">+</div>",,html-keyboard-response,246,1281859,0.0-15.0-0.18,47134,List1B,white,man,,,,null,,,,
null,"<img src=""stim_listB/argue3.gif""style=""height:400px;""></stim_listB>",,html-keyboard-response,247,1283862,0.0-15.0-1.18,47134,List1B,white,man,,,,null,,,,
null,is arguing with,,html-keyboard-response,248,1285864,0.0-15.0-2.18,47134,List1B,white,man,,,,null,,,,
8386,,,survey-text,249,1294252,0.0-15.0-3.18,47134,List1B,white,man,,,,,"{""Q0"":""dave is arguing with ruth""}","<img src=""stim_listB/argue3.gif""style=""height:400px;""></stim_listB>",is arguing with,
null,"<div style=""font-size:60px;"">+</div>",,html-keyboard-response,250,1294754,0.0-15.0-0.19,47134,List1B,white,man,,,,null,,,,
null,"<img src=""stim_listB/flirt2.gif""style=""height:400px;""></stim_listB>",,html-keyboard-response,251,1296758,0.0-15.0-1.19,47134,List1B,white,man,,,,null,,,,
null,are flirting with each other,,html-keyboard-response,252,1298762,0.0-15.0-2.19,47134,List1B,white,man,,,,null,,,,
574,,,survey-text,253,1299337,0.0-15.0-3.19,47134,List1B,white,man,,,,,"{""Q0"":""""}","<img src=""stim_listB/flirt2.gif""style=""height:400px;""></stim_listB>",are flirting with each other,
27477,"<img src='img/portrait_matrix_list1.jpg' style='width:900px;height:500px;''></img><p>If you have memorised all the portraits and names and are ready to start, press Continue.</p><p><strong>Please note: Your memory of these faces will be tested 4 times during this experiment.</strong></p>",0,html-button-response,254,1326816,0.0-16.0-0.0,47134,List1B,white,man,,,,,,,,
2533,"<img src=""portrait/WW1.jpg""style=""height:400px;""></img>",1,html-button-response,255,1330352,0.0-16.0-1.0,47134,List1B,white,man,,TRUE,1,,,,,
null,CORRECT,,html-keyboard-response,256,1331855,0.0-16.0-2.0-0.0,47134,List1B,white,man,,,,null,,,,
2144,"<img src=""portrait/WM1.jpg""style=""height:400px;""></img>",6,html-button-response,257,1334001,0.0-16.0-4.0,47134,List1B,white,man,,TRUE,6,,,,,
null,CORRECT,,html-keyboard-response,258,1335506,0.0-16.0-5.0-0.0,47134,List1B,white,man,,,,null,,,,
1685,"<img src=""portrait/WW2.jpg""style=""height:400px;""></img>",3,html-button-response,259,1337194,0.0-16.0-7.0,47134,List1B,white,man,,TRUE,3,,,,,
null,CORRECT,,html-keyboard-response,260,1338696,0.0-16.0-8.0-0.0,47134,List1B,white,man,,,,null,,,,
5298,"<img src=""portrait/BM2.jpg""style=""height:400px;""></img>",5,html-button-response,261,1343997,0.0-16.0-10.0,47134,List1B,white,man,,TRUE,5,,,,,
null,CORRECT,,html-keyboard-response,262,1345505,0.0-16.0-11.0-0.0,47134,List1B,white,man,,,,null,,,,
9737,"<img src=""portrait/BW2.jpg""style=""height:400px;""></img>",2,html-button-response,263,1355244,0.0-16.0-13.0,47134,List1B,white,man,,TRUE,2,,,,,
null,CORRECT,,html-keyboard-response,264,1356750,0.0-16.0-14.0-0.0,47134,List1B,white,man,,,,null,,,,
1910,"<img src=""portrait/BM1.jpg""style=""height:400px;""></img>",4,html-button-response,265,1358662,0.0-16.0-16.0,47134,List1B,white,man,,TRUE,4,,,,,
null,CORRECT,,html-keyboard-response,266,1360164,0.0-16.0-17.0-0.0,47134,List1B,white,man,,,,null,,,,
1576,"<img src=""portrait/WM2.jpg""style=""height:400px;""></img>",7,html-button-response,267,1361743,0.0-16.0-19.0,47134,List1B,white,man,,TRUE,7,,,,,
null,CORRECT,,html-keyboard-response,268,1363250,0.0-16.0-20.0-0.0,47134,List1B,white,man,,,,null,,,,
2762,"<img src=""portrait/BW1.jpg""style=""height:400px;""></img>",0,html-button-response,269,1366014,0.0-16.0-22.0,47134,List1B,white,man,,TRUE,0,,,,,
null,CORRECT,,html-keyboard-response,270,1367516,0.0-16.0-23.0-0.0,47134,List1B,white,man,,,,null,,,,
1882,<p>You got 8 out of 8 right first time. Press Continue.</p>,0,html-button-response,271,1369400,0.0-16.0-25.0,47134,List1B,white,man,,,,,,,,
null,"<div style=""font-size:60px;"">+</div>",,html-keyboard-response,272,1370906,0.0-17.0-0.0,47134,List1B,white,man,,,,null,,,,
null,"<img src=""stim_listB/shout5.gif""style=""height:400px;""></stim_listB>",,html-keyboard-response,273,1372911,0.0-17.0-1.0,47134,List1B,white,man,,,,null,,,,
null,is shouting at,,html-keyboard-response,274,1374913,0.0-17.0-2.0,47134,List1B,white,man,,,,null,,,,
8889,,,survey-text,275,1383803,0.0-17.0-3.0,47134,List1B,white,man,,,,,"{""Q0"":""fred is shouting at luke""}","<img src=""stim_listB/shout5.gif""style=""height:400px;""></stim_listB>",is shouting at,
null,"<div style=""font-size:60px;"">+</div>",,html-keyboard-response,276,1384304,0.0-17.0-0.1,47134,List1B,white,man,,,,null,,,,
null,"<img src=""stim_listB/flirt4.gif""style=""height:400px;""></stim_listB>",,html-keyboard-response,277,1386308,0.0-17.0-1.1,47134,List1B,white,man,,,,null,,,,
null,are flirting with each other,,html-keyboard-response,278,1388310,0.0-17.0-2.1,47134,List1B,white,man,,,,null,,,,
9492,,,survey-text,279,1397803,0.0-17.0-3.1,47134,List1B,white,man,,,,,"{""Q0"":""dave and ruth are flirting with each other""}","<img src=""stim_listB/flirt4.gif""style=""height:400px;""></stim_listB>",are flirting with each other,
null,"<div style=""font-size:60px;"">+</div>",,html-keyboard-response,280,1398307,0.0-17.0-0.2,47134,List1B,white,man,,,,null,,,,
null,"<img src=""stim_listB/fight7.gif""style=""height:400px;""></stim_listB>",,html-keyboard-response,281,1400312,0.0-17.0-1.2,47134,List1B,white,man,,,,null,,,,
null,is fighting,,html-keyboard-response,282,1402317,0.0-17.0-2.2,47134,List1B,white,man,,,,null,,,,
6149,,,survey-text,283,1408467,0.0-17.0-3.2,47134,List1B,white,man,,,,,"{""Q0"":""kate is fighting jane""}","<img src=""stim_listB/fight7.gif""style=""height:400px;""></stim_listB>",is fighting,
null,"<div style=""font-size:60px;"">+</div>",,html-keyboard-response,284,1408970,0.0-17.0-0.3,47134,List1B,white,man,,,,null,,,,
null,"<img src=""stim_listB/touch7.gif""style=""height:400px;""></stim_listB>",,html-keyboard-response,285,1410973,0.0-17.0-1.3,47134,List1B,white,man,,,,null,,,,
null,is touching,,html-keyboard-response,286,1412975,0.0-17.0-2.3,47134,List1B,white,man,,,,null,,,,
7623,,,survey-text,287,1420599,0.0-17.0-3.3,47134,List1B,white,man,,,,,"{""Q0"":""kate is touching jane""}","<img src=""stim_listB/touch7.gif""style=""height:400px;""></stim_listB>",is touching,
null,"<div style=""font-size:60px;"">+</div>",,html-keyboard-response,288,1421103,0.0-17.0-0.4,47134,List1B,white,man,,,,null,,,,
null,"<img src=""stim_listB/dance5.gif""style=""height:400px;""></stim_listB>",,html-keyboard-response,289,1423106,0.0-17.0-1.4,47134,List1B,white,man,,,,null,,,,
null,is dancing with,,html-keyboard-response,290,1425108,0.0-17.0-2.4,47134,List1B,white,man,,,,null,,,,
5937,,,survey-text,291,1431046,0.0-17.0-3.4,47134,List1B,white,man,,,,,"{""Q0"":""dave is dancing with fred""}","<img src=""stim_listB/dance5.gif""style=""height:400px;""></stim_listB>",is dancing with,
null,"<div style=""font-size:60px;"">+</div>",,html-keyboard-response,292,1431547,0.0-17.0-0.5,47134,List1B,white,man,,,,null,,,,
null,"<img src=""stim_listB/argue1.gif""style=""height:400px;""></stim_listB>",,html-keyboard-response,293,1433553,0.0-17.0-1.5,47134,List1B,white,man,,,,null,,,,
null,is arguing with,,html-keyboard-response,294,1435557,0.0-17.0-2.5,47134,List1B,white,man,,,,null,,,,
7128,,,survey-text,295,1442687,0.0-17.0-3.5,47134,List1B,white,man,,,,,"{""Q0"":""beth is arguing with mike""}","<img src=""stim_listB/argue1.gif""style=""height:400px;""></stim_listB>",is arguing with,
null,"<div style=""font-size:60px;"">+</div>",,html-keyboard-response,296,1443190,0.0-17.0-0.6,47134,List1B,white,man,,,,null,,,,
null,"<img src=""stim_listB/kiss1.gif""style=""height:400px;""></stim_listB>",,html-keyboard-response,297,1445196,0.0-17.0-1.6,47134,List1B,white,man,,,,null,,,,
null,is kissing,,html-keyboard-response,298,1447198,0.0-17.0-2.6,47134,List1B,white,man,,,,null,,,,
6008,,,survey-text,299,1453207,0.0-17.0-3.6,47134,List1B,white,man,,,,,"{""Q0"":""beth is kissing fred""}","<img src=""stim_listB/kiss1.gif""style=""height:400px;""></stim_listB>",is kissing,
null,"<div style=""font-size:60px;"">+</div>",,html-keyboard-response,300,1453709,0.0-17.0-0.7,47134,List1B,white,man,,,,null,,,,
null,"<img src=""stim_listB/play5.gif""style=""height:400px;""></stim_listB>",,html-keyboard-response,301,1455712,0.0-17.0-1.7,47134,List1B,white,man,,,,null,,,,
null,is playing with,,html-keyboard-response,302,1457718,0.0-17.0-2.7,47134,List1B,white,man,,,,null,,,,
11114,,,survey-text,303,1468836,0.0-17.0-3.7,47134,List1B,white,man,,,,,"{""Q0"":""mike is playing with dave""}","<img src=""stim_listB/play5.gif""style=""height:400px;""></stim_listB>",is playing with,
null,"<div style=""font-size:60px;"">+</div>",,html-keyboard-response,304,1469339,0.0-17.0-0.8,47134,List1B,white,man,,,,null,,,,
null,"<img src=""stim_listB/talk8.gif""style=""height:400px;""></stim_listB>",,html-keyboard-response,305,1471343,0.0-17.0-1.8,47134,List1B,white,man,,,,null,,,,
null,are talking to each other,,html-keyboard-response,306,1473348,0.0-17.0-2.8,47134,List1B,white,man,,,,null,,,,
12979,,,survey-text,307,1486328,0.0-17.0-3.8,47134,List1B,white,man,,,,,"{""Q0"":""kate and ruth are taking to each other""}","<img src=""stim_listB/talk8.gif""style=""height:400px;""></stim_listB>",are talking to each other,
null,"<div style=""font-size:60px;"">+</div>",,html-keyboard-response,308,1486830,0.0-17.0-0.9,47134,List1B,white,man,,,,null,,,,
null,"<img src=""stim_listB/play3.gif""style=""height:400px;""></stim_listB>",,html-keyboard-response,309,1488836,0.0-17.0-1.9,47134,List1B,white,man,,,,null,,,,
null,is playing with,,html-keyboard-response,310,1490839,0.0-17.0-2.9,47134,List1B,white,man,,,,null,,,,
7520,,,survey-text,311,1498361,0.0-17.0-3.9,47134,List1B,white,man,,,,,"{""Q0"":""dave is playing with ruth""}","<img src=""stim_listB/play3.gif""style=""height:400px;""></stim_listB>",is playing with,
null,"<div style=""font-size:60px;"">+</div>",,html-keyboard-response,312,1498864,0.0-17.0-0.10,47134,List1B,white,man,,,,null,,,,
null,"<img src=""stim_listB/play2.gif""style=""height:400px;""></stim_listB>",,html-keyboard-response,313,1500868,0.0-17.0-1.10,47134,List1B,white,man,,,,null,,,,
null,are playing with each other,,html-keyboard-response,314,1502871,0.0-17.0-2.10,47134,List1B,white,man,,,,null,,,,
9841,,,survey-text,315,1512713,0.0-17.0-3.10,47134,List1B,white,man,,,,,"{""Q0"":""beth and fred are playing with each other""}","<img src=""stim_listB/play2.gif""style=""height:400px;""></stim_listB>",are playing with each other,
null,"<div style=""font-size:60px;"">+</div>",,html-keyboard-response,316,1513218,0.0-17.0-0.11,47134,List1B,white,man,,,,null,,,,
null,"<img src=""stim_listB/marry1.gif""style=""height:400px;""></stim_listB>",,html-keyboard-response,317,1515223,0.0-17.0-1.11,47134,List1B,white,man,,,,null,,,,
null,is marrying,,html-keyboard-response,318,1517225,0.0-17.0-2.11,47134,List1B,white,man,,,,null,,,,
7542,,,survey-text,319,1524768,0.0-17.0-3.11,47134,List1B,white,man,,,,,"{""Q0"":""beth is marrying mike""}","<img src=""stim_listB/marry1.gif""style=""height:400px;""></stim_listB>",is marrying,
null,"<div style=""font-size:60px;"">+</div>",,html-keyboard-response,320,1525271,0.0-17.0-0.12,47134,List1B,white,man,,,,null,,,,
null,"<img src=""stim_listB/shout4.gif""style=""height:400px;""></stim_listB>",,html-keyboard-response,321,1527277,0.0-17.0-1.12,47134,List1B,white,man,,,,null,,,,
null,are shouting at each other,,html-keyboard-response,322,1529282,0.0-17.0-2.12,47134,List1B,white,man,,,,null,,,,
12096,,,survey-text,323,1541379,0.0-17.0-3.12,47134,List1B,white,man,,,,,"{""Q0"":""dave and ruth are shouting at each other""}","<img src=""stim_listB/shout4.gif""style=""height:400px;""></stim_listB>",are shouting at each other,
null,"<div style=""font-size:60px;"">+</div>",,html-keyboard-response,324,1541881,0.0-17.0-0.13,47134,List1B,white,man,,,,null,,,,
null,"<img src=""stim_listB/fight6.gif""style=""height:400px;""></stim_listB>",,html-keyboard-response,325,1543886,0.0-17.0-1.13,47134,List1B,white,man,,,,null,,,,
null,are fighting each other,,html-keyboard-response,326,1545888,0.0-17.0-2.13,47134,List1B,white,man,,,,null,,,,
7797,,,survey-text,327,1553686,0.0-17.0-3.13,47134,List1B,white,man,,,,,"{""Q0"":""fred and luke are fighting each other""}","<img src=""stim_listB/fight6.gif""style=""height:400px;""></stim_listB>",are fighting each other,
null,"<div style=""font-size:60px;"">+</div>",,html-keyboard-response,328,1554189,0.0-17.0-0.14,47134,List1B,white,man,,,,null,,,,
null,"<img src=""stim_listB/talk1.gif""style=""height:400px;""></stim_listB>",,html-keyboard-response,329,1556194,0.0-17.0-1.14,47134,List1B,white,man,,,,null,,,,
null,is talking to,,html-keyboard-response,330,1558195,0.0-17.0-2.14,47134,List1B,white,man,,,,null,,,,
5839,,,survey-text,331,1564034,0.0-17.0-3.14,47134,List1B,white,man,,,,,"{""Q0"":""kate is talking to fred""}","<img src=""stim_listB/talk1.gif""style=""height:400px;""></stim_listB>",is talking to,
null,"<div style=""font-size:60px;"">+</div>",,html-keyboard-response,332,1564537,0.0-17.0-0.15,47134,List1B,white,man,,,,null,,,,
null,"<img src=""stim_listB/talk5.gif""style=""height:400px;""></stim_listB>",,html-keyboard-response,333,1566542,0.0-17.0-1.15,47134,List1B,white,man,,,,null,,,,
null,is talking to,,html-keyboard-response,334,1568545,0.0-17.0-2.15,47134,List1B,white,man,,,,null,,,,
5517,,,survey-text,335,1574063,0.0-17.0-3.15,47134,List1B,white,man,,,,,"{""Q0"":""dave is talking to fred""}","<img src=""stim_listB/talk5.gif""style=""height:400px;""></stim_listB>",is talking to,
null,"<div style=""font-size:60px;"">+</div>",,html-keyboard-response,336,1574564,0.0-17.0-0.16,47134,List1B,white,man,,,,null,,,,
null,"<img src=""stim_listB/dance8.gif""style=""height:400px;""></stim_listB>",,html-keyboard-response,337,1576570,0.0-17.0-1.16,47134,List1B,white,man,,,,null,,,,
null,are dancing with each other,,html-keyboard-response,338,1578573,0.0-17.0-2.16,47134,List1B,white,man,,,,null,,,,
9369,,,survey-text,339,1587945,0.0-17.0-3.16,47134,List1B,white,man,,,,,"{""Q0"":""kate and ruth are dancing with each other""}","<img src=""stim_listB/dance8.gif""style=""height:400px;""></stim_listB>",are dancing with each other,
null,"<div style=""font-size:60px;"">+</div>",,html-keyboard-response,340,1588447,0.0-17.0-0.17,47134,List1B,white,man,,,,null,,,,
null,"<img src=""stim_listB/argue4.gif""style=""height:400px;""></stim_listB>",,html-keyboard-response,341,1590453,0.0-17.0-1.17,47134,List1B,white,man,,,,null,,,,
null,are arguing with each other,,html-keyboard-response,342,1592455,0.0-17.0-2.17,47134,List1B,white,man,,,,null,,,,
13969,,,survey-text,343,1606425,0.0-17.0-3.17,47134,List1B,white,man,,,,,"{""Q0"":""luke and jane are arguing with each other""}","<img src=""stim_listB/argue4.gif""style=""height:400px;""></stim_listB>",are arguing with each other,
null,"<div style=""font-size:60px;"">+</div>",,html-keyboard-response,344,1606927,0.0-17.0-0.18,47134,List1B,white,man,,,,null,,,,
null,"<img src=""stim_listB/flirt5.gif""style=""height:400px;""></stim_listB>",,html-keyboard-response,345,1608931,0.0-17.0-1.18,47134,List1B,white,man,,,,null,,,,
null,is flirting with,,html-keyboard-response,346,1610934,0.0-17.0-2.18,47134,List1B,white,man,,,,null,,,,
6617,,,survey-text,347,1617553,0.0-17.0-3.18,47134,List1B,white,man,,,,,"{""Q0"":""dave is flirting with fred""}","<img src=""stim_listB/flirt5.gif""style=""height:400px;""></stim_listB>",is flirting with,
null,"<div style=""font-size:60px;"">+</div>",,html-keyboard-response,348,1618055,0.0-17.0-0.19,47134,List1B,white,man,,,,null,,,,
null,"<img src=""stim_listB/touch8.gif""style=""height:400px;""></stim_listB>",,html-keyboard-response,349,1620058,0.0-17.0-1.19,47134,List1B,white,man,,,,null,,,,
null,are touching each other,,html-keyboard-response,350,1622062,0.0-17.0-2.19,47134,List1B,white,man,,,,null,,,,
8121,,,survey-text,351,1630184,0.0-17.0-3.19,47134,List1B,white,man,,,,,"{""Q0"":""beth and ruth are touching each other""}","<img src=""stim_listB/touch8.gif""style=""height:400px;""></stim_listB>",are touching each other,
4104,"<img src='img/portrait_matrix_list1.jpg' style='width:900px;height:500px;''></img><p>If you have memorised all the portraits and names and are ready to start, press Continue.</p><p><strong>Please note: Your memory of these faces will be tested 4 times during this experiment.</strong></p>",0,html-button-response,352,1634289,0.0-18.0-0.0,47134,List1B,white,man,,,,,,,,
2637,"<img src=""portrait/BW1.jpg""style=""height:400px;""></img>",0,html-button-response,353,1637934,0.0-18.0-1.0,47134,List1B,white,man,,TRUE,0,,,,,
null,CORRECT,,html-keyboard-response,354,1639438,0.0-18.0-2.0-0.0,47134,List1B,white,man,,,,null,,,,
1454,"<img src=""portrait/WW1.jpg""style=""height:400px;""></img>",1,html-button-response,355,1640894,0.0-18.0-4.0,47134,List1B,white,man,,TRUE,1,,,,,
null,CORRECT,,html-keyboard-response,356,1642397,0.0-18.0-5.0-0.0,47134,List1B,white,man,,,,null,,,,
1877,"<img src=""portrait/BM2.jpg""style=""height:400px;""></img>",5,html-button-response,357,1644276,0.0-18.0-7.0,47134,List1B,white,man,,TRUE,5,,,,,
null,CORRECT,,html-keyboard-response,358,1645782,0.0-18.0-8.0-0.0,47134,List1B,white,man,,,,null,,,,
1318,"<img src=""portrait/BM1.jpg""style=""height:400px;""></img>",4,html-button-response,359,1647103,0.0-18.0-10.0,47134,List1B,white,man,,TRUE,4,,,,,
null,CORRECT,,html-keyboard-response,360,1648607,0.0-18.0-11.0-0.0,47134,List1B,white,man,,,,null,,,,
1803,"<img src=""portrait/BW2.jpg""style=""height:400px;""></img>",2,html-button-response,361,1650413,0.0-18.0-13.0,47134,List1B,white,man,,TRUE,2,,,,,
null,CORRECT,,html-keyboard-response,362,1651918,0.0-18.0-14.0-0.0,47134,List1B,white,man,,,,null,,,,
2010,"<img src=""portrait/WM1.jpg""style=""height:400px;""></img>",6,html-button-response,363,1653932,0.0-18.0-16.0,47134,List1B,white,man,,TRUE,6,,,,,
null,CORRECT,,html-keyboard-response,364,1655437,0.0-18.0-17.0-0.0,47134,List1B,white,man,,,,null,,,,
1363,"<img src=""portrait/WM2.jpg""style=""height:400px;""></img>",7,html-button-response,365,1656801,0.0-18.0-19.0,47134,List1B,white,man,,TRUE,7,,,,,
null,CORRECT,,html-keyboard-response,366,1658306,0.0-18.0-20.0-0.0,47134,List1B,white,man,,,,null,,,,
2584,"<img src=""portrait/WW2.jpg""style=""height:400px;""></img>",3,html-button-response,367,1660892,0.0-18.0-22.0,47134,List1B,white,man,,TRUE,3,,,,,
null,CORRECT,,html-keyboard-response,368,1662398,0.0-18.0-23.0-0.0,47134,List1B,white,man,,,,null,,,,
2702,<p>You got 8 out of 8 right first time. Press Continue.</p>,0,html-button-response,369,1665101,0.0-18.0-25.0,47134,List1B,white,man,,,,,,,,
null,"<div style=""font-size:60px;"">+</div>",,html-keyboard-response,370,1666610,0.0-19.0-0.0,47134,List1B,white,man,,,,null,,,,
null,"<img src=""stim_listB/shout1.gif""style=""height:400px;""></stim_listB>",,html-keyboard-response,371,1668615,0.0-19.0-1.0,47134,List1B,white,man,,,,null,,,,
null,is shouting at,,html-keyboard-response,372,1670619,0.0-19.0-2.0,47134,List1B,white,man,,,,null,,,,
6215,,,survey-text,373,1676835,0.0-19.0-3.0,47134,List1B,white,man,,,,,"{""Q0"":""beth is shouting at fred""}","<img src=""stim_listB/shout1.gif""style=""height:400px;""></stim_listB>",is shouting at,
null,"<div style=""font-size:60px;"">+</div>",,html-keyboard-response,374,1677337,0.0-19.0-0.1,47134,List1B,white,man,,,,null,,,,
null,"<img src=""stim_listB/fight5.gif""style=""height:400px;""></stim_listB>",,html-keyboard-response,375,1679342,0.0-19.0-1.1,47134,List1B,white,man,,,,null,,,,
null,is fighting,,html-keyboard-response,376,1681343,0.0-19.0-2.1,47134,List1B,white,man,,,,null,,,,
5749,,,survey-text,377,1687094,0.0-19.0-3.1,47134,List1B,white,man,,,,,"{""Q0"":""dave is fighting mike""}","<img src=""stim_listB/fight5.gif""style=""height:400px;""></stim_listB>",is fighting,
null,"<div style=""font-size:60px;"">+</div>",,html-keyboard-response,378,1687596,0.0-19.0-0.2,47134,List1B,white,man,,,,null,,,,
null,"<img src=""stim_listB/play1.gif""style=""height:400px;""></stim_listB>",,html-keyboard-response,379,1689602,0.0-19.0-1.2,47134,List1B,white,man,,,,null,,,,
null,is playing with,,html-keyboard-response,380,1691608,0.0-19.0-2.2,47134,List1B,white,man,,,,null,,,,
5923,,,survey-text,381,1697533,0.0-19.0-3.2,47134,List1B,white,man,,,,,"{""Q0"":""kate is playing with mike""}","<img src=""stim_listB/play1.gif""style=""height:400px;""></stim_listB>",is playing with,
null,"<div style=""font-size:60px;"">+</div>",,html-keyboard-response,382,1698036,0.0-19.0-0.3,47134,List1B,white,man,,,,null,,,,
null,"<img src=""stim_listB/play7.gif""style=""height:400px;""></stim_listB>",,html-keyboard-response,383,1700041,0.0-19.0-1.3,47134,List1B,white,man,,,,null,,,,
null,is playing with,,html-keyboard-response,384,1702044,0.0-19.0-2.3,47134,List1B,white,man,,,,null,,,,
11531,,,survey-text,385,1713576,0.0-19.0-3.3,47134,List1B,white,man,,,,,"{""Q0"":""jane is playing with kate""}","<img src=""stim_listB/play7.gif""style=""height:400px;""></stim_listB>",is playing with,
null,"<div style=""font-size:60px;"">+</div>",,html-keyboard-response,386,1714078,0.0-19.0-0.4,47134,List1B,white,man,,,,null,,,,
null,"<img src=""stim_listB/kiss8.gif""style=""height:400px;""></stim_listB>",,html-keyboard-response,387,1716081,0.0-19.0-1.4,47134,List1B,white,man,,,,null,,,,
null,are kissing each other,,html-keyboard-response,388,1718083,0.0-19.0-2.4,47134,List1B,white,man,,,,null,,,,
8002,,,survey-text,389,1726086,0.0-19.0-3.4,47134,List1B,white,man,,,,,"{""Q0"":""kate and jane are kissing each other""}","<img src=""stim_listB/kiss8.gif""style=""height:400px;""></stim_listB>",are kissing each other,
null,"<div style=""font-size:60px;"">+</div>",,html-keyboard-response,390,1726591,0.0-19.0-0.5,47134,List1B,white,man,,,,null,,,,
null,"<img src=""stim_listB/fight1.gif""style=""height:400px;""></stim_listB>",,html-keyboard-response,391,1728597,0.0-19.0-1.5,47134,List1B,white,man,,,,null,,,,
null,is fighting,,html-keyboard-response,392,1730601,0.0-19.0-2.5,47134,List1B,white,man,,,,null,,,,
5633,,,survey-text,393,1736235,0.0-19.0-3.5,47134,List1B,white,man,,,,,"{""Q0"":""kate is fighting mike""}","<img src=""stim_listB/fight1.gif""style=""height:400px;""></stim_listB>",is fighting,
null,"<div style=""font-size:60px;"">+</div>",,html-keyboard-response,394,1736737,0.0-19.0-0.6,47134,List1B,white,man,,,,null,,,,
null,"<img src=""stim_listB/kiss7.gif""style=""height:400px;""></stim_listB>",,html-keyboard-response,395,1738743,0.0-19.0-1.6,47134,List1B,white,man,,,,null,,,,
null,is kissing,,html-keyboard-response,396,1740748,0.0-19.0-2.6,47134,List1B,white,man,,,,null,,,,
5440,,,survey-text,397,1746189,0.0-19.0-3.6,47134,List1B,white,man,,,,,"{""Q0"":""ruth is kissing beth""}","<img src=""stim_listB/kiss7.gif""style=""height:400px;""></stim_listB>",is kissing,
null,"<div style=""font-size:60px;"">+</div>",,html-keyboard-response,398,1746693,0.0-19.0-0.7,47134,List1B,white,man,,,,null,,,,
null,"<img src=""stim_listB/dance3.gif""style=""height:400px;""></stim_listB>",,html-keyboard-response,399,1748697,0.0-19.0-1.7,47134,List1B,white,man,,,,null,,,,
null,is dancing with,,html-keyboard-response,400,1750702,0.0-19.0-2.7,47134,List1B,white,man,,,,null,,,,
5755,,,survey-text,401,1756458,0.0-19.0-3.7,47134,List1B,white,man,,,,,"{""Q0"":""luke is dancing with jane""}","<img src=""stim_listB/dance3.gif""style=""height:400px;""></stim_listB>",is dancing with,
null,"<div style=""font-size:60px;"">+</div>",,html-keyboard-response,402,1756964,0.0-19.0-0.8,47134,List1B,white,man,,,,null,,,,
null,"<img src=""stim_listB/flirt8.gif""style=""height:400px;""></stim_listB>",,html-keyboard-response,403,1758968,0.0-19.0-1.8,47134,List1B,white,man,,,,null,,,,
null,are flirting with each other,,html-keyboard-response,404,1760972,0.0-19.0-2.8,47134,List1B,white,man,,,,null,,,,
12611,,,survey-text,405,1773584,0.0-19.0-3.8,47134,List1B,white,man,,,,,"{""Q0"":""ruth and kate are flirting with each other""}","<img src=""stim_listB/flirt8.gif""style=""height:400px;""></stim_listB>",are flirting with each other,
null,"<div style=""font-size:60px;"">+</div>",,html-keyboard-response,406,1774086,0.0-19.0-0.9,47134,List1B,white,man,,,,null,,,,
null,"<img src=""stim_listB/marry7.gif""style=""height:400px;""></stim_listB>",,html-keyboard-response,407,1776089,0.0-19.0-1.9,47134,List1B,white,man,,,,null,,,,
null,is marrying,,html-keyboard-response,408,1778093,0.0-19.0-2.9,47134,List1B,white,man,,,,null,,,,
5966,,,survey-text,409,1784061,0.0-19.0-3.9,47134,List1B,white,man,,,,,"{""Q0"":""ruth is marrying kate""}","<img src=""stim_listB/marry7.gif""style=""height:400px;""></stim_listB>",is marrying,
null,"<div style=""font-size:60px;"">+</div>",,html-keyboard-response,410,1784564,0.0-19.0-0.10,47134,List1B,white,man,,,,null,,,,
null,"<img src=""stim_listB/shout8.gif""style=""height:400px;""></stim_listB>",,html-keyboard-response,411,1786567,0.0-19.0-1.10,47134,List1B,white,man,,,,null,,,,
null,are shouting at each other,,html-keyboard-response,412,1788571,0.0-19.0-2.10,47134,List1B,white,man,,,,null,,,,
9623,,,survey-text,413,1798196,0.0-19.0-3.10,47134,List1B,white,man,,,,,"{""Q0"":""kate and jane are shouting at each other""}","<img src=""stim_listB/shout8.gif""style=""height:400px;""></stim_listB>",are shouting at each other,
null,"<div style=""font-size:60px;"">+</div>",,html-keyboard-response,414,1798698,0.0-19.0-0.11,47134,List1B,white,man,,,,null,,,,
null,"<img src=""stim_listB/argue6.gif""style=""height:400px;""></stim_listB>",,html-keyboard-response,415,1800704,0.0-19.0-1.11,47134,List1B,white,man,,,,null,,,,
null,are arguing with each other,,html-keyboard-response,416,1802707,0.0-19.0-2.11,47134,List1B,white,man,,,,null,,,,
12211,,,survey-text,417,1814919,0.0-19.0-3.11,47134,List1B,white,man,,,,,"{""Q0"":""dave and fred are arguing with each other""}","<img src=""stim_listB/argue6.gif""style=""height:400px;""></stim_listB>",are arguing with each other,
null,"<div style=""font-size:60px;"">+</div>",,html-keyboard-response,418,1815423,0.0-19.0-0.12,47134,List1B,white,man,,,,null,,,,
null,"<img src=""stim_listB/talk4.gif""style=""height:400px;""></stim_listB>",,html-keyboard-response,419,1817427,0.0-19.0-1.12,47134,List1B,white,man,,,,null,,,,
null,are talking to each other,,html-keyboard-response,420,1819431,0.0-19.0-2.12,47134,List1B,white,man,,,,null,,,,
7624,,,survey-text,421,1827056,0.0-19.0-3.12,47134,List1B,white,man,,,,,"{""Q0"":""dave and ruth are talking to each other""}","<img src=""stim_listB/talk4.gif""style=""height:400px;""></stim_listB>",are talking to each other,
null,"<div style=""font-size:60px;"">+</div>",,html-keyboard-response,422,1827560,0.0-19.0-0.13,47134,List1B,white,man,,,,null,,,,
null,"<img src=""stim_listB/touch2.gif""style=""height:400px;""></stim_listB>",,html-keyboard-response,423,1829564,0.0-19.0-1.13,47134,List1B,white,man,,,,null,,,,
null,are touching each other,,html-keyboard-response,424,1831569,0.0-19.0-2.13,47134,List1B,white,man,,,,null,,,,
8893,,,survey-text,425,1840464,0.0-19.0-3.13,47134,List1B,white,man,,,,,"{""Q0"":""beth and fred are touching each other""}","<img src=""stim_listB/touch2.gif""style=""height:400px;""></stim_listB>",are touching each other,
null,"<div style=""font-size:60px;"">+</div>",,html-keyboard-response,426,1840966,0.0-19.0-0.14,47134,List1B,white,man,,,,null,,,,
null,"<img src=""stim_listB/play4.gif""style=""height:400px;""></stim_listB>",,html-keyboard-response,427,1842972,0.0-19.0-1.14,47134,List1B,white,man,,,,null,,,,
null,are playing with each other,,html-keyboard-response,428,1844977,0.0-19.0-2.14,47134,List1B,white,man,,,,null,,,,
9358,,,survey-text,429,1854337,0.0-19.0-3.14,47134,List1B,white,man,,,,,"{""Q0"":""luke and ruth are playing with each other""}","<img src=""stim_listB/play4.gif""style=""height:400px;""></stim_listB>",are playing with each other,
null,"<div style=""font-size:60px;"">+</div>",,html-keyboard-response,430,1854843,0.0-19.0-0.15,47134,List1B,white,man,,,,null,,,,
null,"<img src=""stim_listB/flirt6.gif""style=""height:400px;""></stim_listB>",,html-keyboard-response,431,1856847,0.0-19.0-1.15,47134,List1B,white,man,,,,null,,,,
null,are flirting with each other,,html-keyboard-response,432,1858852,0.0-19.0-2.15,47134,List1B,white,man,,,,null,,,,
9624,,,survey-text,433,1868477,0.0-19.0-3.15,47134,List1B,white,man,,,,,"{""Q0"":""mike and luke are flirting with each other""}","<img src=""stim_listB/flirt6.gif""style=""height:400px;""></stim_listB>",are flirting with each other,
null,"<div style=""font-size:60px;"">+</div>",,html-keyboard-response,434,1868982,0.0-19.0-0.16,47134,List1B,white,man,,,,null,,,,
null,"<img src=""stim_listB/argue5.gif""style=""height:400px;""></stim_listB>",,html-keyboard-response,435,1870988,0.0-19.0-1.16,47134,List1B,white,man,,,,null,,,,
null,is arguing with,,html-keyboard-response,436,1872992,0.0-19.0-2.16,47134,List1B,white,man,,,,null,,,,
8368,,,survey-text,437,1881362,0.0-19.0-3.16,47134,List1B,white,man,,,,,"{""Q0"":""luke is arguing with mike""}","<img src=""stim_listB/argue5.gif""style=""height:400px;""></stim_listB>",is arguing with,
null,"<div style=""font-size:60px;"">+</div>",,html-keyboard-response,438,1881865,0.0-19.0-0.17,47134,List1B,white,man,,,,null,,,,
null,"<img src=""stim_listB/talk6.gif""style=""height:400px;""></stim_listB>",,html-keyboard-response,439,1883871,0.0-19.0-1.17,47134,List1B,white,man,,,,null,,,,
null,are talking to each other,,html-keyboard-response,440,1885873,0.0-19.0-2.17,47134,List1B,white,man,,,,null,,,,
7721,,,survey-text,441,1893597,0.0-19.0-3.17,47134,List1B,white,man,,,,,"{""Q0"":""luke and mike are talking to each other""}","<img src=""stim_listB/talk6.gif""style=""height:400px;""></stim_listB>",are talking to each other,
null,"<div style=""font-size:60px;"">+</div>",,html-keyboard-response,442,1894102,0.0-19.0-0.18,47134,List1B,white,man,,,,null,,,,
null,"<img src=""stim_listB/shout3.gif""style=""height:400px;""></stim_listB>",,html-keyboard-response,443,1896107,0.0-19.0-1.18,47134,List1B,white,man,,,,null,,,,
null,is shouting at,,html-keyboard-response,444,1898109,0.0-19.0-2.18,47134,List1B,white,man,,,,null,,,,
6765,,,survey-text,445,1904875,0.0-19.0-3.18,47134,List1B,white,man,,,,,"{""Q0"":""luke is shouting at ruth""}","<img src=""stim_listB/shout3.gif""style=""height:400px;""></stim_listB>",is shouting at,
null,"<div style=""font-size:60px;"">+</div>",,html-keyboard-response,446,1905376,0.0-19.0-0.19,47134,List1B,white,man,,,,null,,,,
null,"<img src=""stim_listB/marry2.gif""style=""height:400px;""></stim_listB>",,html-keyboard-response,447,1907382,0.0-19.0-1.19,47134,List1B,white,man,,,,null,,,,
null,are marrying each other,,html-keyboard-response,448,1909385,0.0-19.0-2.19,47134,List1B,white,man,,,,null,,,,
9526,,,survey-text,449,1918912,0.0-19.0-3.19,47134,List1B,white,man,,,,,"{""Q0"":""fred and kate are marrying each other""}","<img src=""stim_listB/marry2.gif""style=""height:400px;""></stim_listB>",are marrying each other,
2153,<p>Thank you for completing that task.</p><p>The final part of this session is a short questionnaire.</p><p>Press Continue.</p>,0,html-button-response,450,1921066,0.0-20.0,47134,List1B,white,man,,,,,,,,
27114,,,survey-text,451,1949187,0.0-21.0,47134,List1B,white,man,,,,,"{""Q0"":""35"",""Q1"":""English"",""Q2"":""English"",""Q3"":""England"",""Q4"":""White"",""Q5"":""Male""}",,,demographics
9749,,,survey-likert,452,1958939,0.0-22.0,47134,List1B,white,man,,,,,"{""Q0"":4}",,,likert_ESS
6212,,,survey-likert,453,1965153,0.0-23.0,47134,List1B,white,man,,,,,"{""Q0"":4}",,,likert_NSSAL_Q1
3527,,,survey-likert,454,1968681,0.0-24.0,47134,List1B,white,man,,,,,"{""Q0"":4}",,,likert_NSSAL_Q2
3992,,,survey-likert,455,1972675,0.0-25.0,47134,List1B,white,man,,,,,"{""Q0"":4}",,,likert_CGRS_Q1
1911,,,survey-likert,456,1974589,0.0-26.0,47134,List1B,white,man,,,,,"{""Q0"":""""}",,,likert_CGRS_Q2
3041,,,survey-likert,457,1977632,0.0-27.0,47134,List1B,white,man,,,,,"{""Q0"":4}",,,likert_CGRS_Q3
9642,,,survey-text,458,1987276,0.0-28.0,47134,List1B,white,man,,,,,"{""Q0"":""ccc""}",,,worker_id
20059,,,external-html,459,2007414,0.0-29.0,47134,List1B,white,man,debrief.html,,,,,,,
