rt,stimulus,button_pressed,trial_type,trial_index,time_elapsed,internal_node_id,subject,list,ppt_race,ppt_gender,url,first_guess,correct,key_press,responses,image_type,phrase_type,test_part
1107823,Welcome to the experiment. Press Continue to begin.,0,html-button-response,0,1107825,0.0-0.0,47188,List2B,black,man,,,,,,,,
6373,,,external-html,1,1115476,0.0-1.0,47188,List2B,black,man,consent.html,,,,,,,
8846,"<p>On the next page, you will see portraits of 8 people and their names.</p><p>Your first task is to take a few minutes to memorise the names of these people.</p><p>You will have to recall their names during the rest of the experiment, so it is</p><p>essential that you try to memorise these people and their names as best as you can.</p><br><p><strong>You will then be tested on your memory of these names and portraits.</strong></p><br><p>The experiment will start after you have completed this memory test.</p><br><p>Ready?</p>",0,html-button-response,2,1124324,0.0-2.0,47188,List2B,black,man,,,,,,,,
51561,"<img src='img/portrait_matrix_list2.jpg' style='width:900px;height:500px;''></img><p>If you have memorised all the portraits and names and are ready to start, press Continue.</p><p><strong>Please note: Your memory of these faces will be tested 4 times during this experiment.</strong></p>",0,html-button-response,3,1176890,0.0-3.0-0.0,47188,List2B,black,man,,,,,,,,
2585,"<img src=""portrait/BM2.jpg""style=""height:400px;""></img>",6,html-button-response,4,1180477,0.0-3.0-1.0,47188,List2B,black,man,,TRUE,5,,,,,
2788,"<img src=""portrait/BM2.jpg""style=""height:400px;""></img>",5,html-button-response,5,1184269,0.0-3.0-3.0-0.0,47188,List2B,black,man,,FALSE,5,,,,,
null,CORRECT,,html-keyboard-response,6,1185774,0.0-3.0-3.0-1.0-0.0,47188,List2B,black,man,,,,null,,,,
2591,"<img src=""portrait/WM2.jpg""style=""height:400px;""></img>",7,html-button-response,7,1188367,0.0-3.0-4.0,47188,List2B,black,man,,TRUE,7,,,,,
null,CORRECT,,html-keyboard-response,8,1189870,0.0-3.0-5.0-0.0,47188,List2B,black,man,,,,null,,,,
2119,"<img src=""portrait/WM1.jpg""style=""height:400px;""></img>",6,html-button-response,9,1191990,0.0-3.0-7.0,47188,List2B,black,man,,TRUE,6,,,,,
null,CORRECT,,html-keyboard-response,10,1193493,0.0-3.0-8.0-0.0,47188,List2B,black,man,,,,null,,,,
6077,"<img src=""portrait/WW1.jpg""style=""height:400px;""></img>",1,html-button-response,11,1199571,0.0-3.0-10.0,47188,List2B,black,man,,TRUE,1,,,,,
null,CORRECT,,html-keyboard-response,12,1201074,0.0-3.0-11.0-0.0,47188,List2B,black,man,,,,null,,,,
4825,"<img src=""portrait/WW2.jpg""style=""height:400px;""></img>",3,html-button-response,13,1205901,0.0-3.0-13.0,47188,List2B,black,man,,TRUE,3,,,,,
null,CORRECT,,html-keyboard-response,14,1207403,0.0-3.0-14.0-0.0,47188,List2B,black,man,,,,null,,,,
1698,"<img src=""portrait/BW1.jpg""style=""height:400px;""></img>",0,html-button-response,15,1209102,0.0-3.0-16.0,47188,List2B,black,man,,TRUE,0,,,,,
null,CORRECT,,html-keyboard-response,16,1210605,0.0-3.0-17.0-0.0,47188,List2B,black,man,,,,null,,,,
3280,"<img src=""portrait/BM1.jpg""style=""height:400px;""></img>",4,html-button-response,17,1213885,0.0-3.0-19.0,47188,List2B,black,man,,TRUE,4,,,,,
null,CORRECT,,html-keyboard-response,18,1215389,0.0-3.0-20.0-0.0,47188,List2B,black,man,,,,null,,,,
1892,"<img src=""portrait/BW2.jpg""style=""height:400px;""></img>",2,html-button-response,19,1217281,0.0-3.0-22.0,47188,List2B,black,man,,TRUE,2,,,,,
null,CORRECT,,html-keyboard-response,20,1218785,0.0-3.0-23.0-0.0,47188,List2B,black,man,,,,null,,,,
1198,<p>You got 7 out of 8 right first time. Press Continue.</p>,0,html-button-response,21,1219985,0.0-3.0-25.0,47188,List2B,black,man,,,,,,,,
2970,"As you did not score 100%, the memory game will repeat. Press Continue.",0,html-button-response,22,1223957,0.0-3.0-26.0-0.0,47188,List2B,black,man,,,,,,,,
1082,"<img src='img/portrait_matrix_list2.jpg' style='width:900px;height:500px;''></img><p>If you have memorised all the portraits and names and are ready to start, press Continue.</p><p><strong>Please note: Your memory of these faces will be tested 4 times during this experiment.</strong></p>",0,html-button-response,23,1226043,0.0-3.1-0.1,47188,List2B,black,man,,,,,,,,
3369,"<img src=""portrait/BM2.jpg""style=""height:400px;""></img>",5,html-button-response,24,1230416,0.0-3.1-1.1,47188,List2B,black,man,,TRUE,5,,,,,
null,CORRECT,,html-keyboard-response,25,1231918,0.0-3.1-2.1-0.1,47188,List2B,black,man,,,,null,,,,
1226,"<img src=""portrait/WM2.jpg""style=""height:400px;""></img>",7,html-button-response,26,1233146,0.0-3.1-4.1,47188,List2B,black,man,,TRUE,7,,,,,
null,CORRECT,,html-keyboard-response,27,1234649,0.0-3.1-5.1-0.1,47188,List2B,black,man,,,,null,,,,
1798,"<img src=""portrait/WM1.jpg""style=""height:400px;""></img>",6,html-button-response,28,1236449,0.0-3.1-7.1,47188,List2B,black,man,,TRUE,6,,,,,
null,CORRECT,,html-keyboard-response,29,1237952,0.0-3.1-8.1-0.1,47188,List2B,black,man,,,,null,,,,
2018,"<img src=""portrait/WW1.jpg""style=""height:400px;""></img>",1,html-button-response,30,1239972,0.0-3.1-10.1,47188,List2B,black,man,,TRUE,1,,,,,
null,CORRECT,,html-keyboard-response,31,1241476,0.0-3.1-11.1-0.1,47188,List2B,black,man,,,,null,,,,
2172,"<img src=""portrait/WW2.jpg""style=""height:400px;""></img>",3,html-button-response,32,1243650,0.0-3.1-13.1,47188,List2B,black,man,,TRUE,3,,,,,
null,CORRECT,,html-keyboard-response,33,1245153,0.0-3.1-14.1-0.1,47188,List2B,black,man,,,,null,,,,
1165,"<img src=""portrait/BW1.jpg""style=""height:400px;""></img>",0,html-button-response,34,1246320,0.0-3.1-16.1,47188,List2B,black,man,,TRUE,0,,,,,
null,CORRECT,,html-keyboard-response,35,1247823,0.0-3.1-17.1-0.1,47188,List2B,black,man,,,,null,,,,
1795,"<img src=""portrait/BM1.jpg""style=""height:400px;""></img>",4,html-button-response,36,1249620,0.0-3.1-19.1,47188,List2B,black,man,,TRUE,4,,,,,
null,CORRECT,,html-keyboard-response,37,1251123,0.0-3.1-20.1-0.1,47188,List2B,black,man,,,,null,,,,
438,"<img src=""portrait/BW2.jpg""style=""height:400px;""></img>",2,html-button-response,38,1251562,0.0-3.1-22.1,47188,List2B,black,man,,TRUE,2,,,,,
null,CORRECT,,html-keyboard-response,39,1253066,0.0-3.1-23.1-0.1,47188,List2B,black,man,,,,null,,,,
783,<p>You got 8 out of 8 right first time. Press Continue.</p>,0,html-button-response,40,1253851,0.0-3.1-25.1,47188,List2B,black,man,,,,,,,,
27268,"<p>In this experiment, you will view photographs of the people from the memory game interacting.</p><p>By using the <strong>exact</strong> phrase given <i>after</i> the photograph appears and recalling the correct names of the people in the photographs, form a sentence describing the interaction. You do not need to capitalise names.</p><p>Type your answer in the space provided. Please complete every sentence before moving onto the next trial.</p><p>You will only have a few seconds to memorise each given photograph and phrase before you can respond, so try your best to focus.</p><p>An example is given below. Press 'Continue' when you are ready.</p><img src='img/speaking_example.jpg' style='width:800px;height:460px;''></img>",0,html-button-response,41,1282122,0.0-4.0,47188,List2B,black,man,,,,,,,,
2001,"<p>Before the experiment starts, you will watch two example trials. Press 'Continue'.</p>",0,html-button-response,42,1285126,0.0-5.0,47188,List2B,black,man,,,,,,,,
null,<img src='img/meet_eg.gif' style='height:400px;''></img>,,html-keyboard-response,43,1288130,0.0-6.0,47188,List2B,black,man,,,,null,,,,
null,<p>is meeting</p>,,html-keyboard-response,44,1290131,0.0-7.0,47188,List2B,black,man,,,,null,,,,
1799,<p><b>Answer:</b> jane is meeting ruth</p>,0,html-button-response,45,1291931,0.0-8.0,47188,List2B,black,man,,,,,,,,
null,<img src='img/look_eg.gif' style='height:400px;''></img>,,html-keyboard-response,46,1294935,0.0-9.0,47188,List2B,black,man,,,,null,,,,
null,<p>are looking at each other</p>,,html-keyboard-response,47,1296937,0.0-10.0,47188,List2B,black,man,,,,null,,,,
1426,<p><b>Answer:</b> fred and mike are looking at each other</p>,0,html-button-response,48,1298363,0.0-11.0,47188,List2B,black,man,,,,,,,,
10258,"<p>Ready to start the experiment?</p><br><p><strong>Remember to describe the picture using a full sentence,</strong></p><p><strong>that combines the names of the people with the <i>exact</i> phrase given.</strong></p><p><strong>To receive full payment you must do this correctly.</strong></p><p><strong> You do not need to capitalise names or use punctuation.</strong></p><br><p>Press 'Continue' to begin.</p>",0,html-button-response,49,1309624,0.0-12.0,47188,List2B,black,man,,,,,,,,
null,"<div style=""font-size:60px;"">+</div>",,html-keyboard-response,50,1311128,0.0-13.0-0.0,47188,List2B,black,man,,,,null,,,,
null,"<img src=""stim_listB/marry7.gif""style=""height:400px;""></stim_listB>",,html-keyboard-response,51,1313131,0.0-13.0-1.0,47188,List2B,black,man,,,,null,,,,
null,is marrying,,html-keyboard-response,52,1315132,0.0-13.0-2.0,47188,List2B,black,man,,,,null,,,,
13574,,,survey-text,53,1328707,0.0-13.0-3.0,47188,List2B,black,man,,,,,"{""Q0"":""beth is marrying jane""}","<img src=""stim_listB/marry7.gif""style=""height:400px;""></stim_listB>",is marrying,
null,"<div style=""font-size:60px;"">+</div>",,html-keyboard-response,54,1329209,0.0-13.0-0.1,47188,List2B,black,man,,,,null,,,,
null,"<img src=""stim_listB/marry1.gif""style=""height:400px;""></stim_listB>",,html-keyboard-response,55,1331211,0.0-13.0-1.1,47188,List2B,black,man,,,,null,,,,
null,is marrying,,html-keyboard-response,56,1333212,0.0-13.0-2.1,47188,List2B,black,man,,,,null,,,,
12290,,,survey-text,57,1345503,0.0-13.0-3.1,47188,List2B,black,man,,,,,"{""Q0"":""luke is marrying ruth""}","<img src=""stim_listB/marry1.gif""style=""height:400px;""></stim_listB>",is marrying,
null,"<div style=""font-size:60px;"">+</div>",,html-keyboard-response,58,1346005,0.0-13.0-0.2,47188,List2B,black,man,,,,null,,,,
null,"<img src=""stim_listB/flirt2.gif""style=""height:400px;""></stim_listB>",,html-keyboard-response,59,1348007,0.0-13.0-1.2,47188,List2B,black,man,,,,null,,,,
null,are flirting with each other,,html-keyboard-response,60,1350009,0.0-13.0-2.2,47188,List2B,black,man,,,,null,,,,
21130,,,survey-text,61,1371141,0.0-13.0-3.2,47188,List2B,black,man,,,,,"{""Q0"":""luke and beth are flirting with each other""}","<img src=""stim_listB/flirt2.gif""style=""height:400px;""></stim_listB>",are flirting with each other,
null,"<div style=""font-size:60px;"">+</div>",,html-keyboard-response,62,1371642,0.0-13.0-0.3,47188,List2B,black,man,,,,null,,,,
null,"<img src=""stim_listB/talk7.gif""style=""height:400px;""></stim_listB>",,html-keyboard-response,63,1373644,0.0-13.0-1.3,47188,List2B,black,man,,,,null,,,,
null,is talking to,,html-keyboard-response,64,1375647,0.0-13.0-2.3,47188,List2B,black,man,,,,null,,,,
16599,,,survey-text,65,1392248,0.0-13.0-3.3,47188,List2B,black,man,,,,,"{""Q0"":""kate is talking to beth""}","<img src=""stim_listB/talk7.gif""style=""height:400px;""></stim_listB>",is talking to,
null,"<div style=""font-size:60px;"">+</div>",,html-keyboard-response,66,1392749,0.0-13.0-0.4,47188,List2B,black,man,,,,null,,,,
null,"<img src=""stim_listB/play1.gif""style=""height:400px;""></stim_listB>",,html-keyboard-response,67,1394751,0.0-13.0-1.4,47188,List2B,black,man,,,,null,,,,
null,is playing with,,html-keyboard-response,68,1396753,0.0-13.0-2.4,47188,List2B,black,man,,,,null,,,,
17534,,,survey-text,69,1414288,0.0-13.0-3.4,47188,List2B,black,man,,,,,"{""Q0"":""luke is playing with jane""}","<img src=""stim_listB/play1.gif""style=""height:400px;""></stim_listB>",is playing with,
null,"<div style=""font-size:60px;"">+</div>",,html-keyboard-response,70,1414790,0.0-13.0-0.5,47188,List2B,black,man,,,,null,,,,
null,"<img src=""stim_listB/kiss2.gif""style=""height:400px;""></stim_listB>",,html-keyboard-response,71,1416793,0.0-13.0-1.5,47188,List2B,black,man,,,,null,,,,
null,are kissing each other,,html-keyboard-response,72,1418793,0.0-13.0-2.5,47188,List2B,black,man,,,,null,,,,
15893,,,survey-text,73,1434688,0.0-13.0-3.5,47188,List2B,black,man,,,,,"{""Q0"":""luke and jane are kissing each other""}","<img src=""stim_listB/kiss2.gif""style=""height:400px;""></stim_listB>",are kissing each other,
null,"<div style=""font-size:60px;"">+</div>",,html-keyboard-response,74,1435190,0.0-13.0-0.6,47188,List2B,black,man,,,,null,,,,
null,"<img src=""stim_listB/dance6.gif""style=""height:400px;""></stim_listB>",,html-keyboard-response,75,1437192,0.0-13.0-1.6,47188,List2B,black,man,,,,null,,,,
null,are dancing with each other,,html-keyboard-response,76,1439193,0.0-13.0-2.6,47188,List2B,black,man,,,,null,,,,
13430,,,survey-text,77,1452624,0.0-13.0-3.6,47188,List2B,black,man,,,,,"{""Q0"":""luke and fred are dancing with each other""}","<img src=""stim_listB/dance6.gif""style=""height:400px;""></stim_listB>",are dancing with each other,
null,"<div style=""font-size:60px;"">+</div>",,html-keyboard-response,78,1453125,0.0-13.0-0.7,47188,List2B,black,man,,,,null,,,,
null,"<img src=""stim_listB/kiss3.gif""style=""height:400px;""></stim_listB>",,html-keyboard-response,79,1455128,0.0-13.0-1.7,47188,List2B,black,man,,,,null,,,,
null,is kissing,,html-keyboard-response,80,1457129,0.0-13.0-2.7,47188,List2B,black,man,,,,null,,,,
34778,,,survey-text,81,1491907,0.0-13.0-3.7,47188,List2B,black,man,,,,,"{""Q0"":""fred is kissing beth""}","<img src=""stim_listB/kiss3.gif""style=""height:400px;""></stim_listB>",is kissing,
null,"<div style=""font-size:60px;"">+</div>",,html-keyboard-response,82,1492409,0.0-13.0-0.8,47188,List2B,black,man,,,,null,,,,
null,"<img src=""stim_listB/play6.gif""style=""height:400px;""></stim_listB>",,html-keyboard-response,83,1494410,0.0-13.0-1.8,47188,List2B,black,man,,,,null,,,,
null,are playing with each other,,html-keyboard-response,84,1496412,0.0-13.0-2.8,47188,List2B,black,man,,,,null,,,,
43977,,,survey-text,85,1540391,0.0-13.0-3.8,47188,List2B,black,man,,,,,"{""Q0"":""fred and dave are playing with each other""}","<img src=""stim_listB/play6.gif""style=""height:400px;""></stim_listB>",are playing with each other,
null,"<div style=""font-size:60px;"">+</div>",,html-keyboard-response,86,1540894,0.0-13.0-0.9,47188,List2B,black,man,,,,null,,,,
null,"<img src=""stim_listB/play3.gif""style=""height:400px;""></stim_listB>",,html-keyboard-response,87,1542896,0.0-13.0-1.9,47188,List2B,black,man,,,,null,,,,
null,is playing with,,html-keyboard-response,88,1544898,0.0-13.0-2.9,47188,List2B,black,man,,,,null,,,,
11427,,,survey-text,89,1556326,0.0-13.0-3.9,47188,List2B,black,man,,,,,"{""Q0"":""beth is playing with mike""}","<img src=""stim_listB/play3.gif""style=""height:400px;""></stim_listB>",is playing with,
null,"<div style=""font-size:60px;"">+</div>",,html-keyboard-response,90,1556828,0.0-13.0-0.10,47188,List2B,black,man,,,,null,,,,
null,"<img src=""stim_listB/talk6.gif""style=""height:400px;""></stim_listB>",,html-keyboard-response,91,1558830,0.0-13.0-1.10,47188,List2B,black,man,,,,null,,,,
null,are talking to each other,,html-keyboard-response,92,1560830,0.0-13.0-2.10,47188,List2B,black,man,,,,null,,,,
11393,,,survey-text,93,1572225,0.0-13.0-3.10,47188,List2B,black,man,,,,,"{""Q0"":""luke and fred are talking to each other""}","<img src=""stim_listB/talk6.gif""style=""height:400px;""></stim_listB>",are talking to each other,
null,"<div style=""font-size:60px;"">+</div>",,html-keyboard-response,94,1572727,0.0-13.0-0.11,47188,List2B,black,man,,,,null,,,,
null,"<img src=""stim_listB/argue7.gif""style=""height:400px;""></stim_listB>",,html-keyboard-response,95,1574729,0.0-13.0-1.11,47188,List2B,black,man,,,,null,,,,
null,is arguing with,,html-keyboard-response,96,1576730,0.0-13.0-2.11,47188,List2B,black,man,,,,null,,,,
13327,,,survey-text,97,1590059,0.0-13.0-3.11,47188,List2B,black,man,,,,,"{""Q0"":""jane is arguing with beth""}","<img src=""stim_listB/argue7.gif""style=""height:400px;""></stim_listB>",is arguing with,
null,"<div style=""font-size:60px;"">+</div>",,html-keyboard-response,98,1590560,0.0-13.0-0.12,47188,List2B,black,man,,,,null,,,,
null,"<img src=""stim_listB/shout6.gif""style=""height:400px;""></stim_listB>",,html-keyboard-response,99,1592563,0.0-13.0-1.12,47188,List2B,black,man,,,,null,,,,
null,are shouting at each other,,html-keyboard-response,100,1594564,0.0-13.0-2.12,47188,List2B,black,man,,,,null,,,,
11721,,,survey-text,101,1606286,0.0-13.0-3.12,47188,List2B,black,man,,,,,"{""Q0"":""luke and mike are shouting at each other""}","<img src=""stim_listB/shout6.gif""style=""height:400px;""></stim_listB>",are shouting at each other,
null,"<div style=""font-size:60px;"">+</div>",,html-keyboard-response,102,1606787,0.0-13.0-0.13,47188,List2B,black,man,,,,null,,,,
null,"<img src=""stim_listB/fight5.gif""style=""height:400px;""></stim_listB>",,html-keyboard-response,103,1608788,0.0-13.0-1.13,47188,List2B,black,man,,,,null,,,,
null,is fighting,,html-keyboard-response,104,1610791,0.0-13.0-2.13,47188,List2B,black,man,,,,null,,,,
6768,,,survey-text,105,1617562,0.0-13.0-3.13,47188,List2B,black,man,,,,,"{""Q0"":""luke is fighting mike""}","<img src=""stim_listB/fight5.gif""style=""height:400px;""></stim_listB>",is fighting,
null,"<div style=""font-size:60px;"">+</div>",,html-keyboard-response,106,1618064,0.0-13.0-0.14,47188,List2B,black,man,,,,null,,,,
null,"<img src=""stim_listB/shout5.gif""style=""height:400px;""></stim_listB>",,html-keyboard-response,107,1620066,0.0-13.0-1.14,47188,List2B,black,man,,,,null,,,,
null,is shouting at,,html-keyboard-response,108,1622067,0.0-13.0-2.14,47188,List2B,black,man,,,,null,,,,
9080,,,survey-text,109,1631148,0.0-13.0-3.14,47188,List2B,black,man,,,,,"{""Q0"":""fred is shouting at dave""}","<img src=""stim_listB/shout5.gif""style=""height:400px;""></stim_listB>",is shouting at,
null,"<div style=""font-size:60px;"">+</div>",,html-keyboard-response,110,1631649,0.0-13.0-0.15,47188,List2B,black,man,,,,null,,,,
null,"<img src=""stim_listB/fight7.gif""style=""height:400px;""></stim_listB>",,html-keyboard-response,111,1633651,0.0-13.0-1.15,47188,List2B,black,man,,,,null,,,,
null,is fighting,,html-keyboard-response,112,1635653,0.0-13.0-2.15,47188,List2B,black,man,,,,null,,,,
5991,,,survey-text,113,1641644,0.0-13.0-3.15,47188,List2B,black,man,,,,,"{""Q0"":""jane is fighting kate""}","<img src=""stim_listB/fight7.gif""style=""height:400px;""></stim_listB>",is fighting,
null,"<div style=""font-size:60px;"">+</div>",,html-keyboard-response,114,1642146,0.0-13.0-0.16,47188,List2B,black,man,,,,null,,,,
null,"<img src=""stim_listB/talk2.gif""style=""height:400px;""></stim_listB>",,html-keyboard-response,115,1644149,0.0-13.0-1.16,47188,List2B,black,man,,,,null,,,,
null,are talking to each other,,html-keyboard-response,116,1646152,0.0-13.0-2.16,47188,List2B,black,man,,,,null,,,,
16313,,,survey-text,117,1662465,0.0-13.0-3.16,47188,List2B,black,man,,,,,"{""Q0"":""luke is talking to ruth""}","<img src=""stim_listB/talk2.gif""style=""height:400px;""></stim_listB>",are talking to each other,
null,"<div style=""font-size:60px;"">+</div>",,html-keyboard-response,118,1662968,0.0-13.0-0.17,47188,List2B,black,man,,,,null,,,,
null,"<img src=""stim_listB/dance2.gif""style=""height:400px;""></stim_listB>",,html-keyboard-response,119,1664970,0.0-13.0-1.17,47188,List2B,black,man,,,,null,,,,
null,are dancing with each other,,html-keyboard-response,120,1666972,0.0-13.0-2.17,47188,List2B,black,man,,,,null,,,,
11297,,,survey-text,121,1678270,0.0-13.0-3.17,47188,List2B,black,man,,,,,"{""Q0"":""luke and ruth are dancing with each other""}","<img src=""stim_listB/dance2.gif""style=""height:400px;""></stim_listB>",are dancing with each other,
null,"<div style=""font-size:60px;"">+</div>",,html-keyboard-response,122,1678772,0.0-13.0-0.18,47188,List2B,black,man,,,,null,,,,
null,"<img src=""stim_listB/dance5.gif""style=""height:400px;""></stim_listB>",,html-keyboard-response,123,1680773,0.0-13.0-1.18,47188,List2B,black,man,,,,null,,,,
null,is dancing with,,html-keyboard-response,124,1682775,0.0-13.0-2.18,47188,List2B,black,man,,,,null,,,,
7351,,,survey-text,125,1690127,0.0-13.0-3.18,47188,List2B,black,man,,,,,"{""Q0"":""mike is dancing with dave""}","<img src=""stim_listB/dance5.gif""style=""height:400px;""></stim_listB>",is dancing with,
null,"<div style=""font-size:60px;"">+</div>",,html-keyboard-response,126,1690630,0.0-13.0-0.19,47188,List2B,black,man,,,,null,,,,
null,"<img src=""stim_listB/dance4.gif""style=""height:400px;""></stim_listB>",,html-keyboard-response,127,1692632,0.0-13.0-1.19,47188,List2B,black,man,,,,null,,,,
null,are dancing with each other,,html-keyboard-response,128,1694633,0.0-13.0-2.19,47188,List2B,black,man,,,,null,,,,
11765,,,survey-text,129,1706399,0.0-13.0-3.19,47188,List2B,black,man,,,,,"{""Q0"":""mike and beth are dancing with each other""}","<img src=""stim_listB/dance4.gif""style=""height:400px;""></stim_listB>",are dancing with each other,
10142,"<img src='img/portrait_matrix_list2.jpg' style='width:900px;height:500px;''></img><p>If you have memorised all the portraits and names and are ready to start, press Continue.</p><p><strong>Please note: Your memory of these faces will be tested 4 times during this experiment.</strong></p>",0,html-button-response,130,1716543,0.0-14.0-0.0,47188,List2B,black,man,,,,,,,,
5557,"<img src=""portrait/BW2.jpg""style=""height:400px;""></img>",0,html-button-response,131,1723102,0.0-14.0-1.0,47188,List2B,black,man,,TRUE,2,,,,,
4065,"<img src=""portrait/BW2.jpg""style=""height:400px;""></img>",1,html-button-response,132,1728170,0.0-14.0-3.0-0.0,47188,List2B,black,man,,FALSE,2,,,,,
null,INCORRECT,,html-keyboard-response,133,1729673,0.0-14.0-3.0-2.0-0.0,47188,List2B,black,man,,,,null,,,,
940,"<img src=""portrait/WW1.jpg""style=""height:400px;""></img>",2,html-button-response,134,1730615,0.0-14.0-4.0,47188,List2B,black,man,,TRUE,1,,,,,
1503,"<img src=""portrait/WW1.jpg""style=""height:400px;""></img>",1,html-button-response,135,1733120,0.0-14.0-6.0-0.0,47188,List2B,black,man,,FALSE,1,,,,,
null,CORRECT,,html-keyboard-response,136,1734622,0.0-14.0-6.0-1.0-0.0,47188,List2B,black,man,,,,null,,,,
1430,"<img src=""portrait/BM1.jpg""style=""height:400px;""></img>",4,html-button-response,137,1736053,0.0-14.0-7.0,47188,List2B,black,man,,TRUE,4,,,,,
null,CORRECT,,html-keyboard-response,138,1737554,0.0-14.0-8.0-0.0,47188,List2B,black,man,,,,null,,,,
2908,"<img src=""portrait/WM2.jpg""style=""height:400px;""></img>",7,html-button-response,139,1740465,0.0-14.0-10.0,47188,List2B,black,man,,TRUE,7,,,,,
null,CORRECT,,html-keyboard-response,140,1741968,0.0-14.0-11.0-0.0,47188,List2B,black,man,,,,null,,,,
3229,"<img src=""portrait/WM1.jpg""style=""height:400px;""></img>",6,html-button-response,141,1745199,0.0-14.0-13.0,47188,List2B,black,man,,TRUE,6,,,,,
null,CORRECT,,html-keyboard-response,142,1746701,0.0-14.0-14.0-0.0,47188,List2B,black,man,,,,null,,,,
3034,"<img src=""portrait/BM2.jpg""style=""height:400px;""></img>",5,html-button-response,143,1749736,0.0-14.0-16.0,47188,List2B,black,man,,TRUE,5,,,,,
null,CORRECT,,html-keyboard-response,144,1751240,0.0-14.0-17.0-0.0,47188,List2B,black,man,,,,null,,,,
1828,"<img src=""portrait/BW1.jpg""style=""height:400px;""></img>",0,html-button-response,145,1753068,0.0-14.0-19.0,47188,List2B,black,man,,TRUE,0,,,,,
null,CORRECT,,html-keyboard-response,146,1754570,0.0-14.0-20.0-0.0,47188,List2B,black,man,,,,null,,,,
1612,"<img src=""portrait/WW2.jpg""style=""height:400px;""></img>",3,html-button-response,147,1756183,0.0-14.0-22.0,47188,List2B,black,man,,TRUE,3,,,,,
null,CORRECT,,html-keyboard-response,148,1757687,0.0-14.0-23.0-0.0,47188,List2B,black,man,,,,null,,,,
1266,<p>You got 6 out of 8 right first time. Press Continue.</p>,0,html-button-response,149,1758955,0.0-14.0-25.0,47188,List2B,black,man,,,,,,,,
1040,"As you did not score 100%, the memory game will repeat. Press Continue.",0,html-button-response,150,1760998,0.0-14.0-26.0-0.0,47188,List2B,black,man,,,,,,,,
2358,"<img src='img/portrait_matrix_list2.jpg' style='width:900px;height:500px;''></img><p>If you have memorised all the portraits and names and are ready to start, press Continue.</p><p><strong>Please note: Your memory of these faces will be tested 4 times during this experiment.</strong></p>",0,html-button-response,151,1764359,0.0-14.1-0.1,47188,List2B,black,man,,,,,,,,
1500,"<img src=""portrait/BW2.jpg""style=""height:400px;""></img>",2,html-button-response,152,1766862,0.0-14.1-1.1,47188,List2B,black,man,,TRUE,2,,,,,
null,CORRECT,,html-keyboard-response,153,1768366,0.0-14.1-2.1-0.1,47188,List2B,black,man,,,,null,,,,
3328,"<img src=""portrait/WW1.jpg""style=""height:400px;""></img>",1,html-button-response,154,1771694,0.0-14.1-4.1,47188,List2B,black,man,,TRUE,1,,,,,
null,CORRECT,,html-keyboard-response,155,1773196,0.0-14.1-5.1-0.1,47188,List2B,black,man,,,,null,,,,
1860,"<img src=""portrait/BM1.jpg""style=""height:400px;""></img>",4,html-button-response,156,1775057,0.0-14.1-7.1,47188,List2B,black,man,,TRUE,4,,,,,
null,CORRECT,,html-keyboard-response,157,1776558,0.0-14.1-8.1-0.1,47188,List2B,black,man,,,,null,,,,
556,"<img src=""portrait/WM2.jpg""style=""height:400px;""></img>",7,html-button-response,158,1777115,0.0-14.1-10.1,47188,List2B,black,man,,TRUE,7,,,,,
null,CORRECT,,html-keyboard-response,159,1778618,0.0-14.1-11.1-0.1,47188,List2B,black,man,,,,null,,,,
773,"<img src=""portrait/WM1.jpg""style=""height:400px;""></img>",6,html-button-response,160,1779392,0.0-14.1-13.1,47188,List2B,black,man,,TRUE,6,,,,,
null,CORRECT,,html-keyboard-response,161,1780896,0.0-14.1-14.1-0.1,47188,List2B,black,man,,,,null,,,,
538,"<img src=""portrait/BM2.jpg""style=""height:400px;""></img>",4,html-button-response,162,1781436,0.0-14.1-16.1,47188,List2B,black,man,,TRUE,5,,,,,
2071,"<img src=""portrait/BM2.jpg""style=""height:400px;""></img>",5,html-button-response,163,1784509,0.0-14.1-18.1-0.1,47188,List2B,black,man,,FALSE,5,,,,,
null,CORRECT,,html-keyboard-response,164,1786012,0.0-14.1-18.1-1.1-0.1,47188,List2B,black,man,,,,null,,,,
1569,"<img src=""portrait/BW1.jpg""style=""height:400px;""></img>",0,html-button-response,165,1787584,0.0-14.1-19.1,47188,List2B,black,man,,TRUE,0,,,,,
null,CORRECT,,html-keyboard-response,166,1789086,0.0-14.1-20.1-0.1,47188,List2B,black,man,,,,null,,,,
4168,"<img src=""portrait/WW2.jpg""style=""height:400px;""></img>",3,html-button-response,167,1793255,0.0-14.1-22.1,47188,List2B,black,man,,TRUE,3,,,,,
null,CORRECT,,html-keyboard-response,168,1794758,0.0-14.1-23.1-0.1,47188,List2B,black,man,,,,null,,,,
853,<p>You got 7 out of 8 right first time. Press Continue.</p>,0,html-button-response,169,1795613,0.0-14.1-25.1,47188,List2B,black,man,,,,,,,,
1003,"As you did not score 100%, the memory game will repeat. Press Continue.",0,html-button-response,170,1797617,0.0-14.1-26.1-0.1,47188,List2B,black,man,,,,,,,,
973,"<img src='img/portrait_matrix_list2.jpg' style='width:900px;height:500px;''></img><p>If you have memorised all the portraits and names and are ready to start, press Continue.</p><p><strong>Please note: Your memory of these faces will be tested 4 times during this experiment.</strong></p>",0,html-button-response,171,1799593,0.0-14.2-0.2,47188,List2B,black,man,,,,,,,,
12801,"<img src=""portrait/BW2.jpg""style=""height:400px;""></img>",2,html-button-response,172,1813397,0.0-14.2-1.2,47188,List2B,black,man,,TRUE,2,,,,,
null,CORRECT,,html-keyboard-response,173,1814899,0.0-14.2-2.2-0.2,47188,List2B,black,man,,,,null,,,,
682,"<img src=""portrait/WW1.jpg""style=""height:400px;""></img>",1,html-button-response,174,1815582,0.0-14.2-4.2,47188,List2B,black,man,,TRUE,1,,,,,
null,CORRECT,,html-keyboard-response,175,1817087,0.0-14.2-5.2-0.2,47188,List2B,black,man,,,,null,,,,
645,"<img src=""portrait/BM1.jpg""style=""height:400px;""></img>",4,html-button-response,176,1817733,0.0-14.2-7.2,47188,List2B,black,man,,TRUE,4,,,,,
null,CORRECT,,html-keyboard-response,177,1819236,0.0-14.2-8.2-0.2,47188,List2B,black,man,,,,null,,,,
607,"<img src=""portrait/WM2.jpg""style=""height:400px;""></img>",7,html-button-response,178,1819844,0.0-14.2-10.2,47188,List2B,black,man,,TRUE,7,,,,,
null,CORRECT,,html-keyboard-response,179,1821347,0.0-14.2-11.2-0.2,47188,List2B,black,man,,,,null,,,,
941,"<img src=""portrait/WM1.jpg""style=""height:400px;""></img>",6,html-button-response,180,1822289,0.0-14.2-13.2,47188,List2B,black,man,,TRUE,6,,,,,
null,CORRECT,,html-keyboard-response,181,1823794,0.0-14.2-14.2-0.2,47188,List2B,black,man,,,,null,,,,
417,"<img src=""portrait/BM2.jpg""style=""height:400px;""></img>",5,html-button-response,182,1824212,0.0-14.2-16.2,47188,List2B,black,man,,TRUE,5,,,,,
null,CORRECT,,html-keyboard-response,183,1825715,0.0-14.2-17.2-0.2,47188,List2B,black,man,,,,null,,,,
829,"<img src=""portrait/BW1.jpg""style=""height:400px;""></img>",0,html-button-response,184,1826545,0.0-14.2-19.2,47188,List2B,black,man,,TRUE,0,,,,,
null,CORRECT,,html-keyboard-response,185,1828046,0.0-14.2-20.2-0.2,47188,List2B,black,man,,,,null,,,,
471,"<img src=""portrait/WW2.jpg""style=""height:400px;""></img>",2,html-button-response,186,1828518,0.0-14.2-22.2,47188,List2B,black,man,,TRUE,3,,,,,
2303,"<img src=""portrait/WW2.jpg""style=""height:400px;""></img>",3,html-button-response,187,1831823,0.0-14.2-24.2-0.2,47188,List2B,black,man,,FALSE,3,,,,,
null,CORRECT,,html-keyboard-response,188,1833327,0.0-14.2-24.2-1.2-0.2,47188,List2B,black,man,,,,null,,,,
517,<p>You got 7 out of 8 right first time. Press Continue.</p>,0,html-button-response,189,1833845,0.0-14.2-25.2,47188,List2B,black,man,,,,,,,,
1302,"As you did not score 100%, the memory game will repeat. Press Continue.",0,html-button-response,190,1836149,0.0-14.2-26.2-0.2,47188,List2B,black,man,,,,,,,,
1158,"<img src='img/portrait_matrix_list2.jpg' style='width:900px;height:500px;''></img><p>If you have memorised all the portraits and names and are ready to start, press Continue.</p><p><strong>Please note: Your memory of these faces will be tested 4 times during this experiment.</strong></p>",0,html-button-response,191,1838309,0.0-14.3-0.3,47188,List2B,black,man,,,,,,,,
1859,"<img src=""portrait/BW2.jpg""style=""height:400px;""></img>",2,html-button-response,192,1841170,0.0-14.3-1.3,47188,List2B,black,man,,TRUE,2,,,,,
null,CORRECT,,html-keyboard-response,193,1842673,0.0-14.3-2.3-0.3,47188,List2B,black,man,,,,null,,,,
426,"<img src=""portrait/WW1.jpg""style=""height:400px;""></img>",1,html-button-response,194,1843101,0.0-14.3-4.3,47188,List2B,black,man,,TRUE,1,,,,,
null,CORRECT,,html-keyboard-response,195,1844604,0.0-14.3-5.3-0.3,47188,List2B,black,man,,,,null,,,,
771,"<img src=""portrait/BM1.jpg""style=""height:400px;""></img>",4,html-button-response,196,1845377,0.0-14.3-7.3,47188,List2B,black,man,,TRUE,4,,,,,
null,CORRECT,,html-keyboard-response,197,1846880,0.0-14.3-8.3-0.3,47188,List2B,black,man,,,,null,,,,
330,"<img src=""portrait/WM2.jpg""style=""height:400px;""></img>",7,html-button-response,198,1847211,0.0-14.3-10.3,47188,List2B,black,man,,TRUE,7,,,,,
null,CORRECT,,html-keyboard-response,199,1848715,0.0-14.3-11.3-0.3,47188,List2B,black,man,,,,null,,,,
520,"<img src=""portrait/WM1.jpg""style=""height:400px;""></img>",6,html-button-response,200,1849237,0.0-14.3-13.3,47188,List2B,black,man,,TRUE,6,,,,,
null,CORRECT,,html-keyboard-response,201,1850738,0.0-14.3-14.3-0.3,47188,List2B,black,man,,,,null,,,,
634,"<img src=""portrait/BM2.jpg""style=""height:400px;""></img>",5,html-button-response,202,1851374,0.0-14.3-16.3,47188,List2B,black,man,,TRUE,5,,,,,
null,CORRECT,,html-keyboard-response,203,1852878,0.0-14.3-17.3-0.3,47188,List2B,black,man,,,,null,,,,
928,"<img src=""portrait/BW1.jpg""style=""height:400px;""></img>",0,html-button-response,204,1853807,0.0-14.3-19.3,47188,List2B,black,man,,TRUE,0,,,,,
null,CORRECT,,html-keyboard-response,205,1855309,0.0-14.3-20.3-0.3,47188,List2B,black,man,,,,null,,,,
488,"<img src=""portrait/WW2.jpg""style=""height:400px;""></img>",3,html-button-response,206,1855799,0.0-14.3-22.3,47188,List2B,black,man,,TRUE,3,,,,,
null,CORRECT,,html-keyboard-response,207,1857301,0.0-14.3-23.3-0.3,47188,List2B,black,man,,,,null,,,,
1495,<p>You got 8 out of 8 right first time. Press Continue.</p>,0,html-button-response,208,1858797,0.0-14.3-25.3,47188,List2B,black,man,,,,,,,,
null,"<div style=""font-size:60px;"">+</div>",,html-keyboard-response,209,1860300,0.0-15.0-0.0,47188,List2B,black,man,,,,null,,,,
null,"<img src=""stim_listB/dance1.gif""style=""height:400px;""></stim_listB>",,html-keyboard-response,210,1862303,0.0-15.0-1.0,47188,List2B,black,man,,,,null,,,,
null,is dancing with,,html-keyboard-response,211,1864306,0.0-15.0-2.0,47188,List2B,black,man,,,,null,,,,
28884,,,survey-text,212,1893191,0.0-15.0-3.0,47188,List2B,black,man,,,,,"{""Q0"":""luke is dancing with jane""}","<img src=""stim_listB/dance1.gif""style=""height:400px;""></stim_listB>",is dancing with,
null,"<div style=""font-size:60px;"">+</div>",,html-keyboard-response,213,1893693,0.0-15.0-0.1,47188,List2B,black,man,,,,null,,,,
null,"<img src=""stim_listB/argue6.gif""style=""height:400px;""></stim_listB>",,html-keyboard-response,214,1895695,0.0-15.0-1.1,47188,List2B,black,man,,,,null,,,,
null,are arguing with each other,,html-keyboard-response,215,1897696,0.0-15.0-2.1,47188,List2B,black,man,,,,null,,,,
10966,,,survey-text,216,1908664,0.0-15.0-3.1,47188,List2B,black,man,,,,,"{""Q0"":""luke and mike are arguing with eachother""}","<img src=""stim_listB/argue6.gif""style=""height:400px;""></stim_listB>",are arguing with each other,
null,"<div style=""font-size:60px;"">+</div>",,html-keyboard-response,217,1909166,0.0-15.0-0.2,47188,List2B,black,man,,,,null,,,,
null,"<img src=""stim_listB/flirt5.gif""style=""height:400px;""></stim_listB>",,html-keyboard-response,218,1911169,0.0-15.0-1.2,47188,List2B,black,man,,,,null,,,,
null,is flirting with,,html-keyboard-response,219,1913171,0.0-15.0-2.2,47188,List2B,black,man,,,,null,,,,
13128,,,survey-text,220,1926301,0.0-15.0-3.2,47188,List2B,black,man,,,,,"{""Q0"":""luke is flirting with mike""}","<img src=""stim_listB/flirt5.gif""style=""height:400px;""></stim_listB>",is flirting with,
null,"<div style=""font-size:60px;"">+</div>",,html-keyboard-response,221,1926803,0.0-15.0-0.3,47188,List2B,black,man,,,,null,,,,
null,"<img src=""stim_listB/play8.gif""style=""height:400px;""></stim_listB>",,html-keyboard-response,222,1928805,0.0-15.0-1.3,47188,List2B,black,man,,,,null,,,,
null,are playing with each other,,html-keyboard-response,223,1930808,0.0-15.0-2.3,47188,List2B,black,man,,,,null,,,,
10544,,,survey-text,224,1941354,0.0-15.0-3.3,47188,List2B,black,man,,,,,"{""Q0"":""beth and ruth are playing with each other""}","<img src=""stim_listB/play8.gif""style=""height:400px;""></stim_listB>",are playing with each other,
null,"<div style=""font-size:60px;"">+</div>",,html-keyboard-response,225,1941856,0.0-15.0-0.4,47188,List2B,black,man,,,,null,,,,
null,"<img src=""stim_listB/fight1.gif""style=""height:400px;""></stim_listB>",,html-keyboard-response,226,1943859,0.0-15.0-1.4,47188,List2B,black,man,,,,null,,,,
null,is fighting,,html-keyboard-response,227,1945859,0.0-15.0-2.4,47188,List2B,black,man,,,,null,,,,
8589,,,survey-text,228,1954450,0.0-15.0-3.4,47188,List2B,black,man,,,,,"{""Q0"":""dave is fighting jane""}","<img src=""stim_listB/fight1.gif""style=""height:400px;""></stim_listB>",is fighting,
null,"<div style=""font-size:60px;"">+</div>",,html-keyboard-response,229,1954952,0.0-15.0-0.5,47188,List2B,black,man,,,,null,,,,
null,"<img src=""stim_listB/marry5.gif""style=""height:400px;""></stim_listB>",,html-keyboard-response,230,1956955,0.0-15.0-1.5,47188,List2B,black,man,,,,null,,,,
null,is marrying,,html-keyboard-response,231,1958958,0.0-15.0-2.5,47188,List2B,black,man,,,,null,,,,
8637,,,survey-text,232,1967596,0.0-15.0-3.5,47188,List2B,black,man,,,,,"{""Q0"":""dave is marrying fred""}","<img src=""stim_listB/marry5.gif""style=""height:400px;""></stim_listB>",is marrying,
null,"<div style=""font-size:60px;"">+</div>",,html-keyboard-response,233,1968098,0.0-15.0-0.6,47188,List2B,black,man,,,,null,,,,
null,"<img src=""stim_listB/fight6.gif""style=""height:400px;""></stim_listB>",,html-keyboard-response,234,1970100,0.0-15.0-1.6,47188,List2B,black,man,,,,null,,,,
null,are fighting each other,,html-keyboard-response,235,1972101,0.0-15.0-2.6,47188,List2B,black,man,,,,null,,,,
8681,,,survey-text,236,1980784,0.0-15.0-3.6,47188,List2B,black,man,,,,,"{""Q0"":""luke and fred are fighting each other""}","<img src=""stim_listB/fight6.gif""style=""height:400px;""></stim_listB>",are fighting each other,
null,"<div style=""font-size:60px;"">+</div>",,html-keyboard-response,237,1981286,0.0-15.0-0.7,47188,List2B,black,man,,,,null,,,,
null,"<img src=""stim_listB/fight4.gif""style=""height:400px;""></stim_listB>",,html-keyboard-response,238,1983287,0.0-15.0-1.7,47188,List2B,black,man,,,,null,,,,
null,are fighting each other,,html-keyboard-response,239,1985289,0.0-15.0-2.7,47188,List2B,black,man,,,,null,,,,
9696,,,survey-text,240,1994986,0.0-15.0-3.7,47188,List2B,black,man,,,,,"{""Q0"":""beth and fred are fighting each other""}","<img src=""stim_listB/fight4.gif""style=""height:400px;""></stim_listB>",are fighting each other,
null,"<div style=""font-size:60px;"">+</div>",,html-keyboard-response,241,1995488,0.0-15.0-0.8,47188,List2B,black,man,,,,null,,,,
null,"<img src=""stim_listB/kiss8.gif""style=""height:400px;""></stim_listB>",,html-keyboard-response,242,1997491,0.0-15.0-1.8,47188,List2B,black,man,,,,null,,,,
null,are kissing each other,,html-keyboard-response,243,1999493,0.0-15.0-2.8,47188,List2B,black,man,,,,null,,,,
10695,,,survey-text,244,2010190,0.0-15.0-3.8,47188,List2B,black,man,,,,,"{""Q0"":""kate and jane are kissing each other""}","<img src=""stim_listB/kiss8.gif""style=""height:400px;""></stim_listB>",are kissing each other,
null,"<div style=""font-size:60px;"">+</div>",,html-keyboard-response,245,2010691,0.0-15.0-0.9,47188,List2B,black,man,,,,null,,,,
null,"<img src=""stim_listB/argue1.gif""style=""height:400px;""></stim_listB>",,html-keyboard-response,246,2012693,0.0-15.0-1.9,47188,List2B,black,man,,,,null,,,,
null,is arguing with,,html-keyboard-response,247,2014694,0.0-15.0-2.9,47188,List2B,black,man,,,,null,,,,
8578,,,survey-text,248,2023274,0.0-15.0-3.9,47188,List2B,black,man,,,,,"{""Q0"":""dave is arguing with ruth""}","<img src=""stim_listB/argue1.gif""style=""height:400px;""></stim_listB>",is arguing with,
null,"<div style=""font-size:60px;"">+</div>",,html-keyboard-response,249,2023777,0.0-15.0-0.10,47188,List2B,black,man,,,,null,,,,
null,"<img src=""stim_listB/marry3.gif""style=""height:400px;""></stim_listB>",,html-keyboard-response,250,2025779,0.0-15.0-1.10,47188,List2B,black,man,,,,null,,,,
null,is marrying,,html-keyboard-response,251,2027781,0.0-15.0-2.10,47188,List2B,black,man,,,,null,,,,
8217,,,survey-text,252,2035999,0.0-15.0-3.10,47188,List2B,black,man,,,,,"{""Q0"":""mike is marrying beth""}","<img src=""stim_listB/marry3.gif""style=""height:400px;""></stim_listB>",is marrying,
null,"<div style=""font-size:60px;"">+</div>",,html-keyboard-response,253,2036501,0.0-15.0-0.11,47188,List2B,black,man,,,,null,,,,
null,"<img src=""stim_listB/fight8.gif""style=""height:400px;""></stim_listB>",,html-keyboard-response,254,2038503,0.0-15.0-1.11,47188,List2B,black,man,,,,null,,,,
null,are fighting each other,,html-keyboard-response,255,2040505,0.0-15.0-2.11,47188,List2B,black,man,,,,null,,,,
7978,,,survey-text,256,2048484,0.0-15.0-3.11,47188,List2B,black,man,,,,,"{""Q0"":""ruth is fighting beth""}","<img src=""stim_listB/fight8.gif""style=""height:400px;""></stim_listB>",are fighting each other,
null,"<div style=""font-size:60px;"">+</div>",,html-keyboard-response,257,2048986,0.0-15.0-0.12,47188,List2B,black,man,,,,null,,,,
null,"<img src=""stim_listB/flirt3.gif""style=""height:400px;""></stim_listB>",,html-keyboard-response,258,2050988,0.0-15.0-1.12,47188,List2B,black,man,,,,null,,,,
null,is flirting with,,html-keyboard-response,259,2052989,0.0-15.0-2.12,47188,List2B,black,man,,,,null,,,,
7772,,,survey-text,260,2060762,0.0-15.0-3.12,47188,List2B,black,man,,,,,"{""Q0"":""kate is flirting with fred""}","<img src=""stim_listB/flirt3.gif""style=""height:400px;""></stim_listB>",is flirting with,
null,"<div style=""font-size:60px;"">+</div>",,html-keyboard-response,261,2061264,0.0-15.0-0.13,47188,List2B,black,man,,,,null,,,,
null,"<img src=""stim_listB/shout8.gif""style=""height:400px;""></stim_listB>",,html-keyboard-response,262,2063266,0.0-15.0-1.13,47188,List2B,black,man,,,,null,,,,
null,are shouting at each other,,html-keyboard-response,263,2065268,0.0-15.0-2.13,47188,List2B,black,man,,,,null,,,,
10302,,,survey-text,264,2075572,0.0-15.0-3.13,47188,List2B,black,man,,,,,"{""Q0"":""jane and kate are shouting at each other""}","<img src=""stim_listB/shout8.gif""style=""height:400px;""></stim_listB>",are shouting at each other,
null,"<div style=""font-size:60px;"">+</div>",,html-keyboard-response,265,2076074,0.0-15.0-0.14,47188,List2B,black,man,,,,null,,,,
null,"<img src=""stim_listB/argue5.gif""style=""height:400px;""></stim_listB>",,html-keyboard-response,266,2078076,0.0-15.0-1.14,47188,List2B,black,man,,,,null,,,,
null,is arguing with,,html-keyboard-response,267,2080077,0.0-15.0-2.14,47188,List2B,black,man,,,,null,,,,
10280,,,survey-text,268,2090359,0.0-15.0-3.14,47188,List2B,black,man,,,,,"{""Q0"":""fred is arguing with dave""}","<img src=""stim_listB/argue5.gif""style=""height:400px;""></stim_listB>",is arguing with,
null,"<div style=""font-size:60px;"">+</div>",,html-keyboard-response,269,2090860,0.0-15.0-0.15,47188,List2B,black,man,,,,null,,,,
null,"<img src=""stim_listB/play4.gif""style=""height:400px;""></stim_listB>",,html-keyboard-response,270,2092862,0.0-15.0-1.15,47188,List2B,black,man,,,,null,,,,
null,are playing with each other,,html-keyboard-response,271,2094864,0.0-15.0-2.15,47188,List2B,black,man,,,,null,,,,
12962,,,survey-text,272,2107827,0.0-15.0-3.15,47188,List2B,black,man,,,,,"{""Q0"":""beth and fred are playing each other""}","<img src=""stim_listB/play4.gif""style=""height:400px;""></stim_listB>",are playing with each other,
null,"<div style=""font-size:60px;"">+</div>",,html-keyboard-response,273,2108329,0.0-15.0-0.16,47188,List2B,black,man,,,,null,,,,
null,"<img src=""stim_listB/marry8.gif""style=""height:400px;""></stim_listB>",,html-keyboard-response,274,2110331,0.0-15.0-1.16,47188,List2B,black,man,,,,null,,,,
null,are marrying each other,,html-keyboard-response,275,2112333,0.0-15.0-2.16,47188,List2B,black,man,,,,null,,,,
7326,,,survey-text,276,2119659,0.0-15.0-3.16,47188,List2B,black,man,,,,,"{""Q0"":""kate and ruth marrying""}","<img src=""stim_listB/marry8.gif""style=""height:400px;""></stim_listB>",are marrying each other,
null,"<div style=""font-size:60px;"">+</div>",,html-keyboard-response,277,2120162,0.0-15.0-0.17,47188,List2B,black,man,,,,null,,,,
null,"<img src=""stim_listB/shout3.gif""style=""height:400px;""></stim_listB>",,html-keyboard-response,278,2122163,0.0-15.0-1.17,47188,List2B,black,man,,,,null,,,,
null,is shouting at,,html-keyboard-response,279,2124164,0.0-15.0-2.17,47188,List2B,black,man,,,,null,,,,
11074,,,survey-text,280,2135238,0.0-15.0-3.17,47188,List2B,black,man,,,,,"{""Q0"":""fred and beth shouting""}","<img src=""stim_listB/shout3.gif""style=""height:400px;""></stim_listB>",is shouting at,
null,"<div style=""font-size:60px;"">+</div>",,html-keyboard-response,281,2135740,0.0-15.0-0.18,47188,List2B,black,man,,,,null,,,,
null,"<img src=""stim_listB/argue8.gif""style=""height:400px;""></stim_listB>",,html-keyboard-response,282,2137742,0.0-15.0-1.18,47188,List2B,black,man,,,,null,,,,
null,are arguing with each other,,html-keyboard-response,283,2139744,0.0-15.0-2.18,47188,List2B,black,man,,,,null,,,,
9933,,,survey-text,284,2149677,0.0-15.0-3.18,47188,List2B,black,man,,,,,"{""Q0"":""kate and ruth arguing ""}","<img src=""stim_listB/argue8.gif""style=""height:400px;""></stim_listB>",are arguing with each other,
null,"<div style=""font-size:60px;"">+</div>",,html-keyboard-response,285,2150179,0.0-15.0-0.19,47188,List2B,black,man,,,,null,,,,
null,"<img src=""stim_listB/play5.gif""style=""height:400px;""></stim_listB>",,html-keyboard-response,286,2152181,0.0-15.0-1.19,47188,List2B,black,man,,,,null,,,,
null,is playing with,,html-keyboard-response,287,2154184,0.0-15.0-2.19,47188,List2B,black,man,,,,null,,,,
6083,,,survey-text,288,2160268,0.0-15.0-3.19,47188,List2B,black,man,,,,,"{""Q0"":""mike and dave playing""}","<img src=""stim_listB/play5.gif""style=""height:400px;""></stim_listB>",is playing with,
1755,"<img src='img/portrait_matrix_list2.jpg' style='width:900px;height:500px;''></img><p>If you have memorised all the portraits and names and are ready to start, press Continue.</p><p><strong>Please note: Your memory of these faces will be tested 4 times during this experiment.</strong></p>",0,html-button-response,289,2162025,0.0-16.0-0.0,47188,List2B,black,man,,,,,,,,
1493,"<img src=""portrait/BW1.jpg""style=""height:400px;""></img>",0,html-button-response,290,2164522,0.0-16.0-1.0,47188,List2B,black,man,,TRUE,0,,,,,
null,CORRECT,,html-keyboard-response,291,2166026,0.0-16.0-2.0-0.0,47188,List2B,black,man,,,,null,,,,
1414,"<img src=""portrait/BW2.jpg""style=""height:400px;""></img>",2,html-button-response,292,2167441,0.0-16.0-4.0,47188,List2B,black,man,,TRUE,2,,,,,
null,CORRECT,,html-keyboard-response,293,2168947,0.0-16.0-5.0-0.0,47188,List2B,black,man,,,,null,,,,
1258,"<img src=""portrait/WW1.jpg""style=""height:400px;""></img>",1,html-button-response,294,2170208,0.0-16.0-7.0,47188,List2B,black,man,,TRUE,1,,,,,
null,CORRECT,,html-keyboard-response,295,2171709,0.0-16.0-8.0-0.0,47188,List2B,black,man,,,,null,,,,
1865,"<img src=""portrait/BM2.jpg""style=""height:400px;""></img>",5,html-button-response,296,2173576,0.0-16.0-10.0,47188,List2B,black,man,,TRUE,5,,,,,
null,CORRECT,,html-keyboard-response,297,2175080,0.0-16.0-11.0-0.0,47188,List2B,black,man,,,,null,,,,
1449,"<img src=""portrait/WW2.jpg""style=""height:400px;""></img>",3,html-button-response,298,2176530,0.0-16.0-13.0,47188,List2B,black,man,,TRUE,3,,,,,
null,CORRECT,,html-keyboard-response,299,2178033,0.0-16.0-14.0-0.0,47188,List2B,black,man,,,,null,,,,
1367,"<img src=""portrait/WM2.jpg""style=""height:400px;""></img>",7,html-button-response,300,2179401,0.0-16.0-16.0,47188,List2B,black,man,,TRUE,7,,,,,
null,CORRECT,,html-keyboard-response,301,2180904,0.0-16.0-17.0-0.0,47188,List2B,black,man,,,,null,,,,
660,"<img src=""portrait/WM1.jpg""style=""height:400px;""></img>",6,html-button-response,302,2181565,0.0-16.0-19.0,47188,List2B,black,man,,TRUE,6,,,,,
null,CORRECT,,html-keyboard-response,303,2183068,0.0-16.0-20.0-0.0,47188,List2B,black,man,,,,null,,,,
422,"<img src=""portrait/BM1.jpg""style=""height:400px;""></img>",4,html-button-response,304,2183492,0.0-16.0-22.0,47188,List2B,black,man,,TRUE,4,,,,,
null,CORRECT,,html-keyboard-response,305,2184994,0.0-16.0-23.0-0.0,47188,List2B,black,man,,,,null,,,,
792,<p>You got 8 out of 8 right first time. Press Continue.</p>,0,html-button-response,306,2185787,0.0-16.0-25.0,47188,List2B,black,man,,,,,,,,
null,"<div style=""font-size:60px;"">+</div>",,html-keyboard-response,307,2187291,0.0-17.0-0.0,47188,List2B,black,man,,,,null,,,,
null,"<img src=""stim_listB/fight2.gif""style=""height:400px;""></stim_listB>",,html-keyboard-response,308,2189294,0.0-17.0-1.0,47188,List2B,black,man,,,,null,,,,
null,are fighting each other,,html-keyboard-response,309,2191295,0.0-17.0-2.0,47188,List2B,black,man,,,,null,,,,
7105,,,survey-text,310,2198400,0.0-17.0-3.0,47188,List2B,black,man,,,,,"{""Q0"":""luke ruth fighting""}","<img src=""stim_listB/fight2.gif""style=""height:400px;""></stim_listB>",are fighting each other,
null,"<div style=""font-size:60px;"">+</div>",,html-keyboard-response,311,2198903,0.0-17.0-0.1,47188,List2B,black,man,,,,null,,,,
null,"<img src=""stim_listB/touch6.gif""style=""height:400px;""></stim_listB>",,html-keyboard-response,312,2200906,0.0-17.0-1.1,47188,List2B,black,man,,,,null,,,,
null,are touching each other,,html-keyboard-response,313,2202907,0.0-17.0-2.1,47188,List2B,black,man,,,,null,,,,
5506,,,survey-text,314,2208415,0.0-17.0-3.1,47188,List2B,black,man,,,,,"{""Q0"":""fred luke touching""}","<img src=""stim_listB/touch6.gif""style=""height:400px;""></stim_listB>",are touching each other,
null,"<div style=""font-size:60px;"">+</div>",,html-keyboard-response,315,2208916,0.0-17.0-0.2,47188,List2B,black,man,,,,null,,,,
null,"<img src=""stim_listB/talk4.gif""style=""height:400px;""></stim_listB>",,html-keyboard-response,316,2210919,0.0-17.0-1.2,47188,List2B,black,man,,,,null,,,,
null,are talking to each other,,html-keyboard-response,317,2212921,0.0-17.0-2.2,47188,List2B,black,man,,,,null,,,,
6073,,,survey-text,318,2218996,0.0-17.0-3.2,47188,List2B,black,man,,,,,"{""Q0"":""mike beth talking""}","<img src=""stim_listB/talk4.gif""style=""height:400px;""></stim_listB>",are talking to each other,
null,"<div style=""font-size:60px;"">+</div>",,html-keyboard-response,319,2219499,0.0-17.0-0.3,47188,List2B,black,man,,,,null,,,,
null,"<img src=""stim_listB/kiss7.gif""style=""height:400px;""></stim_listB>",,html-keyboard-response,320,2221501,0.0-17.0-1.3,47188,List2B,black,man,,,,null,,,,
null,is kissing,,html-keyboard-response,321,2223503,0.0-17.0-2.3,47188,List2B,black,man,,,,null,,,,
6568,,,survey-text,322,2230073,0.0-17.0-3.3,47188,List2B,black,man,,,,,"{""Q0"":""beth ruth kissing""}","<img src=""stim_listB/kiss7.gif""style=""height:400px;""></stim_listB>",is kissing,
null,"<div style=""font-size:60px;"">+</div>",,html-keyboard-response,323,2230576,0.0-17.0-0.4,47188,List2B,black,man,,,,null,,,,
null,"<img src=""stim_listB/dance3.gif""style=""height:400px;""></stim_listB>",,html-keyboard-response,324,2232579,0.0-17.0-1.4,47188,List2B,black,man,,,,null,,,,
null,is dancing with,,html-keyboard-response,325,2234580,0.0-17.0-2.4,47188,List2B,black,man,,,,null,,,,
5419,,,survey-text,326,2240001,0.0-17.0-3.4,47188,List2B,black,man,,,,,"{""Q0"":""fred kate dancing""}","<img src=""stim_listB/dance3.gif""style=""height:400px;""></stim_listB>",is dancing with,
null,"<div style=""font-size:60px;"">+</div>",,html-keyboard-response,327,2240502,0.0-17.0-0.5,47188,List2B,black,man,,,,null,,,,
null,"<img src=""stim_listB/flirt6.gif""style=""height:400px;""></stim_listB>",,html-keyboard-response,328,2242505,0.0-17.0-1.5,47188,List2B,black,man,,,,null,,,,
null,are flirting with each other,,html-keyboard-response,329,2244506,0.0-17.0-2.5,47188,List2B,black,man,,,,null,,,,
8051,,,survey-text,330,2252557,0.0-17.0-3.5,47188,List2B,black,man,,,,,"{""Q0"":""dave fred flrting""}","<img src=""stim_listB/flirt6.gif""style=""height:400px;""></stim_listB>",are flirting with each other,
null,"<div style=""font-size:60px;"">+</div>",,html-keyboard-response,331,2253058,0.0-17.0-0.6,47188,List2B,black,man,,,,null,,,,
null,"<img src=""stim_listB/touch4.gif""style=""height:400px;""></stim_listB>",,html-keyboard-response,332,2255061,0.0-17.0-1.6,47188,List2B,black,man,,,,null,,,,
null,are touching each other,,html-keyboard-response,333,2257063,0.0-17.0-2.6,47188,List2B,black,man,,,,null,,,,
4849,,,survey-text,334,2261914,0.0-17.0-3.6,47188,List2B,black,man,,,,,"{""Q0"":""beth fred touching""}","<img src=""stim_listB/touch4.gif""style=""height:400px;""></stim_listB>",are touching each other,
null,"<div style=""font-size:60px;"">+</div>",,html-keyboard-response,335,2262417,0.0-17.0-0.7,47188,List2B,black,man,,,,null,,,,
null,"<img src=""stim_listB/talk5.gif""style=""height:400px;""></stim_listB>",,html-keyboard-response,336,2264418,0.0-17.0-1.7,47188,List2B,black,man,,,,null,,,,
null,is talking to,,html-keyboard-response,337,2266420,0.0-17.0-2.7,47188,List2B,black,man,,,,null,,,,
7031,,,survey-text,338,2273452,0.0-17.0-3.7,47188,List2B,black,man,,,,,"{""Q0"":""mike luke talking""}","<img src=""stim_listB/talk5.gif""style=""height:400px;""></stim_listB>",is talking to,
null,"<div style=""font-size:60px;"">+</div>",,html-keyboard-response,339,2273953,0.0-17.0-0.8,47188,List2B,black,man,,,,null,,,,
null,"<img src=""stim_listB/flirt8.gif""style=""height:400px;""></stim_listB>",,html-keyboard-response,340,2275955,0.0-17.0-1.8,47188,List2B,black,man,,,,null,,,,
null,are flirting with each other,,html-keyboard-response,341,2277956,0.0-17.0-2.8,47188,List2B,black,man,,,,null,,,,
6557,,,survey-text,342,2284515,0.0-17.0-3.8,47188,List2B,black,man,,,,,"{""Q0"":""jane beth flirting""}","<img src=""stim_listB/flirt8.gif""style=""height:400px;""></stim_listB>",are flirting with each other,
null,"<div style=""font-size:60px;"">+</div>",,html-keyboard-response,343,2285017,0.0-17.0-0.9,47188,List2B,black,man,,,,null,,,,
null,"<img src=""stim_listB/talk1.gif""style=""height:400px;""></stim_listB>",,html-keyboard-response,344,2287019,0.0-17.0-1.9,47188,List2B,black,man,,,,null,,,,
null,is talking to,,html-keyboard-response,345,2289020,0.0-17.0-2.9,47188,List2B,black,man,,,,null,,,,
10401,,,survey-text,346,2299422,0.0-17.0-3.9,47188,List2B,black,man,,,,,"{""Q0"":""luke talking jane""}","<img src=""stim_listB/talk1.gif""style=""height:400px;""></stim_listB>",is talking to,
null,"<div style=""font-size:60px;"">+</div>",,html-keyboard-response,347,2299924,0.0-17.0-0.10,47188,List2B,black,man,,,,null,,,,
null,"<img src=""stim_listB/touch2.gif""style=""height:400px;""></stim_listB>",,html-keyboard-response,348,2301927,0.0-17.0-1.10,47188,List2B,black,man,,,,null,,,,
null,are touching each other,,html-keyboard-response,349,2303929,0.0-17.0-2.10,47188,List2B,black,man,,,,null,,,,
6799,,,survey-text,350,2310730,0.0-17.0-3.10,47188,List2B,black,man,,,,,"{""Q0"":""ruth luke touching""}","<img src=""stim_listB/touch2.gif""style=""height:400px;""></stim_listB>",are touching each other,
null,"<div style=""font-size:60px;"">+</div>",,html-keyboard-response,351,2311232,0.0-17.0-0.11,47188,List2B,black,man,,,,null,,,,
null,"<img src=""stim_listB/talk8.gif""style=""height:400px;""></stim_listB>",,html-keyboard-response,352,2313234,0.0-17.0-1.11,47188,List2B,black,man,,,,null,,,,
null,are talking to each other,,html-keyboard-response,353,2315236,0.0-17.0-2.11,47188,List2B,black,man,,,,null,,,,
4912,,,survey-text,354,2320150,0.0-17.0-3.11,47188,List2B,black,man,,,,,"{""Q0"":""jane beth talking""}","<img src=""stim_listB/talk8.gif""style=""height:400px;""></stim_listB>",are talking to each other,
null,"<div style=""font-size:60px;"">+</div>",,html-keyboard-response,355,2320651,0.0-17.0-0.12,47188,List2B,black,man,,,,null,,,,
null,"<img src=""stim_listB/touch1.gif""style=""height:400px;""></stim_listB>",,html-keyboard-response,356,2322654,0.0-17.0-1.12,47188,List2B,black,man,,,,null,,,,
null,is touching,,html-keyboard-response,357,2324656,0.0-17.0-2.12,47188,List2B,black,man,,,,null,,,,
9768,,,survey-text,358,2334425,0.0-17.0-3.12,47188,List2B,black,man,,,,,"{""Q0"":""dave is touching jane""}","<img src=""stim_listB/touch1.gif""style=""height:400px;""></stim_listB>",is touching,
null,"<div style=""font-size:60px;"">+</div>",,html-keyboard-response,359,2334928,0.0-17.0-0.13,47188,List2B,black,man,,,,null,,,,
null,"<img src=""stim_listB/shout7.gif""style=""height:400px;""></stim_listB>",,html-keyboard-response,360,2336929,0.0-17.0-1.13,47188,List2B,black,man,,,,null,,,,
null,is shouting at,,html-keyboard-response,361,2338931,0.0-17.0-2.13,47188,List2B,black,man,,,,null,,,,
6117,,,survey-text,362,2345050,0.0-17.0-3.13,47188,List2B,black,man,,,,,"{""Q0"":""beth ruth shouting""}","<img src=""stim_listB/shout7.gif""style=""height:400px;""></stim_listB>",is shouting at,
null,"<div style=""font-size:60px;"">+</div>",,html-keyboard-response,363,2345552,0.0-17.0-0.14,47188,List2B,black,man,,,,null,,,,
null,"<img src=""stim_listB/kiss4.gif""style=""height:400px;""></stim_listB>",,html-keyboard-response,364,2347555,0.0-17.0-1.14,47188,List2B,black,man,,,,null,,,,
null,are kissing each other,,html-keyboard-response,365,2349556,0.0-17.0-2.14,47188,List2B,black,man,,,,null,,,,
5989,,,survey-text,366,2355546,0.0-17.0-3.14,47188,List2B,black,man,,,,,"{""Q0"":""kate mike kissing""}","<img src=""stim_listB/kiss4.gif""style=""height:400px;""></stim_listB>",are kissing each other,
null,"<div style=""font-size:60px;"">+</div>",,html-keyboard-response,367,2356049,0.0-17.0-0.15,47188,List2B,black,man,,,,null,,,,
null,"<img src=""stim_listB/play2.gif""style=""height:400px;""></stim_listB>",,html-keyboard-response,368,2358053,0.0-17.0-1.15,47188,List2B,black,man,,,,null,,,,
null,are playing with each other,,html-keyboard-response,369,2360055,0.0-17.0-2.15,47188,List2B,black,man,,,,null,,,,
5308,,,survey-text,370,2365365,0.0-17.0-3.15,47188,List2B,black,man,,,,,"{""Q0"":""fred ruth playing""}","<img src=""stim_listB/play2.gif""style=""height:400px;""></stim_listB>",are playing with each other,
null,"<div style=""font-size:60px;"">+</div>",,html-keyboard-response,371,2365866,0.0-17.0-0.16,47188,List2B,black,man,,,,null,,,,
null,"<img src=""stim_listB/marry4.gif""style=""height:400px;""></stim_listB>",,html-keyboard-response,372,2367869,0.0-17.0-1.16,47188,List2B,black,man,,,,null,,,,
null,are marrying each other,,html-keyboard-response,373,2369870,0.0-17.0-2.16,47188,List2B,black,man,,,,null,,,,
8302,,,survey-text,374,2378173,0.0-17.0-3.16,47188,List2B,black,man,,,,,"{""Q0"":""fred kate marrying""}","<img src=""stim_listB/marry4.gif""style=""height:400px;""></stim_listB>",are marrying each other,
null,"<div style=""font-size:60px;"">+</div>",,html-keyboard-response,375,2378674,0.0-17.0-0.17,47188,List2B,black,man,,,,null,,,,
null,"<img src=""stim_listB/marry2.gif""style=""height:400px;""></stim_listB>",,html-keyboard-response,376,2380677,0.0-17.0-1.17,47188,List2B,black,man,,,,null,,,,
null,are marrying each other,,html-keyboard-response,377,2382679,0.0-17.0-2.17,47188,List2B,black,man,,,,null,,,,
5977,,,survey-text,378,2388658,0.0-17.0-3.17,47188,List2B,black,man,,,,,"{""Q0"":""jane luke marrying""}","<img src=""stim_listB/marry2.gif""style=""height:400px;""></stim_listB>",are marrying each other,
null,"<div style=""font-size:60px;"">+</div>",,html-keyboard-response,379,2389160,0.0-17.0-0.18,47188,List2B,black,man,,,,null,,,,
null,"<img src=""stim_listB/argue3.gif""style=""height:400px;""></stim_listB>",,html-keyboard-response,380,2391162,0.0-17.0-1.18,47188,List2B,black,man,,,,null,,,,
null,is arguing with,,html-keyboard-response,381,2393164,0.0-17.0-2.18,47188,List2B,black,man,,,,null,,,,
5975,,,survey-text,382,2399140,0.0-17.0-3.18,47188,List2B,black,man,,,,,"{""Q0"":""mike arguing beth""}","<img src=""stim_listB/argue3.gif""style=""height:400px;""></stim_listB>",is arguing with,
null,"<div style=""font-size:60px;"">+</div>",,html-keyboard-response,383,2399643,0.0-17.0-0.19,47188,List2B,black,man,,,,null,,,,
null,"<img src=""stim_listB/flirt1.gif""style=""height:400px;""></stim_listB>",,html-keyboard-response,384,2401646,0.0-17.0-1.19,47188,List2B,black,man,,,,null,,,,
null,is flirting with,,html-keyboard-response,385,2403647,0.0-17.0-2.19,47188,List2B,black,man,,,,null,,,,
5830,,,survey-text,386,2409479,0.0-17.0-3.19,47188,List2B,black,man,,,,,"{""Q0"":""jane luke flriting""}","<img src=""stim_listB/flirt1.gif""style=""height:400px;""></stim_listB>",is flirting with,
1532,"<img src='img/portrait_matrix_list2.jpg' style='width:900px;height:500px;''></img><p>If you have memorised all the portraits and names and are ready to start, press Continue.</p><p><strong>Please note: Your memory of these faces will be tested 4 times during this experiment.</strong></p>",0,html-button-response,387,2411013,0.0-18.0-0.0,47188,List2B,black,man,,,,,,,,
1504,"<img src=""portrait/BM2.jpg""style=""height:400px;""></img>",5,html-button-response,388,2413519,0.0-18.0-1.0,47188,List2B,black,man,,TRUE,5,,,,,
null,CORRECT,,html-keyboard-response,389,2415023,0.0-18.0-2.0-0.0,47188,List2B,black,man,,,,null,,,,
1371,"<img src=""portrait/BW2.jpg""style=""height:400px;""></img>",2,html-button-response,390,2416396,0.0-18.0-4.0,47188,List2B,black,man,,TRUE,2,,,,,
null,CORRECT,,html-keyboard-response,391,2417900,0.0-18.0-5.0-0.0,47188,List2B,black,man,,,,null,,,,
1756,"<img src=""portrait/WM2.jpg""style=""height:400px;""></img>",7,html-button-response,392,2419657,0.0-18.0-7.0,47188,List2B,black,man,,TRUE,7,,,,,
null,CORRECT,,html-keyboard-response,393,2421159,0.0-18.0-8.0-0.0,47188,List2B,black,man,,,,null,,,,
1157,"<img src=""portrait/WM1.jpg""style=""height:400px;""></img>",6,html-button-response,394,2422317,0.0-18.0-10.0,47188,List2B,black,man,,TRUE,6,,,,,
null,CORRECT,,html-keyboard-response,395,2423821,0.0-18.0-11.0-0.0,47188,List2B,black,man,,,,null,,,,
1251,"<img src=""portrait/WW2.jpg""style=""height:400px;""></img>",3,html-button-response,396,2425072,0.0-18.0-13.0,47188,List2B,black,man,,TRUE,3,,,,,
null,CORRECT,,html-keyboard-response,397,2426575,0.0-18.0-14.0-0.0,47188,List2B,black,man,,,,null,,,,
1388,"<img src=""portrait/WW1.jpg""style=""height:400px;""></img>",1,html-button-response,398,2427965,0.0-18.0-16.0,47188,List2B,black,man,,TRUE,1,,,,,
null,CORRECT,,html-keyboard-response,399,2429468,0.0-18.0-17.0-0.0,47188,List2B,black,man,,,,null,,,,
563,"<img src=""portrait/BM1.jpg""style=""height:400px;""></img>",4,html-button-response,400,2430032,0.0-18.0-19.0,47188,List2B,black,man,,TRUE,4,,,,,
null,CORRECT,,html-keyboard-response,401,2431535,0.0-18.0-20.0-0.0,47188,List2B,black,man,,,,null,,,,
437,"<img src=""portrait/BW1.jpg""style=""height:400px;""></img>",0,html-button-response,402,2431974,0.0-18.0-22.0,47188,List2B,black,man,,TRUE,0,,,,,
null,CORRECT,,html-keyboard-response,403,2433476,0.0-18.0-23.0-0.0,47188,List2B,black,man,,,,null,,,,
1031,<p>You got 8 out of 8 right first time. Press Continue.</p>,0,html-button-response,404,2434509,0.0-18.0-25.0,47188,List2B,black,man,,,,,,,,
null,"<div style=""font-size:60px;"">+</div>",,html-keyboard-response,405,2436011,0.0-19.0-0.0,47188,List2B,black,man,,,,null,,,,
null,"<img src=""stim_listB/marry6.gif""style=""height:400px;""></stim_listB>",,html-keyboard-response,406,2438015,0.0-19.0-1.0,47188,List2B,black,man,,,,null,,,,
null,are marrying each other,,html-keyboard-response,407,2440017,0.0-19.0-2.0,47188,List2B,black,man,,,,null,,,,
7458,,,survey-text,408,2447476,0.0-19.0-3.0,47188,List2B,black,man,,,,,"{""Q0"":""luke marrying mike""}","<img src=""stim_listB/marry6.gif""style=""height:400px;""></stim_listB>",are marrying each other,
null,"<div style=""font-size:60px;"">+</div>",,html-keyboard-response,409,2447977,0.0-19.0-0.1,47188,List2B,black,man,,,,null,,,,
null,"<img src=""stim_listB/flirt4.gif""style=""height:400px;""></stim_listB>",,html-keyboard-response,410,2449979,0.0-19.0-1.1,47188,List2B,black,man,,,,null,,,,
null,are flirting with each other,,html-keyboard-response,411,2451980,0.0-19.0-2.1,47188,List2B,black,man,,,,null,,,,
5450,,,survey-text,412,2457431,0.0-19.0-3.1,47188,List2B,black,man,,,,,"{""Q0"":""mike flrithing beth""}","<img src=""stim_listB/flirt4.gif""style=""height:400px;""></stim_listB>",are flirting with each other,
null,"<div style=""font-size:60px;"">+</div>",,html-keyboard-response,413,2457933,0.0-19.0-0.2,47188,List2B,black,man,,,,null,,,,
null,"<img src=""stim_listB/touch7.gif""style=""height:400px;""></stim_listB>",,html-keyboard-response,414,2459934,0.0-19.0-1.2,47188,List2B,black,man,,,,null,,,,
null,is touching,,html-keyboard-response,415,2461937,0.0-19.0-2.2,47188,List2B,black,man,,,,null,,,,
7135,,,survey-text,416,2469074,0.0-19.0-3.2,47188,List2B,black,man,,,,,"{""Q0"":""kate jane touching""}","<img src=""stim_listB/touch7.gif""style=""height:400px;""></stim_listB>",is touching,
null,"<div style=""font-size:60px;"">+</div>",,html-keyboard-response,417,2469576,0.0-19.0-0.3,47188,List2B,black,man,,,,null,,,,
null,"<img src=""stim_listB/play7.gif""style=""height:400px;""></stim_listB>",,html-keyboard-response,418,2471579,0.0-19.0-1.3,47188,List2B,black,man,,,,null,,,,
null,is playing with,,html-keyboard-response,419,2473581,0.0-19.0-2.3,47188,List2B,black,man,,,,null,,,,
5339,,,survey-text,420,2478921,0.0-19.0-3.3,47188,List2B,black,man,,,,,"{""Q0"":""kate jane playing""}","<img src=""stim_listB/play7.gif""style=""height:400px;""></stim_listB>",is playing with,
null,"<div style=""font-size:60px;"">+</div>",,html-keyboard-response,421,2479423,0.0-19.0-0.4,47188,List2B,black,man,,,,null,,,,
null,"<img src=""stim_listB/shout2.gif""style=""height:400px;""></stim_listB>",,html-keyboard-response,422,2481424,0.0-19.0-1.4,47188,List2B,black,man,,,,null,,,,
null,are shouting at each other,,html-keyboard-response,423,2483426,0.0-19.0-2.4,47188,List2B,black,man,,,,null,,,,
5097,,,survey-text,424,2488524,0.0-19.0-3.4,47188,List2B,black,man,,,,,"{""Q0"":""jane dave shouting""}","<img src=""stim_listB/shout2.gif""style=""height:400px;""></stim_listB>",are shouting at each other,
null,"<div style=""font-size:60px;"">+</div>",,html-keyboard-response,425,2489025,0.0-19.0-0.5,47188,List2B,black,man,,,,null,,,,
null,"<img src=""stim_listB/shout1.gif""style=""height:400px;""></stim_listB>",,html-keyboard-response,426,2491027,0.0-19.0-1.5,47188,List2B,black,man,,,,null,,,,
null,is shouting at,,html-keyboard-response,427,2493029,0.0-19.0-2.5,47188,List2B,black,man,,,,null,,,,
6063,,,survey-text,428,2499093,0.0-19.0-3.5,47188,List2B,black,man,,,,,"{""Q0"":""ruth luke shouthing""}","<img src=""stim_listB/shout1.gif""style=""height:400px;""></stim_listB>",is shouting at,
null,"<div style=""font-size:60px;"">+</div>",,html-keyboard-response,429,2499595,0.0-19.0-0.6,47188,List2B,black,man,,,,null,,,,
null,"<img src=""stim_listB/fight3.gif""style=""height:400px;""></stim_listB>",,html-keyboard-response,430,2501597,0.0-19.0-1.6,47188,List2B,black,man,,,,null,,,,
null,is fighting,,html-keyboard-response,431,2503598,0.0-19.0-2.6,47188,List2B,black,man,,,,null,,,,
6851,,,survey-text,432,2510450,0.0-19.0-3.6,47188,List2B,black,man,,,,,"{""Q0"":""mike kate fighting""}","<img src=""stim_listB/fight3.gif""style=""height:400px;""></stim_listB>",is fighting,
null,"<div style=""font-size:60px;"">+</div>",,html-keyboard-response,433,2510951,0.0-19.0-0.7,47188,List2B,black,man,,,,null,,,,
null,"<img src=""stim_listB/shout4.gif""style=""height:400px;""></stim_listB>",,html-keyboard-response,434,2512953,0.0-19.0-1.7,47188,List2B,black,man,,,,null,,,,
null,are shouting at each other,,html-keyboard-response,435,2514956,0.0-19.0-2.7,47188,List2B,black,man,,,,null,,,,
6213,,,survey-text,436,2521170,0.0-19.0-3.7,47188,List2B,black,man,,,,,"{""Q0"":""mike kate shouting""}","<img src=""stim_listB/shout4.gif""style=""height:400px;""></stim_listB>",are shouting at each other,
null,"<div style=""font-size:60px;"">+</div>",,html-keyboard-response,437,2521672,0.0-19.0-0.8,47188,List2B,black,man,,,,null,,,,
null,"<img src=""stim_listB/talk3.gif""style=""height:400px;""></stim_listB>",,html-keyboard-response,438,2523674,0.0-19.0-1.8,47188,List2B,black,man,,,,null,,,,
null,is talking to,,html-keyboard-response,439,2525675,0.0-19.0-2.8,47188,List2B,black,man,,,,null,,,,
5221,,,survey-text,440,2530896,0.0-19.0-3.8,47188,List2B,black,man,,,,,"{""Q0"":""kate fred talking""}","<img src=""stim_listB/talk3.gif""style=""height:400px;""></stim_listB>",is talking to,
null,"<div style=""font-size:60px;"">+</div>",,html-keyboard-response,441,2531398,0.0-19.0-0.9,47188,List2B,black,man,,,,null,,,,
null,"<img src=""stim_listB/dance8.gif""style=""height:400px;""></stim_listB>",,html-keyboard-response,442,2533401,0.0-19.0-1.9,47188,List2B,black,man,,,,null,,,,
null,are dancing with each other,,html-keyboard-response,443,2535403,0.0-19.0-2.9,47188,List2B,black,man,,,,null,,,,
5047,,,survey-text,444,2540452,0.0-19.0-3.9,47188,List2B,black,man,,,,,"{""Q0"":""jane beth dancing""}","<img src=""stim_listB/dance8.gif""style=""height:400px;""></stim_listB>",are dancing with each other,
null,"<div style=""font-size:60px;"">+</div>",,html-keyboard-response,445,2540954,0.0-19.0-0.10,47188,List2B,black,man,,,,null,,,,
null,"<img src=""stim_listB/kiss6.gif""style=""height:400px;""></stim_listB>",,html-keyboard-response,446,2542958,0.0-19.0-1.10,47188,List2B,black,man,,,,null,,,,
null,are kissing each other,,html-keyboard-response,447,2544960,0.0-19.0-2.10,47188,List2B,black,man,,,,null,,,,
4885,,,survey-text,448,2549846,0.0-19.0-3.10,47188,List2B,black,man,,,,,"{""Q0"":""mike dave kssing""}","<img src=""stim_listB/kiss6.gif""style=""height:400px;""></stim_listB>",are kissing each other,
null,"<div style=""font-size:60px;"">+</div>",,html-keyboard-response,449,2550348,0.0-19.0-0.11,47188,List2B,black,man,,,,null,,,,
null,"<img src=""stim_listB/kiss5.gif""style=""height:400px;""></stim_listB>",,html-keyboard-response,450,2552350,0.0-19.0-1.11,47188,List2B,black,man,,,,null,,,,
null,is kissing,,html-keyboard-response,451,2554352,0.0-19.0-2.11,47188,List2B,black,man,,,,null,,,,
5673,,,survey-text,452,2560026,0.0-19.0-3.11,47188,List2B,black,man,,,,,"{""Q0"":""luke fred ksising""}","<img src=""stim_listB/kiss5.gif""style=""height:400px;""></stim_listB>",is kissing,
null,"<div style=""font-size:60px;"">+</div>",,html-keyboard-response,453,2560528,0.0-19.0-0.12,47188,List2B,black,man,,,,null,,,,
null,"<img src=""stim_listB/touch8.gif""style=""height:400px;""></stim_listB>",,html-keyboard-response,454,2562530,0.0-19.0-1.12,47188,List2B,black,man,,,,null,,,,
null,are touching each other,,html-keyboard-response,455,2564532,0.0-19.0-2.12,47188,List2B,black,man,,,,null,,,,
8448,,,survey-text,456,2572980,0.0-19.0-3.12,47188,List2B,black,man,,,,,"{""Q0"":""beth ruth toucinh""}","<img src=""stim_listB/touch8.gif""style=""height:400px;""></stim_listB>",are touching each other,
null,"<div style=""font-size:60px;"">+</div>",,html-keyboard-response,457,2573483,0.0-19.0-0.13,47188,List2B,black,man,,,,null,,,,
null,"<img src=""stim_listB/touch5.gif""style=""height:400px;""></stim_listB>",,html-keyboard-response,458,2575485,0.0-19.0-1.13,47188,List2B,black,man,,,,null,,,,
null,is touching,,html-keyboard-response,459,2577487,0.0-19.0-2.13,47188,List2B,black,man,,,,null,,,,
6259,,,survey-text,460,2583746,0.0-19.0-3.13,47188,List2B,black,man,,,,,"{""Q0"":""dave mike touching""}","<img src=""stim_listB/touch5.gif""style=""height:400px;""></stim_listB>",is touching,
null,"<div style=""font-size:60px;"">+</div>",,html-keyboard-response,461,2584247,0.0-19.0-0.14,47188,List2B,black,man,,,,null,,,,
null,"<img src=""stim_listB/kiss1.gif""style=""height:400px;""></stim_listB>",,html-keyboard-response,462,2586249,0.0-19.0-1.14,47188,List2B,black,man,,,,null,,,,
null,is kissing,,html-keyboard-response,463,2588251,0.0-19.0-2.14,47188,List2B,black,man,,,,null,,,,
5669,,,survey-text,464,2593922,0.0-19.0-3.14,47188,List2B,black,man,,,,,"{""Q0"":""ruth luke kissing""}","<img src=""stim_listB/kiss1.gif""style=""height:400px;""></stim_listB>",is kissing,
null,"<div style=""font-size:60px;"">+</div>",,html-keyboard-response,465,2594424,0.0-19.0-0.15,47188,List2B,black,man,,,,null,,,,
null,"<img src=""stim_listB/argue2.gif""style=""height:400px;""></stim_listB>",,html-keyboard-response,466,2596426,0.0-19.0-1.15,47188,List2B,black,man,,,,null,,,,
null,are arguing with each other,,html-keyboard-response,467,2598428,0.0-19.0-2.15,47188,List2B,black,man,,,,null,,,,
6425,,,survey-text,468,2604855,0.0-19.0-3.15,47188,List2B,black,man,,,,,"{""Q0"":""luke jane arguing""}","<img src=""stim_listB/argue2.gif""style=""height:400px;""></stim_listB>",are arguing with each other,
null,"<div style=""font-size:60px;"">+</div>",,html-keyboard-response,469,2605357,0.0-19.0-0.16,47188,List2B,black,man,,,,null,,,,
null,"<img src=""stim_listB/dance7.gif""style=""height:400px;""></stim_listB>",,html-keyboard-response,470,2607359,0.0-19.0-1.16,47188,List2B,black,man,,,,null,,,,
null,is dancing with,,html-keyboard-response,471,2609359,0.0-19.0-2.16,47188,List2B,black,man,,,,null,,,,
7509,,,survey-text,472,2616870,0.0-19.0-3.16,47188,List2B,black,man,,,,,"{""Q0"":""kate ruth danicnig""}","<img src=""stim_listB/dance7.gif""style=""height:400px;""></stim_listB>",is dancing with,
null,"<div style=""font-size:60px;"">+</div>",,html-keyboard-response,473,2617372,0.0-19.0-0.17,47188,List2B,black,man,,,,null,,,,
null,"<img src=""stim_listB/touch3.gif""style=""height:400px;""></stim_listB>",,html-keyboard-response,474,2619376,0.0-19.0-1.17,47188,List2B,black,man,,,,null,,,,
null,is touching,,html-keyboard-response,475,2621378,0.0-19.0-2.17,47188,List2B,black,man,,,,null,,,,
4763,,,survey-text,476,2626144,0.0-19.0-3.17,47188,List2B,black,man,,,,,"{""Q0"":""mike kate touching""}","<img src=""stim_listB/touch3.gif""style=""height:400px;""></stim_listB>",is touching,
null,"<div style=""font-size:60px;"">+</div>",,html-keyboard-response,477,2626645,0.0-19.0-0.18,47188,List2B,black,man,,,,null,,,,
null,"<img src=""stim_listB/argue4.gif""style=""height:400px;""></stim_listB>",,html-keyboard-response,478,2628648,0.0-19.0-1.18,47188,List2B,black,man,,,,null,,,,
null,are arguing with each other,,html-keyboard-response,479,2630650,0.0-19.0-2.18,47188,List2B,black,man,,,,null,,,,
5574,,,survey-text,480,2636225,0.0-19.0-3.18,47188,List2B,black,man,,,,,"{""Q0"":""kate fred arguing""}","<img src=""stim_listB/argue4.gif""style=""height:400px;""></stim_listB>",are arguing with each other,
null,"<div style=""font-size:60px;"">+</div>",,html-keyboard-response,481,2636728,0.0-19.0-0.19,47188,List2B,black,man,,,,null,,,,
null,"<img src=""stim_listB/flirt7.gif""style=""height:400px;""></stim_listB>",,html-keyboard-response,482,2638730,0.0-19.0-1.19,47188,List2B,black,man,,,,null,,,,
null,is flirting with,,html-keyboard-response,483,2640732,0.0-19.0-2.19,47188,List2B,black,man,,,,null,,,,
6200,,,survey-text,484,2646933,0.0-19.0-3.19,47188,List2B,black,man,,,,,"{""Q0"":""ruth kate flirting""}","<img src=""stim_listB/flirt7.gif""style=""height:400px;""></stim_listB>",is flirting with,
1084,<p>Thank you for completing that task.</p><p>The final part of this session is a short questionnaire.</p><p>Press Continue.</p>,0,html-button-response,485,2648018,0.0-20.0,47188,List2B,black,man,,,,,,,,
20374,,,survey-text,486,2669395,0.0-21.0,47188,List2B,black,man,,,,,"{""Q0"":""22"",""Q1"":""english"",""Q2"":""english"",""Q3"":""united states"",""Q4"":""black"",""Q5"":""male""}",,,demographics
4389,,,survey-likert,487,2673788,0.0-22.0,47188,List2B,black,man,,,,,"{""Q0"":4}",,,likert_ESS
3586,,,survey-likert,488,2677377,0.0-23.0,47188,List2B,black,man,,,,,"{""Q0"":4}",,,likert_NSSAL_Q1
2076,,,survey-likert,489,2679455,0.0-24.0,47188,List2B,black,man,,,,,"{""Q0"":4}",,,likert_NSSAL_Q2
2174,,,survey-likert,490,2681630,0.0-25.0,47188,List2B,black,man,,,,,"{""Q0"":4}",,,likert_CGRS_Q1
1806,,,survey-likert,491,2683438,0.0-26.0,47188,List2B,black,man,,,,,"{""Q0"":4}",,,likert_CGRS_Q2
2646,,,survey-likert,492,2686086,0.0-27.0,47188,List2B,black,man,,,,,"{""Q0"":4}",,,likert_CGRS_Q3
9104,,,survey-text,493,2695192,0.0-28.0,47188,List2B,black,man,,,,,"{""Q0"":""ccc""}",,,worker_id
2590,,,external-html,494,2698056,0.0-29.0,47188,List2B,black,man,debrief.html,,,,,,,
