rt,stimulus,button_pressed,trial_type,trial_index,time_elapsed,internal_node_id,subject,list,ppt_race,ppt_gender,url,first_guess,correct,key_press,responses,image_type,phrase_type,test_part
11146,Welcome to the experiment. Press Continue to begin.,0,html-button-response,0,11148,0.0-0.0,47364,List2B,black,woman,,,,,,,,
12520,,,external-html,1,24931,0.0-1.0,47364,List2B,black,woman,consent.html,,,,,,,
11935,"<p>On the next page, you will see portraits of 8 people and their names.</p><p>Your first task is to take a few minutes to memorise the names of these people.</p><p>You will have to recall their names during the rest of the experiment, so it is</p><p>essential that you try to memorise these people and their names as best as you can.</p><br><p><strong>You will then be tested on your memory of these names and portraits.</strong></p><br><p>The experiment will start after you have completed this memory test.</p><br><p>Ready?</p>",0,html-button-response,2,36867,0.0-2.0,47364,List2B,black,woman,,,,,,,,
208632,"<img src='img/portrait_matrix_list2.jpg' style='width:900px;height:500px;''></img><p>If you have memorised all the portraits and names and are ready to start, press Continue.</p><p><strong>Please note: Your memory of these faces will be tested 4 times during this experiment.</strong></p>",0,html-button-response,3,246508,0.0-3.0-0.0,47364,List2B,black,woman,,,,,,,,
2187,"<img src=""portrait/WW2.jpg""style=""height:400px;""></img>",3,html-button-response,4,249716,0.0-3.0-1.0,47364,List2B,black,woman,,TRUE,3,,,,,
null,CORRECT,,html-keyboard-response,5,251255,0.0-3.0-2.0-0.0,47364,List2B,black,woman,,,,null,,,,
1889,"<img src=""portrait/BW2.jpg""style=""height:400px;""></img>",2,html-button-response,6,253147,0.0-3.0-4.0,47364,List2B,black,woman,,TRUE,2,,,,,
null,CORRECT,,html-keyboard-response,7,254675,0.0-3.0-5.0-0.0,47364,List2B,black,woman,,,,null,,,,
2527,"<img src=""portrait/BM2.jpg""style=""height:400px;""></img>",5,html-button-response,8,257204,0.0-3.0-7.0,47364,List2B,black,woman,,TRUE,5,,,,,
null,CORRECT,,html-keyboard-response,9,258715,0.0-3.0-8.0-0.0,47364,List2B,black,woman,,,,null,,,,
8655,"<img src=""portrait/BW1.jpg""style=""height:400px;""></img>",0,html-button-response,10,267372,0.0-3.0-10.0,47364,List2B,black,woman,,TRUE,0,,,,,
null,CORRECT,,html-keyboard-response,11,268895,0.0-3.0-11.0-0.0,47364,List2B,black,woman,,,,null,,,,
2555,"<img src=""portrait/WM1.jpg""style=""height:400px;""></img>",6,html-button-response,12,271453,0.0-3.0-13.0,47364,List2B,black,woman,,TRUE,6,,,,,
null,CORRECT,,html-keyboard-response,13,272971,0.0-3.0-14.0-0.0,47364,List2B,black,woman,,,,null,,,,
1656,"<img src=""portrait/WM2.jpg""style=""height:400px;""></img>",4,html-button-response,14,274628,0.0-3.0-16.0,47364,List2B,black,woman,,TRUE,7,,,,,
5432,"<img src=""portrait/WM2.jpg""style=""height:400px;""></img>",7,html-button-response,15,281068,0.0-3.0-18.0-0.0,47364,List2B,black,woman,,FALSE,7,,,,,
null,CORRECT,,html-keyboard-response,16,282605,0.0-3.0-18.0-1.0-0.0,47364,List2B,black,woman,,,,null,,,,
2316,"<img src=""portrait/BM1.jpg""style=""height:400px;""></img>",4,html-button-response,17,284924,0.0-3.0-19.0,47364,List2B,black,woman,,TRUE,4,,,,,
null,CORRECT,,html-keyboard-response,18,286455,0.0-3.0-20.0-0.0,47364,List2B,black,woman,,,,null,,,,
4644,"<img src=""portrait/WW1.jpg""style=""height:400px;""></img>",1,html-button-response,19,291100,0.0-3.0-22.0,47364,List2B,black,woman,,TRUE,1,,,,,
null,CORRECT,,html-keyboard-response,20,292633,0.0-3.0-23.0-0.0,47364,List2B,black,woman,,,,null,,,,
1666,<p>You got 7 out of 8 right first time. Press Continue.</p>,0,html-button-response,21,294300,0.0-3.0-25.0,47364,List2B,black,woman,,,,,,,,
2970,"As you did not score 100%, the memory game will repeat. Press Continue.",0,html-button-response,22,298276,0.0-3.0-26.0-0.0,47364,List2B,black,woman,,,,,,,,
1941,"<img src='img/portrait_matrix_list2.jpg' style='width:900px;height:500px;''></img><p>If you have memorised all the portraits and names and are ready to start, press Continue.</p><p><strong>Please note: Your memory of these faces will be tested 4 times during this experiment.</strong></p>",0,html-button-response,23,301229,0.0-3.1-0.1,47364,List2B,black,woman,,,,,,,,
1510,"<img src=""portrait/WW2.jpg""style=""height:400px;""></img>",3,html-button-response,24,303756,0.0-3.1-1.1,47364,List2B,black,woman,,TRUE,3,,,,,
null,CORRECT,,html-keyboard-response,25,305283,0.0-3.1-2.1-0.1,47364,List2B,black,woman,,,,null,,,,
2220,"<img src=""portrait/BW2.jpg""style=""height:400px;""></img>",2,html-button-response,26,307508,0.0-3.1-4.1,47364,List2B,black,woman,,TRUE,2,,,,,
null,CORRECT,,html-keyboard-response,27,309035,0.0-3.1-5.1-0.1,47364,List2B,black,woman,,,,null,,,,
2000,"<img src=""portrait/BM2.jpg""style=""height:400px;""></img>",5,html-button-response,28,311036,0.0-3.1-7.1,47364,List2B,black,woman,,TRUE,5,,,,,
null,CORRECT,,html-keyboard-response,29,312576,0.0-3.1-8.1-0.1,47364,List2B,black,woman,,,,null,,,,
3498,"<img src=""portrait/BW1.jpg""style=""height:400px;""></img>",0,html-button-response,30,316076,0.0-3.1-10.1,47364,List2B,black,woman,,TRUE,0,,,,,
null,CORRECT,,html-keyboard-response,31,317614,0.0-3.1-11.1-0.1,47364,List2B,black,woman,,,,null,,,,
8837,"<img src=""portrait/WM1.jpg""style=""height:400px;""></img>",6,html-button-response,32,326452,0.0-3.1-13.1,47364,List2B,black,woman,,TRUE,6,,,,,
null,CORRECT,,html-keyboard-response,33,327975,0.0-3.1-14.1-0.1,47364,List2B,black,woman,,,,null,,,,
2261,"<img src=""portrait/WM2.jpg""style=""height:400px;""></img>",7,html-button-response,34,330237,0.0-3.1-16.1,47364,List2B,black,woman,,TRUE,7,,,,,
null,CORRECT,,html-keyboard-response,35,332315,0.0-3.1-17.1-0.1,47364,List2B,black,woman,,,,null,,,,
3479,"<img src=""portrait/BM1.jpg""style=""height:400px;""></img>",4,html-button-response,36,335797,0.0-3.1-19.1,47364,List2B,black,woman,,TRUE,4,,,,,
null,CORRECT,,html-keyboard-response,37,337326,0.0-3.1-20.1-0.1,47364,List2B,black,woman,,,,null,,,,
23316,"<img src=""portrait/WW1.jpg""style=""height:400px;""></img>",1,html-button-response,38,360645,0.0-3.1-22.1,47364,List2B,black,woman,,TRUE,1,,,,,
null,CORRECT,,html-keyboard-response,39,362165,0.0-3.1-23.1-0.1,47364,List2B,black,woman,,,,null,,,,
2046,<p>You got 8 out of 8 right first time. Press Continue.</p>,0,html-button-response,40,364212,0.0-3.1-25.1,47364,List2B,black,woman,,,,,,,,
42778,"<p>In this experiment, you will view photographs of the people from the memory game interacting.</p><p>By using the <strong>exact</strong> phrase given <i>after</i> the photograph appears and recalling the correct names of the people in the photographs, form a sentence describing the interaction. You do not need to capitalise names.</p><p>Type your answer in the space provided. Please complete every sentence before moving onto the next trial.</p><p>You will only have a few seconds to memorise each given photograph and phrase before you can respond, so try your best to focus.</p><p>An example is given below. Press 'Continue' when you are ready.</p><img src='img/speaking_example.jpg' style='width:800px;height:460px;''></img>",0,html-button-response,41,408005,0.0-4.0,47364,List2B,black,woman,,,,,,,,
1970,"<p>Before the experiment starts, you will watch two example trials. Press 'Continue'.</p>",0,html-button-response,42,410997,0.0-5.0,47364,List2B,black,woman,,,,,,,,
null,<img src='img/meet_eg.gif' style='height:400px;''></img>,,html-keyboard-response,43,414028,0.0-6.0,47364,List2B,black,woman,,,,null,,,,
null,<p>is meeting</p>,,html-keyboard-response,44,416044,0.0-7.0,47364,List2B,black,woman,,,,null,,,,
4952,<p><b>Answer:</b> jane is meeting ruth</p>,0,html-button-response,45,420997,0.0-8.0,47364,List2B,black,woman,,,,,,,,
null,<img src='img/look_eg.gif' style='height:400px;''></img>,,html-keyboard-response,46,424015,0.0-9.0,47364,List2B,black,woman,,,,null,,,,
null,<p>are looking at each other</p>,,html-keyboard-response,47,426025,0.0-10.0,47364,List2B,black,woman,,,,null,,,,
22499,<p><b>Answer:</b> fred and mike are looking at each other</p>,0,html-button-response,48,448525,0.0-11.0,47364,List2B,black,woman,,,,,,,,
5434,"<p>Ready to start the experiment?</p><br><p><strong>Remember to describe the picture using a full sentence,</strong></p><p><strong>that combines the names of the people with the <i>exact</i> phrase given.</strong></p><p><strong>To receive full payment you must do this correctly.</strong></p><p><strong> You do not need to capitalise names or use punctuation.</strong></p><br><p>Press 'Continue' to begin.</p>",0,html-button-response,49,454981,0.0-12.0,47364,List2B,black,woman,,,,,,,,
null,"<div style=""font-size:60px;"">+</div>",,html-keyboard-response,50,456496,0.0-13.0-0.0,47364,List2B,black,woman,,,,null,,,,
null,"<img src=""stim_listB/argue4.gif""style=""height:400px;""></stim_listB>",,html-keyboard-response,51,458516,0.0-13.0-1.0,47364,List2B,black,woman,,,,null,,,,
null,are arguing with each other,,html-keyboard-response,52,460536,0.0-13.0-2.0,47364,List2B,black,woman,,,,null,,,,
28428,,,survey-text,53,488967,0.0-13.0-3.0,47364,List2B,black,woman,,,,,"{""Q0"":""Fred and kate are arguing with each other""}","<img src=""stim_listB/argue4.gif""style=""height:400px;""></stim_listB>",are arguing with each other,
null,"<div style=""font-size:60px;"">+</div>",,html-keyboard-response,54,489478,0.0-13.0-0.1,47364,List2B,black,woman,,,,null,,,,
null,"<img src=""stim_listB/shout2.gif""style=""height:400px;""></stim_listB>",,html-keyboard-response,55,491496,0.0-13.0-1.1,47364,List2B,black,woman,,,,null,,,,
null,are shouting at each other,,html-keyboard-response,56,493517,0.0-13.0-2.1,47364,List2B,black,woman,,,,null,,,,
38559,,,survey-text,57,532077,0.0-13.0-3.1,47364,List2B,black,woman,,,,,"{""Q0"":""Luke and ruth are shouting at each other""}","<img src=""stim_listB/shout2.gif""style=""height:400px;""></stim_listB>",are shouting at each other,
null,"<div style=""font-size:60px;"">+</div>",,html-keyboard-response,58,532586,0.0-13.0-0.2,47364,List2B,black,woman,,,,null,,,,
null,"<img src=""stim_listB/marry6.gif""style=""height:400px;""></stim_listB>",,html-keyboard-response,59,534606,0.0-13.0-1.2,47364,List2B,black,woman,,,,null,,,,
null,are marrying each other,,html-keyboard-response,60,536627,0.0-13.0-2.2,47364,List2B,black,woman,,,,null,,,,
20330,,,survey-text,61,556958,0.0-13.0-3.2,47364,List2B,black,woman,,,,,"{""Q0"":""luke and mike are marrying each other""}","<img src=""stim_listB/marry6.gif""style=""height:400px;""></stim_listB>",are marrying each other,
null,"<div style=""font-size:60px;"">+</div>",,html-keyboard-response,62,557477,0.0-13.0-0.3,47364,List2B,black,woman,,,,null,,,,
null,"<img src=""stim_listB/shout8.gif""style=""height:400px;""></stim_listB>",,html-keyboard-response,63,559496,0.0-13.0-1.3,47364,List2B,black,woman,,,,null,,,,
null,are shouting at each other,,html-keyboard-response,64,561516,0.0-13.0-2.3,47364,List2B,black,woman,,,,null,,,,
19712,,,survey-text,65,581230,0.0-13.0-3.3,47364,List2B,black,woman,,,,,"{""Q0"":""jane and kate are shouting at each other""}","<img src=""stim_listB/shout8.gif""style=""height:400px;""></stim_listB>",are shouting at each other,
null,"<div style=""font-size:60px;"">+</div>",,html-keyboard-response,66,581748,0.0-13.0-0.4,47364,List2B,black,woman,,,,null,,,,
null,"<img src=""stim_listB/flirt3.gif""style=""height:400px;""></stim_listB>",,html-keyboard-response,67,583756,0.0-13.0-1.4,47364,List2B,black,woman,,,,null,,,,
null,is flirting with,,html-keyboard-response,68,585777,0.0-13.0-2.4,47364,List2B,black,woman,,,,null,,,,
17586,,,survey-text,69,603366,0.0-13.0-3.4,47364,List2B,black,woman,,,,,"{""Q0"":""fred is flirting with kate""}","<img src=""stim_listB/flirt3.gif""style=""height:400px;""></stim_listB>",is flirting with,
null,"<div style=""font-size:60px;"">+</div>",,html-keyboard-response,70,603868,0.0-13.0-0.5,47364,List2B,black,woman,,,,null,,,,
null,"<img src=""stim_listB/fight3.gif""style=""height:400px;""></stim_listB>",,html-keyboard-response,71,605886,0.0-13.0-1.5,47364,List2B,black,woman,,,,null,,,,
null,is fighting,,html-keyboard-response,72,607896,0.0-13.0-2.5,47364,List2B,black,woman,,,,null,,,,
13340,,,survey-text,73,621237,0.0-13.0-3.5,47364,List2B,black,woman,,,,,"{""Q0"":""kate is fighting mike""}","<img src=""stim_listB/fight3.gif""style=""height:400px;""></stim_listB>",is fighting,
null,"<div style=""font-size:60px;"">+</div>",,html-keyboard-response,74,621757,0.0-13.0-0.6,47364,List2B,black,woman,,,,null,,,,
null,"<img src=""stim_listB/argue3.gif""style=""height:400px;""></stim_listB>",,html-keyboard-response,75,623776,0.0-13.0-1.6,47364,List2B,black,woman,,,,null,,,,
null,is arguing with,,html-keyboard-response,76,625798,0.0-13.0-2.6,47364,List2B,black,woman,,,,null,,,,
18375,,,survey-text,77,644173,0.0-13.0-3.6,47364,List2B,black,woman,,,,,"{""Q0"":""ruth and mike are arguing with each other""}","<img src=""stim_listB/argue3.gif""style=""height:400px;""></stim_listB>",is arguing with,
null,"<div style=""font-size:60px;"">+</div>",,html-keyboard-response,78,644687,0.0-13.0-0.7,47364,List2B,black,woman,,,,null,,,,
null,"<img src=""stim_listB/play7.gif""style=""height:400px;""></stim_listB>",,html-keyboard-response,79,646707,0.0-13.0-1.7,47364,List2B,black,woman,,,,null,,,,
null,is playing with,,html-keyboard-response,80,648726,0.0-13.0-2.7,47364,List2B,black,woman,,,,null,,,,
6959,,,survey-text,81,655686,0.0-13.0-3.7,47364,List2B,black,woman,,,,,"{""Q0"":""jane is playing with kate""}","<img src=""stim_listB/play7.gif""style=""height:400px;""></stim_listB>",is playing with,
null,"<div style=""font-size:60px;"">+</div>",,html-keyboard-response,82,656197,0.0-13.0-0.8,47364,List2B,black,woman,,,,null,,,,
null,"<img src=""stim_listB/touch7.gif""style=""height:400px;""></stim_listB>",,html-keyboard-response,83,658216,0.0-13.0-1.8,47364,List2B,black,woman,,,,null,,,,
null,is touching,,html-keyboard-response,84,660237,0.0-13.0-2.8,47364,List2B,black,woman,,,,null,,,,
9064,,,survey-text,85,669301,0.0-13.0-3.8,47364,List2B,black,woman,,,,,"{""Q0"":""jane is touching kate""}","<img src=""stim_listB/touch7.gif""style=""height:400px;""></stim_listB>",is touching,
null,"<div style=""font-size:60px;"">+</div>",,html-keyboard-response,86,669805,0.0-13.0-0.9,47364,List2B,black,woman,,,,null,,,,
null,"<img src=""stim_listB/play1.gif""style=""height:400px;""></stim_listB>",,html-keyboard-response,87,671807,0.0-13.0-1.9,47364,List2B,black,woman,,,,null,,,,
null,is playing with,,html-keyboard-response,88,673827,0.0-13.0-2.9,47364,List2B,black,woman,,,,null,,,,
16978,,,survey-text,89,690806,0.0-13.0-3.9,47364,List2B,black,woman,,,,,"{""Q0"":""dave is playing with jane""}","<img src=""stim_listB/play1.gif""style=""height:400px;""></stim_listB>",is playing with,
null,"<div style=""font-size:60px;"">+</div>",,html-keyboard-response,90,691324,0.0-13.0-0.10,47364,List2B,black,woman,,,,null,,,,
null,"<img src=""stim_listB/argue6.gif""style=""height:400px;""></stim_listB>",,html-keyboard-response,91,693337,0.0-13.0-1.10,47364,List2B,black,woman,,,,null,,,,
null,are arguing with each other,,html-keyboard-response,92,695357,0.0-13.0-2.10,47364,List2B,black,woman,,,,null,,,,
10464,,,survey-text,93,705822,0.0-13.0-3.10,47364,List2B,black,woman,,,,,"{""Q0"":""luke and mike are arguing with each other""}","<img src=""stim_listB/argue6.gif""style=""height:400px;""></stim_listB>",are arguing with each other,
null,"<div style=""font-size:60px;"">+</div>",,html-keyboard-response,94,706327,0.0-13.0-0.11,47364,List2B,black,woman,,,,null,,,,
null,"<img src=""stim_listB/argue5.gif""style=""height:400px;""></stim_listB>",,html-keyboard-response,95,708348,0.0-13.0-1.11,47364,List2B,black,woman,,,,null,,,,
null,is arguing with,,html-keyboard-response,96,710367,0.0-13.0-2.11,47364,List2B,black,woman,,,,null,,,,
13398,,,survey-text,97,723766,0.0-13.0-3.11,47364,List2B,black,woman,,,,,"{""Q0"":""fred is arguing with dave""}","<img src=""stim_listB/argue5.gif""style=""height:400px;""></stim_listB>",is arguing with,
null,"<div style=""font-size:60px;"">+</div>",,html-keyboard-response,98,724287,0.0-13.0-0.12,47364,List2B,black,woman,,,,null,,,,
null,"<img src=""stim_listB/dance8.gif""style=""height:400px;""></stim_listB>",,html-keyboard-response,99,726307,0.0-13.0-1.12,47364,List2B,black,woman,,,,null,,,,
null,are dancing with each other,,html-keyboard-response,100,728317,0.0-13.0-2.12,47364,List2B,black,woman,,,,null,,,,
37792,,,survey-text,101,766110,0.0-13.0-3.12,47364,List2B,black,woman,,,,,"{""Q0"":""jane and ruth are dancing with each other""}","<img src=""stim_listB/dance8.gif""style=""height:400px;""></stim_listB>",are dancing with each other,
null,"<div style=""font-size:60px;"">+</div>",,html-keyboard-response,102,766617,0.0-13.0-0.13,47364,List2B,black,woman,,,,null,,,,
null,"<img src=""stim_listB/fight2.gif""style=""height:400px;""></stim_listB>",,html-keyboard-response,103,768639,0.0-13.0-1.13,47364,List2B,black,woman,,,,null,,,,
null,are fighting each other,,html-keyboard-response,104,770641,0.0-13.0-2.13,47364,List2B,black,woman,,,,null,,,,
12379,,,survey-text,105,783022,0.0-13.0-3.13,47364,List2B,black,woman,,,,,"{""Q0"":""ruth and luke are arguing with each other""}","<img src=""stim_listB/fight2.gif""style=""height:400px;""></stim_listB>",are fighting each other,
null,"<div style=""font-size:60px;"">+</div>",,html-keyboard-response,106,783527,0.0-13.0-0.14,47364,List2B,black,woman,,,,null,,,,
null,"<img src=""stim_listB/kiss7.gif""style=""height:400px;""></stim_listB>",,html-keyboard-response,107,785547,0.0-13.0-1.14,47364,List2B,black,woman,,,,null,,,,
null,is kissing,,html-keyboard-response,108,787567,0.0-13.0-2.14,47364,List2B,black,woman,,,,null,,,,
15903,,,survey-text,109,803470,0.0-13.0-3.14,47364,List2B,black,woman,,,,,"{""Q0"":""                                       is kissing""}","<img src=""stim_listB/kiss7.gif""style=""height:400px;""></stim_listB>",is kissing,
null,"<div style=""font-size:60px;"">+</div>",,html-keyboard-response,110,803987,0.0-13.0-0.15,47364,List2B,black,woman,,,,null,,,,
null,"<img src=""stim_listB/fight7.gif""style=""height:400px;""></stim_listB>",,html-keyboard-response,111,806008,0.0-13.0-1.15,47364,List2B,black,woman,,,,null,,,,
null,is fighting,,html-keyboard-response,112,808029,0.0-13.0-2.15,47364,List2B,black,woman,,,,null,,,,
9264,,,survey-text,113,817295,0.0-13.0-3.15,47364,List2B,black,woman,,,,,"{""Q0"":""kate is fighting jane""}","<img src=""stim_listB/fight7.gif""style=""height:400px;""></stim_listB>",is fighting,
null,"<div style=""font-size:60px;"">+</div>",,html-keyboard-response,114,817809,0.0-13.0-0.16,47364,List2B,black,woman,,,,null,,,,
null,"<img src=""stim_listB/marry5.gif""style=""height:400px;""></stim_listB>",,html-keyboard-response,115,819836,0.0-13.0-1.16,47364,List2B,black,woman,,,,null,,,,
null,is marrying,,html-keyboard-response,116,821839,0.0-13.0-2.16,47364,List2B,black,woman,,,,null,,,,
8007,,,survey-text,117,829847,0.0-13.0-3.16,47364,List2B,black,woman,,,,,"{""Q0"":""dave is marrying fred""}","<img src=""stim_listB/marry5.gif""style=""height:400px;""></stim_listB>",is marrying,
null,"<div style=""font-size:60px;"">+</div>",,html-keyboard-response,118,830354,0.0-13.0-0.17,47364,List2B,black,woman,,,,null,,,,
null,"<img src=""stim_listB/argue1.gif""style=""height:400px;""></stim_listB>",,html-keyboard-response,119,832357,0.0-13.0-1.17,47364,List2B,black,woman,,,,null,,,,
null,is arguing with,,html-keyboard-response,120,834380,0.0-13.0-2.17,47364,List2B,black,woman,,,,null,,,,
10345,,,survey-text,121,844727,0.0-13.0-3.17,47364,List2B,black,woman,,,,,"{""Q0"":""ruth is arguing with dave""}","<img src=""stim_listB/argue1.gif""style=""height:400px;""></stim_listB>",is arguing with,
null,"<div style=""font-size:60px;"">+</div>",,html-keyboard-response,122,845247,0.0-13.0-0.18,47364,List2B,black,woman,,,,null,,,,
null,"<img src=""stim_listB/kiss8.gif""style=""height:400px;""></stim_listB>",,html-keyboard-response,123,847267,0.0-13.0-1.18,47364,List2B,black,woman,,,,null,,,,
null,are kissing each other,,html-keyboard-response,124,849893,0.0-13.0-2.18,47364,List2B,black,woman,,,,null,,,,
8096,,,survey-text,125,857991,0.0-13.0-3.18,47364,List2B,black,woman,,,,,"{""Q0"":""kate and jane are kissing each other""}","<img src=""stim_listB/kiss8.gif""style=""height:400px;""></stim_listB>",are kissing each other,
null,"<div style=""font-size:60px;"">+</div>",,html-keyboard-response,126,858508,0.0-13.0-0.19,47364,List2B,black,woman,,,,null,,,,
null,"<img src=""stim_listB/dance4.gif""style=""height:400px;""></stim_listB>",,html-keyboard-response,127,860528,0.0-13.0-1.19,47364,List2B,black,woman,,,,null,,,,
null,are dancing with each other,,html-keyboard-response,128,862537,0.0-13.0-2.19,47364,List2B,black,woman,,,,null,,,,
11860,,,survey-text,129,874398,0.0-13.0-3.19,47364,List2B,black,woman,,,,,"{""Q0"":""mike and ruth are dancing with each other""}","<img src=""stim_listB/dance4.gif""style=""height:400px;""></stim_listB>",are dancing with each other,
3670,"<img src='img/portrait_matrix_list2.jpg' style='width:900px;height:500px;''></img><p>If you have memorised all the portraits and names and are ready to start, press Continue.</p><p><strong>Please note: Your memory of these faces will be tested 4 times during this experiment.</strong></p>",0,html-button-response,130,878070,0.0-14.0-0.0,47364,List2B,black,woman,,,,,,,,
3390,"<img src=""portrait/WW1.jpg""style=""height:400px;""></img>",1,html-button-response,131,882479,0.0-14.0-1.0,47364,List2B,black,woman,,TRUE,1,,,,,
null,CORRECT,,html-keyboard-response,132,883996,0.0-14.0-2.0-0.0,47364,List2B,black,woman,,,,null,,,,
1552,"<img src=""portrait/WW2.jpg""style=""height:400px;""></img>",3,html-button-response,133,885551,0.0-14.0-4.0,47364,List2B,black,woman,,TRUE,3,,,,,
null,CORRECT,,html-keyboard-response,134,887077,0.0-14.0-5.0-0.0,47364,List2B,black,woman,,,,null,,,,
2303,"<img src=""portrait/BM1.jpg""style=""height:400px;""></img>",4,html-button-response,135,889382,0.0-14.0-7.0,47364,List2B,black,woman,,TRUE,4,,,,,
null,CORRECT,,html-keyboard-response,136,890901,0.0-14.0-8.0-0.0,47364,List2B,black,woman,,,,null,,,,
5337,"<img src=""portrait/BW1.jpg""style=""height:400px;""></img>",0,html-button-response,137,896239,0.0-14.0-10.0,47364,List2B,black,woman,,TRUE,0,,,,,
null,CORRECT,,html-keyboard-response,138,897778,0.0-14.0-11.0-0.0,47364,List2B,black,woman,,,,null,,,,
2129,"<img src=""portrait/BM2.jpg""style=""height:400px;""></img>",5,html-button-response,139,899910,0.0-14.0-13.0,47364,List2B,black,woman,,TRUE,5,,,,,
null,CORRECT,,html-keyboard-response,140,901420,0.0-14.0-14.0-0.0,47364,List2B,black,woman,,,,null,,,,
2601,"<img src=""portrait/WM1.jpg""style=""height:400px;""></img>",6,html-button-response,141,904023,0.0-14.0-16.0,47364,List2B,black,woman,,TRUE,6,,,,,
null,CORRECT,,html-keyboard-response,142,905545,0.0-14.0-17.0-0.0,47364,List2B,black,woman,,,,null,,,,
2468,"<img src=""portrait/BW2.jpg""style=""height:400px;""></img>",2,html-button-response,143,908015,0.0-14.0-19.0,47364,List2B,black,woman,,TRUE,2,,,,,
null,CORRECT,,html-keyboard-response,144,909536,0.0-14.0-20.0-0.0,47364,List2B,black,woman,,,,null,,,,
3254,"<img src=""portrait/WM2.jpg""style=""height:400px;""></img>",7,html-button-response,145,912791,0.0-14.0-22.0,47364,List2B,black,woman,,TRUE,7,,,,,
null,CORRECT,,html-keyboard-response,146,914318,0.0-14.0-23.0-0.0,47364,List2B,black,woman,,,,null,,,,
1608,<p>You got 8 out of 8 right first time. Press Continue.</p>,0,html-button-response,147,915927,0.0-14.0-25.0,47364,List2B,black,woman,,,,,,,,
null,"<div style=""font-size:60px;"">+</div>",,html-keyboard-response,148,917458,0.0-15.0-0.0,47364,List2B,black,woman,,,,null,,,,
null,"<img src=""stim_listB/argue8.gif""style=""height:400px;""></stim_listB>",,html-keyboard-response,149,919478,0.0-15.0-1.0,47364,List2B,black,woman,,,,null,,,,
null,are arguing with each other,,html-keyboard-response,150,921490,0.0-15.0-2.0,47364,List2B,black,woman,,,,null,,,,
10061,,,survey-text,151,931551,0.0-15.0-3.0,47364,List2B,black,woman,,,,,"{""Q0"":""kate and ruth are arguing with each other""}","<img src=""stim_listB/argue8.gif""style=""height:400px;""></stim_listB>",are arguing with each other,
null,"<div style=""font-size:60px;"">+</div>",,html-keyboard-response,152,932067,0.0-15.0-0.1,47364,List2B,black,woman,,,,null,,,,
null,"<img src=""stim_listB/play2.gif""style=""height:400px;""></stim_listB>",,html-keyboard-response,153,934088,0.0-15.0-1.1,47364,List2B,black,woman,,,,null,,,,
null,are playing with each other,,html-keyboard-response,154,936108,0.0-15.0-2.1,47364,List2B,black,woman,,,,null,,,,
8651,,,survey-text,155,944759,0.0-15.0-3.1,47364,List2B,black,woman,,,,,"{""Q0"":""ruth and luke are playing with each other""}","<img src=""stim_listB/play2.gif""style=""height:400px;""></stim_listB>",are playing with each other,
null,"<div style=""font-size:60px;"">+</div>",,html-keyboard-response,156,945278,0.0-15.0-0.2,47364,List2B,black,woman,,,,null,,,,
null,"<img src=""stim_listB/fight5.gif""style=""height:400px;""></stim_listB>",,html-keyboard-response,157,947298,0.0-15.0-1.2,47364,List2B,black,woman,,,,null,,,,
null,is fighting,,html-keyboard-response,158,949318,0.0-15.0-2.2,47364,List2B,black,woman,,,,null,,,,
6600,,,survey-text,159,955919,0.0-15.0-3.2,47364,List2B,black,woman,,,,,"{""Q0"":""mike is fighting dave""}","<img src=""stim_listB/fight5.gif""style=""height:400px;""></stim_listB>",is fighting,
null,"<div style=""font-size:60px;"">+</div>",,html-keyboard-response,160,956425,0.0-15.0-0.3,47364,List2B,black,woman,,,,null,,,,
null,"<img src=""stim_listB/play3.gif""style=""height:400px;""></stim_listB>",,html-keyboard-response,161,958428,0.0-15.0-1.3,47364,List2B,black,woman,,,,null,,,,
null,is playing with,,html-keyboard-response,162,960448,0.0-15.0-2.3,47364,List2B,black,woman,,,,null,,,,
6591,,,survey-text,163,967040,0.0-15.0-3.3,47364,List2B,black,woman,,,,,"{""Q0"":""kate is playing with mike""}","<img src=""stim_listB/play3.gif""style=""height:400px;""></stim_listB>",is playing with,
null,"<div style=""font-size:60px;"">+</div>",,html-keyboard-response,164,967560,0.0-15.0-0.4,47364,List2B,black,woman,,,,null,,,,
null,"<img src=""stim_listB/shout5.gif""style=""height:400px;""></stim_listB>",,html-keyboard-response,165,969578,0.0-15.0-1.4,47364,List2B,black,woman,,,,null,,,,
null,is shouting at,,html-keyboard-response,166,971586,0.0-15.0-2.4,47364,List2B,black,woman,,,,null,,,,
9875,,,survey-text,167,981464,0.0-15.0-3.4,47364,List2B,black,woman,,,,,"{""Q0"":""luke is shouting at fred""}","<img src=""stim_listB/shout5.gif""style=""height:400px;""></stim_listB>",is shouting at,
null,"<div style=""font-size:60px;"">+</div>",,html-keyboard-response,168,981978,0.0-15.0-0.5,47364,List2B,black,woman,,,,null,,,,
null,"<img src=""stim_listB/marry1.gif""style=""height:400px;""></stim_listB>",,html-keyboard-response,169,983988,0.0-15.0-1.5,47364,List2B,black,woman,,,,null,,,,
null,is marrying,,html-keyboard-response,170,986008,0.0-15.0-2.5,47364,List2B,black,woman,,,,null,,,,
8503,,,survey-text,171,994512,0.0-15.0-3.5,47364,List2B,black,woman,,,,,"{""Q0"":""ruth is marrying dave""}","<img src=""stim_listB/marry1.gif""style=""height:400px;""></stim_listB>",is marrying,
null,"<div style=""font-size:60px;"">+</div>",,html-keyboard-response,172,995018,0.0-15.0-0.6,47364,List2B,black,woman,,,,null,,,,
null,"<img src=""stim_listB/talk7.gif""style=""height:400px;""></stim_listB>",,html-keyboard-response,173,997040,0.0-15.0-1.6,47364,List2B,black,woman,,,,null,,,,
null,is talking to,,html-keyboard-response,174,999055,0.0-15.0-2.6,47364,List2B,black,woman,,,,null,,,,
7024,,,survey-text,175,1006079,0.0-15.0-3.6,47364,List2B,black,woman,,,,,"{""Q0"":""kate is talking to ruth""}","<img src=""stim_listB/talk7.gif""style=""height:400px;""></stim_listB>",is talking to,
null,"<div style=""font-size:60px;"">+</div>",,html-keyboard-response,176,1006598,0.0-15.0-0.7,47364,List2B,black,woman,,,,null,,,,
null,"<img src=""stim_listB/marry4.gif""style=""height:400px;""></stim_listB>",,html-keyboard-response,177,1008609,0.0-15.0-1.7,47364,List2B,black,woman,,,,null,,,,
null,are marrying each other,,html-keyboard-response,178,1010623,0.0-15.0-2.7,47364,List2B,black,woman,,,,null,,,,
8271,,,survey-text,179,1018896,0.0-15.0-3.7,47364,List2B,black,woman,,,,,"{""Q0"":""kate and fred are marrying each other""}","<img src=""stim_listB/marry4.gif""style=""height:400px;""></stim_listB>",are marrying each other,
null,"<div style=""font-size:60px;"">+</div>",,html-keyboard-response,180,1019400,0.0-15.0-0.8,47364,List2B,black,woman,,,,null,,,,
null,"<img src=""stim_listB/touch6.gif""style=""height:400px;""></stim_listB>",,html-keyboard-response,181,1021418,0.0-15.0-1.8,47364,List2B,black,woman,,,,null,,,,
null,are touching each other,,html-keyboard-response,182,1023434,0.0-15.0-2.8,47364,List2B,black,woman,,,,null,,,,
7860,,,survey-text,183,1031295,0.0-15.0-3.8,47364,List2B,black,woman,,,,,"{""Q0"":""fred and luke are touching each other""}","<img src=""stim_listB/touch6.gif""style=""height:400px;""></stim_listB>",are touching each other,
null,"<div style=""font-size:60px;"">+</div>",,html-keyboard-response,184,1031808,0.0-15.0-0.9,47364,List2B,black,woman,,,,null,,,,
null,"<img src=""stim_listB/shout1.gif""style=""height:400px;""></stim_listB>",,html-keyboard-response,185,1033829,0.0-15.0-1.9,47364,List2B,black,woman,,,,null,,,,
null,is shouting at,,html-keyboard-response,186,1035840,0.0-15.0-2.9,47364,List2B,black,woman,,,,null,,,,
11639,,,survey-text,187,1047479,0.0-15.0-3.9,47364,List2B,black,woman,,,,,"{""Q0"":""ruth is shouting at luke""}","<img src=""stim_listB/shout1.gif""style=""height:400px;""></stim_listB>",is shouting at,
null,"<div style=""font-size:60px;"">+</div>",,html-keyboard-response,188,1047997,0.0-15.0-0.10,47364,List2B,black,woman,,,,null,,,,
null,"<img src=""stim_listB/flirt7.gif""style=""height:400px;""></stim_listB>",,html-keyboard-response,189,1049999,0.0-15.0-1.10,47364,List2B,black,woman,,,,null,,,,
null,is flirting with,,html-keyboard-response,190,1052018,0.0-15.0-2.10,47364,List2B,black,woman,,,,null,,,,
13717,,,survey-text,191,1065736,0.0-15.0-3.10,47364,List2B,black,woman,,,,,"{""Q0"":""kate is flirting with ruth""}","<img src=""stim_listB/flirt7.gif""style=""height:400px;""></stim_listB>",is flirting with,
null,"<div style=""font-size:60px;"">+</div>",,html-keyboard-response,192,1066248,0.0-15.0-0.11,47364,List2B,black,woman,,,,null,,,,
null,"<img src=""stim_listB/talk4.gif""style=""height:400px;""></stim_listB>",,html-keyboard-response,193,1068249,0.0-15.0-1.11,47364,List2B,black,woman,,,,null,,,,
null,are talking to each other,,html-keyboard-response,194,1070258,0.0-15.0-2.11,47364,List2B,black,woman,,,,null,,,,
13373,,,survey-text,195,1083632,0.0-15.0-3.11,47364,List2B,black,woman,,,,,"{""Q0"":""mike and beth are talking to each other""}","<img src=""stim_listB/talk4.gif""style=""height:400px;""></stim_listB>",are talking to each other,
null,"<div style=""font-size:60px;"">+</div>",,html-keyboard-response,196,1084149,0.0-15.0-0.12,47364,List2B,black,woman,,,,null,,,,
null,"<img src=""stim_listB/flirt2.gif""style=""height:400px;""></stim_listB>",,html-keyboard-response,197,1086159,0.0-15.0-1.12,47364,List2B,black,woman,,,,null,,,,
null,are flirting with each other,,html-keyboard-response,198,1088168,0.0-15.0-2.12,47364,List2B,black,woman,,,,null,,,,
8480,,,survey-text,199,1096648,0.0-15.0-3.12,47364,List2B,black,woman,,,,,"{""Q0"":""ruth and dave are flirting with each other""}","<img src=""stim_listB/flirt2.gif""style=""height:400px;""></stim_listB>",are flirting with each other,
null,"<div style=""font-size:60px;"">+</div>",,html-keyboard-response,200,1097149,0.0-15.0-0.13,47364,List2B,black,woman,,,,null,,,,
null,"<img src=""stim_listB/dance2.gif""style=""height:400px;""></stim_listB>",,html-keyboard-response,201,1099169,0.0-15.0-1.13,47364,List2B,black,woman,,,,null,,,,
null,are dancing with each other,,html-keyboard-response,202,1101180,0.0-15.0-2.13,47364,List2B,black,woman,,,,null,,,,
8611,,,survey-text,203,1109791,0.0-15.0-3.13,47364,List2B,black,woman,,,,,"{""Q0"":""dave and ruth are dancing with each other""}","<img src=""stim_listB/dance2.gif""style=""height:400px;""></stim_listB>",are dancing with each other,
null,"<div style=""font-size:60px;"">+</div>",,html-keyboard-response,204,1110307,0.0-15.0-0.14,47364,List2B,black,woman,,,,null,,,,
null,"<img src=""stim_listB/dance3.gif""style=""height:400px;""></stim_listB>",,html-keyboard-response,205,1112308,0.0-15.0-1.14,47364,List2B,black,woman,,,,null,,,,
null,is dancing with,,html-keyboard-response,206,1114331,0.0-15.0-2.14,47364,List2B,black,woman,,,,null,,,,
8482,,,survey-text,207,1122817,0.0-15.0-3.14,47364,List2B,black,woman,,,,,"{""Q0"":""kate is dancing with fred""}","<img src=""stim_listB/dance3.gif""style=""height:400px;""></stim_listB>",is dancing with,
null,"<div style=""font-size:60px;"">+</div>",,html-keyboard-response,208,1123329,0.0-15.0-0.15,47364,List2B,black,woman,,,,null,,,,
null,"<img src=""stim_listB/shout7.gif""style=""height:400px;""></stim_listB>",,html-keyboard-response,209,1125348,0.0-15.0-1.15,47364,List2B,black,woman,,,,null,,,,
null,is shouting at,,html-keyboard-response,210,1127363,0.0-15.0-2.15,47364,List2B,black,woman,,,,null,,,,
7908,,,survey-text,211,1135272,0.0-15.0-3.15,47364,List2B,black,woman,,,,,"{""Q0"":""beth is shouting at ruth""}","<img src=""stim_listB/shout7.gif""style=""height:400px;""></stim_listB>",is shouting at,
null,"<div style=""font-size:60px;"">+</div>",,html-keyboard-response,212,1135789,0.0-15.0-0.16,47364,List2B,black,woman,,,,null,,,,
null,"<img src=""stim_listB/flirt1.gif""style=""height:400px;""></stim_listB>",,html-keyboard-response,213,1137809,0.0-15.0-1.16,47364,List2B,black,woman,,,,null,,,,
null,is flirting with,,html-keyboard-response,214,1139829,0.0-15.0-2.16,47364,List2B,black,woman,,,,null,,,,
10210,,,survey-text,215,1150040,0.0-15.0-3.16,47364,List2B,black,woman,,,,,"{""Q0"":""jane is flirting with luke""}","<img src=""stim_listB/flirt1.gif""style=""height:400px;""></stim_listB>",is flirting with,
null,"<div style=""font-size:60px;"">+</div>",,html-keyboard-response,216,1150550,0.0-15.0-0.17,47364,List2B,black,woman,,,,null,,,,
null,"<img src=""stim_listB/talk6.gif""style=""height:400px;""></stim_listB>",,html-keyboard-response,217,1152569,0.0-15.0-1.17,47364,List2B,black,woman,,,,null,,,,
null,are talking to each other,,html-keyboard-response,218,1154590,0.0-15.0-2.17,47364,List2B,black,woman,,,,null,,,,
113329,,,survey-text,219,1267921,0.0-15.0-3.17,47364,List2B,black,woman,,,,,"{""Q0"":""""}","<img src=""stim_listB/talk6.gif""style=""height:400px;""></stim_listB>",are talking to each other,
null,"<div style=""font-size:60px;"">+</div>",,html-keyboard-response,220,1268440,0.0-15.0-0.18,47364,List2B,black,woman,,,,null,,,,
null,"<img src=""stim_listB/flirt8.gif""style=""height:400px;""></stim_listB>",,html-keyboard-response,221,1270460,0.0-15.0-1.18,47364,List2B,black,woman,,,,null,,,,
null,are flirting with each other,,html-keyboard-response,222,1272471,0.0-15.0-2.18,47364,List2B,black,woman,,,,null,,,,
8950,,,survey-text,223,1281425,0.0-15.0-3.18,47364,List2B,black,woman,,,,,"{""Q0"":""jane and beth are flirting with each other""}","<img src=""stim_listB/flirt8.gif""style=""height:400px;""></stim_listB>",are flirting with each other,
null,"<div style=""font-size:60px;"">+</div>",,html-keyboard-response,224,1281929,0.0-15.0-0.19,47364,List2B,black,woman,,,,null,,,,
null,"<img src=""stim_listB/touch2.gif""style=""height:400px;""></stim_listB>",,html-keyboard-response,225,1283939,0.0-15.0-1.19,47364,List2B,black,woman,,,,null,,,,
null,are touching each other,,html-keyboard-response,226,1285945,0.0-15.0-2.19,47364,List2B,black,woman,,,,null,,,,
10311,,,survey-text,227,1296258,0.0-15.0-3.19,47364,List2B,black,woman,,,,,"{""Q0"":""ruth and luke are touching each other""}","<img src=""stim_listB/touch2.gif""style=""height:400px;""></stim_listB>",are touching each other,
1477,"<img src='img/portrait_matrix_list2.jpg' style='width:900px;height:500px;''></img><p>If you have memorised all the portraits and names and are ready to start, press Continue.</p><p><strong>Please note: Your memory of these faces will be tested 4 times during this experiment.</strong></p>",0,html-button-response,228,1297737,0.0-16.0-0.0,47364,List2B,black,woman,,,,,,,,
5233,"<img src=""portrait/BW2.jpg""style=""height:400px;""></img>",2,html-button-response,229,1303985,0.0-16.0-1.0,47364,List2B,black,woman,,TRUE,2,,,,,
null,CORRECT,,html-keyboard-response,230,1305511,0.0-16.0-2.0-0.0,47364,List2B,black,woman,,,,null,,,,
1553,"<img src=""portrait/WW1.jpg""style=""height:400px;""></img>",1,html-button-response,231,1307065,0.0-16.0-4.0,47364,List2B,black,woman,,TRUE,1,,,,,
null,CORRECT,,html-keyboard-response,232,1308588,0.0-16.0-5.0-0.0,47364,List2B,black,woman,,,,null,,,,
2964,"<img src=""portrait/WM2.jpg""style=""height:400px;""></img>",7,html-button-response,233,1311552,0.0-16.0-7.0,47364,List2B,black,woman,,TRUE,7,,,,,
null,CORRECT,,html-keyboard-response,234,1313080,0.0-16.0-8.0-0.0,47364,List2B,black,woman,,,,null,,,,
2057,"<img src=""portrait/BW1.jpg""style=""height:400px;""></img>",0,html-button-response,235,1315137,0.0-16.0-10.0,47364,List2B,black,woman,,TRUE,0,,,,,
null,CORRECT,,html-keyboard-response,236,1316652,0.0-16.0-11.0-0.0,47364,List2B,black,woman,,,,null,,,,
1930,"<img src=""portrait/BM2.jpg""style=""height:400px;""></img>",5,html-button-response,237,1318585,0.0-16.0-13.0,47364,List2B,black,woman,,TRUE,5,,,,,
null,CORRECT,,html-keyboard-response,238,1320106,0.0-16.0-14.0-0.0,47364,List2B,black,woman,,,,null,,,,
1647,"<img src=""portrait/WW2.jpg""style=""height:400px;""></img>",3,html-button-response,239,1321753,0.0-16.0-16.0,47364,List2B,black,woman,,TRUE,3,,,,,
null,CORRECT,,html-keyboard-response,240,1323280,0.0-16.0-17.0-0.0,47364,List2B,black,woman,,,,null,,,,
2399,"<img src=""portrait/BM1.jpg""style=""height:400px;""></img>",4,html-button-response,241,1325681,0.0-16.0-19.0,47364,List2B,black,woman,,TRUE,4,,,,,
null,CORRECT,,html-keyboard-response,242,1327220,0.0-16.0-20.0-0.0,47364,List2B,black,woman,,,,null,,,,
4050,"<img src=""portrait/WM1.jpg""style=""height:400px;""></img>",6,html-button-response,243,1331274,0.0-16.0-22.0,47364,List2B,black,woman,,TRUE,6,,,,,
null,CORRECT,,html-keyboard-response,244,1332811,0.0-16.0-23.0-0.0,47364,List2B,black,woman,,,,null,,,,
1370,<p>You got 8 out of 8 right first time. Press Continue.</p>,0,html-button-response,245,1334185,0.0-16.0-25.0,47364,List2B,black,woman,,,,,,,,
null,"<div style=""font-size:60px;"">+</div>",,html-keyboard-response,246,1335700,0.0-17.0-0.0,47364,List2B,black,woman,,,,null,,,,
null,"<img src=""stim_listB/talk8.gif""style=""height:400px;""></stim_listB>",,html-keyboard-response,247,1337710,0.0-17.0-1.0,47364,List2B,black,woman,,,,null,,,,
null,are talking to each other,,html-keyboard-response,248,1339729,0.0-17.0-2.0,47364,List2B,black,woman,,,,null,,,,
11407,,,survey-text,249,1351137,0.0-17.0-3.0,47364,List2B,black,woman,,,,,"{""Q0"":""beth and jane are talking to each other""}","<img src=""stim_listB/talk8.gif""style=""height:400px;""></stim_listB>",are talking to each other,
null,"<div style=""font-size:60px;"">+</div>",,html-keyboard-response,250,1351650,0.0-17.0-0.1,47364,List2B,black,woman,,,,null,,,,
null,"<img src=""stim_listB/kiss3.gif""style=""height:400px;""></stim_listB>",,html-keyboard-response,251,1353659,0.0-17.0-1.1,47364,List2B,black,woman,,,,null,,,,
null,is kissing,,html-keyboard-response,252,1355670,0.0-17.0-2.1,47364,List2B,black,woman,,,,null,,,,
10202,,,survey-text,253,1365873,0.0-17.0-3.1,47364,List2B,black,woman,,,,,"{""Q0"":""beth is kissing fred""}","<img src=""stim_listB/kiss3.gif""style=""height:400px;""></stim_listB>",is kissing,
null,"<div style=""font-size:60px;"">+</div>",,html-keyboard-response,254,1366380,0.0-17.0-0.2,47364,List2B,black,woman,,,,null,,,,
null,"<img src=""stim_listB/dance7.gif""style=""height:400px;""></stim_listB>",,html-keyboard-response,255,1368380,0.0-17.0-1.2,47364,List2B,black,woman,,,,null,,,,
null,is dancing with,,html-keyboard-response,256,1370388,0.0-17.0-2.2,47364,List2B,black,woman,,,,null,,,,
6717,,,survey-text,257,1377105,0.0-17.0-3.2,47364,List2B,black,woman,,,,,"{""Q0"":""kate is dancing with ruth""}","<img src=""stim_listB/dance7.gif""style=""height:400px;""></stim_listB>",is dancing with,
null,"<div style=""font-size:60px;"">+</div>",,html-keyboard-response,258,1377620,0.0-17.0-0.3,47364,List2B,black,woman,,,,null,,,,
null,"<img src=""stim_listB/play6.gif""style=""height:400px;""></stim_listB>",,html-keyboard-response,259,1379640,0.0-17.0-1.3,47364,List2B,black,woman,,,,null,,,,
null,are playing with each other,,html-keyboard-response,260,1381660,0.0-17.0-2.3,47364,List2B,black,woman,,,,null,,,,
20756,,,survey-text,261,1402418,0.0-17.0-3.3,47364,List2B,black,woman,,,,,"{""Q0"":""luke and fred""}","<img src=""stim_listB/play6.gif""style=""height:400px;""></stim_listB>",are playing with each other,
null,"<div style=""font-size:60px;"">+</div>",,html-keyboard-response,262,1402930,0.0-17.0-0.4,47364,List2B,black,woman,,,,null,,,,
null,"<img src=""stim_listB/dance1.gif""style=""height:400px;""></stim_listB>",,html-keyboard-response,263,1404951,0.0-17.0-1.4,47364,List2B,black,woman,,,,null,,,,
null,is dancing with,,html-keyboard-response,264,1406971,0.0-17.0-2.4,47364,List2B,black,woman,,,,null,,,,
7566,,,survey-text,265,1414537,0.0-17.0-3.4,47364,List2B,black,woman,,,,,"{""Q0"":""luke is dancing with jane""}","<img src=""stim_listB/dance1.gif""style=""height:400px;""></stim_listB>",is dancing with,
null,"<div style=""font-size:60px;"">+</div>",,html-keyboard-response,266,1415050,0.0-17.0-0.5,47364,List2B,black,woman,,,,null,,,,
null,"<img src=""stim_listB/play4.gif""style=""height:400px;""></stim_listB>",,html-keyboard-response,267,1417070,0.0-17.0-1.5,47364,List2B,black,woman,,,,null,,,,
null,are playing with each other,,html-keyboard-response,268,1419080,0.0-17.0-2.5,47364,List2B,black,woman,,,,null,,,,
11024,,,survey-text,269,1430105,0.0-17.0-3.5,47364,List2B,black,woman,,,,,"{""Q0"":""fred and ruth are playing with each other""}","<img src=""stim_listB/play4.gif""style=""height:400px;""></stim_listB>",are playing with each other,
null,"<div style=""font-size:60px;"">+</div>",,html-keyboard-response,270,1430616,0.0-17.0-0.6,47364,List2B,black,woman,,,,null,,,,
null,"<img src=""stim_listB/kiss4.gif""style=""height:400px;""></stim_listB>",,html-keyboard-response,271,1432632,0.0-17.0-1.6,47364,List2B,black,woman,,,,null,,,,
null,are kissing each other,,html-keyboard-response,272,1434640,0.0-17.0-2.6,47364,List2B,black,woman,,,,null,,,,
7928,,,survey-text,273,1442570,0.0-17.0-3.6,47364,List2B,black,woman,,,,,"{""Q0"":""mike and kate are kissing each other""}","<img src=""stim_listB/kiss4.gif""style=""height:400px;""></stim_listB>",are kissing each other,
null,"<div style=""font-size:60px;"">+</div>",,html-keyboard-response,274,1443088,0.0-17.0-0.7,47364,List2B,black,woman,,,,null,,,,
null,"<img src=""stim_listB/talk2.gif""style=""height:400px;""></stim_listB>",,html-keyboard-response,275,1445101,0.0-17.0-1.7,47364,List2B,black,woman,,,,null,,,,
null,are talking to each other,,html-keyboard-response,276,1447120,0.0-17.0-2.7,47364,List2B,black,woman,,,,null,,,,
8311,,,survey-text,277,1455434,0.0-17.0-3.7,47364,List2B,black,woman,,,,,"{""Q0"":""dave and ruth are talking to each other""}","<img src=""stim_listB/talk2.gif""style=""height:400px;""></stim_listB>",are talking to each other,
null,"<div style=""font-size:60px;"">+</div>",,html-keyboard-response,278,1455951,0.0-17.0-0.8,47364,List2B,black,woman,,,,null,,,,
null,"<img src=""stim_listB/dance6.gif""style=""height:400px;""></stim_listB>",,html-keyboard-response,279,1457971,0.0-17.0-1.8,47364,List2B,black,woman,,,,null,,,,
null,are dancing with each other,,html-keyboard-response,280,1459979,0.0-17.0-2.8,47364,List2B,black,woman,,,,null,,,,
12326,,,survey-text,281,1472305,0.0-17.0-3.8,47364,List2B,black,woman,,,,,"{""Q0"":""fred and dave are dancing with each other""}","<img src=""stim_listB/dance6.gif""style=""height:400px;""></stim_listB>",are dancing with each other,
null,"<div style=""font-size:60px;"">+</div>",,html-keyboard-response,282,1472810,0.0-17.0-0.9,47364,List2B,black,woman,,,,null,,,,
null,"<img src=""stim_listB/shout4.gif""style=""height:400px;""></stim_listB>",,html-keyboard-response,283,1474821,0.0-17.0-1.9,47364,List2B,black,woman,,,,null,,,,
null,are shouting at each other,,html-keyboard-response,284,1476839,0.0-17.0-2.9,47364,List2B,black,woman,,,,null,,,,
30497,,,survey-text,285,1507338,0.0-17.0-3.9,47364,List2B,black,woman,,,,,"{""Q0"":""kate and mike are shouting at each other""}","<img src=""stim_listB/shout4.gif""style=""height:400px;""></stim_listB>",are shouting at each other,
null,"<div style=""font-size:60px;"">+</div>",,html-keyboard-response,286,1507860,0.0-17.0-0.10,47364,List2B,black,woman,,,,null,,,,
null,"<img src=""stim_listB/talk1.gif""style=""height:400px;""></stim_listB>",,html-keyboard-response,287,1509871,0.0-17.0-1.10,47364,List2B,black,woman,,,,null,,,,
null,is talking to,,html-keyboard-response,288,1511887,0.0-17.0-2.10,47364,List2B,black,woman,,,,null,,,,
7250,,,survey-text,289,1519138,0.0-17.0-3.10,47364,List2B,black,woman,,,,,"{""Q0"":""jane is talking to luke""}","<img src=""stim_listB/talk1.gif""style=""height:400px;""></stim_listB>",is talking to,
null,"<div style=""font-size:60px;"">+</div>",,html-keyboard-response,290,1519641,0.0-17.0-0.11,47364,List2B,black,woman,,,,null,,,,
null,"<img src=""stim_listB/marry7.gif""style=""height:400px;""></stim_listB>",,html-keyboard-response,291,1521662,0.0-17.0-1.11,47364,List2B,black,woman,,,,null,,,,
null,is marrying,,html-keyboard-response,292,1523682,0.0-17.0-2.11,47364,List2B,black,woman,,,,null,,,,
7871,,,survey-text,293,1531554,0.0-17.0-3.11,47364,List2B,black,woman,,,,,"{""Q0"":""beth is marrying jane""}","<img src=""stim_listB/marry7.gif""style=""height:400px;""></stim_listB>",is marrying,
null,"<div style=""font-size:60px;"">+</div>",,html-keyboard-response,294,1532062,0.0-17.0-0.12,47364,List2B,black,woman,,,,null,,,,
null,"<img src=""stim_listB/touch8.gif""style=""height:400px;""></stim_listB>",,html-keyboard-response,295,1534071,0.0-17.0-1.12,47364,List2B,black,woman,,,,null,,,,
null,are touching each other,,html-keyboard-response,296,1536082,0.0-17.0-2.12,47364,List2B,black,woman,,,,null,,,,
8975,,,survey-text,297,1545058,0.0-17.0-3.12,47364,List2B,black,woman,,,,,"{""Q0"":""ruth and beth are touching each other""}","<img src=""stim_listB/touch8.gif""style=""height:400px;""></stim_listB>",are touching each other,
null,"<div style=""font-size:60px;"">+</div>",,html-keyboard-response,298,1545571,0.0-17.0-0.13,47364,List2B,black,woman,,,,null,,,,
null,"<img src=""stim_listB/marry2.gif""style=""height:400px;""></stim_listB>",,html-keyboard-response,299,1547581,0.0-17.0-1.13,47364,List2B,black,woman,,,,null,,,,
null,are marrying each other,,html-keyboard-response,300,1549591,0.0-17.0-2.13,47364,List2B,black,woman,,,,null,,,,
10890,,,survey-text,301,1560482,0.0-17.0-3.13,47364,List2B,black,woman,,,,,"{""Q0"":""luke and jane are marrying each other""}","<img src=""stim_listB/marry2.gif""style=""height:400px;""></stim_listB>",are marrying each other,
null,"<div style=""font-size:60px;"">+</div>",,html-keyboard-response,302,1560992,0.0-17.0-0.14,47364,List2B,black,woman,,,,null,,,,
null,"<img src=""stim_listB/argue7.gif""style=""height:400px;""></stim_listB>",,html-keyboard-response,303,1563000,0.0-17.0-1.14,47364,List2B,black,woman,,,,null,,,,
null,is arguing with,,html-keyboard-response,304,1565011,0.0-17.0-2.14,47364,List2B,black,woman,,,,null,,,,
8878,,,survey-text,305,1573891,0.0-17.0-3.14,47364,List2B,black,woman,,,,,"{""Q0"":""beth is arguing with jane""}","<img src=""stim_listB/argue7.gif""style=""height:400px;""></stim_listB>",is arguing with,
null,"<div style=""font-size:60px;"">+</div>",,html-keyboard-response,306,1574401,0.0-17.0-0.15,47364,List2B,black,woman,,,,null,,,,
null,"<img src=""stim_listB/dance5.gif""style=""height:400px;""></stim_listB>",,html-keyboard-response,307,1576411,0.0-17.0-1.15,47364,List2B,black,woman,,,,null,,,,
null,is dancing with,,html-keyboard-response,308,1578428,0.0-17.0-2.15,47364,List2B,black,woman,,,,null,,,,
6740,,,survey-text,309,1585169,0.0-17.0-3.15,47364,List2B,black,woman,,,,,"{""Q0"":""mike is dancing with luke""}","<img src=""stim_listB/dance5.gif""style=""height:400px;""></stim_listB>",is dancing with,
null,"<div style=""font-size:60px;"">+</div>",,html-keyboard-response,310,1585675,0.0-17.0-0.16,47364,List2B,black,woman,,,,null,,,,
null,"<img src=""stim_listB/flirt6.gif""style=""height:400px;""></stim_listB>",,html-keyboard-response,311,1587691,0.0-17.0-1.16,47364,List2B,black,woman,,,,null,,,,
null,are flirting with each other,,html-keyboard-response,312,1589711,0.0-17.0-2.16,47364,List2B,black,woman,,,,null,,,,
11139,,,survey-text,313,1600850,0.0-17.0-3.16,47364,List2B,black,woman,,,,,"{""Q0"":""fred and dave are flirting with each other""}","<img src=""stim_listB/flirt6.gif""style=""height:400px;""></stim_listB>",are flirting with each other,
null,"<div style=""font-size:60px;"">+</div>",,html-keyboard-response,314,1601351,0.0-17.0-0.17,47364,List2B,black,woman,,,,null,,,,
null,"<img src=""stim_listB/kiss6.gif""style=""height:400px;""></stim_listB>",,html-keyboard-response,315,1603360,0.0-17.0-1.17,47364,List2B,black,woman,,,,null,,,,
null,are kissing each other,,html-keyboard-response,316,1605363,0.0-17.0-2.17,47364,List2B,black,woman,,,,null,,,,
9263,,,survey-text,317,1614626,0.0-17.0-3.17,47364,List2B,black,woman,,,,,"{""Q0"":""mike and dave are kissing each other""}","<img src=""stim_listB/kiss6.gif""style=""height:400px;""></stim_listB>",are kissing each other,
null,"<div style=""font-size:60px;"">+</div>",,html-keyboard-response,318,1615133,0.0-17.0-0.18,47364,List2B,black,woman,,,,null,,,,
null,"<img src=""stim_listB/kiss5.gif""style=""height:400px;""></stim_listB>",,html-keyboard-response,319,1617141,0.0-17.0-1.18,47364,List2B,black,woman,,,,null,,,,
null,is kissing,,html-keyboard-response,320,1619164,0.0-17.0-2.18,47364,List2B,black,woman,,,,null,,,,
6813,,,survey-text,321,1625978,0.0-17.0-3.18,47364,List2B,black,woman,,,,,"{""Q0"":""fred is kissing luke""}","<img src=""stim_listB/kiss5.gif""style=""height:400px;""></stim_listB>",is kissing,
null,"<div style=""font-size:60px;"">+</div>",,html-keyboard-response,322,1626481,0.0-17.0-0.19,47364,List2B,black,woman,,,,null,,,,
null,"<img src=""stim_listB/touch3.gif""style=""height:400px;""></stim_listB>",,html-keyboard-response,323,1628491,0.0-17.0-1.19,47364,List2B,black,woman,,,,null,,,,
null,is touching,,html-keyboard-response,324,1630511,0.0-17.0-2.19,47364,List2B,black,woman,,,,null,,,,
8219,,,survey-text,325,1638731,0.0-17.0-3.19,47364,List2B,black,woman,,,,,"{""Q0"":""kate is touching mike""}","<img src=""stim_listB/touch3.gif""style=""height:400px;""></stim_listB>",is touching,
2167,"<img src='img/portrait_matrix_list2.jpg' style='width:900px;height:500px;''></img><p>If you have memorised all the portraits and names and are ready to start, press Continue.</p><p><strong>Please note: Your memory of these faces will be tested 4 times during this experiment.</strong></p>",0,html-button-response,326,1640899,0.0-18.0-0.0,47364,List2B,black,woman,,,,,,,,
1945,"<img src=""portrait/WM2.jpg""style=""height:400px;""></img>",7,html-button-response,327,1643850,0.0-18.0-1.0,47364,List2B,black,woman,,TRUE,7,,,,,
null,CORRECT,,html-keyboard-response,328,1645372,0.0-18.0-2.0-0.0,47364,List2B,black,woman,,,,null,,,,
1731,"<img src=""portrait/WM1.jpg""style=""height:400px;""></img>",6,html-button-response,329,1647106,0.0-18.0-4.0,47364,List2B,black,woman,,TRUE,6,,,,,
null,CORRECT,,html-keyboard-response,330,1648632,0.0-18.0-5.0-0.0,47364,List2B,black,woman,,,,null,,,,
1250,"<img src=""portrait/BM1.jpg""style=""height:400px;""></img>",4,html-button-response,331,1649883,0.0-18.0-7.0,47364,List2B,black,woman,,TRUE,4,,,,,
null,CORRECT,,html-keyboard-response,332,1651412,0.0-18.0-8.0-0.0,47364,List2B,black,woman,,,,null,,,,
1909,"<img src=""portrait/WW1.jpg""style=""height:400px;""></img>",1,html-button-response,333,1653323,0.0-18.0-10.0,47364,List2B,black,woman,,TRUE,1,,,,,
null,CORRECT,,html-keyboard-response,334,1654851,0.0-18.0-11.0-0.0,47364,List2B,black,woman,,,,null,,,,
3542,"<img src=""portrait/BW1.jpg""style=""height:400px;""></img>",1,html-button-response,335,1658395,0.0-18.0-13.0,47364,List2B,black,woman,,TRUE,0,,,,,
5003,"<img src=""portrait/BW1.jpg""style=""height:400px;""></img>",0,html-button-response,336,1664403,0.0-18.0-15.0-0.0,47364,List2B,black,woman,,FALSE,0,,,,,
null,CORRECT,,html-keyboard-response,337,1665927,0.0-18.0-15.0-1.0-0.0,47364,List2B,black,woman,,,,null,,,,
1481,"<img src=""portrait/BW2.jpg""style=""height:400px;""></img>",2,html-button-response,338,1667410,0.0-18.0-16.0,47364,List2B,black,woman,,TRUE,2,,,,,
null,CORRECT,,html-keyboard-response,339,1668942,0.0-18.0-17.0-0.0,47364,List2B,black,woman,,,,null,,,,
2122,"<img src=""portrait/BM2.jpg""style=""height:400px;""></img>",5,html-button-response,340,1671066,0.0-18.0-19.0,47364,List2B,black,woman,,TRUE,5,,,,,
null,CORRECT,,html-keyboard-response,341,1672590,0.0-18.0-20.0-0.0,47364,List2B,black,woman,,,,null,,,,
1307,"<img src=""portrait/WW2.jpg""style=""height:400px;""></img>",3,html-button-response,342,1673898,0.0-18.0-22.0,47364,List2B,black,woman,,TRUE,3,,,,,
null,CORRECT,,html-keyboard-response,343,1675433,0.0-18.0-23.0-0.0,47364,List2B,black,woman,,,,null,,,,
1558,<p>You got 7 out of 8 right first time. Press Continue.</p>,0,html-button-response,344,1676995,0.0-18.0-25.0,47364,List2B,black,woman,,,,,,,,
1611,"As you did not score 100%, the memory game will repeat. Press Continue.",0,html-button-response,345,1679626,0.0-18.0-26.0-0.0,47364,List2B,black,woman,,,,,,,,
1097,"<img src='img/portrait_matrix_list2.jpg' style='width:900px;height:500px;''></img><p>If you have memorised all the portraits and names and are ready to start, press Continue.</p><p><strong>Please note: Your memory of these faces will be tested 4 times during this experiment.</strong></p>",0,html-button-response,346,1681739,0.0-18.1-0.1,47364,List2B,black,woman,,,,,,,,
2205,"<img src=""portrait/WM2.jpg""style=""height:400px;""></img>",7,html-button-response,347,1684947,0.0-18.1-1.1,47364,List2B,black,woman,,TRUE,7,,,,,
null,CORRECT,,html-keyboard-response,348,1686472,0.0-18.1-2.1-0.1,47364,List2B,black,woman,,,,null,,,,
1530,"<img src=""portrait/WM1.jpg""style=""height:400px;""></img>",6,html-button-response,349,1688002,0.0-18.1-4.1,47364,List2B,black,woman,,TRUE,6,,,,,
null,CORRECT,,html-keyboard-response,350,1689539,0.0-18.1-5.1-0.1,47364,List2B,black,woman,,,,null,,,,
1607,"<img src=""portrait/BM1.jpg""style=""height:400px;""></img>",4,html-button-response,351,1691146,0.0-18.1-7.1,47364,List2B,black,woman,,TRUE,4,,,,,
null,CORRECT,,html-keyboard-response,352,1692670,0.0-18.1-8.1-0.1,47364,List2B,black,woman,,,,null,,,,
1964,"<img src=""portrait/WW1.jpg""style=""height:400px;""></img>",1,html-button-response,353,1694635,0.0-18.1-10.1,47364,List2B,black,woman,,TRUE,1,,,,,
null,CORRECT,,html-keyboard-response,354,1696151,0.0-18.1-11.1-0.1,47364,List2B,black,woman,,,,null,,,,
1130,"<img src=""portrait/BW1.jpg""style=""height:400px;""></img>",0,html-button-response,355,1697283,0.0-18.1-13.1,47364,List2B,black,woman,,TRUE,0,,,,,
null,CORRECT,,html-keyboard-response,356,1698805,0.0-18.1-14.1-0.1,47364,List2B,black,woman,,,,null,,,,
1292,"<img src=""portrait/BW2.jpg""style=""height:400px;""></img>",2,html-button-response,357,1700098,0.0-18.1-16.1,47364,List2B,black,woman,,TRUE,2,,,,,
null,CORRECT,,html-keyboard-response,358,1701631,0.0-18.1-17.1-0.1,47364,List2B,black,woman,,,,null,,,,
4522,"<img src=""portrait/BM2.jpg""style=""height:400px;""></img>",5,html-button-response,359,1706154,0.0-18.1-19.1,47364,List2B,black,woman,,TRUE,5,,,,,
null,CORRECT,,html-keyboard-response,360,1707682,0.0-18.1-20.1-0.1,47364,List2B,black,woman,,,,null,,,,
2031,"<img src=""portrait/WW2.jpg""style=""height:400px;""></img>",3,html-button-response,361,1709714,0.0-18.1-22.1,47364,List2B,black,woman,,TRUE,3,,,,,
null,CORRECT,,html-keyboard-response,362,1711242,0.0-18.1-23.1-0.1,47364,List2B,black,woman,,,,null,,,,
1543,<p>You got 8 out of 8 right first time. Press Continue.</p>,0,html-button-response,363,1712787,0.0-18.1-25.1,47364,List2B,black,woman,,,,,,,,
null,"<div style=""font-size:60px;"">+</div>",,html-keyboard-response,364,1714322,0.0-19.0-0.0,47364,List2B,black,woman,,,,null,,,,
null,"<img src=""stim_listB/marry3.gif""style=""height:400px;""></stim_listB>",,html-keyboard-response,365,1716341,0.0-19.0-1.0,47364,List2B,black,woman,,,,null,,,,
null,is marrying,,html-keyboard-response,366,1718362,0.0-19.0-2.0,47364,List2B,black,woman,,,,null,,,,
8927,,,survey-text,367,1727291,0.0-19.0-3.0,47364,List2B,black,woman,,,,,"{""Q0"":""beth is marrying mike""}","<img src=""stim_listB/marry3.gif""style=""height:400px;""></stim_listB>",is marrying,
null,"<div style=""font-size:60px;"">+</div>",,html-keyboard-response,368,1727793,0.0-19.0-0.1,47364,List2B,black,woman,,,,null,,,,
null,"<img src=""stim_listB/fight4.gif""style=""height:400px;""></stim_listB>",,html-keyboard-response,369,1729812,0.0-19.0-1.1,47364,List2B,black,woman,,,,null,,,,
null,are fighting each other,,html-keyboard-response,370,1731818,0.0-19.0-2.1,47364,List2B,black,woman,,,,null,,,,
163128,,,survey-text,371,1894947,0.0-19.0-3.1,47364,List2B,black,woman,,,,,"{""Q0"":""fred and beth are flirting""}","<img src=""stim_listB/fight4.gif""style=""height:400px;""></stim_listB>",are fighting each other,
null,"<div style=""font-size:60px;"">+</div>",,html-keyboard-response,372,1895452,0.0-19.0-0.2,47364,List2B,black,woman,,,,null,,,,
null,"<img src=""stim_listB/talk5.gif""style=""height:400px;""></stim_listB>",,html-keyboard-response,373,1897471,0.0-19.0-1.2,47364,List2B,black,woman,,,,null,,,,
null,is talking to,,html-keyboard-response,374,1899473,0.0-19.0-2.2,47364,List2B,black,woman,,,,null,,,,
9234,,,survey-text,375,1908708,0.0-19.0-3.2,47364,List2B,black,woman,,,,,"{""Q0"":""mike is talking to luke""}","<img src=""stim_listB/talk5.gif""style=""height:400px;""></stim_listB>",is talking to,
null,"<div style=""font-size:60px;"">+</div>",,html-keyboard-response,376,1909213,0.0-19.0-0.3,47364,List2B,black,woman,,,,null,,,,
null,"<img src=""stim_listB/touch4.gif""style=""height:400px;""></stim_listB>",,html-keyboard-response,377,1911233,0.0-19.0-1.3,47364,List2B,black,woman,,,,null,,,,
null,are touching each other,,html-keyboard-response,378,1913488,0.0-19.0-2.3,47364,List2B,black,woman,,,,null,,,,
8795,,,survey-text,379,1922283,0.0-19.0-3.3,47364,List2B,black,woman,,,,,"{""Q0"":""fred and beth are touching each other""}","<img src=""stim_listB/touch4.gif""style=""height:400px;""></stim_listB>",are touching each other,
null,"<div style=""font-size:60px;"">+</div>",,html-keyboard-response,380,1922803,0.0-19.0-0.4,47364,List2B,black,woman,,,,null,,,,
null,"<img src=""stim_listB/touch1.gif""style=""height:400px;""></stim_listB>",,html-keyboard-response,381,1924822,0.0-19.0-1.4,47364,List2B,black,woman,,,,null,,,,
null,is touching,,html-keyboard-response,382,1926835,0.0-19.0-2.4,47364,List2B,black,woman,,,,null,,,,
6880,,,survey-text,383,1933716,0.0-19.0-3.4,47364,List2B,black,woman,,,,,"{""Q0"":""jane is touching dave""}","<img src=""stim_listB/touch1.gif""style=""height:400px;""></stim_listB>",is touching,
null,"<div style=""font-size:60px;"">+</div>",,html-keyboard-response,384,1934222,0.0-19.0-0.5,47364,List2B,black,woman,,,,null,,,,
null,"<img src=""stim_listB/fight1.gif""style=""height:400px;""></stim_listB>",,html-keyboard-response,385,1936233,0.0-19.0-1.5,47364,List2B,black,woman,,,,null,,,,
null,is fighting,,html-keyboard-response,386,1938241,0.0-19.0-2.5,47364,List2B,black,woman,,,,null,,,,
7354,,,survey-text,387,1945596,0.0-19.0-3.5,47364,List2B,black,woman,,,,,"{""Q0"":""jane is fighting dave""}","<img src=""stim_listB/fight1.gif""style=""height:400px;""></stim_listB>",is fighting,
null,"<div style=""font-size:60px;"">+</div>",,html-keyboard-response,388,1946103,0.0-19.0-0.6,47364,List2B,black,woman,,,,null,,,,
null,"<img src=""stim_listB/touch5.gif""style=""height:400px;""></stim_listB>",,html-keyboard-response,389,1948106,0.0-19.0-1.6,47364,List2B,black,woman,,,,null,,,,
null,is touching,,html-keyboard-response,390,1950114,0.0-19.0-2.6,47364,List2B,black,woman,,,,null,,,,
6136,,,survey-text,391,1956252,0.0-19.0-3.6,47364,List2B,black,woman,,,,,"{""Q0"":""mike is touching dave""}","<img src=""stim_listB/touch5.gif""style=""height:400px;""></stim_listB>",is touching,
null,"<div style=""font-size:60px;"">+</div>",,html-keyboard-response,392,1956758,0.0-19.0-0.7,47364,List2B,black,woman,,,,null,,,,
null,"<img src=""stim_listB/fight8.gif""style=""height:400px;""></stim_listB>",,html-keyboard-response,393,1958763,0.0-19.0-1.7,47364,List2B,black,woman,,,,null,,,,
null,are fighting each other,,html-keyboard-response,394,1960766,0.0-19.0-2.7,47364,List2B,black,woman,,,,null,,,,
9158,,,survey-text,395,1969925,0.0-19.0-3.7,47364,List2B,black,woman,,,,,"{""Q0"":""beth and ruth are fighting each other""}","<img src=""stim_listB/fight8.gif""style=""height:400px;""></stim_listB>",are fighting each other,
null,"<div style=""font-size:60px;"">+</div>",,html-keyboard-response,396,1970433,0.0-19.0-0.8,47364,List2B,black,woman,,,,null,,,,
null,"<img src=""stim_listB/shout3.gif""style=""height:400px;""></stim_listB>",,html-keyboard-response,397,1972443,0.0-19.0-1.8,47364,List2B,black,woman,,,,null,,,,
null,is shouting at,,html-keyboard-response,398,1974463,0.0-19.0-2.8,47364,List2B,black,woman,,,,null,,,,
12220,,,survey-text,399,1986684,0.0-19.0-3.8,47364,List2B,black,woman,,,,,"{""Q0"":""beth is shouting at fred""}","<img src=""stim_listB/shout3.gif""style=""height:400px;""></stim_listB>",is shouting at,
null,"<div style=""font-size:60px;"">+</div>",,html-keyboard-response,400,1987192,0.0-19.0-0.9,47364,List2B,black,woman,,,,null,,,,
null,"<img src=""stim_listB/kiss2.gif""style=""height:400px;""></stim_listB>",,html-keyboard-response,401,1989215,0.0-19.0-1.9,47364,List2B,black,woman,,,,null,,,,
null,are kissing each other,,html-keyboard-response,402,1991232,0.0-19.0-2.9,47364,List2B,black,woman,,,,null,,,,
7938,,,survey-text,403,1999172,0.0-19.0-3.9,47364,List2B,black,woman,,,,,"{""Q0"":""jane and dave are kissing each other""}","<img src=""stim_listB/kiss2.gif""style=""height:400px;""></stim_listB>",are kissing each other,
null,"<div style=""font-size:60px;"">+</div>",,html-keyboard-response,404,1999683,0.0-19.0-0.10,47364,List2B,black,woman,,,,null,,,,
null,"<img src=""stim_listB/flirt4.gif""style=""height:400px;""></stim_listB>",,html-keyboard-response,405,2001693,0.0-19.0-1.10,47364,List2B,black,woman,,,,null,,,,
null,are flirting with each other,,html-keyboard-response,406,2003712,0.0-19.0-2.10,47364,List2B,black,woman,,,,null,,,,
9154,,,survey-text,407,2012868,0.0-19.0-3.10,47364,List2B,black,woman,,,,,"{""Q0"":""beth and mike are flirting with each other""}","<img src=""stim_listB/flirt4.gif""style=""height:400px;""></stim_listB>",are flirting with each other,
null,"<div style=""font-size:60px;"">+</div>",,html-keyboard-response,408,2013383,0.0-19.0-0.11,47364,List2B,black,woman,,,,null,,,,
null,"<img src=""stim_listB/fight6.gif""style=""height:400px;""></stim_listB>",,html-keyboard-response,409,2015385,0.0-19.0-1.11,47364,List2B,black,woman,,,,null,,,,
null,are fighting each other,,html-keyboard-response,410,2017388,0.0-19.0-2.11,47364,List2B,black,woman,,,,null,,,,
7399,,,survey-text,411,2024789,0.0-19.0-3.11,47364,List2B,black,woman,,,,,"{""Q0"":""fred and luke are fighting each other""}","<img src=""stim_listB/fight6.gif""style=""height:400px;""></stim_listB>",are fighting each other,
null,"<div style=""font-size:60px;"">+</div>",,html-keyboard-response,412,2025303,0.0-19.0-0.12,47364,List2B,black,woman,,,,null,,,,
null,"<img src=""stim_listB/argue2.gif""style=""height:400px;""></stim_listB>",,html-keyboard-response,413,2027313,0.0-19.0-1.12,47364,List2B,black,woman,,,,null,,,,
null,are arguing with each other,,html-keyboard-response,414,2029333,0.0-19.0-2.12,47364,List2B,black,woman,,,,null,,,,
9854,,,survey-text,415,2039189,0.0-19.0-3.12,47364,List2B,black,woman,,,,,"{""Q0"":""jane and luke are arguing with each other""}","<img src=""stim_listB/argue2.gif""style=""height:400px;""></stim_listB>",are arguing with each other,
null,"<div style=""font-size:60px;"">+</div>",,html-keyboard-response,416,2039703,0.0-19.0-0.13,47364,List2B,black,woman,,,,null,,,,
null,"<img src=""stim_listB/play5.gif""style=""height:400px;""></stim_listB>",,html-keyboard-response,417,2041723,0.0-19.0-1.13,47364,List2B,black,woman,,,,null,,,,
null,is playing with,,html-keyboard-response,418,2043734,0.0-19.0-2.13,47364,List2B,black,woman,,,,null,,,,
6366,,,survey-text,419,2050100,0.0-19.0-3.13,47364,List2B,black,woman,,,,,"{""Q0"":""mike is playing with dave""}","<img src=""stim_listB/play5.gif""style=""height:400px;""></stim_listB>",is playing with,
null,"<div style=""font-size:60px;"">+</div>",,html-keyboard-response,420,2050611,0.0-19.0-0.14,47364,List2B,black,woman,,,,null,,,,
null,"<img src=""stim_listB/marry8.gif""style=""height:400px;""></stim_listB>",,html-keyboard-response,421,2052622,0.0-19.0-1.14,47364,List2B,black,woman,,,,null,,,,
null,are marrying each other,,html-keyboard-response,422,2054623,0.0-19.0-2.14,47364,List2B,black,woman,,,,null,,,,
9821,,,survey-text,423,2064445,0.0-19.0-3.14,47364,List2B,black,woman,,,,,"{""Q0"":""ruth and kate are marrying each other""}","<img src=""stim_listB/marry8.gif""style=""height:400px;""></stim_listB>",are marrying each other,
null,"<div style=""font-size:60px;"">+</div>",,html-keyboard-response,424,2064953,0.0-19.0-0.15,47364,List2B,black,woman,,,,null,,,,
null,"<img src=""stim_listB/talk3.gif""style=""height:400px;""></stim_listB>",,html-keyboard-response,425,2066964,0.0-19.0-1.15,47364,List2B,black,woman,,,,null,,,,
null,is talking to,,html-keyboard-response,426,2068970,0.0-19.0-2.15,47364,List2B,black,woman,,,,null,,,,
7050,,,survey-text,427,2076020,0.0-19.0-3.15,47364,List2B,black,woman,,,,,"{""Q0"":""fred istalking to kate""}","<img src=""stim_listB/talk3.gif""style=""height:400px;""></stim_listB>",is talking to,
null,"<div style=""font-size:60px;"">+</div>",,html-keyboard-response,428,2076524,0.0-19.0-0.16,47364,List2B,black,woman,,,,null,,,,
null,"<img src=""stim_listB/play8.gif""style=""height:400px;""></stim_listB>",,html-keyboard-response,429,2078542,0.0-19.0-1.16,47364,List2B,black,woman,,,,null,,,,
null,are playing with each other,,html-keyboard-response,430,2080544,0.0-19.0-2.16,47364,List2B,black,woman,,,,null,,,,
10037,,,survey-text,431,2090581,0.0-19.0-3.16,47364,List2B,black,woman,,,,,"{""Q0"":""beth and ruth are playing with each other""}","<img src=""stim_listB/play8.gif""style=""height:400px;""></stim_listB>",are playing with each other,
null,"<div style=""font-size:60px;"">+</div>",,html-keyboard-response,432,2091084,0.0-19.0-0.17,47364,List2B,black,woman,,,,null,,,,
null,"<img src=""stim_listB/shout6.gif""style=""height:400px;""></stim_listB>",,html-keyboard-response,433,2093103,0.0-19.0-1.17,47364,List2B,black,woman,,,,null,,,,
null,are shouting at each other,,html-keyboard-response,434,2095118,0.0-19.0-2.17,47364,List2B,black,woman,,,,null,,,,
8951,,,survey-text,435,2104069,0.0-19.0-3.17,47364,List2B,black,woman,,,,,"{""Q0"":""mike and dave are shouting at each other""}","<img src=""stim_listB/shout6.gif""style=""height:400px;""></stim_listB>",are shouting at each other,
null,"<div style=""font-size:60px;"">+</div>",,html-keyboard-response,436,2104574,0.0-19.0-0.18,47364,List2B,black,woman,,,,null,,,,
null,"<img src=""stim_listB/flirt5.gif""style=""height:400px;""></stim_listB>",,html-keyboard-response,437,2106594,0.0-19.0-1.18,47364,List2B,black,woman,,,,null,,,,
null,is flirting with,,html-keyboard-response,438,2108613,0.0-19.0-2.18,47364,List2B,black,woman,,,,null,,,,
6518,,,survey-text,439,2115132,0.0-19.0-3.18,47364,List2B,black,woman,,,,,"{""Q0"":""""}","<img src=""stim_listB/flirt5.gif""style=""height:400px;""></stim_listB>",is flirting with,
null,"<div style=""font-size:60px;"">+</div>",,html-keyboard-response,440,2115634,0.0-19.0-0.19,47364,List2B,black,woman,,,,null,,,,
null,"<img src=""stim_listB/kiss1.gif""style=""height:400px;""></stim_listB>",,html-keyboard-response,441,2117653,0.0-19.0-1.19,47364,List2B,black,woman,,,,null,,,,
null,is kissing,,html-keyboard-response,442,2119923,0.0-19.0-2.19,47364,List2B,black,woman,,,,null,,,,
6098,,,survey-text,443,2126021,0.0-19.0-3.19,47364,List2B,black,woman,,,,,"{""Q0"":""ruth is kissing luke""}","<img src=""stim_listB/kiss1.gif""style=""height:400px;""></stim_listB>",is kissing,
2447,<p>Thank you for completing that task.</p><p>The final part of this session is a short questionnaire.</p><p>Press Continue.</p>,0,html-button-response,444,2128469,0.0-20.0,47364,List2B,black,woman,,,,,,,,
31992,,,survey-text,445,2161469,0.0-21.0,47364,List2B,black,woman,,,,,"{""Q0"":""47"",""Q1"":""English"",""Q2"":""English"",""Q3"":""United States"",""Q4"":""African American"",""Q5"":""Female""}",,,demographics
7134,,,survey-likert,446,2168608,0.0-22.0,47364,List2B,black,woman,,,,,"{""Q0"":1}",,,likert_ESS
118701,,,survey-likert,447,2287311,0.0-23.0,47364,List2B,black,woman,,,,,"{""Q0"":0}",,,likert_NSSAL_Q1
2636,,,survey-likert,448,2289951,0.0-24.0,47364,List2B,black,woman,,,,,"{""Q0"":0}",,,likert_NSSAL_Q2
5261,,,survey-likert,449,2295215,0.0-25.0,47364,List2B,black,woman,,,,,"{""Q0"":4}",,,likert_CGRS_Q1
8279,,,survey-likert,450,2303495,0.0-26.0,47364,List2B,black,woman,,,,,"{""Q0"":3}",,,likert_CGRS_Q2
4150,,,survey-likert,451,2307647,0.0-27.0,47364,List2B,black,woman,,,,,"{""Q0"":3}",,,likert_CGRS_Q3
6039,,,survey-text,452,2313686,0.0-28.0,47364,List2B,black,woman,,,,,"{""Q0"":""ccc""}",,,worker_id
3459,,,external-html,453,2317397,0.0-29.0,47364,List2B,black,woman,debrief.html,,,,,,,
