rt,stimulus,button_pressed,trial_type,trial_index,time_elapsed,internal_node_id,subject,list,ppt_race,ppt_gender,url,first_guess,correct,key_press,responses,image_type,phrase_type,test_part
2919,Welcome to the experiment. Press Continue to begin.,0,html-button-response,0,2930,0.0-0.0,49395,List2A,white,woman,,,,,,,,
48841,,,external-html,1,52940,0.0-1.0,49395,List2A,white,woman,consent.html,,,,,,,
19132,"<p>On the next page, you will see portraits of 8 people and their names.</p><p>Your first task is to take a few minutes to memorise the names of these people.</p><p>You will have to recall their names during the rest of the experiment, so it is</p><p>essential that you try to memorise these people and their names as best as you can.</p><br><p><strong>You will then be tested on your memory of these names and portraits.</strong></p><br><p>The experiment will start after you have completed this memory test.</p><br><p>Ready?</p>",0,html-button-response,2,72076,0.0-2.0,49395,List2A,white,woman,,,,,,,,
94749,"<img src='img/portrait_matrix_list2.jpg' style='width:900px;height:500px;''></img><p>If you have memorised all the portraits and names and are ready to start, press Continue.</p><p><strong>Please note: Your memory of these faces will be tested 4 times during this experiment.</strong></p>",0,html-button-response,3,167841,0.0-3.0-0.0,49395,List2A,white,woman,,,,,,,,
3265,"<img src=""portrait/WW2.jpg""style=""height:400px;""></img>",3,html-button-response,4,172124,0.0-3.0-1.0,49395,List2A,white,woman,,TRUE,3,,,,,
null,CORRECT,,html-keyboard-response,5,173652,0.0-3.0-2.0-0.0,49395,List2A,white,woman,,,,null,,,,
4024,"<img src=""portrait/WM1.jpg""style=""height:400px;""></img>",6,html-button-response,6,177687,0.0-3.0-4.0,49395,List2A,white,woman,,TRUE,6,,,,,
null,CORRECT,,html-keyboard-response,7,179205,0.0-3.0-5.0-0.0,49395,List2A,white,woman,,,,null,,,,
3553,"<img src=""portrait/WW1.jpg""style=""height:400px;""></img>",1,html-button-response,8,182767,0.0-3.0-7.0,49395,List2A,white,woman,,TRUE,1,,,,,
null,CORRECT,,html-keyboard-response,9,184276,0.0-3.0-8.0-0.0,49395,List2A,white,woman,,,,null,,,,
3145,"<img src=""portrait/BM2.jpg""style=""height:400px;""></img>",5,html-button-response,10,187431,0.0-3.0-10.0,49395,List2A,white,woman,,TRUE,5,,,,,
null,CORRECT,,html-keyboard-response,11,188940,0.0-3.0-11.0-0.0,49395,List2A,white,woman,,,,null,,,,
2582,"<img src=""portrait/BM1.jpg""style=""height:400px;""></img>",4,html-button-response,12,191531,0.0-3.0-13.0,49395,List2A,white,woman,,TRUE,4,,,,,
null,CORRECT,,html-keyboard-response,13,193053,0.0-3.0-14.0-0.0,49395,List2A,white,woman,,,,null,,,,
2394,"<img src=""portrait/WM2.jpg""style=""height:400px;""></img>",7,html-button-response,14,195458,0.0-3.0-16.0,49395,List2A,white,woman,,TRUE,7,,,,,
null,CORRECT,,html-keyboard-response,15,196965,0.0-3.0-17.0-0.0,49395,List2A,white,woman,,,,null,,,,
3240,"<img src=""portrait/BW2.jpg""style=""height:400px;""></img>",2,html-button-response,16,200215,0.0-3.0-19.0,49395,List2A,white,woman,,TRUE,2,,,,,
null,CORRECT,,html-keyboard-response,17,201724,0.0-3.0-20.0-0.0,49395,List2A,white,woman,,,,null,,,,
2714,"<img src=""portrait/BW1.jpg""style=""height:400px;""></img>",0,html-button-response,18,204442,0.0-3.0-22.0,49395,List2A,white,woman,,TRUE,0,,,,,
null,CORRECT,,html-keyboard-response,19,205947,0.0-3.0-23.0-0.0,49395,List2A,white,woman,,,,null,,,,
3348,<p>You got 8 out of 8 right first time. Press Continue.</p>,0,html-button-response,20,209301,0.0-3.0-25.0,49395,List2A,white,woman,,,,,,,,
75563,"<p>In this experiment, you will view photographs of the people from the memory game interacting.</p><p>By using the <strong>exact</strong> phrase given <i>after</i> the photograph appears and recalling the correct names of the people in the photographs, form a sentence describing the interaction. You do not need to capitalise names.</p><p>Type your answer in the space provided. Please complete every sentence before moving onto the next trial.</p><p>You will only have a few seconds to memorise each given photograph and phrase before you can respond, so try your best to focus.</p><p>An example is given below. Press 'Continue' when you are ready.</p><img src='img/speaking_example.jpg' style='width:800px;height:460px;''></img>",0,html-button-response,21,285883,0.0-4.0,49395,List2A,white,woman,,,,,,,,
4172,"<p>Before the experiment starts, you will watch two example trials. Press 'Continue'.</p>",0,html-button-response,22,291069,0.0-5.0,49395,List2A,white,woman,,,,,,,,
null,<img src='img/meet_eg.gif' style='height:400px;''></img>,,html-keyboard-response,23,294078,0.0-6.0,49395,List2A,white,woman,,,,null,,,,
null,<p>is meeting</p>,,html-keyboard-response,24,296084,0.0-7.0,49395,List2A,white,woman,,,,null,,,,
2826,<p><b>Answer:</b> jane is meeting ruth</p>,0,html-button-response,25,298915,0.0-8.0,49395,List2A,white,woman,,,,,,,,
null,<img src='img/look_eg.gif' style='height:400px;''></img>,,html-keyboard-response,26,301927,0.0-9.0,49395,List2A,white,woman,,,,null,,,,
null,<p>are looking at each other</p>,,html-keyboard-response,27,303932,0.0-10.0,49395,List2A,white,woman,,,,null,,,,
1776,<p><b>Answer:</b> fred and mike are looking at each other</p>,0,html-button-response,28,305712,0.0-11.0,49395,List2A,white,woman,,,,,,,,
9987,"<p>Ready to start the experiment?</p><br><p><strong>Remember to describe the picture using a full sentence,</strong></p><p><strong>that combines the names of the people with the <i>exact</i> phrase given.</strong></p><p><strong>To receive full payment you must do this correctly.</strong></p><p><strong> You do not need to capitalise names or use punctuation.</strong></p><br><p>Press 'Continue' to begin.</p>",0,html-button-response,29,316708,0.0-12.0,49395,List2A,white,woman,,,,,,,,
null,"<div style=""font-size:60px;"">+</div>",,html-keyboard-response,30,318218,0.0-13.0-0.0,49395,List2A,white,woman,,,,null,,,,
null,"<img src=""stim_listA/talk3.gif""style=""height:400px;""></stim_listA>",,html-keyboard-response,31,320233,0.0-13.0-1.0,49395,List2A,white,woman,,,,null,,,,
null,is talking to,,html-keyboard-response,32,322239,0.0-13.0-2.0,49395,List2A,white,woman,,,,null,,,,
8791,,,survey-text,33,331044,0.0-13.0-3.0,49395,List2A,white,woman,,,,,"{""Q0"":""Kate is talking to fred""}","<img src=""stim_listA/talk3.gif""style=""height:400px;""></stim_listA>",is talking to,
null,"<div style=""font-size:60px;"">+</div>",,html-keyboard-response,34,331561,0.0-13.0-0.1,49395,List2A,white,woman,,,,null,,,,
null,"<img src=""stim_listA/shout4.gif""style=""height:400px;""></stim_listA>",,html-keyboard-response,35,333570,0.0-13.0-1.1,49395,List2A,white,woman,,,,null,,,,
null,are shouting at each other,,html-keyboard-response,36,335575,0.0-13.0-2.1,49395,List2A,white,woman,,,,null,,,,
12054,,,survey-text,37,347634,0.0-13.0-3.1,49395,List2A,white,woman,,,,,"{""Q0"":""Kate and Mike are shouting at each other""}","<img src=""stim_listA/shout4.gif""style=""height:400px;""></stim_listA>",are shouting at each other,
null,"<div style=""font-size:60px;"">+</div>",,html-keyboard-response,38,348145,0.0-13.0-0.2,49395,List2A,white,woman,,,,null,,,,
null,"<img src=""stim_listA/marry7.gif""style=""height:400px;""></stim_listA>",,html-keyboard-response,39,350156,0.0-13.0-1.2,49395,List2A,white,woman,,,,null,,,,
null,is marrying,,html-keyboard-response,40,352162,0.0-13.0-2.2,49395,List2A,white,woman,,,,null,,,,
7319,,,survey-text,41,359488,0.0-13.0-3.2,49395,List2A,white,woman,,,,,"{""Q0"":""Jane is marrying Beth""}","<img src=""stim_listA/marry7.gif""style=""height:400px;""></stim_listA>",is marrying,
null,"<div style=""font-size:60px;"">+</div>",,html-keyboard-response,42,359995,0.0-13.0-0.3,49395,List2A,white,woman,,,,null,,,,
null,"<img src=""stim_listA/marry5.gif""style=""height:400px;""></stim_listA>",,html-keyboard-response,43,362001,0.0-13.0-1.3,49395,List2A,white,woman,,,,null,,,,
null,is marrying,,html-keyboard-response,44,364007,0.0-13.0-2.3,49395,List2A,white,woman,,,,null,,,,
6870,,,survey-text,45,370887,0.0-13.0-3.3,49395,List2A,white,woman,,,,,"{""Q0"":""Dave is marrying fred""}","<img src=""stim_listA/marry5.gif""style=""height:400px;""></stim_listA>",is marrying,
null,"<div style=""font-size:60px;"">+</div>",,html-keyboard-response,46,371394,0.0-13.0-0.4,49395,List2A,white,woman,,,,null,,,,
null,"<img src=""stim_listA/kiss3.gif""style=""height:400px;""></stim_listA>",,html-keyboard-response,47,373401,0.0-13.0-1.4,49395,List2A,white,woman,,,,null,,,,
null,is kissing,,html-keyboard-response,48,375412,0.0-13.0-2.4,49395,List2A,white,woman,,,,null,,,,
6591,,,survey-text,49,382012,0.0-13.0-3.4,49395,List2A,white,woman,,,,,"{""Q0"":""Beth is kissing fred""}","<img src=""stim_listA/kiss3.gif""style=""height:400px;""></stim_listA>",is kissing,
null,"<div style=""font-size:60px;"">+</div>",,html-keyboard-response,50,382520,0.0-13.0-0.5,49395,List2A,white,woman,,,,null,,,,
null,"<img src=""stim_listA/touch7.gif""style=""height:400px;""></stim_listA>",,html-keyboard-response,51,384534,0.0-13.0-1.5,49395,List2A,white,woman,,,,null,,,,
null,is touching,,html-keyboard-response,52,386547,0.0-13.0-2.5,49395,List2A,white,woman,,,,null,,,,
6952,,,survey-text,53,393510,0.0-13.0-3.5,49395,List2A,white,woman,,,,,"{""Q0"":""Jane is touching Kate""}","<img src=""stim_listA/touch7.gif""style=""height:400px;""></stim_listA>",is touching,
null,"<div style=""font-size:60px;"">+</div>",,html-keyboard-response,54,394018,0.0-13.0-0.6,49395,List2A,white,woman,,,,null,,,,
null,"<img src=""stim_listA/kiss4.gif""style=""height:400px;""></stim_listA>",,html-keyboard-response,55,396033,0.0-13.0-1.6,49395,List2A,white,woman,,,,null,,,,
null,are kissing each other,,html-keyboard-response,56,398041,0.0-13.0-2.6,49395,List2A,white,woman,,,,null,,,,
10741,,,survey-text,57,408793,0.0-13.0-3.6,49395,List2A,white,woman,,,,,"{""Q0"":""Mike and Kate are kissing each other""}","<img src=""stim_listA/kiss4.gif""style=""height:400px;""></stim_listA>",are kissing each other,
null,"<div style=""font-size:60px;"">+</div>",,html-keyboard-response,58,409301,0.0-13.0-0.7,49395,List2A,white,woman,,,,null,,,,
null,"<img src=""stim_listA/fight5.gif""style=""height:400px;""></stim_listA>",,html-keyboard-response,59,411322,0.0-13.0-1.7,49395,List2A,white,woman,,,,null,,,,
null,is fighting,,html-keyboard-response,60,413332,0.0-13.0-2.7,49395,List2A,white,woman,,,,null,,,,
6724,,,survey-text,61,420063,0.0-13.0-3.7,49395,List2A,white,woman,,,,,"{""Q0"":""Mike is fighting Dave""}","<img src=""stim_listA/fight5.gif""style=""height:400px;""></stim_listA>",is fighting,
null,"<div style=""font-size:60px;"">+</div>",,html-keyboard-response,62,420571,0.0-13.0-0.8,49395,List2A,white,woman,,,,null,,,,
null,"<img src=""stim_listA/shout6.gif""style=""height:400px;""></stim_listA>",,html-keyboard-response,63,422584,0.0-13.0-1.8,49395,List2A,white,woman,,,,null,,,,
null,are shouting at each other,,html-keyboard-response,64,424598,0.0-13.0-2.8,49395,List2A,white,woman,,,,null,,,,
13359,,,survey-text,65,437966,0.0-13.0-3.8,49395,List2A,white,woman,,,,,"{""Q0"":""Mike and Dave are shouting at each other""}","<img src=""stim_listA/shout6.gif""style=""height:400px;""></stim_listA>",are shouting at each other,
null,"<div style=""font-size:60px;"">+</div>",,html-keyboard-response,66,438495,0.0-13.0-0.9,49395,List2A,white,woman,,,,null,,,,
null,"<img src=""stim_listA/talk2.gif""style=""height:400px;""></stim_listA>",,html-keyboard-response,67,440507,0.0-13.0-1.9,49395,List2A,white,woman,,,,null,,,,
null,are talking to each other,,html-keyboard-response,68,442510,0.0-13.0-2.9,49395,List2A,white,woman,,,,null,,,,
13663,,,survey-text,69,456178,0.0-13.0-3.9,49395,List2A,white,woman,,,,,"{""Q0"":""Ruth and Dave are talking to each other""}","<img src=""stim_listA/talk2.gif""style=""height:400px;""></stim_listA>",are talking to each other,
null,"<div style=""font-size:60px;"">+</div>",,html-keyboard-response,70,456681,0.0-13.0-0.10,49395,List2A,white,woman,,,,null,,,,
null,"<img src=""stim_listA/shout5.gif""style=""height:400px;""></stim_listA>",,html-keyboard-response,71,458686,0.0-13.0-1.10,49395,List2A,white,woman,,,,null,,,,
null,is shouting at,,html-keyboard-response,72,460688,0.0-13.0-2.10,49395,List2A,white,woman,,,,null,,,,
8699,,,survey-text,73,469391,0.0-13.0-3.10,49395,List2A,white,woman,,,,,"{""Q0"":""Fred is shouting at Luke""}","<img src=""stim_listA/shout5.gif""style=""height:400px;""></stim_listA>",is shouting at,
null,"<div style=""font-size:60px;"">+</div>",,html-keyboard-response,74,469894,0.0-13.0-0.11,49395,List2A,white,woman,,,,null,,,,
null,"<img src=""stim_listA/fight2.gif""style=""height:400px;""></stim_listA>",,html-keyboard-response,75,471899,0.0-13.0-1.11,49395,List2A,white,woman,,,,null,,,,
null,are fighting each other,,html-keyboard-response,76,473904,0.0-13.0-2.11,49395,List2A,white,woman,,,,null,,,,
8119,,,survey-text,77,482031,0.0-13.0-3.11,49395,List2A,white,woman,,,,,"{""Q0"":""Ruth and Luke are fighting""}","<img src=""stim_listA/fight2.gif""style=""height:400px;""></stim_listA>",are fighting each other,
null,"<div style=""font-size:60px;"">+</div>",,html-keyboard-response,78,482538,0.0-13.0-0.12,49395,List2A,white,woman,,,,null,,,,
null,"<img src=""stim_listA/marry4.gif""style=""height:400px;""></stim_listA>",,html-keyboard-response,79,484545,0.0-13.0-1.12,49395,List2A,white,woman,,,,null,,,,
null,are marrying each other,,html-keyboard-response,80,486549,0.0-13.0-2.12,49395,List2A,white,woman,,,,null,,,,
9770,,,survey-text,81,496331,0.0-13.0-3.12,49395,List2A,white,woman,,,,,"{""Q0"":""Kate and fred are marrying each other""}","<img src=""stim_listA/marry4.gif""style=""height:400px;""></stim_listA>",are marrying each other,
null,"<div style=""font-size:60px;"">+</div>",,html-keyboard-response,82,496840,0.0-13.0-0.13,49395,List2A,white,woman,,,,null,,,,
null,"<img src=""stim_listA/touch3.gif""style=""height:400px;""></stim_listA>",,html-keyboard-response,83,498848,0.0-13.0-1.13,49395,List2A,white,woman,,,,null,,,,
null,is touching,,html-keyboard-response,84,500853,0.0-13.0-2.13,49395,List2A,white,woman,,,,null,,,,
7947,,,survey-text,85,508806,0.0-13.0-3.13,49395,List2A,white,woman,,,,,"{""Q0"":""Kate is touching Mike ""}","<img src=""stim_listA/touch3.gif""style=""height:400px;""></stim_listA>",is touching,
null,"<div style=""font-size:60px;"">+</div>",,html-keyboard-response,86,509308,0.0-13.0-0.14,49395,List2A,white,woman,,,,null,,,,
null,"<img src=""stim_listA/fight6.gif""style=""height:400px;""></stim_listA>",,html-keyboard-response,87,511314,0.0-13.0-1.14,49395,List2A,white,woman,,,,null,,,,
null,are fighting each other,,html-keyboard-response,88,513323,0.0-13.0-2.14,49395,List2A,white,woman,,,,null,,,,
17336,,,survey-text,89,530667,0.0-13.0-3.14,49395,List2A,white,woman,,,,,"{""Q0"":""Luke and fred are fighting each other""}","<img src=""stim_listA/fight6.gif""style=""height:400px;""></stim_listA>",are fighting each other,
null,"<div style=""font-size:60px;"">+</div>",,html-keyboard-response,90,531173,0.0-13.0-0.15,49395,List2A,white,woman,,,,null,,,,
null,"<img src=""stim_listA/talk8.gif""style=""height:400px;""></stim_listA>",,html-keyboard-response,91,533176,0.0-13.0-1.15,49395,List2A,white,woman,,,,null,,,,
null,are talking to each other,,html-keyboard-response,92,535182,0.0-13.0-2.15,49395,List2A,white,woman,,,,null,,,,
18374,,,survey-text,93,553570,0.0-13.0-3.15,49395,List2A,white,woman,,,,,"{""Q0"":""Beth and Jane are talking to each other""}","<img src=""stim_listA/talk8.gif""style=""height:400px;""></stim_listA>",are talking to each other,
null,"<div style=""font-size:60px;"">+</div>",,html-keyboard-response,94,554080,0.0-13.0-0.16,49395,List2A,white,woman,,,,null,,,,
null,"<img src=""stim_listA/shout8.gif""style=""height:400px;""></stim_listA>",,html-keyboard-response,95,556092,0.0-13.0-1.16,49395,List2A,white,woman,,,,null,,,,
null,are shouting at each other,,html-keyboard-response,96,558095,0.0-13.0-2.16,49395,List2A,white,woman,,,,null,,,,
14974,,,survey-text,97,573076,0.0-13.0-3.16,49395,List2A,white,woman,,,,,"{""Q0"":""Jane and Kate are shouting at each other""}","<img src=""stim_listA/shout8.gif""style=""height:400px;""></stim_listA>",are shouting at each other,
null,"<div style=""font-size:60px;"">+</div>",,html-keyboard-response,98,573586,0.0-13.0-0.17,49395,List2A,white,woman,,,,null,,,,
null,"<img src=""stim_listA/argue1.gif""style=""height:400px;""></stim_listA>",,html-keyboard-response,99,575598,0.0-13.0-1.17,49395,List2A,white,woman,,,,null,,,,
null,is arguing with,,html-keyboard-response,100,577606,0.0-13.0-2.17,49395,List2A,white,woman,,,,null,,,,
12251,,,survey-text,101,589866,0.0-13.0-3.17,49395,List2A,white,woman,,,,,"{""Q0"":""Dave is arguing with ruth ""}","<img src=""stim_listA/argue1.gif""style=""height:400px;""></stim_listA>",is arguing with,
null,"<div style=""font-size:60px;"">+</div>",,html-keyboard-response,102,590374,0.0-13.0-0.18,49395,List2A,white,woman,,,,null,,,,
null,"<img src=""stim_listA/talk7.gif""style=""height:400px;""></stim_listA>",,html-keyboard-response,103,592389,0.0-13.0-1.18,49395,List2A,white,woman,,,,null,,,,
null,is talking to,,html-keyboard-response,104,594394,0.0-13.0-2.18,49395,List2A,white,woman,,,,null,,,,
11099,,,survey-text,105,605502,0.0-13.0-3.18,49395,List2A,white,woman,,,,,"{""Q0"":""Ruth is talking to Kate""}","<img src=""stim_listA/talk7.gif""style=""height:400px;""></stim_listA>",is talking to,
null,"<div style=""font-size:60px;"">+</div>",,html-keyboard-response,106,606012,0.0-13.0-0.19,49395,List2A,white,woman,,,,null,,,,
null,"<img src=""stim_listA/play6.gif""style=""height:400px;""></stim_listA>",,html-keyboard-response,107,608023,0.0-13.0-1.19,49395,List2A,white,woman,,,,null,,,,
null,are playing with each other,,html-keyboard-response,108,610032,0.0-13.0-2.19,49395,List2A,white,woman,,,,null,,,,
9934,,,survey-text,109,619974,0.0-13.0-3.19,49395,List2A,white,woman,,,,,"{""Q0"":""Fred and Luke are playing with each other""}","<img src=""stim_listA/play6.gif""style=""height:400px;""></stim_listA>",are playing with each other,
18571,"<img src='img/portrait_matrix_list2.jpg' style='width:900px;height:500px;''></img><p>If you have memorised all the portraits and names and are ready to start, press Continue.</p><p><strong>Please note: Your memory of these faces will be tested 4 times during this experiment.</strong></p>",0,html-button-response,110,638554,0.0-14.0-0.0,49395,List2A,white,woman,,,,,,,,
3227,"<img src=""portrait/WM1.jpg""style=""height:400px;""></img>",6,html-button-response,111,642792,0.0-14.0-1.0,49395,List2A,white,woman,,TRUE,6,,,,,
null,CORRECT,,html-keyboard-response,112,644305,0.0-14.0-2.0-0.0,49395,List2A,white,woman,,,,null,,,,
2279,"<img src=""portrait/WW1.jpg""style=""height:400px;""></img>",1,html-button-response,113,646591,0.0-14.0-4.0,49395,List2A,white,woman,,TRUE,1,,,,,
null,CORRECT,,html-keyboard-response,114,648101,0.0-14.0-5.0-0.0,49395,List2A,white,woman,,,,null,,,,
2325,"<img src=""portrait/BW2.jpg""style=""height:400px;""></img>",2,html-button-response,115,650434,0.0-14.0-7.0,49395,List2A,white,woman,,TRUE,2,,,,,
null,CORRECT,,html-keyboard-response,116,651942,0.0-14.0-8.0-0.0,49395,List2A,white,woman,,,,null,,,,
2367,"<img src=""portrait/BW1.jpg""style=""height:400px;""></img>",0,html-button-response,117,654318,0.0-14.0-10.0,49395,List2A,white,woman,,TRUE,0,,,,,
null,CORRECT,,html-keyboard-response,118,655829,0.0-14.0-11.0-0.0,49395,List2A,white,woman,,,,null,,,,
1749,"<img src=""portrait/WM2.jpg""style=""height:400px;""></img>",7,html-button-response,119,657588,0.0-14.0-13.0,49395,List2A,white,woman,,TRUE,7,,,,,
null,CORRECT,,html-keyboard-response,120,659099,0.0-14.0-14.0-0.0,49395,List2A,white,woman,,,,null,,,,
2566,"<img src=""portrait/BM2.jpg""style=""height:400px;""></img>",5,html-button-response,121,661678,0.0-14.0-16.0,49395,List2A,white,woman,,TRUE,5,,,,,
null,CORRECT,,html-keyboard-response,122,663198,0.0-14.0-17.0-0.0,49395,List2A,white,woman,,,,null,,,,
2169,"<img src=""portrait/BM1.jpg""style=""height:400px;""></img>",4,html-button-response,123,665378,0.0-14.0-19.0,49395,List2A,white,woman,,TRUE,4,,,,,
null,CORRECT,,html-keyboard-response,124,666892,0.0-14.0-20.0-0.0,49395,List2A,white,woman,,,,null,,,,
1736,"<img src=""portrait/WW2.jpg""style=""height:400px;""></img>",3,html-button-response,125,668636,0.0-14.0-22.0,49395,List2A,white,woman,,TRUE,3,,,,,
null,CORRECT,,html-keyboard-response,126,670146,0.0-14.0-23.0-0.0,49395,List2A,white,woman,,,,null,,,,
1523,<p>You got 8 out of 8 right first time. Press Continue.</p>,0,html-button-response,127,671679,0.0-14.0-25.0,49395,List2A,white,woman,,,,,,,,
null,"<div style=""font-size:60px;"">+</div>",,html-keyboard-response,128,673190,0.0-15.0-0.0,49395,List2A,white,woman,,,,null,,,,
null,"<img src=""stim_listA/flirt1.gif""style=""height:400px;""></stim_listA>",,html-keyboard-response,129,675201,0.0-15.0-1.0,49395,List2A,white,woman,,,,null,,,,
null,is flirting with,,html-keyboard-response,130,677208,0.0-15.0-2.0,49395,List2A,white,woman,,,,null,,,,
8488,,,survey-text,131,685705,0.0-15.0-3.0,49395,List2A,white,woman,,,,,"{""Q0"":""Jane is flirting with Luke""}","<img src=""stim_listA/flirt1.gif""style=""height:400px;""></stim_listA>",is flirting with,
null,"<div style=""font-size:60px;"">+</div>",,html-keyboard-response,132,686215,0.0-15.0-0.1,49395,List2A,white,woman,,,,null,,,,
null,"<img src=""stim_listA/argue3.gif""style=""height:400px;""></stim_listA>",,html-keyboard-response,133,688226,0.0-15.0-1.1,49395,List2A,white,woman,,,,null,,,,
null,is arguing with,,html-keyboard-response,134,690250,0.0-15.0-2.1,49395,List2A,white,woman,,,,null,,,,
9882,,,survey-text,135,700137,0.0-15.0-3.1,49395,List2A,white,woman,,,,,"{""Q0"":""Beth is arguing with Mike""}","<img src=""stim_listA/argue3.gif""style=""height:400px;""></stim_listA>",is arguing with,
null,"<div style=""font-size:60px;"">+</div>",,html-keyboard-response,136,700650,0.0-15.0-0.2,49395,List2A,white,woman,,,,null,,,,
null,"<img src=""stim_listA/dance7.gif""style=""height:400px;""></stim_listA>",,html-keyboard-response,137,702662,0.0-15.0-1.2,49395,List2A,white,woman,,,,null,,,,
null,is dancing with,,html-keyboard-response,138,704669,0.0-15.0-2.2,49395,List2A,white,woman,,,,null,,,,
10975,,,survey-text,139,715655,0.0-15.0-3.2,49395,List2A,white,woman,,,,,"{""Q0"":""Ruth is dancing with Kate""}","<img src=""stim_listA/dance7.gif""style=""height:400px;""></stim_listA>",is dancing with,
null,"<div style=""font-size:60px;"">+</div>",,html-keyboard-response,140,716164,0.0-15.0-0.3,49395,List2A,white,woman,,,,null,,,,
null,"<img src=""stim_listA/argue7.gif""style=""height:400px;""></stim_listA>",,html-keyboard-response,141,718180,0.0-15.0-1.3,49395,List2A,white,woman,,,,null,,,,
null,is arguing with,,html-keyboard-response,142,720188,0.0-15.0-2.3,49395,List2A,white,woman,,,,null,,,,
6927,,,survey-text,143,727121,0.0-15.0-3.3,49395,List2A,white,woman,,,,,"{""Q0"":""Jane is arguing with Beth""}","<img src=""stim_listA/argue7.gif""style=""height:400px;""></stim_listA>",is arguing with,
null,"<div style=""font-size:60px;"">+</div>",,html-keyboard-response,144,727629,0.0-15.0-0.4,49395,List2A,white,woman,,,,null,,,,
null,"<img src=""stim_listA/argue4.gif""style=""height:400px;""></stim_listA>",,html-keyboard-response,145,729641,0.0-15.0-1.4,49395,List2A,white,woman,,,,null,,,,
null,are arguing with each other,,html-keyboard-response,146,731648,0.0-15.0-2.4,49395,List2A,white,woman,,,,null,,,,
10287,,,survey-text,147,741947,0.0-15.0-3.4,49395,List2A,white,woman,,,,,"{""Q0"":""Kate and fred are arguing with each other""}","<img src=""stim_listA/argue4.gif""style=""height:400px;""></stim_listA>",are arguing with each other,
null,"<div style=""font-size:60px;"">+</div>",,html-keyboard-response,148,742457,0.0-15.0-0.5,49395,List2A,white,woman,,,,null,,,,
null,"<img src=""stim_listA/argue5.gif""style=""height:400px;""></stim_listA>",,html-keyboard-response,149,744467,0.0-15.0-1.5,49395,List2A,white,woman,,,,null,,,,
null,is arguing with,,html-keyboard-response,150,746475,0.0-15.0-2.5,49395,List2A,white,woman,,,,null,,,,
7083,,,survey-text,151,753576,0.0-15.0-3.5,49395,List2A,white,woman,,,,,"{""Q0"":""Fred is arguing with Dave""}","<img src=""stim_listA/argue5.gif""style=""height:400px;""></stim_listA>",is arguing with,
null,"<div style=""font-size:60px;"">+</div>",,html-keyboard-response,152,754086,0.0-15.0-0.6,49395,List2A,white,woman,,,,null,,,,
null,"<img src=""stim_listA/fight4.gif""style=""height:400px;""></stim_listA>",,html-keyboard-response,153,756098,0.0-15.0-1.6,49395,List2A,white,woman,,,,null,,,,
null,are fighting each other,,html-keyboard-response,154,758103,0.0-15.0-2.6,49395,List2A,white,woman,,,,null,,,,
9490,,,survey-text,155,767600,0.0-15.0-3.6,49395,List2A,white,woman,,,,,"{""Q0"":""Fred and Beth are fighting each other""}","<img src=""stim_listA/fight4.gif""style=""height:400px;""></stim_listA>",are fighting each other,
null,"<div style=""font-size:60px;"">+</div>",,html-keyboard-response,156,768110,0.0-15.0-0.7,49395,List2A,white,woman,,,,null,,,,
null,"<img src=""stim_listA/play8.gif""style=""height:400px;""></stim_listA>",,html-keyboard-response,157,770124,0.0-15.0-1.7,49395,List2A,white,woman,,,,null,,,,
null,are playing with each other,,html-keyboard-response,158,772134,0.0-15.0-2.7,49395,List2A,white,woman,,,,null,,,,
14245,,,survey-text,159,786388,0.0-15.0-3.7,49395,List2A,white,woman,,,,,"{""Q0"":""Beth and ruth are playing with each other""}","<img src=""stim_listA/play8.gif""style=""height:400px;""></stim_listA>",are playing with each other,
null,"<div style=""font-size:60px;"">+</div>",,html-keyboard-response,160,786897,0.0-15.0-0.8,49395,List2A,white,woman,,,,null,,,,
null,"<img src=""stim_listA/dance5.gif""style=""height:400px;""></stim_listA>",,html-keyboard-response,161,788909,0.0-15.0-1.8,49395,List2A,white,woman,,,,null,,,,
null,is dancing with,,html-keyboard-response,162,790915,0.0-15.0-2.8,49395,List2A,white,woman,,,,null,,,,
7962,,,survey-text,163,798883,0.0-15.0-3.8,49395,List2A,white,woman,,,,,"{""Q0"":""Mike is dancing with Luke""}","<img src=""stim_listA/dance5.gif""style=""height:400px;""></stim_listA>",is dancing with,
null,"<div style=""font-size:60px;"">+</div>",,html-keyboard-response,164,799389,0.0-15.0-0.9,49395,List2A,white,woman,,,,null,,,,
null,"<img src=""stim_listA/marry3.gif""style=""height:400px;""></stim_listA>",,html-keyboard-response,165,801397,0.0-15.0-1.9,49395,List2A,white,woman,,,,null,,,,
null,is marrying,,html-keyboard-response,166,803412,0.0-15.0-2.9,49395,List2A,white,woman,,,,null,,,,
6633,,,survey-text,167,810054,0.0-15.0-3.9,49395,List2A,white,woman,,,,,"{""Q0"":""Mike is marrying Beth""}","<img src=""stim_listA/marry3.gif""style=""height:400px;""></stim_listA>",is marrying,
null,"<div style=""font-size:60px;"">+</div>",,html-keyboard-response,168,810562,0.0-15.0-0.10,49395,List2A,white,woman,,,,null,,,,
null,"<img src=""stim_listA/dance6.gif""style=""height:400px;""></stim_listA>",,html-keyboard-response,169,812575,0.0-15.0-1.10,49395,List2A,white,woman,,,,null,,,,
null,are dancing with each other,,html-keyboard-response,170,814585,0.0-15.0-2.10,49395,List2A,white,woman,,,,null,,,,
12339,,,survey-text,171,826933,0.0-15.0-3.10,49395,List2A,white,woman,,,,,"{""Q0"":""Fred and Dave are dancing with each other""}","<img src=""stim_listA/dance6.gif""style=""height:400px;""></stim_listA>",are dancing with each other,
null,"<div style=""font-size:60px;"">+</div>",,html-keyboard-response,172,827444,0.0-15.0-0.11,49395,List2A,white,woman,,,,null,,,,
null,"<img src=""stim_listA/talk6.gif""style=""height:400px;""></stim_listA>",,html-keyboard-response,173,829459,0.0-15.0-1.11,49395,List2A,white,woman,,,,null,,,,
null,are talking to each other,,html-keyboard-response,174,831478,0.0-15.0-2.11,49395,List2A,white,woman,,,,null,,,,
9768,,,survey-text,175,841257,0.0-15.0-3.11,49395,List2A,white,woman,,,,,"{""Q0"":""Fred and Dave are talking to each other""}","<img src=""stim_listA/talk6.gif""style=""height:400px;""></stim_listA>",are talking to each other,
null,"<div style=""font-size:60px;"">+</div>",,html-keyboard-response,176,841767,0.0-15.0-0.12,49395,List2A,white,woman,,,,null,,,,
null,"<img src=""stim_listA/talk4.gif""style=""height:400px;""></stim_listA>",,html-keyboard-response,177,843778,0.0-15.0-1.12,49395,List2A,white,woman,,,,null,,,,
null,are talking to each other,,html-keyboard-response,178,845785,0.0-15.0-2.12,49395,List2A,white,woman,,,,null,,,,
12108,,,survey-text,179,857908,0.0-15.0-3.12,49395,List2A,white,woman,,,,,"{""Q0"":""Beth and Mike are talking to each other""}","<img src=""stim_listA/talk4.gif""style=""height:400px;""></stim_listA>",are talking to each other,
null,"<div style=""font-size:60px;"">+</div>",,html-keyboard-response,180,858417,0.0-15.0-0.13,49395,List2A,white,woman,,,,null,,,,
null,"<img src=""stim_listA/argue6.gif""style=""height:400px;""></stim_listA>",,html-keyboard-response,181,860429,0.0-15.0-1.13,49395,List2A,white,woman,,,,null,,,,
null,are arguing with each other,,html-keyboard-response,182,862448,0.0-15.0-2.13,49395,List2A,white,woman,,,,null,,,,
10338,,,survey-text,183,872797,0.0-15.0-3.13,49395,List2A,white,woman,,,,,"{""Q0"":""Mike and Luke are arguing with each other""}","<img src=""stim_listA/argue6.gif""style=""height:400px;""></stim_listA>",are arguing with each other,
null,"<div style=""font-size:60px;"">+</div>",,html-keyboard-response,184,873305,0.0-15.0-0.14,49395,List2A,white,woman,,,,null,,,,
null,"<img src=""stim_listA/touch4.gif""style=""height:400px;""></stim_listA>",,html-keyboard-response,185,875320,0.0-15.0-1.14,49395,List2A,white,woman,,,,null,,,,
null,are touching each other,,html-keyboard-response,186,877326,0.0-15.0-2.14,49395,List2A,white,woman,,,,null,,,,
11988,,,survey-text,187,889320,0.0-15.0-3.14,49395,List2A,white,woman,,,,,"{""Q0"":""Beth and fred are touching each other""}","<img src=""stim_listA/touch4.gif""style=""height:400px;""></stim_listA>",are touching each other,
null,"<div style=""font-size:60px;"">+</div>",,html-keyboard-response,188,889821,0.0-15.0-0.15,49395,List2A,white,woman,,,,null,,,,
null,"<img src=""stim_listA/argue2.gif""style=""height:400px;""></stim_listA>",,html-keyboard-response,189,891825,0.0-15.0-1.15,49395,List2A,white,woman,,,,null,,,,
null,are arguing with each other,,html-keyboard-response,190,893828,0.0-15.0-2.15,49395,List2A,white,woman,,,,null,,,,
11030,,,survey-text,191,904862,0.0-15.0-3.15,49395,List2A,white,woman,,,,,"{""Q0"":""Jane and Luke are arguing with each other""}","<img src=""stim_listA/argue2.gif""style=""height:400px;""></stim_listA>",are arguing with each other,
null,"<div style=""font-size:60px;"">+</div>",,html-keyboard-response,192,905369,0.0-15.0-0.16,49395,List2A,white,woman,,,,null,,,,
null,"<img src=""stim_listA/argue8.gif""style=""height:400px;""></stim_listA>",,html-keyboard-response,193,907401,0.0-15.0-1.16,49395,List2A,white,woman,,,,null,,,,
null,are arguing with each other,,html-keyboard-response,194,909411,0.0-15.0-2.16,49395,List2A,white,woman,,,,null,,,,
19829,,,survey-text,195,929249,0.0-15.0-3.16,49395,List2A,white,woman,,,,,"{""Q0"":""Kate and ruth are arguing with each other""}","<img src=""stim_listA/argue8.gif""style=""height:400px;""></stim_listA>",are arguing with each other,
null,"<div style=""font-size:60px;"">+</div>",,html-keyboard-response,196,929757,0.0-15.0-0.17,49395,List2A,white,woman,,,,null,,,,
null,"<img src=""stim_listA/flirt5.gif""style=""height:400px;""></stim_listA>",,html-keyboard-response,197,931771,0.0-15.0-1.17,49395,List2A,white,woman,,,,null,,,,
null,is flirting with,,html-keyboard-response,198,933778,0.0-15.0-2.17,49395,List2A,white,woman,,,,null,,,,
11537,,,survey-text,199,945331,0.0-15.0-3.17,49395,List2A,white,woman,,,,,"{""Q0"":""Luke is flirting with Mike""}","<img src=""stim_listA/flirt5.gif""style=""height:400px;""></stim_listA>",is flirting with,
null,"<div style=""font-size:60px;"">+</div>",,html-keyboard-response,200,945848,0.0-15.0-0.18,49395,List2A,white,woman,,,,null,,,,
null,"<img src=""stim_listA/kiss5.gif""style=""height:400px;""></stim_listA>",,html-keyboard-response,201,947858,0.0-15.0-1.18,49395,List2A,white,woman,,,,null,,,,
null,is kissing,,html-keyboard-response,202,949863,0.0-15.0-2.18,49395,List2A,white,woman,,,,null,,,,
6697,,,survey-text,203,956572,0.0-15.0-3.18,49395,List2A,white,woman,,,,,"{""Q0"":""Luke is kissing fred""}","<img src=""stim_listA/kiss5.gif""style=""height:400px;""></stim_listA>",is kissing,
null,"<div style=""font-size:60px;"">+</div>",,html-keyboard-response,204,957084,0.0-15.0-0.19,49395,List2A,white,woman,,,,null,,,,
null,"<img src=""stim_listA/dance2.gif""style=""height:400px;""></stim_listA>",,html-keyboard-response,205,959098,0.0-15.0-1.19,49395,List2A,white,woman,,,,null,,,,
null,are dancing with each other,,html-keyboard-response,206,961105,0.0-15.0-2.19,49395,List2A,white,woman,,,,null,,,,
14186,,,survey-text,207,975303,0.0-15.0-3.19,49395,List2A,white,woman,,,,,"{""Q0"":""Ruth and Dave are dancing with each other""}","<img src=""stim_listA/dance2.gif""style=""height:400px;""></stim_listA>",are dancing with each other,
11930,"<img src='img/portrait_matrix_list2.jpg' style='width:900px;height:500px;''></img><p>If you have memorised all the portraits and names and are ready to start, press Continue.</p><p><strong>Please note: Your memory of these faces will be tested 4 times during this experiment.</strong></p>",0,html-button-response,208,987243,0.0-16.0-0.0,49395,List2A,white,woman,,,,,,,,
2238,"<img src=""portrait/BM1.jpg""style=""height:400px;""></img>",4,html-button-response,209,990502,0.0-16.0-1.0,49395,List2A,white,woman,,TRUE,4,,,,,
null,CORRECT,,html-keyboard-response,210,992011,0.0-16.0-2.0-0.0,49395,List2A,white,woman,,,,null,,,,
2239,"<img src=""portrait/WM1.jpg""style=""height:400px;""></img>",6,html-button-response,211,994262,0.0-16.0-4.0,49395,List2A,white,woman,,TRUE,6,,,,,
null,CORRECT,,html-keyboard-response,212,995776,0.0-16.0-5.0-0.0,49395,List2A,white,woman,,,,null,,,,
2358,"<img src=""portrait/BW1.jpg""style=""height:400px;""></img>",0,html-button-response,213,998145,0.0-16.0-7.0,49395,List2A,white,woman,,TRUE,0,,,,,
null,CORRECT,,html-keyboard-response,214,999656,0.0-16.0-8.0-0.0,49395,List2A,white,woman,,,,null,,,,
2197,"<img src=""portrait/BM2.jpg""style=""height:400px;""></img>",5,html-button-response,215,1001864,0.0-16.0-10.0,49395,List2A,white,woman,,TRUE,5,,,,,
null,CORRECT,,html-keyboard-response,216,1003367,0.0-16.0-11.0-0.0,49395,List2A,white,woman,,,,null,,,,
1588,"<img src=""portrait/WW2.jpg""style=""height:400px;""></img>",3,html-button-response,217,1004960,0.0-16.0-13.0,49395,List2A,white,woman,,TRUE,3,,,,,
null,CORRECT,,html-keyboard-response,218,1006464,0.0-16.0-14.0-0.0,49395,List2A,white,woman,,,,null,,,,
2162,"<img src=""portrait/BW2.jpg""style=""height:400px;""></img>",2,html-button-response,219,1008632,0.0-16.0-16.0,49395,List2A,white,woman,,TRUE,2,,,,,
null,CORRECT,,html-keyboard-response,220,1010140,0.0-16.0-17.0-0.0,49395,List2A,white,woman,,,,null,,,,
1953,"<img src=""portrait/WW1.jpg""style=""height:400px;""></img>",1,html-button-response,221,1012104,0.0-16.0-19.0,49395,List2A,white,woman,,TRUE,1,,,,,
null,CORRECT,,html-keyboard-response,222,1013607,0.0-16.0-20.0-0.0,49395,List2A,white,woman,,,,null,,,,
1830,"<img src=""portrait/WM2.jpg""style=""height:400px;""></img>",7,html-button-response,223,1015443,0.0-16.0-22.0,49395,List2A,white,woman,,TRUE,7,,,,,
null,CORRECT,,html-keyboard-response,224,1016957,0.0-16.0-23.0-0.0,49395,List2A,white,woman,,,,null,,,,
1652,<p>You got 8 out of 8 right first time. Press Continue.</p>,0,html-button-response,225,1018621,0.0-16.0-25.0,49395,List2A,white,woman,,,,,,,,
null,"<div style=""font-size:60px;"">+</div>",,html-keyboard-response,226,1020133,0.0-17.0-0.0,49395,List2A,white,woman,,,,null,,,,
null,"<img src=""stim_listA/dance1.gif""style=""height:400px;""></stim_listA>",,html-keyboard-response,227,1022145,0.0-17.0-1.0,49395,List2A,white,woman,,,,null,,,,
null,is dancing with,,html-keyboard-response,228,1024153,0.0-17.0-2.0,49395,List2A,white,woman,,,,null,,,,
8305,,,survey-text,229,1032468,0.0-17.0-3.0,49395,List2A,white,woman,,,,,"{""Q0"":""Jane is dancing with Luke""}","<img src=""stim_listA/dance1.gif""style=""height:400px;""></stim_listA>",is dancing with,
null,"<div style=""font-size:60px;"">+</div>",,html-keyboard-response,230,1032979,0.0-17.0-0.1,49395,List2A,white,woman,,,,null,,,,
null,"<img src=""stim_listA/touch2.gif""style=""height:400px;""></stim_listA>",,html-keyboard-response,231,1034990,0.0-17.0-1.1,49395,List2A,white,woman,,,,null,,,,
null,are touching each other,,html-keyboard-response,232,1036997,0.0-17.0-2.1,49395,List2A,white,woman,,,,null,,,,
11465,,,survey-text,233,1048474,0.0-17.0-3.1,49395,List2A,white,woman,,,,,"{""Q0"":""Luke and ruth are touching each other""}","<img src=""stim_listA/touch2.gif""style=""height:400px;""></stim_listA>",are touching each other,
null,"<div style=""font-size:60px;"">+</div>",,html-keyboard-response,234,1048985,0.0-17.0-0.2,49395,List2A,white,woman,,,,null,,,,
null,"<img src=""stim_listA/fight8.gif""style=""height:400px;""></stim_listA>",,html-keyboard-response,235,1051006,0.0-17.0-1.2,49395,List2A,white,woman,,,,null,,,,
null,are fighting each other,,html-keyboard-response,236,1053012,0.0-17.0-2.2,49395,List2A,white,woman,,,,null,,,,
10755,,,survey-text,237,1063774,0.0-17.0-3.2,49395,List2A,white,woman,,,,,"{""Q0"":""Ruth and Beth are fighting each other""}","<img src=""stim_listA/fight8.gif""style=""height:400px;""></stim_listA>",are fighting each other,
null,"<div style=""font-size:60px;"">+</div>",,html-keyboard-response,238,1064288,0.0-17.0-0.3,49395,List2A,white,woman,,,,null,,,,
null,"<img src=""stim_listA/shout3.gif""style=""height:400px;""></stim_listA>",,html-keyboard-response,239,1066317,0.0-17.0-1.3,49395,List2A,white,woman,,,,null,,,,
null,is shouting at,,html-keyboard-response,240,1068323,0.0-17.0-2.3,49395,List2A,white,woman,,,,null,,,,
8357,,,survey-text,241,1076686,0.0-17.0-3.3,49395,List2A,white,woman,,,,,"{""Q0"":""Beth is shouting at fred""}","<img src=""stim_listA/shout3.gif""style=""height:400px;""></stim_listA>",is shouting at,
null,"<div style=""font-size:60px;"">+</div>",,html-keyboard-response,242,1077195,0.0-17.0-0.4,49395,List2A,white,woman,,,,null,,,,
null,"<img src=""stim_listA/play2.gif""style=""height:400px;""></stim_listA>",,html-keyboard-response,243,1079207,0.0-17.0-1.4,49395,List2A,white,woman,,,,null,,,,
null,are playing with each other,,html-keyboard-response,244,1081216,0.0-17.0-2.4,49395,List2A,white,woman,,,,null,,,,
11316,,,survey-text,245,1092544,0.0-17.0-3.4,49395,List2A,white,woman,,,,,"{""Q0"":""Ruth and Luke are playing with each other""}","<img src=""stim_listA/play2.gif""style=""height:400px;""></stim_listA>",are playing with each other,
null,"<div style=""font-size:60px;"">+</div>",,html-keyboard-response,246,1093053,0.0-17.0-0.5,49395,List2A,white,woman,,,,null,,,,
null,"<img src=""stim_listA/play5.gif""style=""height:400px;""></stim_listA>",,html-keyboard-response,247,1095066,0.0-17.0-1.5,49395,List2A,white,woman,,,,null,,,,
null,is playing with,,html-keyboard-response,248,1097075,0.0-17.0-2.5,49395,List2A,white,woman,,,,null,,,,
7924,,,survey-text,249,1105009,0.0-17.0-3.5,49395,List2A,white,woman,,,,,"{""Q0"":""Mike is playing with Dave""}","<img src=""stim_listA/play5.gif""style=""height:400px;""></stim_listA>",is playing with,
null,"<div style=""font-size:60px;"">+</div>",,html-keyboard-response,250,1105517,0.0-17.0-0.6,49395,List2A,white,woman,,,,null,,,,
null,"<img src=""stim_listA/dance8.gif""style=""height:400px;""></stim_listA>",,html-keyboard-response,251,1107529,0.0-17.0-1.6,49395,List2A,white,woman,,,,null,,,,
null,are dancing with each other,,html-keyboard-response,252,1109536,0.0-17.0-2.6,49395,List2A,white,woman,,,,null,,,,
10750,,,survey-text,253,1120296,0.0-17.0-3.6,49395,List2A,white,woman,,,,,"{""Q0"":""Beth and Jane are dancing with each other""}","<img src=""stim_listA/dance8.gif""style=""height:400px;""></stim_listA>",are dancing with each other,
null,"<div style=""font-size:60px;"">+</div>",,html-keyboard-response,254,1120803,0.0-17.0-0.7,49395,List2A,white,woman,,,,null,,,,
null,"<img src=""stim_listA/flirt6.gif""style=""height:400px;""></stim_listA>",,html-keyboard-response,255,1122815,0.0-17.0-1.7,49395,List2A,white,woman,,,,null,,,,
null,are flirting with each other,,html-keyboard-response,256,1124823,0.0-17.0-2.7,49395,List2A,white,woman,,,,null,,,,
11351,,,survey-text,257,1136190,0.0-17.0-3.7,49395,List2A,white,woman,,,,,"{""Q0"":""Fred and Dave are flirting with each other""}","<img src=""stim_listA/flirt6.gif""style=""height:400px;""></stim_listA>",are flirting with each other,
null,"<div style=""font-size:60px;"">+</div>",,html-keyboard-response,258,1136698,0.0-17.0-0.8,49395,List2A,white,woman,,,,null,,,,
null,"<img src=""stim_listA/talk1.gif""style=""height:400px;""></stim_listA>",,html-keyboard-response,259,1138717,0.0-17.0-1.8,49395,List2A,white,woman,,,,null,,,,
null,is talking to,,html-keyboard-response,260,1140744,0.0-17.0-2.8,49395,List2A,white,woman,,,,null,,,,
7716,,,survey-text,261,1148472,0.0-17.0-3.8,49395,List2A,white,woman,,,,,"{""Q0"":""Luke is talking to Jane""}","<img src=""stim_listA/talk1.gif""style=""height:400px;""></stim_listA>",is talking to,
null,"<div style=""font-size:60px;"">+</div>",,html-keyboard-response,262,1148981,0.0-17.0-0.9,49395,List2A,white,woman,,,,null,,,,
null,"<img src=""stim_listA/shout2.gif""style=""height:400px;""></stim_listA>",,html-keyboard-response,263,1150992,0.0-17.0-1.9,49395,List2A,white,woman,,,,null,,,,
null,are shouting at each other,,html-keyboard-response,264,1153001,0.0-17.0-2.9,49395,List2A,white,woman,,,,null,,,,
11802,,,survey-text,265,1164812,0.0-17.0-3.9,49395,List2A,white,woman,,,,,"{""Q0"":""Jane and Dave are shouting at each other ""}","<img src=""stim_listA/shout2.gif""style=""height:400px;""></stim_listA>",are shouting at each other,
null,"<div style=""font-size:60px;"">+</div>",,html-keyboard-response,266,1165316,0.0-17.0-0.10,49395,List2A,white,woman,,,,null,,,,
null,"<img src=""stim_listA/kiss8.gif""style=""height:400px;""></stim_listA>",,html-keyboard-response,267,1167323,0.0-17.0-1.10,49395,List2A,white,woman,,,,null,,,,
null,are kissing each other,,html-keyboard-response,268,1169330,0.0-17.0-2.10,49395,List2A,white,woman,,,,null,,,,
12048,,,survey-text,269,1181389,0.0-17.0-3.10,49395,List2A,white,woman,,,,,"{""Q0"":""Jane and Kate are kissing each other""}","<img src=""stim_listA/kiss8.gif""style=""height:400px;""></stim_listA>",are kissing each other,
null,"<div style=""font-size:60px;"">+</div>",,html-keyboard-response,270,1181898,0.0-17.0-0.11,49395,List2A,white,woman,,,,null,,,,
null,"<img src=""stim_listA/touch8.gif""style=""height:400px;""></stim_listA>",,html-keyboard-response,271,1183915,0.0-17.0-1.11,49395,List2A,white,woman,,,,null,,,,
null,are touching each other,,html-keyboard-response,272,1185925,0.0-17.0-2.11,49395,List2A,white,woman,,,,null,,,,
14201,,,survey-text,273,1200136,0.0-17.0-3.11,49395,List2A,white,woman,,,,,"{""Q0"":""Beth and ruth are touching each other""}","<img src=""stim_listA/touch8.gif""style=""height:400px;""></stim_listA>",are touching each other,
null,"<div style=""font-size:60px;"">+</div>",,html-keyboard-response,274,1200647,0.0-17.0-0.12,49395,List2A,white,woman,,,,null,,,,
null,"<img src=""stim_listA/play7.gif""style=""height:400px;""></stim_listA>",,html-keyboard-response,275,1202658,0.0-17.0-1.12,49395,List2A,white,woman,,,,null,,,,
null,is playing with,,html-keyboard-response,276,1204664,0.0-17.0-2.12,49395,List2A,white,woman,,,,null,,,,
7360,,,survey-text,277,1212033,0.0-17.0-3.12,49395,List2A,white,woman,,,,,"{""Q0"":""Jane is playing with Kate""}","<img src=""stim_listA/play7.gif""style=""height:400px;""></stim_listA>",is playing with,
null,"<div style=""font-size:60px;"">+</div>",,html-keyboard-response,278,1212543,0.0-17.0-0.13,49395,List2A,white,woman,,,,null,,,,
null,"<img src=""stim_listA/dance4.gif""style=""height:400px;""></stim_listA>",,html-keyboard-response,279,1214557,0.0-17.0-1.13,49395,List2A,white,woman,,,,null,,,,
null,are dancing with each other,,html-keyboard-response,280,1216565,0.0-17.0-2.13,49395,List2A,white,woman,,,,null,,,,
11235,,,survey-text,281,1227811,0.0-17.0-3.13,49395,List2A,white,woman,,,,,"{""Q0"":""Mike and Beth are dancing with each other""}","<img src=""stim_listA/dance4.gif""style=""height:400px;""></stim_listA>",are dancing with each other,
null,"<div style=""font-size:60px;"">+</div>",,html-keyboard-response,282,1228320,0.0-17.0-0.14,49395,List2A,white,woman,,,,null,,,,
null,"<img src=""stim_listA/fight1.gif""style=""height:400px;""></stim_listA>",,html-keyboard-response,283,1230331,0.0-17.0-1.14,49395,List2A,white,woman,,,,null,,,,
null,is fighting,,html-keyboard-response,284,1232342,0.0-17.0-2.14,49395,List2A,white,woman,,,,null,,,,
6557,,,survey-text,285,1238909,0.0-17.0-3.14,49395,List2A,white,woman,,,,,"{""Q0"":""Jane is fighting Dave""}","<img src=""stim_listA/fight1.gif""style=""height:400px;""></stim_listA>",is fighting,
null,"<div style=""font-size:60px;"">+</div>",,html-keyboard-response,286,1239418,0.0-17.0-0.15,49395,List2A,white,woman,,,,null,,,,
null,"<img src=""stim_listA/touch1.gif""style=""height:400px;""></stim_listA>",,html-keyboard-response,287,1241433,0.0-17.0-1.15,49395,List2A,white,woman,,,,null,,,,
null,is touching,,html-keyboard-response,288,1243440,0.0-17.0-2.15,49395,List2A,white,woman,,,,null,,,,
6285,,,survey-text,289,1249733,0.0-17.0-3.15,49395,List2A,white,woman,,,,,"{""Q0"":""Jane is touching Dave""}","<img src=""stim_listA/touch1.gif""style=""height:400px;""></stim_listA>",is touching,
null,"<div style=""font-size:60px;"">+</div>",,html-keyboard-response,290,1250237,0.0-17.0-0.16,49395,List2A,white,woman,,,,null,,,,
null,"<img src=""stim_listA/marry8.gif""style=""height:400px;""></stim_listA>",,html-keyboard-response,291,1252243,0.0-17.0-1.16,49395,List2A,white,woman,,,,null,,,,
null,are marrying each other,,html-keyboard-response,292,1254250,0.0-17.0-2.16,49395,List2A,white,woman,,,,null,,,,
13223,,,survey-text,293,1267483,0.0-17.0-3.16,49395,List2A,white,woman,,,,,"{""Q0"":""Kate and ruth are marrying each other""}","<img src=""stim_listA/marry8.gif""style=""height:400px;""></stim_listA>",are marrying each other,
null,"<div style=""font-size:60px;"">+</div>",,html-keyboard-response,294,1267991,0.0-17.0-0.17,49395,List2A,white,woman,,,,null,,,,
null,"<img src=""stim_listA/marry1.gif""style=""height:400px;""></stim_listA>",,html-keyboard-response,295,1270004,0.0-17.0-1.17,49395,List2A,white,woman,,,,null,,,,
null,is marrying,,html-keyboard-response,296,1272013,0.0-17.0-2.17,49395,List2A,white,woman,,,,null,,,,
8101,,,survey-text,297,1280122,0.0-17.0-3.17,49395,List2A,white,woman,,,,,"{""Q0"":""Ruth is marrying Dave""}","<img src=""stim_listA/marry1.gif""style=""height:400px;""></stim_listA>",is marrying,
null,"<div style=""font-size:60px;"">+</div>",,html-keyboard-response,298,1280632,0.0-17.0-0.18,49395,List2A,white,woman,,,,null,,,,
null,"<img src=""stim_listA/kiss7.gif""style=""height:400px;""></stim_listA>",,html-keyboard-response,299,1282651,0.0-17.0-1.18,49395,List2A,white,woman,,,,null,,,,
null,is kissing,,html-keyboard-response,300,1284661,0.0-17.0-2.18,49395,List2A,white,woman,,,,null,,,,
6199,,,survey-text,301,1290869,0.0-17.0-3.18,49395,List2A,white,woman,,,,,"{""Q0"":""Ruth is kissing Beth""}","<img src=""stim_listA/kiss7.gif""style=""height:400px;""></stim_listA>",is kissing,
null,"<div style=""font-size:60px;"">+</div>",,html-keyboard-response,302,1291378,0.0-17.0-0.19,49395,List2A,white,woman,,,,null,,,,
null,"<img src=""stim_listA/kiss2.gif""style=""height:400px;""></stim_listA>",,html-keyboard-response,303,1293394,0.0-17.0-1.19,49395,List2A,white,woman,,,,null,,,,
null,are kissing each other,,html-keyboard-response,304,1295401,0.0-17.0-2.19,49395,List2A,white,woman,,,,null,,,,
9766,,,survey-text,305,1305178,0.0-17.0-3.19,49395,List2A,white,woman,,,,,"{""Q0"":""Jane and Dave are kissing each other""}","<img src=""stim_listA/kiss2.gif""style=""height:400px;""></stim_listA>",are kissing each other,
12968,"<img src='img/portrait_matrix_list2.jpg' style='width:900px;height:500px;''></img><p>If you have memorised all the portraits and names and are ready to start, press Continue.</p><p><strong>Please note: Your memory of these faces will be tested 4 times during this experiment.</strong></p>",0,html-button-response,306,1318156,0.0-18.0-0.0,49395,List2A,white,woman,,,,,,,,
1715,"<img src=""portrait/BM2.jpg""style=""height:400px;""></img>",5,html-button-response,307,1320886,0.0-18.0-1.0,49395,List2A,white,woman,,TRUE,5,,,,,
null,CORRECT,,html-keyboard-response,308,1322396,0.0-18.0-2.0-0.0,49395,List2A,white,woman,,,,null,,,,
1746,"<img src=""portrait/WM2.jpg""style=""height:400px;""></img>",7,html-button-response,309,1324154,0.0-18.0-4.0,49395,List2A,white,woman,,TRUE,7,,,,,
null,CORRECT,,html-keyboard-response,310,1325664,0.0-18.0-5.0-0.0,49395,List2A,white,woman,,,,null,,,,
3118,"<img src=""portrait/WM1.jpg""style=""height:400px;""></img>",6,html-button-response,311,1328796,0.0-18.0-7.0,49395,List2A,white,woman,,TRUE,6,,,,,
null,CORRECT,,html-keyboard-response,312,1330304,0.0-18.0-8.0-0.0,49395,List2A,white,woman,,,,null,,,,
2563,"<img src=""portrait/WW1.jpg""style=""height:400px;""></img>",1,html-button-response,313,1332878,0.0-18.0-10.0,49395,List2A,white,woman,,TRUE,1,,,,,
null,CORRECT,,html-keyboard-response,314,1334388,0.0-18.0-11.0-0.0,49395,List2A,white,woman,,,,null,,,,
7005,"<img src=""portrait/BW2.jpg""style=""height:400px;""></img>",2,html-button-response,315,1341407,0.0-18.0-13.0,49395,List2A,white,woman,,TRUE,2,,,,,
null,CORRECT,,html-keyboard-response,316,1342911,0.0-18.0-14.0-0.0,49395,List2A,white,woman,,,,null,,,,
2793,"<img src=""portrait/BW1.jpg""style=""height:400px;""></img>",0,html-button-response,317,1345712,0.0-18.0-16.0,49395,List2A,white,woman,,TRUE,0,,,,,
null,CORRECT,,html-keyboard-response,318,1347216,0.0-18.0-17.0-0.0,49395,List2A,white,woman,,,,null,,,,
1855,"<img src=""portrait/WW2.jpg""style=""height:400px;""></img>",3,html-button-response,319,1349079,0.0-18.0-19.0,49395,List2A,white,woman,,TRUE,3,,,,,
null,CORRECT,,html-keyboard-response,320,1350585,0.0-18.0-20.0-0.0,49395,List2A,white,woman,,,,null,,,,
2046,"<img src=""portrait/BM1.jpg""style=""height:400px;""></img>",4,html-button-response,321,1352636,0.0-18.0-22.0,49395,List2A,white,woman,,TRUE,4,,,,,
null,CORRECT,,html-keyboard-response,322,1354140,0.0-18.0-23.0-0.0,49395,List2A,white,woman,,,,null,,,,
1335,<p>You got 8 out of 8 right first time. Press Continue.</p>,0,html-button-response,323,1355479,0.0-18.0-25.0,49395,List2A,white,woman,,,,,,,,
null,"<div style=""font-size:60px;"">+</div>",,html-keyboard-response,324,1356985,0.0-19.0-0.0,49395,List2A,white,woman,,,,null,,,,
null,"<img src=""stim_listA/flirt7.gif""style=""height:400px;""></stim_listA>",,html-keyboard-response,325,1358991,0.0-19.0-1.0,49395,List2A,white,woman,,,,null,,,,
null,is flirting with,,html-keyboard-response,326,1360993,0.0-19.0-2.0,49395,List2A,white,woman,,,,null,,,,
9799,,,survey-text,327,1370794,0.0-19.0-3.0,49395,List2A,white,woman,,,,,"{""Q0"":""Ruth is flirting with Kate""}","<img src=""stim_listA/flirt7.gif""style=""height:400px;""></stim_listA>",is flirting with,
null,"<div style=""font-size:60px;"">+</div>",,html-keyboard-response,328,1371299,0.0-19.0-0.1,49395,List2A,white,woman,,,,null,,,,
null,"<img src=""stim_listA/dance3.gif""style=""height:400px;""></stim_listA>",,html-keyboard-response,329,1373307,0.0-19.0-1.1,49395,List2A,white,woman,,,,null,,,,
null,is dancing with,,html-keyboard-response,330,1375314,0.0-19.0-2.1,49395,List2A,white,woman,,,,null,,,,
7262,,,survey-text,331,1382585,0.0-19.0-3.1,49395,List2A,white,woman,,,,,"{""Q0"":""Fred is dancing with Kate""}","<img src=""stim_listA/dance3.gif""style=""height:400px;""></stim_listA>",is dancing with,
null,"<div style=""font-size:60px;"">+</div>",,html-keyboard-response,332,1383094,0.0-19.0-0.2,49395,List2A,white,woman,,,,null,,,,
null,"<img src=""stim_listA/play3.gif""style=""height:400px;""></stim_listA>",,html-keyboard-response,333,1385106,0.0-19.0-1.2,49395,List2A,white,woman,,,,null,,,,
null,is playing with,,html-keyboard-response,334,1387113,0.0-19.0-2.2,49395,List2A,white,woman,,,,null,,,,
7693,,,survey-text,335,1394816,0.0-19.0-3.2,49395,List2A,white,woman,,,,,"{""Q0"":""Mike is playing with Kate""}","<img src=""stim_listA/play3.gif""style=""height:400px;""></stim_listA>",is playing with,
null,"<div style=""font-size:60px;"">+</div>",,html-keyboard-response,336,1395323,0.0-19.0-0.3,49395,List2A,white,woman,,,,null,,,,
null,"<img src=""stim_listA/shout7.gif""style=""height:400px;""></stim_listA>",,html-keyboard-response,337,1397334,0.0-19.0-1.3,49395,List2A,white,woman,,,,null,,,,
null,is shouting at,,html-keyboard-response,338,1399340,0.0-19.0-2.3,49395,List2A,white,woman,,,,null,,,,
13147,,,survey-text,339,1412496,0.0-19.0-3.3,49395,List2A,white,woman,,,,,"{""Q0"":""Ruth is shouting at Beth""}","<img src=""stim_listA/shout7.gif""style=""height:400px;""></stim_listA>",is shouting at,
null,"<div style=""font-size:60px;"">+</div>",,html-keyboard-response,340,1413003,0.0-19.0-0.4,49395,List2A,white,woman,,,,null,,,,
null,"<img src=""stim_listA/fight7.gif""style=""height:400px;""></stim_listA>",,html-keyboard-response,341,1415009,0.0-19.0-1.4,49395,List2A,white,woman,,,,null,,,,
null,is fighting,,html-keyboard-response,342,1417012,0.0-19.0-2.4,49395,List2A,white,woman,,,,null,,,,
6650,,,survey-text,343,1423668,0.0-19.0-3.4,49395,List2A,white,woman,,,,,"{""Q0"":""Jane is fighting Kate""}","<img src=""stim_listA/fight7.gif""style=""height:400px;""></stim_listA>",is fighting,
null,"<div style=""font-size:60px;"">+</div>",,html-keyboard-response,344,1424177,0.0-19.0-0.5,49395,List2A,white,woman,,,,null,,,,
null,"<img src=""stim_listA/touch5.gif""style=""height:400px;""></stim_listA>",,html-keyboard-response,345,1426182,0.0-19.0-1.5,49395,List2A,white,woman,,,,null,,,,
null,is touching,,html-keyboard-response,346,1428189,0.0-19.0-2.5,49395,List2A,white,woman,,,,null,,,,
7883,,,survey-text,347,1436077,0.0-19.0-3.5,49395,List2A,white,woman,,,,,"{""Q0"":""Mike is touching Dave""}","<img src=""stim_listA/touch5.gif""style=""height:400px;""></stim_listA>",is touching,
null,"<div style=""font-size:60px;"">+</div>",,html-keyboard-response,348,1436586,0.0-19.0-0.6,49395,List2A,white,woman,,,,null,,,,
null,"<img src=""stim_listA/fight3.gif""style=""height:400px;""></stim_listA>",,html-keyboard-response,349,1438606,0.0-19.0-1.6,49395,List2A,white,woman,,,,null,,,,
null,is fighting,,html-keyboard-response,350,1440613,0.0-19.0-2.6,49395,List2A,white,woman,,,,null,,,,
6737,,,survey-text,351,1447358,0.0-19.0-3.6,49395,List2A,white,woman,,,,,"{""Q0"":""Mike is fighting Kate""}","<img src=""stim_listA/fight3.gif""style=""height:400px;""></stim_listA>",is fighting,
null,"<div style=""font-size:60px;"">+</div>",,html-keyboard-response,352,1447865,0.0-19.0-0.7,49395,List2A,white,woman,,,,null,,,,
null,"<img src=""stim_listA/flirt3.gif""style=""height:400px;""></stim_listA>",,html-keyboard-response,353,1449873,0.0-19.0-1.7,49395,List2A,white,woman,,,,null,,,,
null,is flirting with,,html-keyboard-response,354,1451884,0.0-19.0-2.7,49395,List2A,white,woman,,,,null,,,,
7964,,,survey-text,355,1459857,0.0-19.0-3.7,49395,List2A,white,woman,,,,,"{""Q0"":""Kate is flirting with fred""}","<img src=""stim_listA/flirt3.gif""style=""height:400px;""></stim_listA>",is flirting with,
null,"<div style=""font-size:60px;"">+</div>",,html-keyboard-response,356,1460367,0.0-19.0-0.8,49395,List2A,white,woman,,,,null,,,,
null,"<img src=""stim_listA/flirt8.gif""style=""height:400px;""></stim_listA>",,html-keyboard-response,357,1462383,0.0-19.0-1.8,49395,List2A,white,woman,,,,null,,,,
null,are flirting with each other,,html-keyboard-response,358,1464393,0.0-19.0-2.8,49395,List2A,white,woman,,,,null,,,,
13711,,,survey-text,359,1478115,0.0-19.0-3.8,49395,List2A,white,woman,,,,,"{""Q0"":""Beth and Jane are flirting with each other""}","<img src=""stim_listA/flirt8.gif""style=""height:400px;""></stim_listA>",are flirting with each other,
null,"<div style=""font-size:60px;"">+</div>",,html-keyboard-response,360,1478624,0.0-19.0-0.9,49395,List2A,white,woman,,,,null,,,,
null,"<img src=""stim_listA/talk5.gif""style=""height:400px;""></stim_listA>",,html-keyboard-response,361,1480639,0.0-19.0-1.9,49395,List2A,white,woman,,,,null,,,,
null,is talking to,,html-keyboard-response,362,1482646,0.0-19.0-2.9,49395,List2A,white,woman,,,,null,,,,
8585,,,survey-text,363,1491250,0.0-19.0-3.9,49395,List2A,white,woman,,,,,"{""Q0"":""Luke is talking to Mike""}","<img src=""stim_listA/talk5.gif""style=""height:400px;""></stim_listA>",is talking to,
null,"<div style=""font-size:60px;"">+</div>",,html-keyboard-response,364,1491763,0.0-19.0-0.10,49395,List2A,white,woman,,,,null,,,,
null,"<img src=""stim_listA/play4.gif""style=""height:400px;""></stim_listA>",,html-keyboard-response,365,1493777,0.0-19.0-1.10,49395,List2A,white,woman,,,,null,,,,
null,are playing with each other,,html-keyboard-response,366,1495782,0.0-19.0-2.10,49395,List2A,white,woman,,,,null,,,,
10284,,,survey-text,367,1506072,0.0-19.0-3.10,49395,List2A,white,woman,,,,,"{""Q0"":""Beth and fred are playing with each other""}","<img src=""stim_listA/play4.gif""style=""height:400px;""></stim_listA>",are playing with each other,
null,"<div style=""font-size:60px;"">+</div>",,html-keyboard-response,368,1506581,0.0-19.0-0.11,49395,List2A,white,woman,,,,null,,,,
null,"<img src=""stim_listA/play1.gif""style=""height:400px;""></stim_listA>",,html-keyboard-response,369,1508593,0.0-19.0-1.11,49395,List2A,white,woman,,,,null,,,,
null,is playing with,,html-keyboard-response,370,1510600,0.0-19.0-2.11,49395,List2A,white,woman,,,,null,,,,
6426,,,survey-text,371,1517033,0.0-19.0-3.11,49395,List2A,white,woman,,,,,"{""Q0"":""Jane is playing with Dave""}","<img src=""stim_listA/play1.gif""style=""height:400px;""></stim_listA>",is playing with,
null,"<div style=""font-size:60px;"">+</div>",,html-keyboard-response,372,1517542,0.0-19.0-0.12,49395,List2A,white,woman,,,,null,,,,
null,"<img src=""stim_listA/kiss6.gif""style=""height:400px;""></stim_listA>",,html-keyboard-response,373,1519555,0.0-19.0-1.12,49395,List2A,white,woman,,,,null,,,,
null,are kissing each other,,html-keyboard-response,374,1521563,0.0-19.0-2.12,49395,List2A,white,woman,,,,null,,,,
11417,,,survey-text,375,1533002,0.0-19.0-3.12,49395,List2A,white,woman,,,,,"{""Q0"":""Mike and Dave are kidding each other""}","<img src=""stim_listA/kiss6.gif""style=""height:400px;""></stim_listA>",are kissing each other,
null,"<div style=""font-size:60px;"">+</div>",,html-keyboard-response,376,1533514,0.0-19.0-0.13,49395,List2A,white,woman,,,,null,,,,
null,"<img src=""stim_listA/flirt4.gif""style=""height:400px;""></stim_listA>",,html-keyboard-response,377,1535523,0.0-19.0-1.13,49395,List2A,white,woman,,,,null,,,,
null,are flirting with each other,,html-keyboard-response,378,1537527,0.0-19.0-2.13,49395,List2A,white,woman,,,,null,,,,
10827,,,survey-text,379,1548360,0.0-19.0-3.13,49395,List2A,white,woman,,,,,"{""Q0"":""Mike and Beth are flirting with each other""}","<img src=""stim_listA/flirt4.gif""style=""height:400px;""></stim_listA>",are flirting with each other,
null,"<div style=""font-size:60px;"">+</div>",,html-keyboard-response,380,1548869,0.0-19.0-0.14,49395,List2A,white,woman,,,,null,,,,
null,"<img src=""stim_listA/flirt2.gif""style=""height:400px;""></stim_listA>",,html-keyboard-response,381,1550882,0.0-19.0-1.14,49395,List2A,white,woman,,,,null,,,,
null,are flirting with each other,,html-keyboard-response,382,1552887,0.0-19.0-2.14,49395,List2A,white,woman,,,,null,,,,
11215,,,survey-text,383,1564109,0.0-19.0-3.14,49395,List2A,white,woman,,,,,"{""Q0"":""Ruth and Dave are flirting with each other ""}","<img src=""stim_listA/flirt2.gif""style=""height:400px;""></stim_listA>",are flirting with each other,
null,"<div style=""font-size:60px;"">+</div>",,html-keyboard-response,384,1564623,0.0-19.0-0.15,49395,List2A,white,woman,,,,null,,,,
null,"<img src=""stim_listA/shout1.gif""style=""height:400px;""></stim_listA>",,html-keyboard-response,385,1566641,0.0-19.0-1.15,49395,List2A,white,woman,,,,null,,,,
null,is shouting at,,html-keyboard-response,386,1568656,0.0-19.0-2.15,49395,List2A,white,woman,,,,null,,,,
7586,,,survey-text,387,1576258,0.0-19.0-3.15,49395,List2A,white,woman,,,,,"{""Q0"":""Luke is shouting at ruth""}","<img src=""stim_listA/shout1.gif""style=""height:400px;""></stim_listA>",is shouting at,
null,"<div style=""font-size:60px;"">+</div>",,html-keyboard-response,388,1576768,0.0-19.0-0.16,49395,List2A,white,woman,,,,null,,,,
null,"<img src=""stim_listA/marry6.gif""style=""height:400px;""></stim_listA>",,html-keyboard-response,389,1578780,0.0-19.0-1.16,49395,List2A,white,woman,,,,null,,,,
null,are marrying each other,,html-keyboard-response,390,1580789,0.0-19.0-2.16,49395,List2A,white,woman,,,,null,,,,
10152,,,survey-text,391,1590951,0.0-19.0-3.16,49395,List2A,white,woman,,,,,"{""Q0"":""Luke and Mike are marrying each other""}","<img src=""stim_listA/marry6.gif""style=""height:400px;""></stim_listA>",are marrying each other,
null,"<div style=""font-size:60px;"">+</div>",,html-keyboard-response,392,1591460,0.0-19.0-0.17,49395,List2A,white,woman,,,,null,,,,
null,"<img src=""stim_listA/kiss1.gif""style=""height:400px;""></stim_listA>",,html-keyboard-response,393,1593473,0.0-19.0-1.17,49395,List2A,white,woman,,,,null,,,,
null,is kissing,,html-keyboard-response,394,1595496,0.0-19.0-2.17,49395,List2A,white,woman,,,,null,,,,
8146,,,survey-text,395,1603653,0.0-19.0-3.17,49395,List2A,white,woman,,,,,"{""Q0"":""Luke is kissing ruth ""}","<img src=""stim_listA/kiss1.gif""style=""height:400px;""></stim_listA>",is kissing,
null,"<div style=""font-size:60px;"">+</div>",,html-keyboard-response,396,1604166,0.0-19.0-0.18,49395,List2A,white,woman,,,,null,,,,
null,"<img src=""stim_listA/touch6.gif""style=""height:400px;""></stim_listA>",,html-keyboard-response,397,1606180,0.0-19.0-1.18,49395,List2A,white,woman,,,,null,,,,
null,are touching each other,,html-keyboard-response,398,1608190,0.0-19.0-2.18,49395,List2A,white,woman,,,,null,,,,
10643,,,survey-text,399,1618853,0.0-19.0-3.18,49395,List2A,white,woman,,,,,"{""Q0"":""Fred and Luke are touching each other""}","<img src=""stim_listA/touch6.gif""style=""height:400px;""></stim_listA>",are touching each other,
null,"<div style=""font-size:60px;"">+</div>",,html-keyboard-response,400,1619362,0.0-19.0-0.19,49395,List2A,white,woman,,,,null,,,,
null,"<img src=""stim_listA/marry2.gif""style=""height:400px;""></stim_listA>",,html-keyboard-response,401,1621378,0.0-19.0-1.19,49395,List2A,white,woman,,,,null,,,,
null,are marrying each other,,html-keyboard-response,402,1623402,0.0-19.0-2.19,49395,List2A,white,woman,,,,null,,,,
10300,,,survey-text,403,1633715,0.0-19.0-3.19,49395,List2A,white,woman,,,,,"{""Q0"":""Luke and Jane are marrying each other""}","<img src=""stim_listA/marry2.gif""style=""height:400px;""></stim_listA>",are marrying each other,
3425,<p>Thank you for completing that task.</p><p>The final part of this session is a short questionnaire.</p><p>Press Continue.</p>,0,html-button-response,404,1637151,0.0-20.0,49395,List2A,white,woman,,,,,,,,
20579,,,survey-text,405,1658743,0.0-21.0,49395,List2A,white,woman,,,,,"{""Q0"":""42"",""Q1"":""English"",""Q2"":""English"",""Q3"":""England"",""Q4"":""White"",""Q5"":""Female""}",,,demographics
9489,,,survey-likert,406,1668253,0.0-22.0,49395,List2A,white,woman,,,,,"{""Q0"":4}",,,likert_ESS
8838,,,survey-likert,407,1677096,0.0-23.0,49395,List2A,white,woman,,,,,"{""Q0"":4}",,,likert_NSSAL_Q1
5089,,,survey-likert,408,1682192,0.0-24.0,49395,List2A,white,woman,,,,,"{""Q0"":4}",,,likert_NSSAL_Q2
4580,,,survey-likert,409,1686778,0.0-25.0,49395,List2A,white,woman,,,,,"{""Q0"":4}",,,likert_CGRS_Q1
3003,,,survey-likert,410,1689787,0.0-26.0,49395,List2A,white,woman,,,,,"{""Q0"":4}",,,likert_CGRS_Q2
2858,,,survey-likert,411,1692651,0.0-27.0,49395,List2A,white,woman,,,,,"{""Q0"":4}",,,likert_CGRS_Q3
4677,,,survey-text,412,1697334,0.0-28.0,49395,List2A,white,woman,,,,,"{""Q0"":""ccc""}",,,worker_id
24297,,,external-html,413,1721757,0.0-29.0,49395,List2A,white,woman,debrief.html,,,,,,,
