rt,stimulus,button_pressed,trial_type,trial_index,time_elapsed,internal_node_id,subject,list,ppt_race,ppt_gender,url,first_guess,correct,key_press,responses,image_type,phrase_type,test_part
652986,Welcome to the experiment. Press Continue to begin.,0,html-button-response,0,652989,0.0-0.0,49490,List2A,black,man,,,,,,,,
6608,,,external-html,1,661246,0.0-1.0,49490,List2A,black,man,consent.html,,,,,,,
13208,"<p>On the next page, you will see portraits of 8 people and their names.</p><p>Your first task is to take a few minutes to memorise the names of these people.</p><p>You will have to recall their names during the rest of the experiment, so it is</p><p>essential that you try to memorise these people and their names as best as you can.</p><br><p><strong>You will then be tested on your memory of these names and portraits.</strong></p><br><p>The experiment will start after you have completed this memory test.</p><br><p>Ready?</p>",0,html-button-response,2,674455,0.0-2.0,49490,List2A,black,man,,,,,,,,
51005,"<img src='img/portrait_matrix_list2.jpg' style='width:900px;height:500px;''></img><p>If you have memorised all the portraits and names and are ready to start, press Continue.</p><p><strong>Please note: Your memory of these faces will be tested 4 times during this experiment.</strong></p>",0,html-button-response,3,726474,0.0-3.0-0.0,49490,List2A,black,man,,,,,,,,
7797,"<img src=""portrait/BM1.jpg""style=""height:400px;""></img>",4,html-button-response,4,735284,0.0-3.0-1.0,49490,List2A,black,man,,TRUE,4,,,,,
null,CORRECT,,html-keyboard-response,5,736790,0.0-3.0-2.0-0.0,49490,List2A,black,man,,,,null,,,,
4366,"<img src=""portrait/WM1.jpg""style=""height:400px;""></img>",6,html-button-response,6,741158,0.0-3.0-4.0,49490,List2A,black,man,,TRUE,6,,,,,
null,CORRECT,,html-keyboard-response,7,742662,0.0-3.0-5.0-0.0,49490,List2A,black,man,,,,null,,,,
9634,"<img src=""portrait/BW2.jpg""style=""height:400px;""></img>",3,html-button-response,8,752298,0.0-3.0-7.0,49490,List2A,black,man,,TRUE,2,,,,,
3312,"<img src=""portrait/BW2.jpg""style=""height:400px;""></img>",2,html-button-response,9,756618,0.0-3.0-9.0-0.0,49490,List2A,black,man,,FALSE,2,,,,,
null,CORRECT,,html-keyboard-response,10,758135,0.0-3.0-9.0-1.0-0.0,49490,List2A,black,man,,,,null,,,,
2465,"<img src=""portrait/WM2.jpg""style=""height:400px;""></img>",7,html-button-response,11,760601,0.0-3.0-10.0,49490,List2A,black,man,,TRUE,7,,,,,
null,CORRECT,,html-keyboard-response,12,762116,0.0-3.0-11.0-0.0,49490,List2A,black,man,,,,null,,,,
5876,"<img src=""portrait/WW1.jpg""style=""height:400px;""></img>",1,html-button-response,13,767994,0.0-3.0-13.0,49490,List2A,black,man,,TRUE,1,,,,,
null,CORRECT,,html-keyboard-response,14,769497,0.0-3.0-14.0-0.0,49490,List2A,black,man,,,,null,,,,
4685,"<img src=""portrait/BM2.jpg""style=""height:400px;""></img>",4,html-button-response,15,774184,0.0-3.0-16.0,49490,List2A,black,man,,TRUE,5,,,,,
1413,"<img src=""portrait/BM2.jpg""style=""height:400px;""></img>",5,html-button-response,16,776602,0.0-3.0-18.0-0.0,49490,List2A,black,man,,FALSE,5,,,,,
null,CORRECT,,html-keyboard-response,17,778104,0.0-3.0-18.0-1.0-0.0,49490,List2A,black,man,,,,null,,,,
3458,"<img src=""portrait/BW1.jpg""style=""height:400px;""></img>",0,html-button-response,18,781564,0.0-3.0-19.0,49490,List2A,black,man,,TRUE,0,,,,,
null,CORRECT,,html-keyboard-response,19,783067,0.0-3.0-20.0-0.0,49490,List2A,black,man,,,,null,,,,
3491,"<img src=""portrait/WW2.jpg""style=""height:400px;""></img>",3,html-button-response,20,786559,0.0-3.0-22.0,49490,List2A,black,man,,TRUE,3,,,,,
null,CORRECT,,html-keyboard-response,21,788062,0.0-3.0-23.0-0.0,49490,List2A,black,man,,,,null,,,,
1713,<p>You got 6 out of 8 right first time. Press Continue.</p>,0,html-button-response,22,789777,0.0-3.0-25.0,49490,List2A,black,man,,,,,,,,
3173,"As you did not score 100%, the memory game will repeat. Press Continue.",0,html-button-response,23,793954,0.0-3.0-26.0-0.0,49490,List2A,black,man,,,,,,,,
29982,"<img src='img/portrait_matrix_list2.jpg' style='width:900px;height:500px;''></img><p>If you have memorised all the portraits and names and are ready to start, press Continue.</p><p><strong>Please note: Your memory of these faces will be tested 4 times during this experiment.</strong></p>",0,html-button-response,24,824940,0.0-3.1-0.1,49490,List2A,black,man,,,,,,,,
4678,"<img src=""portrait/BM1.jpg""style=""height:400px;""></img>",4,html-button-response,25,830637,0.0-3.1-1.1,49490,List2A,black,man,,TRUE,4,,,,,
null,CORRECT,,html-keyboard-response,26,832143,0.0-3.1-2.1-0.1,49490,List2A,black,man,,,,null,,,,
4554,"<img src=""portrait/WM1.jpg""style=""height:400px;""></img>",6,html-button-response,27,836700,0.0-3.1-4.1,49490,List2A,black,man,,TRUE,6,,,,,
null,CORRECT,,html-keyboard-response,28,838223,0.0-3.1-5.1-0.1,49490,List2A,black,man,,,,null,,,,
3260,"<img src=""portrait/BW2.jpg""style=""height:400px;""></img>",2,html-button-response,29,841484,0.0-3.1-7.1,49490,List2A,black,man,,TRUE,2,,,,,
null,CORRECT,,html-keyboard-response,30,843002,0.0-3.1-8.1-0.1,49490,List2A,black,man,,,,null,,,,
5264,"<img src=""portrait/WM2.jpg""style=""height:400px;""></img>",7,html-button-response,31,848269,0.0-3.1-10.1,49490,List2A,black,man,,TRUE,7,,,,,
null,CORRECT,,html-keyboard-response,32,849771,0.0-3.1-11.1-0.1,49490,List2A,black,man,,,,null,,,,
3050,"<img src=""portrait/WW1.jpg""style=""height:400px;""></img>",1,html-button-response,33,852823,0.0-3.1-13.1,49490,List2A,black,man,,TRUE,1,,,,,
null,CORRECT,,html-keyboard-response,34,854343,0.0-3.1-14.1-0.1,49490,List2A,black,man,,,,null,,,,
3956,"<img src=""portrait/BM2.jpg""style=""height:400px;""></img>",5,html-button-response,35,858301,0.0-3.1-16.1,49490,List2A,black,man,,TRUE,5,,,,,
null,CORRECT,,html-keyboard-response,36,859808,0.0-3.1-17.1-0.1,49490,List2A,black,man,,,,null,,,,
3419,"<img src=""portrait/BW1.jpg""style=""height:400px;""></img>",0,html-button-response,37,863229,0.0-3.1-19.1,49490,List2A,black,man,,TRUE,0,,,,,
null,CORRECT,,html-keyboard-response,38,864739,0.0-3.1-20.1-0.1,49490,List2A,black,man,,,,null,,,,
3416,"<img src=""portrait/WW2.jpg""style=""height:400px;""></img>",3,html-button-response,39,868157,0.0-3.1-22.1,49490,List2A,black,man,,TRUE,3,,,,,
null,CORRECT,,html-keyboard-response,40,869662,0.0-3.1-23.1-0.1,49490,List2A,black,man,,,,null,,,,
1385,<p>You got 8 out of 8 right first time. Press Continue.</p>,0,html-button-response,41,871049,0.0-3.1-25.1,49490,List2A,black,man,,,,,,,,
26744,"<p>In this experiment, you will view photographs of the people from the memory game interacting.</p><p>By using the <strong>exact</strong> phrase given <i>after</i> the photograph appears and recalling the correct names of the people in the photographs, form a sentence describing the interaction. You do not need to capitalise names.</p><p>Type your answer in the space provided. Please complete every sentence before moving onto the next trial.</p><p>You will only have a few seconds to memorise each given photograph and phrase before you can respond, so try your best to focus.</p><p>An example is given below. Press 'Continue' when you are ready.</p><img src='img/speaking_example.jpg' style='width:800px;height:460px;''></img>",0,html-button-response,42,898797,0.0-4.0,49490,List2A,black,man,,,,,,,,
2181,"<p>Before the experiment starts, you will watch two example trials. Press 'Continue'.</p>",0,html-button-response,43,901981,0.0-5.0,49490,List2A,black,man,,,,,,,,
null,<img src='img/meet_eg.gif' style='height:400px;''></img>,,html-keyboard-response,44,905001,0.0-6.0,49490,List2A,black,man,,,,null,,,,
null,<p>is meeting</p>,,html-keyboard-response,45,907003,0.0-7.0,49490,List2A,black,man,,,,null,,,,
1989,<p><b>Answer:</b> jane is meeting ruth</p>,0,html-button-response,46,908993,0.0-8.0,49490,List2A,black,man,,,,,,,,
null,<img src='img/look_eg.gif' style='height:400px;''></img>,,html-keyboard-response,47,911995,0.0-9.0,49490,List2A,black,man,,,,null,,,,
null,<p>are looking at each other</p>,,html-keyboard-response,48,914005,0.0-10.0,49490,List2A,black,man,,,,null,,,,
1478,<p><b>Answer:</b> fred and mike are looking at each other</p>,0,html-button-response,49,915483,0.0-11.0,49490,List2A,black,man,,,,,,,,
6672,"<p>Ready to start the experiment?</p><br><p><strong>Remember to describe the picture using a full sentence,</strong></p><p><strong>that combines the names of the people with the <i>exact</i> phrase given.</strong></p><p><strong>To receive full payment you must do this correctly.</strong></p><p><strong> You do not need to capitalise names or use punctuation.</strong></p><br><p>Press 'Continue' to begin.</p>",0,html-button-response,50,923169,0.0-12.0,49490,List2A,black,man,,,,,,,,
null,"<div style=""font-size:60px;"">+</div>",,html-keyboard-response,51,924684,0.0-13.0-0.0,49490,List2A,black,man,,,,null,,,,
null,"<img src=""stim_listA/flirt8.gif""style=""height:400px;""></stim_listA>",,html-keyboard-response,52,926687,0.0-13.0-1.0,49490,List2A,black,man,,,,null,,,,
null,are flirting with each other,,html-keyboard-response,53,928689,0.0-13.0-2.0,49490,List2A,black,man,,,,null,,,,
12909,,,survey-text,54,941600,0.0-13.0-3.0,49490,List2A,black,man,,,,,"{""Q0"":""beth is looking at jane""}","<img src=""stim_listA/flirt8.gif""style=""height:400px;""></stim_listA>",are flirting with each other,
null,"<div style=""font-size:60px;"">+</div>",,html-keyboard-response,55,942112,0.0-13.0-0.1,49490,List2A,black,man,,,,null,,,,
null,"<img src=""stim_listA/play3.gif""style=""height:400px;""></stim_listA>",,html-keyboard-response,56,944113,0.0-13.0-1.1,49490,List2A,black,man,,,,null,,,,
null,is playing with,,html-keyboard-response,57,946126,0.0-13.0-2.1,49490,List2A,black,man,,,,null,,,,
13701,,,survey-text,58,959828,0.0-13.0-3.1,49490,List2A,black,man,,,,,"{""Q0"":""mike is looking at kate.""}","<img src=""stim_listA/play3.gif""style=""height:400px;""></stim_listA>",is playing with,
null,"<div style=""font-size:60px;"">+</div>",,html-keyboard-response,59,960331,0.0-13.0-0.2,49490,List2A,black,man,,,,null,,,,
null,"<img src=""stim_listA/shout8.gif""style=""height:400px;""></stim_listA>",,html-keyboard-response,60,962339,0.0-13.0-1.2,49490,List2A,black,man,,,,null,,,,
null,are shouting at each other,,html-keyboard-response,61,964347,0.0-13.0-2.2,49490,List2A,black,man,,,,null,,,,
37405,,,survey-text,62,1001753,0.0-13.0-3.2,49490,List2A,black,man,,,,,"{""Q0"":""kate is reacting to jane.""}","<img src=""stim_listA/shout8.gif""style=""height:400px;""></stim_listA>",are shouting at each other,
null,"<div style=""font-size:60px;"">+</div>",,html-keyboard-response,63,1002266,0.0-13.0-0.3,49490,List2A,black,man,,,,null,,,,
null,"<img src=""stim_listA/touch8.gif""style=""height:400px;""></stim_listA>",,html-keyboard-response,64,1004269,0.0-13.0-1.3,49490,List2A,black,man,,,,null,,,,
null,are touching each other,,html-keyboard-response,65,1006280,0.0-13.0-2.3,49490,List2A,black,man,,,,null,,,,
34796,,,survey-text,66,1041078,0.0-13.0-3.3,49490,List2A,black,man,,,,,"{""Q0"":""ruth is touching beth""}","<img src=""stim_listA/touch8.gif""style=""height:400px;""></stim_listA>",are touching each other,
null,"<div style=""font-size:60px;"">+</div>",,html-keyboard-response,67,1041580,0.0-13.0-0.4,49490,List2A,black,man,,,,null,,,,
null,"<img src=""stim_listA/fight7.gif""style=""height:400px;""></stim_listA>",,html-keyboard-response,68,1043583,0.0-13.0-1.4,49490,List2A,black,man,,,,null,,,,
null,is fighting,,html-keyboard-response,69,1045584,0.0-13.0-2.4,49490,List2A,black,man,,,,null,,,,
21058,,,survey-text,70,1066643,0.0-13.0-3.4,49490,List2A,black,man,,,,,"{""Q0"":""jane is fighting kate.""}","<img src=""stim_listA/fight7.gif""style=""height:400px;""></stim_listA>",is fighting,
null,"<div style=""font-size:60px;"">+</div>",,html-keyboard-response,71,1067160,0.0-13.0-0.5,49490,List2A,black,man,,,,null,,,,
null,"<img src=""stim_listA/talk6.gif""style=""height:400px;""></stim_listA>",,html-keyboard-response,72,1069162,0.0-13.0-1.5,49490,List2A,black,man,,,,null,,,,
null,are talking to each other,,html-keyboard-response,73,1071164,0.0-13.0-2.5,49490,List2A,black,man,,,,null,,,,
15521,,,survey-text,74,1086685,0.0-13.0-3.5,49490,List2A,black,man,,,,,"{""Q0"":""Fred is talking to Dave.""}","<img src=""stim_listA/talk6.gif""style=""height:400px;""></stim_listA>",are talking to each other,
null,"<div style=""font-size:60px;"">+</div>",,html-keyboard-response,75,1087196,0.0-13.0-0.6,49490,List2A,black,man,,,,null,,,,
null,"<img src=""stim_listA/touch7.gif""style=""height:400px;""></stim_listA>",,html-keyboard-response,76,1089198,0.0-13.0-1.6,49490,List2A,black,man,,,,null,,,,
null,is touching,,html-keyboard-response,77,1091200,0.0-13.0-2.6,49490,List2A,black,man,,,,null,,,,
13812,,,survey-text,78,1105013,0.0-13.0-3.6,49490,List2A,black,man,,,,,"{""Q0"":""Jane is touching Kate.""}","<img src=""stim_listA/touch7.gif""style=""height:400px;""></stim_listA>",is touching,
null,"<div style=""font-size:60px;"">+</div>",,html-keyboard-response,79,1105515,0.0-13.0-0.7,49490,List2A,black,man,,,,null,,,,
null,"<img src=""stim_listA/argue4.gif""style=""height:400px;""></stim_listA>",,html-keyboard-response,80,1107517,0.0-13.0-1.7,49490,List2A,black,man,,,,null,,,,
null,are arguing with each other,,html-keyboard-response,81,1109532,0.0-13.0-2.7,49490,List2A,black,man,,,,null,,,,
18003,,,survey-text,82,1127537,0.0-13.0-3.7,49490,List2A,black,man,,,,,"{""Q0"":""Fred is arguing with kate.""}","<img src=""stim_listA/argue4.gif""style=""height:400px;""></stim_listA>",are arguing with each other,
null,"<div style=""font-size:60px;"">+</div>",,html-keyboard-response,83,1128049,0.0-13.0-0.8,49490,List2A,black,man,,,,null,,,,
null,"<img src=""stim_listA/play1.gif""style=""height:400px;""></stim_listA>",,html-keyboard-response,84,1130052,0.0-13.0-1.8,49490,List2A,black,man,,,,null,,,,
null,is playing with,,html-keyboard-response,85,1132061,0.0-13.0-2.8,49490,List2A,black,man,,,,null,,,,
20196,,,survey-text,86,1152259,0.0-13.0-3.8,49490,List2A,black,man,,,,,"{""Q0"":""Jane is playing with Dave""}","<img src=""stim_listA/play1.gif""style=""height:400px;""></stim_listA>",is playing with,
null,"<div style=""font-size:60px;"">+</div>",,html-keyboard-response,87,1152761,0.0-13.0-0.9,49490,List2A,black,man,,,,null,,,,
null,"<img src=""stim_listA/argue7.gif""style=""height:400px;""></stim_listA>",,html-keyboard-response,88,1154768,0.0-13.0-1.9,49490,List2A,black,man,,,,null,,,,
null,is arguing with,,html-keyboard-response,89,1156769,0.0-13.0-2.9,49490,List2A,black,man,,,,null,,,,
15664,,,survey-text,90,1172434,0.0-13.0-3.9,49490,List2A,black,man,,,,,"{""Q0"":""Jane is arguing with Beth.""}","<img src=""stim_listA/argue7.gif""style=""height:400px;""></stim_listA>",is arguing with,
null,"<div style=""font-size:60px;"">+</div>",,html-keyboard-response,91,1172936,0.0-13.0-0.10,49490,List2A,black,man,,,,null,,,,
null,"<img src=""stim_listA/flirt3.gif""style=""height:400px;""></stim_listA>",,html-keyboard-response,92,1174939,0.0-13.0-1.10,49490,List2A,black,man,,,,null,,,,
null,is flirting with,,html-keyboard-response,93,1176955,0.0-13.0-2.10,49490,List2A,black,man,,,,null,,,,
12445,,,survey-text,94,1189401,0.0-13.0-3.10,49490,List2A,black,man,,,,,"{""Q0"":""Fred is flirting with Kate""}","<img src=""stim_listA/flirt3.gif""style=""height:400px;""></stim_listA>",is flirting with,
null,"<div style=""font-size:60px;"">+</div>",,html-keyboard-response,95,1189908,0.0-13.0-0.11,49490,List2A,black,man,,,,null,,,,
null,"<img src=""stim_listA/fight3.gif""style=""height:400px;""></stim_listA>",,html-keyboard-response,96,1191911,0.0-13.0-1.11,49490,List2A,black,man,,,,null,,,,
null,is fighting,,html-keyboard-response,97,1193912,0.0-13.0-2.11,49490,List2A,black,man,,,,null,,,,
16994,,,survey-text,98,1210907,0.0-13.0-3.11,49490,List2A,black,man,,,,,"{""Q0"":""Mike is fighting Kate.""}","<img src=""stim_listA/fight3.gif""style=""height:400px;""></stim_listA>",is fighting,
null,"<div style=""font-size:60px;"">+</div>",,html-keyboard-response,99,1211408,0.0-13.0-0.12,49490,List2A,black,man,,,,null,,,,
null,"<img src=""stim_listA/dance3.gif""style=""height:400px;""></stim_listA>",,html-keyboard-response,100,1213415,0.0-13.0-1.12,49490,List2A,black,man,,,,null,,,,
null,is dancing with,,html-keyboard-response,101,1215427,0.0-13.0-2.12,49490,List2A,black,man,,,,null,,,,
7158,,,survey-text,102,1222586,0.0-13.0-3.12,49490,List2A,black,man,,,,,"{""Q0"":""Fred is dancing with Kate""}","<img src=""stim_listA/dance3.gif""style=""height:400px;""></stim_listA>",is dancing with,
null,"<div style=""font-size:60px;"">+</div>",,html-keyboard-response,103,1223100,0.0-13.0-0.13,49490,List2A,black,man,,,,null,,,,
null,"<img src=""stim_listA/touch5.gif""style=""height:400px;""></stim_listA>",,html-keyboard-response,104,1225108,0.0-13.0-1.13,49490,List2A,black,man,,,,null,,,,
null,is touching,,html-keyboard-response,105,1227109,0.0-13.0-2.13,49490,List2A,black,man,,,,null,,,,
8054,,,survey-text,106,1235164,0.0-13.0-3.13,49490,List2A,black,man,,,,,"{""Q0"":""Dave is touching Mike""}","<img src=""stim_listA/touch5.gif""style=""height:400px;""></stim_listA>",is touching,
null,"<div style=""font-size:60px;"">+</div>",,html-keyboard-response,107,1235678,0.0-13.0-0.14,49490,List2A,black,man,,,,null,,,,
null,"<img src=""stim_listA/flirt4.gif""style=""height:400px;""></stim_listA>",,html-keyboard-response,108,1237695,0.0-13.0-1.14,49490,List2A,black,man,,,,null,,,,
null,are flirting with each other,,html-keyboard-response,109,1239700,0.0-13.0-2.14,49490,List2A,black,man,,,,null,,,,
13815,,,survey-text,110,1253517,0.0-13.0-3.14,49490,List2A,black,man,,,,,"{""Q0"":""Mike is flirting with Beth""}","<img src=""stim_listA/flirt4.gif""style=""height:400px;""></stim_listA>",are flirting with each other,
null,"<div style=""font-size:60px;"">+</div>",,html-keyboard-response,111,1254025,0.0-13.0-0.15,49490,List2A,black,man,,,,null,,,,
null,"<img src=""stim_listA/fight5.gif""style=""height:400px;""></stim_listA>",,html-keyboard-response,112,1256028,0.0-13.0-1.15,49490,List2A,black,man,,,,null,,,,
null,is fighting,,html-keyboard-response,113,1258035,0.0-13.0-2.15,49490,List2A,black,man,,,,null,,,,
8161,,,survey-text,114,1266198,0.0-13.0-3.15,49490,List2A,black,man,,,,,"{""Q0"":""Dave is fighting with Mike.""}","<img src=""stim_listA/fight5.gif""style=""height:400px;""></stim_listA>",is fighting,
null,"<div style=""font-size:60px;"">+</div>",,html-keyboard-response,115,1266700,0.0-13.0-0.16,49490,List2A,black,man,,,,null,,,,
null,"<img src=""stim_listA/dance8.gif""style=""height:400px;""></stim_listA>",,html-keyboard-response,116,1268702,0.0-13.0-1.16,49490,List2A,black,man,,,,null,,,,
null,are dancing with each other,,html-keyboard-response,117,1270708,0.0-13.0-2.16,49490,List2A,black,man,,,,null,,,,
8396,,,survey-text,118,1279104,0.0-13.0-3.16,49490,List2A,black,man,,,,,"{""Q0"":""Beth is dancing with Jane.""}","<img src=""stim_listA/dance8.gif""style=""height:400px;""></stim_listA>",are dancing with each other,
null,"<div style=""font-size:60px;"">+</div>",,html-keyboard-response,119,1279613,0.0-13.0-0.17,49490,List2A,black,man,,,,null,,,,
null,"<img src=""stim_listA/play6.gif""style=""height:400px;""></stim_listA>",,html-keyboard-response,120,1281615,0.0-13.0-1.17,49490,List2A,black,man,,,,null,,,,
null,are playing with each other,,html-keyboard-response,121,1283616,0.0-13.0-2.17,49490,List2A,black,man,,,,null,,,,
12162,,,survey-text,122,1295779,0.0-13.0-3.17,49490,List2A,black,man,,,,,"{""Q0"":""Luke is playing with Fred""}","<img src=""stim_listA/play6.gif""style=""height:400px;""></stim_listA>",are playing with each other,
null,"<div style=""font-size:60px;"">+</div>",,html-keyboard-response,123,1296292,0.0-13.0-0.18,49490,List2A,black,man,,,,null,,,,
null,"<img src=""stim_listA/talk8.gif""style=""height:400px;""></stim_listA>",,html-keyboard-response,124,1298296,0.0-13.0-1.18,49490,List2A,black,man,,,,null,,,,
null,are talking to each other,,html-keyboard-response,125,1300300,0.0-13.0-2.18,49490,List2A,black,man,,,,null,,,,
7653,,,survey-text,126,1307954,0.0-13.0-3.18,49490,List2A,black,man,,,,,"{""Q0"":""Jane is talking to Beth""}","<img src=""stim_listA/talk8.gif""style=""height:400px;""></stim_listA>",are talking to each other,
null,"<div style=""font-size:60px;"">+</div>",,html-keyboard-response,127,1308456,0.0-13.0-0.19,49490,List2A,black,man,,,,null,,,,
null,"<img src=""stim_listA/fight4.gif""style=""height:400px;""></stim_listA>",,html-keyboard-response,128,1310458,0.0-13.0-1.19,49490,List2A,black,man,,,,null,,,,
null,are fighting each other,,html-keyboard-response,129,1312460,0.0-13.0-2.19,49490,List2A,black,man,,,,null,,,,
7544,,,survey-text,130,1320005,0.0-13.0-3.19,49490,List2A,black,man,,,,,"{""Q0"":""Beth is fighting Fred""}","<img src=""stim_listA/fight4.gif""style=""height:400px;""></stim_listA>",are fighting each other,
10271,"<img src='img/portrait_matrix_list2.jpg' style='width:900px;height:500px;''></img><p>If you have memorised all the portraits and names and are ready to start, press Continue.</p><p><strong>Please note: Your memory of these faces will be tested 4 times during this experiment.</strong></p>",0,html-button-response,131,1330278,0.0-14.0-0.0,49490,List2A,black,man,,,,,,,,
3172,"<img src=""portrait/WW1.jpg""style=""height:400px;""></img>",1,html-button-response,132,1334453,0.0-14.0-1.0,49490,List2A,black,man,,TRUE,1,,,,,
null,CORRECT,,html-keyboard-response,133,1335958,0.0-14.0-2.0-0.0,49490,List2A,black,man,,,,null,,,,
5650,"<img src=""portrait/BM1.jpg""style=""height:400px;""></img>",4,html-button-response,134,1341609,0.0-14.0-4.0,49490,List2A,black,man,,TRUE,4,,,,,
null,CORRECT,,html-keyboard-response,135,1343116,0.0-14.0-5.0-0.0,49490,List2A,black,man,,,,null,,,,
4714,"<img src=""portrait/WW2.jpg""style=""height:400px;""></img>",3,html-button-response,136,1347832,0.0-14.0-7.0,49490,List2A,black,man,,TRUE,3,,,,,
null,CORRECT,,html-keyboard-response,137,1349353,0.0-14.0-8.0-0.0,49490,List2A,black,man,,,,null,,,,
4356,"<img src=""portrait/WM1.jpg""style=""height:400px;""></img>",6,html-button-response,138,1353711,0.0-14.0-10.0,49490,List2A,black,man,,TRUE,6,,,,,
null,CORRECT,,html-keyboard-response,139,1355217,0.0-14.0-11.0-0.0,49490,List2A,black,man,,,,null,,,,
2875,"<img src=""portrait/BM2.jpg""style=""height:400px;""></img>",5,html-button-response,140,1358094,0.0-14.0-13.0,49490,List2A,black,man,,TRUE,5,,,,,
null,CORRECT,,html-keyboard-response,141,1359597,0.0-14.0-14.0-0.0,49490,List2A,black,man,,,,null,,,,
3967,"<img src=""portrait/WM2.jpg""style=""height:400px;""></img>",7,html-button-response,142,1363567,0.0-14.0-16.0,49490,List2A,black,man,,TRUE,7,,,,,
null,CORRECT,,html-keyboard-response,143,1365069,0.0-14.0-17.0-0.0,49490,List2A,black,man,,,,null,,,,
2601,"<img src=""portrait/BW2.jpg""style=""height:400px;""></img>",2,html-button-response,144,1367671,0.0-14.0-19.0,49490,List2A,black,man,,TRUE,2,,,,,
null,CORRECT,,html-keyboard-response,145,1369183,0.0-14.0-20.0-0.0,49490,List2A,black,man,,,,null,,,,
3299,"<img src=""portrait/BW1.jpg""style=""height:400px;""></img>",0,html-button-response,146,1372484,0.0-14.0-22.0,49490,List2A,black,man,,TRUE,0,,,,,
null,CORRECT,,html-keyboard-response,147,1374004,0.0-14.0-23.0-0.0,49490,List2A,black,man,,,,null,,,,
1438,<p>You got 8 out of 8 right first time. Press Continue.</p>,0,html-button-response,148,1375444,0.0-14.0-25.0,49490,List2A,black,man,,,,,,,,
null,"<div style=""font-size:60px;"">+</div>",,html-keyboard-response,149,1376955,0.0-15.0-0.0,49490,List2A,black,man,,,,null,,,,
null,"<img src=""stim_listA/kiss4.gif""style=""height:400px;""></stim_listA>",,html-keyboard-response,150,1378969,0.0-15.0-1.0,49490,List2A,black,man,,,,null,,,,
null,are kissing each other,,html-keyboard-response,151,1380970,0.0-15.0-2.0,49490,List2A,black,man,,,,null,,,,
10326,,,survey-text,152,1391298,0.0-15.0-3.0,49490,List2A,black,man,,,,,"{""Q0"":""Mike is kissing Kate""}","<img src=""stim_listA/kiss4.gif""style=""height:400px;""></stim_listA>",are kissing each other,
null,"<div style=""font-size:60px;"">+</div>",,html-keyboard-response,153,1391805,0.0-15.0-0.1,49490,List2A,black,man,,,,null,,,,
null,"<img src=""stim_listA/dance7.gif""style=""height:400px;""></stim_listA>",,html-keyboard-response,154,1393822,0.0-15.0-1.1,49490,List2A,black,man,,,,null,,,,
null,is dancing with,,html-keyboard-response,155,1395825,0.0-15.0-2.1,49490,List2A,black,man,,,,null,,,,
9582,,,survey-text,156,1405409,0.0-15.0-3.1,49490,List2A,black,man,,,,,"{""Q0"":""Ruth is dancing with Kate""}","<img src=""stim_listA/dance7.gif""style=""height:400px;""></stim_listA>",is dancing with,
null,"<div style=""font-size:60px;"">+</div>",,html-keyboard-response,157,1405915,0.0-15.0-0.2,49490,List2A,black,man,,,,null,,,,
null,"<img src=""stim_listA/kiss2.gif""style=""height:400px;""></stim_listA>",,html-keyboard-response,158,1407919,0.0-15.0-1.2,49490,List2A,black,man,,,,null,,,,
null,are kissing each other,,html-keyboard-response,159,1409933,0.0-15.0-2.2,49490,List2A,black,man,,,,null,,,,
8243,,,survey-text,160,1418178,0.0-15.0-3.2,49490,List2A,black,man,,,,,"{""Q0"":""Jane is kissing Dave""}","<img src=""stim_listA/kiss2.gif""style=""height:400px;""></stim_listA>",are kissing each other,
null,"<div style=""font-size:60px;"">+</div>",,html-keyboard-response,161,1418688,0.0-15.0-0.3,49490,List2A,black,man,,,,null,,,,
null,"<img src=""stim_listA/shout2.gif""style=""height:400px;""></stim_listA>",,html-keyboard-response,162,1420691,0.0-15.0-1.3,49490,List2A,black,man,,,,null,,,,
null,are shouting at each other,,html-keyboard-response,163,1422694,0.0-15.0-2.3,49490,List2A,black,man,,,,null,,,,
8739,,,survey-text,164,1431435,0.0-15.0-3.3,49490,List2A,black,man,,,,,"{""Q0"":""Jane is shouting at Dave""}","<img src=""stim_listA/shout2.gif""style=""height:400px;""></stim_listA>",are shouting at each other,
null,"<div style=""font-size:60px;"">+</div>",,html-keyboard-response,165,1431945,0.0-15.0-0.4,49490,List2A,black,man,,,,null,,,,
null,"<img src=""stim_listA/play2.gif""style=""height:400px;""></stim_listA>",,html-keyboard-response,166,1433951,0.0-15.0-1.4,49490,List2A,black,man,,,,null,,,,
null,are playing with each other,,html-keyboard-response,167,1435963,0.0-15.0-2.4,49490,List2A,black,man,,,,null,,,,
8737,,,survey-text,168,1444702,0.0-15.0-3.4,49490,List2A,black,man,,,,,"{""Q0"":""Luke is playing with Ruth""}","<img src=""stim_listA/play2.gif""style=""height:400px;""></stim_listA>",are playing with each other,
null,"<div style=""font-size:60px;"">+</div>",,html-keyboard-response,169,1445204,0.0-15.0-0.5,49490,List2A,black,man,,,,null,,,,
null,"<img src=""stim_listA/flirt7.gif""style=""height:400px;""></stim_listA>",,html-keyboard-response,170,1447214,0.0-15.0-1.5,49490,List2A,black,man,,,,null,,,,
null,is flirting with,,html-keyboard-response,171,1449226,0.0-15.0-2.5,49490,List2A,black,man,,,,null,,,,
9593,,,survey-text,172,1458821,0.0-15.0-3.5,49490,List2A,black,man,,,,,"{""Q0"":""Ruth is flirting with Kate""}","<img src=""stim_listA/flirt7.gif""style=""height:400px;""></stim_listA>",is flirting with,
null,"<div style=""font-size:60px;"">+</div>",,html-keyboard-response,173,1459322,0.0-15.0-0.6,49490,List2A,black,man,,,,null,,,,
null,"<img src=""stim_listA/play4.gif""style=""height:400px;""></stim_listA>",,html-keyboard-response,174,1461332,0.0-15.0-1.6,49490,List2A,black,man,,,,null,,,,
null,are playing with each other,,html-keyboard-response,175,1463347,0.0-15.0-2.6,49490,List2A,black,man,,,,null,,,,
7377,,,survey-text,176,1470726,0.0-15.0-3.6,49490,List2A,black,man,,,,,"{""Q0"":""Fred is playing with Beth""}","<img src=""stim_listA/play4.gif""style=""height:400px;""></stim_listA>",are playing with each other,
null,"<div style=""font-size:60px;"">+</div>",,html-keyboard-response,177,1471228,0.0-15.0-0.7,49490,List2A,black,man,,,,null,,,,
null,"<img src=""stim_listA/dance1.gif""style=""height:400px;""></stim_listA>",,html-keyboard-response,178,1473230,0.0-15.0-1.7,49490,List2A,black,man,,,,null,,,,
null,is dancing with,,html-keyboard-response,179,1475243,0.0-15.0-2.7,49490,List2A,black,man,,,,null,,,,
8645,,,survey-text,180,1483890,0.0-15.0-3.7,49490,List2A,black,man,,,,,"{""Q0"":""Luke is dancing with Jane.""}","<img src=""stim_listA/dance1.gif""style=""height:400px;""></stim_listA>",is dancing with,
null,"<div style=""font-size:60px;"">+</div>",,html-keyboard-response,181,1484396,0.0-15.0-0.8,49490,List2A,black,man,,,,null,,,,
null,"<img src=""stim_listA/touch6.gif""style=""height:400px;""></stim_listA>",,html-keyboard-response,182,1486412,0.0-15.0-1.8,49490,List2A,black,man,,,,null,,,,
null,are touching each other,,html-keyboard-response,183,1488413,0.0-15.0-2.8,49490,List2A,black,man,,,,null,,,,
9373,,,survey-text,184,1497787,0.0-15.0-3.8,49490,List2A,black,man,,,,,"{""Q0"":""Luke is touching Fred""}","<img src=""stim_listA/touch6.gif""style=""height:400px;""></stim_listA>",are touching each other,
null,"<div style=""font-size:60px;"">+</div>",,html-keyboard-response,185,1498297,0.0-15.0-0.9,49490,List2A,black,man,,,,null,,,,
null,"<img src=""stim_listA/dance6.gif""style=""height:400px;""></stim_listA>",,html-keyboard-response,186,1500299,0.0-15.0-1.9,49490,List2A,black,man,,,,null,,,,
null,are dancing with each other,,html-keyboard-response,187,1502300,0.0-15.0-2.9,49490,List2A,black,man,,,,null,,,,
8358,,,survey-text,188,1510659,0.0-15.0-3.9,49490,List2A,black,man,,,,,"{""Q0"":""Dave is dancing with Fred.""}","<img src=""stim_listA/dance6.gif""style=""height:400px;""></stim_listA>",are dancing with each other,
null,"<div style=""font-size:60px;"">+</div>",,html-keyboard-response,189,1511162,0.0-15.0-0.10,49490,List2A,black,man,,,,null,,,,
null,"<img src=""stim_listA/touch1.gif""style=""height:400px;""></stim_listA>",,html-keyboard-response,190,1513164,0.0-15.0-1.10,49490,List2A,black,man,,,,null,,,,
null,is touching,,html-keyboard-response,191,1515169,0.0-15.0-2.10,49490,List2A,black,man,,,,null,,,,
6224,,,survey-text,192,1521394,0.0-15.0-3.10,49490,List2A,black,man,,,,,"{""Q0"":""Jane is touching Dave.""}","<img src=""stim_listA/touch1.gif""style=""height:400px;""></stim_listA>",is touching,
null,"<div style=""font-size:60px;"">+</div>",,html-keyboard-response,193,1521898,0.0-15.0-0.11,49490,List2A,black,man,,,,null,,,,
null,"<img src=""stim_listA/fight6.gif""style=""height:400px;""></stim_listA>",,html-keyboard-response,194,1523900,0.0-15.0-1.11,49490,List2A,black,man,,,,null,,,,
null,are fighting each other,,html-keyboard-response,195,1525902,0.0-15.0-2.11,49490,List2A,black,man,,,,null,,,,
11626,,,survey-text,196,1537530,0.0-15.0-3.11,49490,List2A,black,man,,,,,"{""Q0"":""Luke is fighting Fred.""}","<img src=""stim_listA/fight6.gif""style=""height:400px;""></stim_listA>",are fighting each other,
null,"<div style=""font-size:60px;"">+</div>",,html-keyboard-response,197,1538037,0.0-15.0-0.12,49490,List2A,black,man,,,,null,,,,
null,"<img src=""stim_listA/kiss5.gif""style=""height:400px;""></stim_listA>",,html-keyboard-response,198,1540039,0.0-15.0-1.12,49490,List2A,black,man,,,,null,,,,
null,is kissing,,html-keyboard-response,199,1542040,0.0-15.0-2.12,49490,List2A,black,man,,,,null,,,,
6776,,,survey-text,200,1548818,0.0-15.0-3.12,49490,List2A,black,man,,,,,"{""Q0"":""Luke is kissing Fred.""}","<img src=""stim_listA/kiss5.gif""style=""height:400px;""></stim_listA>",is kissing,
null,"<div style=""font-size:60px;"">+</div>",,html-keyboard-response,201,1549331,0.0-15.0-0.13,49490,List2A,black,man,,,,null,,,,
null,"<img src=""stim_listA/flirt5.gif""style=""height:400px;""></stim_listA>",,html-keyboard-response,202,1551346,0.0-15.0-1.13,49490,List2A,black,man,,,,null,,,,
null,is flirting with,,html-keyboard-response,203,1553356,0.0-15.0-2.13,49490,List2A,black,man,,,,null,,,,
10841,,,survey-text,204,1564198,0.0-15.0-3.13,49490,List2A,black,man,,,,,"{""Q0"":""Mike is flirting with Luke.""}","<img src=""stim_listA/flirt5.gif""style=""height:400px;""></stim_listA>",is flirting with,
null,"<div style=""font-size:60px;"">+</div>",,html-keyboard-response,205,1564700,0.0-15.0-0.14,49490,List2A,black,man,,,,null,,,,
null,"<img src=""stim_listA/marry6.gif""style=""height:400px;""></stim_listA>",,html-keyboard-response,206,1566703,0.0-15.0-1.14,49490,List2A,black,man,,,,null,,,,
null,are marrying each other,,html-keyboard-response,207,1568704,0.0-15.0-2.14,49490,List2A,black,man,,,,null,,,,
6496,,,survey-text,208,1575202,0.0-15.0-3.14,49490,List2A,black,man,,,,,"{""Q0"":""Mike is marrying Luke.""}","<img src=""stim_listA/marry6.gif""style=""height:400px;""></stim_listA>",are marrying each other,
null,"<div style=""font-size:60px;"">+</div>",,html-keyboard-response,209,1575713,0.0-15.0-0.15,49490,List2A,black,man,,,,null,,,,
null,"<img src=""stim_listA/kiss3.gif""style=""height:400px;""></stim_listA>",,html-keyboard-response,210,1577716,0.0-15.0-1.15,49490,List2A,black,man,,,,null,,,,
null,is kissing,,html-keyboard-response,211,1579718,0.0-15.0-2.15,49490,List2A,black,man,,,,null,,,,
8535,,,survey-text,212,1588254,0.0-15.0-3.15,49490,List2A,black,man,,,,,"{""Q0"":""Beth is kissing Fred.""}","<img src=""stim_listA/kiss3.gif""style=""height:400px;""></stim_listA>",is kissing,
null,"<div style=""font-size:60px;"">+</div>",,html-keyboard-response,213,1588770,0.0-15.0-0.16,49490,List2A,black,man,,,,null,,,,
null,"<img src=""stim_listA/kiss7.gif""style=""height:400px;""></stim_listA>",,html-keyboard-response,214,1590774,0.0-15.0-1.16,49490,List2A,black,man,,,,null,,,,
null,is kissing,,html-keyboard-response,215,1592782,0.0-15.0-2.16,49490,List2A,black,man,,,,null,,,,
7748,,,survey-text,216,1600530,0.0-15.0-3.16,49490,List2A,black,man,,,,,"{""Q0"":""Beth is kissing Ruth.""}","<img src=""stim_listA/kiss7.gif""style=""height:400px;""></stim_listA>",is kissing,
null,"<div style=""font-size:60px;"">+</div>",,html-keyboard-response,217,1601040,0.0-15.0-0.17,49490,List2A,black,man,,,,null,,,,
null,"<img src=""stim_listA/dance4.gif""style=""height:400px;""></stim_listA>",,html-keyboard-response,218,1603042,0.0-15.0-1.17,49490,List2A,black,man,,,,null,,,,
null,are dancing with each other,,html-keyboard-response,219,1605043,0.0-15.0-2.17,49490,List2A,black,man,,,,null,,,,
7085,,,survey-text,220,1612129,0.0-15.0-3.17,49490,List2A,black,man,,,,,"{""Q0"":""Mike is dancing with Beth.""}","<img src=""stim_listA/dance4.gif""style=""height:400px;""></stim_listA>",are dancing with each other,
null,"<div style=""font-size:60px;"">+</div>",,html-keyboard-response,221,1612641,0.0-15.0-0.18,49490,List2A,black,man,,,,null,,,,
null,"<img src=""stim_listA/shout4.gif""style=""height:400px;""></stim_listA>",,html-keyboard-response,222,1614643,0.0-15.0-1.18,49490,List2A,black,man,,,,null,,,,
null,are shouting at each other,,html-keyboard-response,223,1616650,0.0-15.0-2.18,49490,List2A,black,man,,,,null,,,,
7587,,,survey-text,224,1624239,0.0-15.0-3.18,49490,List2A,black,man,,,,,"{""Q0"":""Kate is shouting at Mike.""}","<img src=""stim_listA/shout4.gif""style=""height:400px;""></stim_listA>",are shouting at each other,
null,"<div style=""font-size:60px;"">+</div>",,html-keyboard-response,225,1624755,0.0-15.0-0.19,49490,List2A,black,man,,,,null,,,,
null,"<img src=""stim_listA/argue3.gif""style=""height:400px;""></stim_listA>",,html-keyboard-response,226,1626770,0.0-15.0-1.19,49490,List2A,black,man,,,,null,,,,
null,is arguing with,,html-keyboard-response,227,1628784,0.0-15.0-2.19,49490,List2A,black,man,,,,null,,,,
7415,,,survey-text,228,1636199,0.0-15.0-3.19,49490,List2A,black,man,,,,,"{""Q0"":""Mike is arguing with Beth.""}","<img src=""stim_listA/argue3.gif""style=""height:400px;""></stim_listA>",is arguing with,
1789,"<img src='img/portrait_matrix_list2.jpg' style='width:900px;height:500px;''></img><p>If you have memorised all the portraits and names and are ready to start, press Continue.</p><p><strong>Please note: Your memory of these faces will be tested 4 times during this experiment.</strong></p>",0,html-button-response,229,1637990,0.0-16.0-0.0,49490,List2A,black,man,,,,,,,,
2641,"<img src=""portrait/BW2.jpg""style=""height:400px;""></img>",2,html-button-response,230,1641634,0.0-16.0-1.0,49490,List2A,black,man,,TRUE,2,,,,,
null,CORRECT,,html-keyboard-response,231,1643148,0.0-16.0-2.0-0.0,49490,List2A,black,man,,,,null,,,,
4023,"<img src=""portrait/BW1.jpg""style=""height:400px;""></img>",0,html-button-response,232,1647173,0.0-16.0-4.0,49490,List2A,black,man,,TRUE,0,,,,,
null,CORRECT,,html-keyboard-response,233,1648683,0.0-16.0-5.0-0.0,49490,List2A,black,man,,,,null,,,,
2131,"<img src=""portrait/BM2.jpg""style=""height:400px;""></img>",5,html-button-response,234,1650816,0.0-16.0-7.0,49490,List2A,black,man,,TRUE,5,,,,,
null,CORRECT,,html-keyboard-response,235,1652319,0.0-16.0-8.0-0.0,49490,List2A,black,man,,,,null,,,,
1668,"<img src=""portrait/BM1.jpg""style=""height:400px;""></img>",4,html-button-response,236,1653989,0.0-16.0-10.0,49490,List2A,black,man,,TRUE,4,,,,,
null,CORRECT,,html-keyboard-response,237,1655497,0.0-16.0-11.0-0.0,49490,List2A,black,man,,,,null,,,,
3419,"<img src=""portrait/WW2.jpg""style=""height:400px;""></img>",3,html-button-response,238,1658918,0.0-16.0-13.0,49490,List2A,black,man,,TRUE,3,,,,,
null,CORRECT,,html-keyboard-response,239,1660421,0.0-16.0-14.0-0.0,49490,List2A,black,man,,,,null,,,,
2886,"<img src=""portrait/WM2.jpg""style=""height:400px;""></img>",7,html-button-response,240,1663307,0.0-16.0-16.0,49490,List2A,black,man,,TRUE,7,,,,,
null,CORRECT,,html-keyboard-response,241,1664820,0.0-16.0-17.0-0.0,49490,List2A,black,man,,,,null,,,,
3896,"<img src=""portrait/WW1.jpg""style=""height:400px;""></img>",1,html-button-response,242,1668717,0.0-16.0-19.0,49490,List2A,black,man,,TRUE,1,,,,,
null,CORRECT,,html-keyboard-response,243,1670227,0.0-16.0-20.0-0.0,49490,List2A,black,man,,,,null,,,,
5978,"<img src=""portrait/WM1.jpg""style=""height:400px;""></img>",6,html-button-response,244,1676207,0.0-16.0-22.0,49490,List2A,black,man,,TRUE,6,,,,,
null,CORRECT,,html-keyboard-response,245,1677710,0.0-16.0-23.0-0.0,49490,List2A,black,man,,,,null,,,,
1279,<p>You got 8 out of 8 right first time. Press Continue.</p>,0,html-button-response,246,1678990,0.0-16.0-25.0,49490,List2A,black,man,,,,,,,,
null,"<div style=""font-size:60px;"">+</div>",,html-keyboard-response,247,1680497,0.0-17.0-0.0,49490,List2A,black,man,,,,null,,,,
null,"<img src=""stim_listA/marry3.gif""style=""height:400px;""></stim_listA>",,html-keyboard-response,248,1682502,0.0-17.0-1.0,49490,List2A,black,man,,,,null,,,,
null,is marrying,,html-keyboard-response,249,1684504,0.0-17.0-2.0,49490,List2A,black,man,,,,null,,,,
9326,,,survey-text,250,1693832,0.0-17.0-3.0,49490,List2A,black,man,,,,,"{""Q0"":""Mike is marrying Beth.""}","<img src=""stim_listA/marry3.gif""style=""height:400px;""></stim_listA>",is marrying,
null,"<div style=""font-size:60px;"">+</div>",,html-keyboard-response,251,1694345,0.0-17.0-0.1,49490,List2A,black,man,,,,null,,,,
null,"<img src=""stim_listA/kiss8.gif""style=""height:400px;""></stim_listA>",,html-keyboard-response,252,1696348,0.0-17.0-1.1,49490,List2A,black,man,,,,null,,,,
null,are kissing each other,,html-keyboard-response,253,1698350,0.0-17.0-2.1,49490,List2A,black,man,,,,null,,,,
6013,,,survey-text,254,1704364,0.0-17.0-3.1,49490,List2A,black,man,,,,,"{""Q0"":""Jane is kissing Kate.""}","<img src=""stim_listA/kiss8.gif""style=""height:400px;""></stim_listA>",are kissing each other,
null,"<div style=""font-size:60px;"">+</div>",,html-keyboard-response,255,1704876,0.0-17.0-0.2,49490,List2A,black,man,,,,null,,,,
null,"<img src=""stim_listA/talk4.gif""style=""height:400px;""></stim_listA>",,html-keyboard-response,256,1706881,0.0-17.0-1.2,49490,List2A,black,man,,,,null,,,,
null,are talking to each other,,html-keyboard-response,257,1708882,0.0-17.0-2.2,49490,List2A,black,man,,,,null,,,,
5934,,,survey-text,258,1714817,0.0-17.0-3.2,49490,List2A,black,man,,,,,"{""Q0"":""Beth is talking to Mike.""}","<img src=""stim_listA/talk4.gif""style=""height:400px;""></stim_listA>",are talking to each other,
null,"<div style=""font-size:60px;"">+</div>",,html-keyboard-response,259,1715323,0.0-17.0-0.3,49490,List2A,black,man,,,,null,,,,
null,"<img src=""stim_listA/kiss6.gif""style=""height:400px;""></stim_listA>",,html-keyboard-response,260,1717331,0.0-17.0-1.3,49490,List2A,black,man,,,,null,,,,
null,are kissing each other,,html-keyboard-response,261,1719333,0.0-17.0-2.3,49490,List2A,black,man,,,,null,,,,
7669,,,survey-text,262,1727003,0.0-17.0-3.3,49490,List2A,black,man,,,,,"{""Q0"":""Dave is kissing Mike.""}","<img src=""stim_listA/kiss6.gif""style=""height:400px;""></stim_listA>",are kissing each other,
null,"<div style=""font-size:60px;"">+</div>",,html-keyboard-response,263,1727505,0.0-17.0-0.4,49490,List2A,black,man,,,,null,,,,
null,"<img src=""stim_listA/flirt6.gif""style=""height:400px;""></stim_listA>",,html-keyboard-response,264,1729511,0.0-17.0-1.4,49490,List2A,black,man,,,,null,,,,
null,are flirting with each other,,html-keyboard-response,265,1731516,0.0-17.0-2.4,49490,List2A,black,man,,,,null,,,,
18710,,,survey-text,266,1750227,0.0-17.0-3.4,49490,List2A,black,man,,,,,"{""Q0"":""Fred is flirting with Dave.""}","<img src=""stim_listA/flirt6.gif""style=""height:400px;""></stim_listA>",are flirting with each other,
null,"<div style=""font-size:60px;"">+</div>",,html-keyboard-response,267,1750728,0.0-17.0-0.5,49490,List2A,black,man,,,,null,,,,
null,"<img src=""stim_listA/shout5.gif""style=""height:400px;""></stim_listA>",,html-keyboard-response,268,1752732,0.0-17.0-1.5,49490,List2A,black,man,,,,null,,,,
null,is shouting at,,html-keyboard-response,269,1754744,0.0-17.0-2.5,49490,List2A,black,man,,,,null,,,,
29575,,,survey-text,270,1784321,0.0-17.0-3.5,49490,List2A,black,man,,,,,"{""Q0"":""Fred is shouting at Luke.""}","<img src=""stim_listA/shout5.gif""style=""height:400px;""></stim_listA>",is shouting at,
null,"<div style=""font-size:60px;"">+</div>",,html-keyboard-response,271,1784837,0.0-17.0-0.6,49490,List2A,black,man,,,,null,,,,
null,"<img src=""stim_listA/talk5.gif""style=""height:400px;""></stim_listA>",,html-keyboard-response,272,1786840,0.0-17.0-1.6,49490,List2A,black,man,,,,null,,,,
null,is talking to,,html-keyboard-response,273,1788842,0.0-17.0-2.6,49490,List2A,black,man,,,,null,,,,
6246,,,survey-text,274,1795089,0.0-17.0-3.6,49490,List2A,black,man,,,,,"{""Q0"":""Luke is talking to Mike.""}","<img src=""stim_listA/talk5.gif""style=""height:400px;""></stim_listA>",is talking to,
null,"<div style=""font-size:60px;"">+</div>",,html-keyboard-response,275,1795600,0.0-17.0-0.7,49490,List2A,black,man,,,,null,,,,
null,"<img src=""stim_listA/marry5.gif""style=""height:400px;""></stim_listA>",,html-keyboard-response,276,1797616,0.0-17.0-1.7,49490,List2A,black,man,,,,null,,,,
null,is marrying,,html-keyboard-response,277,1799617,0.0-17.0-2.7,49490,List2A,black,man,,,,null,,,,
7713,,,survey-text,278,1807332,0.0-17.0-3.7,49490,List2A,black,man,,,,,"{""Q0"":""Fred is marrying Dave.""}","<img src=""stim_listA/marry5.gif""style=""height:400px;""></stim_listA>",is marrying,
null,"<div style=""font-size:60px;"">+</div>",,html-keyboard-response,279,1807846,0.0-17.0-0.8,49490,List2A,black,man,,,,null,,,,
null,"<img src=""stim_listA/shout6.gif""style=""height:400px;""></stim_listA>",,html-keyboard-response,280,1809860,0.0-17.0-1.8,49490,List2A,black,man,,,,null,,,,
null,are shouting at each other,,html-keyboard-response,281,1811862,0.0-17.0-2.8,49490,List2A,black,man,,,,null,,,,
7745,,,survey-text,282,1819608,0.0-17.0-3.8,49490,List2A,black,man,,,,,"{""Q0"":""Mike is shouting at Dave.""}","<img src=""stim_listA/shout6.gif""style=""height:400px;""></stim_listA>",are shouting at each other,
null,"<div style=""font-size:60px;"">+</div>",,html-keyboard-response,283,1820112,0.0-17.0-0.9,49490,List2A,black,man,,,,null,,,,
null,"<img src=""stim_listA/touch4.gif""style=""height:400px;""></stim_listA>",,html-keyboard-response,284,1822114,0.0-17.0-1.9,49490,List2A,black,man,,,,null,,,,
null,are touching each other,,html-keyboard-response,285,1824119,0.0-17.0-2.9,49490,List2A,black,man,,,,null,,,,
7439,,,survey-text,286,1831558,0.0-17.0-3.9,49490,List2A,black,man,,,,,"{""Q0"":""Beth is touching Fred.""}","<img src=""stim_listA/touch4.gif""style=""height:400px;""></stim_listA>",are touching each other,
null,"<div style=""font-size:60px;"">+</div>",,html-keyboard-response,287,1832070,0.0-17.0-0.10,49490,List2A,black,man,,,,null,,,,
null,"<img src=""stim_listA/marry1.gif""style=""height:400px;""></stim_listA>",,html-keyboard-response,288,1834072,0.0-17.0-1.10,49490,List2A,black,man,,,,null,,,,
null,is marrying,,html-keyboard-response,289,1836073,0.0-17.0-2.10,49490,List2A,black,man,,,,null,,,,
7759,,,survey-text,290,1843832,0.0-17.0-3.10,49490,List2A,black,man,,,,,"{""Q0"":""Ruth is marrying Dave.""}","<img src=""stim_listA/marry1.gif""style=""height:400px;""></stim_listA>",is marrying,
null,"<div style=""font-size:60px;"">+</div>",,html-keyboard-response,291,1844348,0.0-17.0-0.11,49490,List2A,black,man,,,,null,,,,
null,"<img src=""stim_listA/play5.gif""style=""height:400px;""></stim_listA>",,html-keyboard-response,292,1846355,0.0-17.0-1.11,49490,List2A,black,man,,,,null,,,,
null,is playing with,,html-keyboard-response,293,1848369,0.0-17.0-2.11,49490,List2A,black,man,,,,null,,,,
15752,,,survey-text,294,1864123,0.0-17.0-3.11,49490,List2A,black,man,,,,,"{""Q0"":""Mike is playing with Dave.""}","<img src=""stim_listA/play5.gif""style=""height:400px;""></stim_listA>",is playing with,
null,"<div style=""font-size:60px;"">+</div>",,html-keyboard-response,295,1864629,0.0-17.0-0.12,49490,List2A,black,man,,,,null,,,,
null,"<img src=""stim_listA/play7.gif""style=""height:400px;""></stim_listA>",,html-keyboard-response,296,1866631,0.0-17.0-1.12,49490,List2A,black,man,,,,null,,,,
null,is playing with,,html-keyboard-response,297,1868633,0.0-17.0-2.12,49490,List2A,black,man,,,,null,,,,
8617,,,survey-text,298,1877251,0.0-17.0-3.12,49490,List2A,black,man,,,,,"{""Q0"":""Jane is playing with Kate.""}","<img src=""stim_listA/play7.gif""style=""height:400px;""></stim_listA>",is playing with,
null,"<div style=""font-size:60px;"">+</div>",,html-keyboard-response,299,1877764,0.0-17.0-0.13,49490,List2A,black,man,,,,null,,,,
null,"<img src=""stim_listA/marry8.gif""style=""height:400px;""></stim_listA>",,html-keyboard-response,300,1879778,0.0-17.0-1.13,49490,List2A,black,man,,,,null,,,,
null,are marrying each other,,html-keyboard-response,301,1881782,0.0-17.0-2.13,49490,List2A,black,man,,,,null,,,,
8839,,,survey-text,302,1890622,0.0-17.0-3.13,49490,List2A,black,man,,,,,"{""Q0"":""Ruth is marrying Kate.""}","<img src=""stim_listA/marry8.gif""style=""height:400px;""></stim_listA>",are marrying each other,
null,"<div style=""font-size:60px;"">+</div>",,html-keyboard-response,303,1891132,0.0-17.0-0.14,49490,List2A,black,man,,,,null,,,,
null,"<img src=""stim_listA/argue2.gif""style=""height:400px;""></stim_listA>",,html-keyboard-response,304,1893134,0.0-17.0-1.14,49490,List2A,black,man,,,,null,,,,
null,are arguing with each other,,html-keyboard-response,305,1895147,0.0-17.0-2.14,49490,List2A,black,man,,,,null,,,,
15331,,,survey-text,306,1910481,0.0-17.0-3.14,49490,List2A,black,man,,,,,"{""Q0"":""Luke is arguing with Jane.""}","<img src=""stim_listA/argue2.gif""style=""height:400px;""></stim_listA>",are arguing with each other,
null,"<div style=""font-size:60px;"">+</div>",,html-keyboard-response,307,1910983,0.0-17.0-0.15,49490,List2A,black,man,,,,null,,,,
null,"<img src=""stim_listA/shout3.gif""style=""height:400px;""></stim_listA>",,html-keyboard-response,308,1912986,0.0-17.0-1.15,49490,List2A,black,man,,,,null,,,,
null,is shouting at,,html-keyboard-response,309,1914989,0.0-17.0-2.15,49490,List2A,black,man,,,,null,,,,
6821,,,survey-text,310,1921810,0.0-17.0-3.15,49490,List2A,black,man,,,,,"{""Q0"":""Fred is shouting at Beth.""}","<img src=""stim_listA/shout3.gif""style=""height:400px;""></stim_listA>",is shouting at,
null,"<div style=""font-size:60px;"">+</div>",,html-keyboard-response,311,1922320,0.0-17.0-0.16,49490,List2A,black,man,,,,null,,,,
null,"<img src=""stim_listA/talk3.gif""style=""height:400px;""></stim_listA>",,html-keyboard-response,312,1924327,0.0-17.0-1.16,49490,List2A,black,man,,,,null,,,,
null,is talking to,,html-keyboard-response,313,1926331,0.0-17.0-2.16,49490,List2A,black,man,,,,null,,,,
6922,,,survey-text,314,1933253,0.0-17.0-3.16,49490,List2A,black,man,,,,,"{""Q0"":""Fred is talking to Kate.""}","<img src=""stim_listA/talk3.gif""style=""height:400px;""></stim_listA>",is talking to,
null,"<div style=""font-size:60px;"">+</div>",,html-keyboard-response,315,1933756,0.0-17.0-0.17,49490,List2A,black,man,,,,null,,,,
null,"<img src=""stim_listA/flirt1.gif""style=""height:400px;""></stim_listA>",,html-keyboard-response,316,1935768,0.0-17.0-1.17,49490,List2A,black,man,,,,null,,,,
null,is flirting with,,html-keyboard-response,317,1937775,0.0-17.0-2.17,49490,List2A,black,man,,,,null,,,,
9654,,,survey-text,318,1947430,0.0-17.0-3.17,49490,List2A,black,man,,,,,"{""Q0"":""Luke is flirting with Jane.""}","<img src=""stim_listA/flirt1.gif""style=""height:400px;""></stim_listA>",is flirting with,
null,"<div style=""font-size:60px;"">+</div>",,html-keyboard-response,319,1947937,0.0-17.0-0.18,49490,List2A,black,man,,,,null,,,,
null,"<img src=""stim_listA/fight1.gif""style=""height:400px;""></stim_listA>",,html-keyboard-response,320,1949946,0.0-17.0-1.18,49490,List2A,black,man,,,,null,,,,
null,is fighting,,html-keyboard-response,321,1951948,0.0-17.0-2.18,49490,List2A,black,man,,,,null,,,,
8695,,,survey-text,322,1960643,0.0-17.0-3.18,49490,List2A,black,man,,,,,"{""Q0"":""Jane is fighting with Dave.""}","<img src=""stim_listA/fight1.gif""style=""height:400px;""></stim_listA>",is fighting,
null,"<div style=""font-size:60px;"">+</div>",,html-keyboard-response,323,1961157,0.0-17.0-0.19,49490,List2A,black,man,,,,null,,,,
null,"<img src=""stim_listA/shout7.gif""style=""height:400px;""></stim_listA>",,html-keyboard-response,324,1963170,0.0-17.0-1.19,49490,List2A,black,man,,,,null,,,,
null,is shouting at,,html-keyboard-response,325,1965172,0.0-17.0-2.19,49490,List2A,black,man,,,,null,,,,
7643,,,survey-text,326,1972816,0.0-17.0-3.19,49490,List2A,black,man,,,,,"{""Q0"":""Beth is shouting at Ruth.""}","<img src=""stim_listA/shout7.gif""style=""height:400px;""></stim_listA>",is shouting at,
3024,"<img src='img/portrait_matrix_list2.jpg' style='width:900px;height:500px;''></img><p>If you have memorised all the portraits and names and are ready to start, press Continue.</p><p><strong>Please note: Your memory of these faces will be tested 4 times during this experiment.</strong></p>",0,html-button-response,327,1975842,0.0-18.0-0.0,49490,List2A,black,man,,,,,,,,
1957,"<img src=""portrait/WM1.jpg""style=""height:400px;""></img>",6,html-button-response,328,1978802,0.0-18.0-1.0,49490,List2A,black,man,,TRUE,6,,,,,
null,CORRECT,,html-keyboard-response,329,1980324,0.0-18.0-2.0-0.0,49490,List2A,black,man,,,,null,,,,
1503,"<img src=""portrait/BM1.jpg""style=""height:400px;""></img>",4,html-button-response,330,1981829,0.0-18.0-4.0,49490,List2A,black,man,,TRUE,4,,,,,
null,CORRECT,,html-keyboard-response,331,1983335,0.0-18.0-5.0-0.0,49490,List2A,black,man,,,,null,,,,
2408,"<img src=""portrait/WW1.jpg""style=""height:400px;""></img>",1,html-button-response,332,1985745,0.0-18.0-7.0,49490,List2A,black,man,,TRUE,1,,,,,
null,CORRECT,,html-keyboard-response,333,1987265,0.0-18.0-8.0-0.0,49490,List2A,black,man,,,,null,,,,
1788,"<img src=""portrait/WW2.jpg""style=""height:400px;""></img>",3,html-button-response,334,1989055,0.0-18.0-10.0,49490,List2A,black,man,,TRUE,3,,,,,
null,CORRECT,,html-keyboard-response,335,1990568,0.0-18.0-11.0-0.0,49490,List2A,black,man,,,,null,,,,
2346,"<img src=""portrait/WM2.jpg""style=""height:400px;""></img>",7,html-button-response,336,1992916,0.0-18.0-13.0,49490,List2A,black,man,,TRUE,7,,,,,
null,CORRECT,,html-keyboard-response,337,1994426,0.0-18.0-14.0-0.0,49490,List2A,black,man,,,,null,,,,
1919,"<img src=""portrait/BM2.jpg""style=""height:400px;""></img>",5,html-button-response,338,1996346,0.0-18.0-16.0,49490,List2A,black,man,,TRUE,5,,,,,
null,CORRECT,,html-keyboard-response,339,1997850,0.0-18.0-17.0-0.0,49490,List2A,black,man,,,,null,,,,
2747,"<img src=""portrait/BW2.jpg""style=""height:400px;""></img>",2,html-button-response,340,2000597,0.0-18.0-19.0,49490,List2A,black,man,,TRUE,2,,,,,
null,CORRECT,,html-keyboard-response,341,2002118,0.0-18.0-20.0-0.0,49490,List2A,black,man,,,,null,,,,
1721,"<img src=""portrait/BW1.jpg""style=""height:400px;""></img>",0,html-button-response,342,2003841,0.0-18.0-22.0,49490,List2A,black,man,,TRUE,0,,,,,
null,CORRECT,,html-keyboard-response,343,2005353,0.0-18.0-23.0-0.0,49490,List2A,black,man,,,,null,,,,
1264,<p>You got 8 out of 8 right first time. Press Continue.</p>,0,html-button-response,344,2006618,0.0-18.0-25.0,49490,List2A,black,man,,,,,,,,
null,"<div style=""font-size:60px;"">+</div>",,html-keyboard-response,345,2008137,0.0-19.0-0.0,49490,List2A,black,man,,,,null,,,,
null,"<img src=""stim_listA/kiss1.gif""style=""height:400px;""></stim_listA>",,html-keyboard-response,346,2010139,0.0-19.0-1.0,49490,List2A,black,man,,,,null,,,,
null,is kissing,,html-keyboard-response,347,2012141,0.0-19.0-2.0,49490,List2A,black,man,,,,null,,,,
7430,,,survey-text,348,2019572,0.0-19.0-3.0,49490,List2A,black,man,,,,,"{""Q0"":""Luke is kissing Ruth.""}","<img src=""stim_listA/kiss1.gif""style=""height:400px;""></stim_listA>",is kissing,
null,"<div style=""font-size:60px;"">+</div>",,html-keyboard-response,349,2020076,0.0-19.0-0.1,49490,List2A,black,man,,,,null,,,,
null,"<img src=""stim_listA/dance5.gif""style=""height:400px;""></stim_listA>",,html-keyboard-response,350,2022078,0.0-19.0-1.1,49490,List2A,black,man,,,,null,,,,
null,is dancing with,,html-keyboard-response,351,2024079,0.0-19.0-2.1,49490,List2A,black,man,,,,null,,,,
8124,,,survey-text,352,2032205,0.0-19.0-3.1,49490,List2A,black,man,,,,,"{""Q0"":""Mike is dancing with Luke.""}","<img src=""stim_listA/dance5.gif""style=""height:400px;""></stim_listA>",is dancing with,
null,"<div style=""font-size:60px;"">+</div>",,html-keyboard-response,353,2032710,0.0-19.0-0.2,49490,List2A,black,man,,,,null,,,,
null,"<img src=""stim_listA/play8.gif""style=""height:400px;""></stim_listA>",,html-keyboard-response,354,2034712,0.0-19.0-1.2,49490,List2A,black,man,,,,null,,,,
null,are playing with each other,,html-keyboard-response,355,2036726,0.0-19.0-2.2,49490,List2A,black,man,,,,null,,,,
7170,,,survey-text,356,2043897,0.0-19.0-3.2,49490,List2A,black,man,,,,,"{""Q0"":""Beth is playing with Ruth.""}","<img src=""stim_listA/play8.gif""style=""height:400px;""></stim_listA>",are playing with each other,
null,"<div style=""font-size:60px;"">+</div>",,html-keyboard-response,357,2044413,0.0-19.0-0.3,49490,List2A,black,man,,,,null,,,,
null,"<img src=""stim_listA/marry2.gif""style=""height:400px;""></stim_listA>",,html-keyboard-response,358,2046416,0.0-19.0-1.3,49490,List2A,black,man,,,,null,,,,
null,are marrying each other,,html-keyboard-response,359,2048418,0.0-19.0-2.3,49490,List2A,black,man,,,,null,,,,
6550,,,survey-text,360,2054968,0.0-19.0-3.3,49490,List2A,black,man,,,,,"{""Q0"":""Luke is marrying Jane.""}","<img src=""stim_listA/marry2.gif""style=""height:400px;""></stim_listA>",are marrying each other,
null,"<div style=""font-size:60px;"">+</div>",,html-keyboard-response,361,2055470,0.0-19.0-0.4,49490,List2A,black,man,,,,null,,,,
null,"<img src=""stim_listA/argue8.gif""style=""height:400px;""></stim_listA>",,html-keyboard-response,362,2057487,0.0-19.0-1.4,49490,List2A,black,man,,,,null,,,,
null,are arguing with each other,,html-keyboard-response,363,2059490,0.0-19.0-2.4,49490,List2A,black,man,,,,null,,,,
9721,,,survey-text,364,2069213,0.0-19.0-3.4,49490,List2A,black,man,,,,,"{""Q0"":""Ruth is arguing with Kate.""}","<img src=""stim_listA/argue8.gif""style=""height:400px;""></stim_listA>",are arguing with each other,
null,"<div style=""font-size:60px;"">+</div>",,html-keyboard-response,365,2069723,0.0-19.0-0.5,49490,List2A,black,man,,,,null,,,,
null,"<img src=""stim_listA/marry4.gif""style=""height:400px;""></stim_listA>",,html-keyboard-response,366,2071738,0.0-19.0-1.5,49490,List2A,black,man,,,,null,,,,
null,are marrying each other,,html-keyboard-response,367,2073744,0.0-19.0-2.5,49490,List2A,black,man,,,,null,,,,
6584,,,survey-text,368,2080330,0.0-19.0-3.5,49490,List2A,black,man,,,,,"{""Q0"":""Fred is marrying Kate.""}","<img src=""stim_listA/marry4.gif""style=""height:400px;""></stim_listA>",are marrying each other,
null,"<div style=""font-size:60px;"">+</div>",,html-keyboard-response,369,2080831,0.0-19.0-0.6,49490,List2A,black,man,,,,null,,,,
null,"<img src=""stim_listA/argue6.gif""style=""height:400px;""></stim_listA>",,html-keyboard-response,370,2082834,0.0-19.0-1.6,49490,List2A,black,man,,,,null,,,,
null,are arguing with each other,,html-keyboard-response,371,2084836,0.0-19.0-2.6,49490,List2A,black,man,,,,null,,,,
9064,,,survey-text,372,2093902,0.0-19.0-3.6,49490,List2A,black,man,,,,,"{""Q0"":""Luke is arguing with Mike.""}","<img src=""stim_listA/argue6.gif""style=""height:400px;""></stim_listA>",are arguing with each other,
null,"<div style=""font-size:60px;"">+</div>",,html-keyboard-response,373,2094408,0.0-19.0-0.7,49490,List2A,black,man,,,,null,,,,
null,"<img src=""stim_listA/talk7.gif""style=""height:400px;""></stim_listA>",,html-keyboard-response,374,2096424,0.0-19.0-1.7,49490,List2A,black,man,,,,null,,,,
null,is talking to,,html-keyboard-response,375,2098425,0.0-19.0-2.7,49490,List2A,black,man,,,,null,,,,
6683,,,survey-text,376,2105109,0.0-19.0-3.7,49490,List2A,black,man,,,,,"{""Q0"":""Ruth is talking to Kate.""}","<img src=""stim_listA/talk7.gif""style=""height:400px;""></stim_listA>",is talking to,
null,"<div style=""font-size:60px;"">+</div>",,html-keyboard-response,377,2105621,0.0-19.0-0.8,49490,List2A,black,man,,,,null,,,,
null,"<img src=""stim_listA/argue1.gif""style=""height:400px;""></stim_listA>",,html-keyboard-response,378,2107636,0.0-19.0-1.8,49490,List2A,black,man,,,,null,,,,
null,is arguing with,,html-keyboard-response,379,2109637,0.0-19.0-2.8,49490,List2A,black,man,,,,null,,,,
8228,,,survey-text,380,2117867,0.0-19.0-3.8,49490,List2A,black,man,,,,,"{""Q0"":""Ruth is arguing with Dave.""}","<img src=""stim_listA/argue1.gif""style=""height:400px;""></stim_listA>",is arguing with,
null,"<div style=""font-size:60px;"">+</div>",,html-keyboard-response,381,2118383,0.0-19.0-0.9,49490,List2A,black,man,,,,null,,,,
null,"<img src=""stim_listA/dance2.gif""style=""height:400px;""></stim_listA>",,html-keyboard-response,382,2120386,0.0-19.0-1.9,49490,List2A,black,man,,,,null,,,,
null,are dancing with each other,,html-keyboard-response,383,2122391,0.0-19.0-2.9,49490,List2A,black,man,,,,null,,,,
5636,,,survey-text,384,2128028,0.0-19.0-3.9,49490,List2A,black,man,,,,,"{""Q0"":""Ruth is dancing with Dave.""}","<img src=""stim_listA/dance2.gif""style=""height:400px;""></stim_listA>",are dancing with each other,
null,"<div style=""font-size:60px;"">+</div>",,html-keyboard-response,385,2128536,0.0-19.0-0.10,49490,List2A,black,man,,,,null,,,,
null,"<img src=""stim_listA/marry7.gif""style=""height:400px;""></stim_listA>",,html-keyboard-response,386,2130551,0.0-19.0-1.10,49490,List2A,black,man,,,,null,,,,
null,is marrying,,html-keyboard-response,387,2132553,0.0-19.0-2.10,49490,List2A,black,man,,,,null,,,,
6647,,,survey-text,388,2139201,0.0-19.0-3.10,49490,List2A,black,man,,,,,"{""Q0"":""Beth is marrying Jane.""}","<img src=""stim_listA/marry7.gif""style=""height:400px;""></stim_listA>",is marrying,
null,"<div style=""font-size:60px;"">+</div>",,html-keyboard-response,389,2139707,0.0-19.0-0.11,49490,List2A,black,man,,,,null,,,,
null,"<img src=""stim_listA/shout1.gif""style=""height:400px;""></stim_listA>",,html-keyboard-response,390,2141720,0.0-19.0-1.11,49490,List2A,black,man,,,,null,,,,
null,is shouting at,,html-keyboard-response,391,2143721,0.0-19.0-2.11,49490,List2A,black,man,,,,null,,,,
7259,,,survey-text,392,2150982,0.0-19.0-3.11,49490,List2A,black,man,,,,,"{""Q0"":""Ruth is shouting at Luke.""}","<img src=""stim_listA/shout1.gif""style=""height:400px;""></stim_listA>",is shouting at,
null,"<div style=""font-size:60px;"">+</div>",,html-keyboard-response,393,2151489,0.0-19.0-0.12,49490,List2A,black,man,,,,null,,,,
null,"<img src=""stim_listA/touch3.gif""style=""height:400px;""></stim_listA>",,html-keyboard-response,394,2153498,0.0-19.0-1.12,49490,List2A,black,man,,,,null,,,,
null,is touching,,html-keyboard-response,395,2155499,0.0-19.0-2.12,49490,List2A,black,man,,,,null,,,,
5610,,,survey-text,396,2161111,0.0-19.0-3.12,49490,List2A,black,man,,,,,"{""Q0"":""Kate is touching Mike.""}","<img src=""stim_listA/touch3.gif""style=""height:400px;""></stim_listA>",is touching,
null,"<div style=""font-size:60px;"">+</div>",,html-keyboard-response,397,2161612,0.0-19.0-0.13,49490,List2A,black,man,,,,null,,,,
null,"<img src=""stim_listA/flirt2.gif""style=""height:400px;""></stim_listA>",,html-keyboard-response,398,2163625,0.0-19.0-1.13,49490,List2A,black,man,,,,null,,,,
null,are flirting with each other,,html-keyboard-response,399,2165626,0.0-19.0-2.13,49490,List2A,black,man,,,,null,,,,
6654,,,survey-text,400,2172282,0.0-19.0-3.13,49490,List2A,black,man,,,,,"{""Q0"":""Ruth is flirting with Dave.""}","<img src=""stim_listA/flirt2.gif""style=""height:400px;""></stim_listA>",are flirting with each other,
null,"<div style=""font-size:60px;"">+</div>",,html-keyboard-response,401,2172788,0.0-19.0-0.14,49490,List2A,black,man,,,,null,,,,
null,"<img src=""stim_listA/touch2.gif""style=""height:400px;""></stim_listA>",,html-keyboard-response,402,2174800,0.0-19.0-1.14,49490,List2A,black,man,,,,null,,,,
null,are touching each other,,html-keyboard-response,403,2176813,0.0-19.0-2.14,49490,List2A,black,man,,,,null,,,,
7013,,,survey-text,404,2183827,0.0-19.0-3.14,49490,List2A,black,man,,,,,"{""Q0"":""Luke is touching Ruth.""}","<img src=""stim_listA/touch2.gif""style=""height:400px;""></stim_listA>",are touching each other,
null,"<div style=""font-size:60px;"">+</div>",,html-keyboard-response,405,2184340,0.0-19.0-0.15,49490,List2A,black,man,,,,null,,,,
null,"<img src=""stim_listA/talk2.gif""style=""height:400px;""></stim_listA>",,html-keyboard-response,406,2186355,0.0-19.0-1.15,49490,List2A,black,man,,,,null,,,,
null,are talking to each other,,html-keyboard-response,407,2188359,0.0-19.0-2.15,49490,List2A,black,man,,,,null,,,,
6741,,,survey-text,408,2195102,0.0-19.0-3.15,49490,List2A,black,man,,,,,"{""Q0"":""Ruth is talking to Dave.""}","<img src=""stim_listA/talk2.gif""style=""height:400px;""></stim_listA>",are talking to each other,
null,"<div style=""font-size:60px;"">+</div>",,html-keyboard-response,409,2195611,0.0-19.0-0.16,49490,List2A,black,man,,,,null,,,,
null,"<img src=""stim_listA/fight2.gif""style=""height:400px;""></stim_listA>",,html-keyboard-response,410,2197612,0.0-19.0-1.16,49490,List2A,black,man,,,,null,,,,
null,are fighting each other,,html-keyboard-response,411,2199622,0.0-19.0-2.16,49490,List2A,black,man,,,,null,,,,
6775,,,survey-text,412,2206399,0.0-19.0-3.16,49490,List2A,black,man,,,,,"{""Q0"":""Luke is fighting with Ruth.""}","<img src=""stim_listA/fight2.gif""style=""height:400px;""></stim_listA>",are fighting each other,
null,"<div style=""font-size:60px;"">+</div>",,html-keyboard-response,413,2206911,0.0-19.0-0.17,49490,List2A,black,man,,,,null,,,,
null,"<img src=""stim_listA/talk1.gif""style=""height:400px;""></stim_listA>",,html-keyboard-response,414,2208922,0.0-19.0-1.17,49490,List2A,black,man,,,,null,,,,
null,is talking to,,html-keyboard-response,415,2210936,0.0-19.0-2.17,49490,List2A,black,man,,,,null,,,,
7389,,,survey-text,416,2218326,0.0-19.0-3.17,49490,List2A,black,man,,,,,"{""Q0"":""Luke is talking to Jane.""}","<img src=""stim_listA/talk1.gif""style=""height:400px;""></stim_listA>",is talking to,
null,"<div style=""font-size:60px;"">+</div>",,html-keyboard-response,417,2218839,0.0-19.0-0.18,49490,List2A,black,man,,,,null,,,,
null,"<img src=""stim_listA/fight8.gif""style=""height:400px;""></stim_listA>",,html-keyboard-response,418,2220842,0.0-19.0-1.18,49490,List2A,black,man,,,,null,,,,
null,are fighting each other,,html-keyboard-response,419,2222858,0.0-19.0-2.18,49490,List2A,black,man,,,,null,,,,
6268,,,survey-text,420,2229128,0.0-19.0-3.18,49490,List2A,black,man,,,,,"{""Q0"":""Ruth is fighting with Beth.""}","<img src=""stim_listA/fight8.gif""style=""height:400px;""></stim_listA>",are fighting each other,
null,"<div style=""font-size:60px;"">+</div>",,html-keyboard-response,421,2229639,0.0-19.0-0.19,49490,List2A,black,man,,,,null,,,,
null,"<img src=""stim_listA/argue5.gif""style=""height:400px;""></stim_listA>",,html-keyboard-response,422,2231641,0.0-19.0-1.19,49490,List2A,black,man,,,,null,,,,
null,is arguing with,,html-keyboard-response,423,2233652,0.0-19.0-2.19,49490,List2A,black,man,,,,null,,,,
7494,,,survey-text,424,2241148,0.0-19.0-3.19,49490,List2A,black,man,,,,,"{""Q0"":""Dave is arguing with Fred.""}","<img src=""stim_listA/argue5.gif""style=""height:400px;""></stim_listA>",is arguing with,
2045,<p>Thank you for completing that task.</p><p>The final part of this session is a short questionnaire.</p><p>Press Continue.</p>,0,html-button-response,425,2243195,0.0-20.0,49490,List2A,black,man,,,,,,,,
27618,,,survey-text,426,2271822,0.0-21.0,49490,List2A,black,man,,,,,"{""Q0"":""32"",""Q1"":""English"",""Q2"":""English"",""Q3"":""United States of America"",""Q4"":""African American"",""Q5"":""Male""}",,,demographics
7681,,,survey-likert,427,2279505,0.0-22.0,49490,List2A,black,man,,,,,"{""Q0"":4}",,,likert_ESS
7947,,,survey-likert,428,2287483,0.0-23.0,49490,List2A,black,man,,,,,"{""Q0"":4}",,,likert_NSSAL_Q1
2380,,,survey-likert,429,2289890,0.0-24.0,49490,List2A,black,man,,,,,"{""Q0"":4}",,,likert_NSSAL_Q2
4190,,,survey-likert,430,2294111,0.0-25.0,49490,List2A,black,man,,,,,"{""Q0"":4}",,,likert_CGRS_Q1
2296,,,survey-likert,431,2296437,0.0-26.0,49490,List2A,black,man,,,,,"{""Q0"":4}",,,likert_CGRS_Q2
1953,,,survey-likert,432,2298421,0.0-27.0,49490,List2A,black,man,,,,,"{""Q0"":4}",,,likert_CGRS_Q3
12775,,,survey-text,433,2311224,0.0-28.0,49490,List2A,black,man,,,,,"{""Q0"":""ccc""}",,,worker_id
28482,,,external-html,434,2340119,0.0-29.0,49490,List2A,black,man,debrief.html,,,,,,,
