rt,stimulus,button_pressed,trial_type,trial_index,time_elapsed,internal_node_id,subject,list,ppt_race,ppt_gender,url,first_guess,correct,key_press,responses,image_type,phrase_type,test_part
9846,Welcome to the experiment. Press Continue to begin.,0,html-button-response,0,9848,0.0-0.0,50118,List1B,black,woman,,,,,,,,
25846,,,external-html,1,36753,0.0-1.0,50118,List1B,black,woman,consent.html,,,,,,,
10583,"<p>On the next page, you will see portraits of 8 people and their names.</p><p>Your first task is to take a few minutes to memorise the names of these people.</p><p>You will have to recall their names during the rest of the experiment, so it is</p><p>essential that you try to memorise these people and their names as best as you can.</p><br><p><strong>You will then be tested on your memory of these names and portraits.</strong></p><br><p>The experiment will start after you have completed this memory test.</p><br><p>Ready?</p>",0,html-button-response,2,47337,0.0-2.0,50118,List1B,black,woman,,,,,,,,
57589,"<img src='img/portrait_matrix_list1.jpg' style='width:900px;height:500px;''></img><p>If you have memorised all the portraits and names and are ready to start, press Continue.</p><p><strong>Please note: Your memory of these faces will be tested 4 times during this experiment.</strong></p>",0,html-button-response,3,105932,0.0-3.0-0.0,50118,List1B,black,woman,,,,,,,,
5970,"<img src=""portrait/WW2.jpg""style=""height:400px;""></img>",3,html-button-response,4,112909,0.0-3.0-1.0,50118,List1B,black,woman,,TRUE,3,,,,,
null,CORRECT,,html-keyboard-response,5,114421,0.0-3.0-2.0-0.0,50118,List1B,black,woman,,,,null,,,,
3846,"<img src=""portrait/BM1.jpg""style=""height:400px;""></img>",4,html-button-response,6,118269,0.0-3.0-4.0,50118,List1B,black,woman,,TRUE,4,,,,,
null,CORRECT,,html-keyboard-response,7,119782,0.0-3.0-5.0-0.0,50118,List1B,black,woman,,,,null,,,,
2094,"<img src=""portrait/BW1.jpg""style=""height:400px;""></img>",0,html-button-response,8,121877,0.0-3.0-7.0,50118,List1B,black,woman,,TRUE,0,,,,,
null,CORRECT,,html-keyboard-response,9,123388,0.0-3.0-8.0-0.0,50118,List1B,black,woman,,,,null,,,,
3128,"<img src=""portrait/BM2.jpg""style=""height:400px;""></img>",5,html-button-response,10,126517,0.0-3.0-10.0,50118,List1B,black,woman,,TRUE,5,,,,,
null,CORRECT,,html-keyboard-response,11,128028,0.0-3.0-11.0-0.0,50118,List1B,black,woman,,,,null,,,,
2720,"<img src=""portrait/WM2.jpg""style=""height:400px;""></img>",7,html-button-response,12,130749,0.0-3.0-13.0,50118,List1B,black,woman,,TRUE,7,,,,,
null,CORRECT,,html-keyboard-response,13,132252,0.0-3.0-14.0-0.0,50118,List1B,black,woman,,,,null,,,,
6096,"<img src=""portrait/WW1.jpg""style=""height:400px;""></img>",1,html-button-response,14,138350,0.0-3.0-16.0,50118,List1B,black,woman,,TRUE,1,,,,,
null,CORRECT,,html-keyboard-response,15,139861,0.0-3.0-17.0-0.0,50118,List1B,black,woman,,,,null,,,,
5239,"<img src=""portrait/WM1.jpg""style=""height:400px;""></img>",6,html-button-response,16,145102,0.0-3.0-19.0,50118,List1B,black,woman,,TRUE,6,,,,,
null,CORRECT,,html-keyboard-response,17,146613,0.0-3.0-20.0-0.0,50118,List1B,black,woman,,,,null,,,,
1960,"<img src=""portrait/BW2.jpg""style=""height:400px;""></img>",2,html-button-response,18,148574,0.0-3.0-22.0,50118,List1B,black,woman,,TRUE,2,,,,,
null,CORRECT,,html-keyboard-response,19,150085,0.0-3.0-23.0-0.0,50118,List1B,black,woman,,,,null,,,,
3360,<p>You got 8 out of 8 right first time. Press Continue.</p>,0,html-button-response,20,153446,0.0-3.0-25.0,50118,List1B,black,woman,,,,,,,,
23482,"<p>In this experiment, you will view photographs of the people from the memory game interacting.</p><p>By using the <strong>exact</strong> phrase given <i>after</i> the photograph appears and recalling the correct names of the people in the photographs, form a sentence describing the interaction. You do not need to capitalise names.</p><p>Type your answer in the space provided. Please complete every sentence before moving onto the next trial.</p><p>You will only have a few seconds to memorise each given photograph and phrase before you can respond, so try your best to focus.</p><p>An example is given below. Press 'Continue' when you are ready.</p><img src='img/speaking_example.jpg' style='width:800px;height:460px;''></img>",0,html-button-response,21,177936,0.0-4.0,50118,List1B,black,woman,,,,,,,,
17267,"<p>Before the experiment starts, you will watch two example trials. Press 'Continue'.</p>",0,html-button-response,22,196208,0.0-5.0,50118,List1B,black,woman,,,,,,,,
null,<img src='img/meet_eg.gif' style='height:400px;''></img>,,html-keyboard-response,23,199219,0.0-6.0,50118,List1B,black,woman,,,,null,,,,
null,<p>is meeting</p>,,html-keyboard-response,24,201225,0.0-7.0,50118,List1B,black,woman,,,,null,,,,
4318,<p><b>Answer:</b> kate is meeting beth</p>,0,html-button-response,25,205545,0.0-8.0,50118,List1B,black,woman,,,,,,,,
null,<img src='img/look_eg.gif' style='height:400px;''></img>,,html-keyboard-response,26,208553,0.0-9.0,50118,List1B,black,woman,,,,null,,,,
null,<p>are looking at each other</p>,,html-keyboard-response,27,210554,0.0-10.0,50118,List1B,black,woman,,,,null,,,,
1775,<p><b>Answer:</b> luke and dave are looking at each other</p>,0,html-button-response,28,212329,0.0-11.0,50118,List1B,black,woman,,,,,,,,
17563,"<p>Ready to start the experiment?</p><br><p><strong>Remember to describe the picture using a full sentence,</strong></p><p><strong>that combines the names of the people with the <i>exact</i> phrase given.</strong></p><p><strong>To receive full payment you must do this correctly.</strong></p><p><strong> You do not need to capitalise names or use punctuation.</strong></p><br><p>Press 'Continue' to begin.</p>",0,html-button-response,29,230898,0.0-12.0,50118,List1B,black,woman,,,,,,,,
null,"<div style=""font-size:60px;"">+</div>",,html-keyboard-response,30,232409,0.0-13.0-0.0,50118,List1B,black,woman,,,,null,,,,
null,"<img src=""stim_listB/dance7.gif""style=""height:400px;""></stim_listB>",,html-keyboard-response,31,234411,0.0-13.0-1.0,50118,List1B,black,woman,,,,null,,,,
null,is dancing with,,html-keyboard-response,32,236416,0.0-13.0-2.0,50118,List1B,black,woman,,,,null,,,,
8930,,,survey-text,33,245347,0.0-13.0-3.0,50118,List1B,black,woman,,,,,"{""Q0"":""Jane is dancing with Beth""}","<img src=""stim_listB/dance7.gif""style=""height:400px;""></stim_listB>",is dancing with,
null,"<div style=""font-size:60px;"">+</div>",,html-keyboard-response,34,245848,0.0-13.0-0.1,50118,List1B,black,woman,,,,null,,,,
null,"<img src=""stim_listB/marry8.gif""style=""height:400px;""></stim_listB>",,html-keyboard-response,35,247851,0.0-13.0-1.1,50118,List1B,black,woman,,,,null,,,,
null,are marrying each other,,html-keyboard-response,36,249856,0.0-13.0-2.1,50118,List1B,black,woman,,,,null,,,,
18098,,,survey-text,37,267956,0.0-13.0-3.1,50118,List1B,black,woman,,,,,"{""Q0"":""beth are marrying each other to Jane""}","<img src=""stim_listB/marry8.gif""style=""height:400px;""></stim_listB>",are marrying each other,
null,"<div style=""font-size:60px;"">+</div>",,html-keyboard-response,38,268462,0.0-13.0-0.2,50118,List1B,black,woman,,,,null,,,,
null,"<img src=""stim_listB/fight1.gif""style=""height:400px;""></stim_listB>",,html-keyboard-response,39,270465,0.0-13.0-1.2,50118,List1B,black,woman,,,,null,,,,
null,is fighting,,html-keyboard-response,40,272467,0.0-13.0-2.2,50118,List1B,black,woman,,,,null,,,,
13465,,,survey-text,41,285933,0.0-13.0-3.2,50118,List1B,black,woman,,,,,"{""Q0"":""Kate and Mike are fighting""}","<img src=""stim_listB/fight1.gif""style=""height:400px;""></stim_listB>",is fighting,
null,"<div style=""font-size:60px;"">+</div>",,html-keyboard-response,42,286439,0.0-13.0-0.3,50118,List1B,black,woman,,,,null,,,,
null,"<img src=""stim_listB/dance5.gif""style=""height:400px;""></stim_listB>",,html-keyboard-response,43,288442,0.0-13.0-1.3,50118,List1B,black,woman,,,,null,,,,
null,is dancing with,,html-keyboard-response,44,290444,0.0-13.0-2.3,50118,List1B,black,woman,,,,null,,,,
9985,,,survey-text,45,300429,0.0-13.0-3.3,50118,List1B,black,woman,,,,,"{""Q0"":""Dave is dancing with Mike""}","<img src=""stim_listB/dance5.gif""style=""height:400px;""></stim_listB>",is dancing with,
null,"<div style=""font-size:60px;"">+</div>",,html-keyboard-response,46,300935,0.0-13.0-0.4,50118,List1B,black,woman,,,,null,,,,
null,"<img src=""stim_listB/argue4.gif""style=""height:400px;""></stim_listB>",,html-keyboard-response,47,302937,0.0-13.0-1.4,50118,List1B,black,woman,,,,null,,,,
null,are arguing with each other,,html-keyboard-response,48,304940,0.0-13.0-2.4,50118,List1B,black,woman,,,,null,,,,
14298,,,survey-text,49,319238,0.0-13.0-3.4,50118,List1B,black,woman,,,,,"{""Q0"":""Jane and Luke are arguing with each other""}","<img src=""stim_listB/argue4.gif""style=""height:400px;""></stim_listB>",are arguing with each other,
null,"<div style=""font-size:60px;"">+</div>",,html-keyboard-response,50,319744,0.0-13.0-0.5,50118,List1B,black,woman,,,,null,,,,
null,"<img src=""stim_listB/play8.gif""style=""height:400px;""></stim_listB>",,html-keyboard-response,51,321748,0.0-13.0-1.5,50118,List1B,black,woman,,,,null,,,,
null,are playing with each other,,html-keyboard-response,52,323753,0.0-13.0-2.5,50118,List1B,black,woman,,,,null,,,,
16725,,,survey-text,53,340479,0.0-13.0-3.5,50118,List1B,black,woman,,,,,"{""Q0"":""Beth and ruth are playing games""}","<img src=""stim_listB/play8.gif""style=""height:400px;""></stim_listB>",are playing with each other,
null,"<div style=""font-size:60px;"">+</div>",,html-keyboard-response,54,340984,0.0-13.0-0.6,50118,List1B,black,woman,,,,null,,,,
null,"<img src=""stim_listB/fight3.gif""style=""height:400px;""></stim_listB>",,html-keyboard-response,55,342985,0.0-13.0-1.6,50118,List1B,black,woman,,,,null,,,,
null,is fighting,,html-keyboard-response,56,344986,0.0-13.0-2.6,50118,List1B,black,woman,,,,null,,,,
10637,,,survey-text,57,355624,0.0-13.0-3.6,50118,List1B,black,woman,,,,,"{""Q0"":""Jane and Dave is fighting""}","<img src=""stim_listB/fight3.gif""style=""height:400px;""></stim_listB>",is fighting,
null,"<div style=""font-size:60px;"">+</div>",,html-keyboard-response,58,356127,0.0-13.0-0.7,50118,List1B,black,woman,,,,null,,,,
null,"<img src=""stim_listB/flirt2.gif""style=""height:400px;""></stim_listB>",,html-keyboard-response,59,358128,0.0-13.0-1.7,50118,List1B,black,woman,,,,null,,,,
null,are flirting with each other,,html-keyboard-response,60,360129,0.0-13.0-2.7,50118,List1B,black,woman,,,,null,,,,
12039,,,survey-text,61,372169,0.0-13.0-3.7,50118,List1B,black,woman,,,,,"{""Q0"":""Beth and Ben are flirting""}","<img src=""stim_listB/flirt2.gif""style=""height:400px;""></stim_listB>",are flirting with each other,
null,"<div style=""font-size:60px;"">+</div>",,html-keyboard-response,62,372675,0.0-13.0-0.8,50118,List1B,black,woman,,,,null,,,,
null,"<img src=""stim_listB/talk2.gif""style=""height:400px;""></stim_listB>",,html-keyboard-response,63,374677,0.0-13.0-1.8,50118,List1B,black,woman,,,,null,,,,
null,are talking to each other,,html-keyboard-response,64,376682,0.0-13.0-2.8,50118,List1B,black,woman,,,,null,,,,
13542,,,survey-text,65,390226,0.0-13.0-3.8,50118,List1B,black,woman,,,,,"{""Q0"":""Beth and Ben are talking to eachother""}","<img src=""stim_listB/talk2.gif""style=""height:400px;""></stim_listB>",are talking to each other,
null,"<div style=""font-size:60px;"">+</div>",,html-keyboard-response,66,390733,0.0-13.0-0.9,50118,List1B,black,woman,,,,null,,,,
null,"<img src=""stim_listB/touch8.gif""style=""height:400px;""></stim_listB>",,html-keyboard-response,67,392734,0.0-13.0-1.9,50118,List1B,black,woman,,,,null,,,,
null,are touching each other,,html-keyboard-response,68,394739,0.0-13.0-2.9,50118,List1B,black,woman,,,,null,,,,
17550,,,survey-text,69,412291,0.0-13.0-3.9,50118,List1B,black,woman,,,,,"{""Q0"":""Kate and Ruth are touching each other ""}","<img src=""stim_listB/touch8.gif""style=""height:400px;""></stim_listB>",are touching each other,
null,"<div style=""font-size:60px;"">+</div>",,html-keyboard-response,70,412797,0.0-13.0-0.10,50118,List1B,black,woman,,,,null,,,,
null,"<img src=""stim_listB/dance4.gif""style=""height:400px;""></stim_listB>",,html-keyboard-response,71,414800,0.0-13.0-1.10,50118,List1B,black,woman,,,,null,,,,
null,are dancing with each other,,html-keyboard-response,72,416801,0.0-13.0-2.10,50118,List1B,black,woman,,,,null,,,,
16178,,,survey-text,73,432980,0.0-13.0-3.10,50118,List1B,black,woman,,,,,"{""Q0"":""Ruth and Dave are dancing with each other ""}","<img src=""stim_listB/dance4.gif""style=""height:400px;""></stim_listB>",are dancing with each other,
null,"<div style=""font-size:60px;"">+</div>",,html-keyboard-response,74,433483,0.0-13.0-0.11,50118,List1B,black,woman,,,,null,,,,
null,"<img src=""stim_listB/argue1.gif""style=""height:400px;""></stim_listB>",,html-keyboard-response,75,435487,0.0-13.0-1.11,50118,List1B,black,woman,,,,null,,,,
null,is arguing with,,html-keyboard-response,76,437492,0.0-13.0-2.11,50118,List1B,black,woman,,,,null,,,,
23449,,,survey-text,77,460941,0.0-13.0-3.11,50118,List1B,black,woman,,,,,"{""Q0"":""ben and kate are arguing ""}","<img src=""stim_listB/argue1.gif""style=""height:400px;""></stim_listB>",is arguing with,
null,"<div style=""font-size:60px;"">+</div>",,html-keyboard-response,78,461444,0.0-13.0-0.12,50118,List1B,black,woman,,,,null,,,,
null,"<img src=""stim_listB/argue3.gif""style=""height:400px;""></stim_listB>",,html-keyboard-response,79,463446,0.0-13.0-1.12,50118,List1B,black,woman,,,,null,,,,
null,is arguing with,,html-keyboard-response,80,465452,0.0-13.0-2.12,50118,List1B,black,woman,,,,null,,,,
11177,,,survey-text,81,476630,0.0-13.0-3.12,50118,List1B,black,woman,,,,,"{""Q0"":""dave and ben are arguing""}","<img src=""stim_listB/argue3.gif""style=""height:400px;""></stim_listB>",is arguing with,
null,"<div style=""font-size:60px;"">+</div>",,html-keyboard-response,82,477136,0.0-13.0-0.13,50118,List1B,black,woman,,,,null,,,,
null,"<img src=""stim_listB/dance1.gif""style=""height:400px;""></stim_listB>",,html-keyboard-response,83,479140,0.0-13.0-1.13,50118,List1B,black,woman,,,,null,,,,
null,is dancing with,,html-keyboard-response,84,481146,0.0-13.0-2.13,50118,List1B,black,woman,,,,null,,,,
13068,,,survey-text,85,494215,0.0-13.0-3.13,50118,List1B,black,woman,,,,,"{""Q0"":""mike and jane is dancing""}","<img src=""stim_listB/dance1.gif""style=""height:400px;""></stim_listB>",is dancing with,
null,"<div style=""font-size:60px;"">+</div>",,html-keyboard-response,86,494719,0.0-13.0-0.14,50118,List1B,black,woman,,,,null,,,,
null,"<img src=""stim_listB/marry4.gif""style=""height:400px;""></stim_listB>",,html-keyboard-response,87,496722,0.0-13.0-1.14,50118,List1B,black,woman,,,,null,,,,
null,are marrying each other,,html-keyboard-response,88,498727,0.0-13.0-2.14,50118,List1B,black,woman,,,,null,,,,
13015,,,survey-text,89,511744,0.0-13.0-3.14,50118,List1B,black,woman,,,,,"{""Q0"":""Luke and Jane is marrying eachother ""}","<img src=""stim_listB/marry4.gif""style=""height:400px;""></stim_listB>",are marrying each other,
null,"<div style=""font-size:60px;"">+</div>",,html-keyboard-response,90,512247,0.0-13.0-0.15,50118,List1B,black,woman,,,,null,,,,
null,"<img src=""stim_listB/talk8.gif""style=""height:400px;""></stim_listB>",,html-keyboard-response,91,514249,0.0-13.0-1.15,50118,List1B,black,woman,,,,null,,,,
null,are talking to each other,,html-keyboard-response,92,516250,0.0-13.0-2.15,50118,List1B,black,woman,,,,null,,,,
13086,,,survey-text,93,529336,0.0-13.0-3.15,50118,List1B,black,woman,,,,,"{""Q0"":""Ruth and Kate are talking to each other""}","<img src=""stim_listB/talk8.gif""style=""height:400px;""></stim_listB>",are talking to each other,
null,"<div style=""font-size:60px;"">+</div>",,html-keyboard-response,94,529839,0.0-13.0-0.16,50118,List1B,black,woman,,,,null,,,,
null,"<img src=""stim_listB/dance8.gif""style=""height:400px;""></stim_listB>",,html-keyboard-response,95,531843,0.0-13.0-1.16,50118,List1B,black,woman,,,,null,,,,
null,are dancing with each other,,html-keyboard-response,96,533849,0.0-13.0-2.16,50118,List1B,black,woman,,,,null,,,,
8864,,,survey-text,97,542713,0.0-13.0-3.16,50118,List1B,black,woman,,,,,"{""Q0"":""kate and ruth is dancing""}","<img src=""stim_listB/dance8.gif""style=""height:400px;""></stim_listB>",are dancing with each other,
null,"<div style=""font-size:60px;"">+</div>",,html-keyboard-response,98,543219,0.0-13.0-0.17,50118,List1B,black,woman,,,,null,,,,
null,"<img src=""stim_listB/shout2.gif""style=""height:400px;""></stim_listB>",,html-keyboard-response,99,545220,0.0-13.0-1.17,50118,List1B,black,woman,,,,null,,,,
null,are shouting at each other,,html-keyboard-response,100,547223,0.0-13.0-2.17,50118,List1B,black,woman,,,,null,,,,
11819,,,survey-text,101,559042,0.0-13.0-3.17,50118,List1B,black,woman,,,,,"{""Q0"":""Ben and beth is arguing""}","<img src=""stim_listB/shout2.gif""style=""height:400px;""></stim_listB>",are shouting at each other,
null,"<div style=""font-size:60px;"">+</div>",,html-keyboard-response,102,559548,0.0-13.0-0.18,50118,List1B,black,woman,,,,null,,,,
null,"<img src=""stim_listB/talk7.gif""style=""height:400px;""></stim_listB>",,html-keyboard-response,103,561550,0.0-13.0-1.18,50118,List1B,black,woman,,,,null,,,,
null,is talking to,,html-keyboard-response,104,563555,0.0-13.0-2.18,50118,List1B,black,woman,,,,null,,,,
9222,,,survey-text,105,572779,0.0-13.0-3.18,50118,List1B,black,woman,,,,,"{""Q0"":""Beth is talking to jane""}","<img src=""stim_listB/talk7.gif""style=""height:400px;""></stim_listB>",is talking to,
null,"<div style=""font-size:60px;"">+</div>",,html-keyboard-response,106,573285,0.0-13.0-0.19,50118,List1B,black,woman,,,,null,,,,
null,"<img src=""stim_listB/touch1.gif""style=""height:400px;""></stim_listB>",,html-keyboard-response,107,575287,0.0-13.0-1.19,50118,List1B,black,woman,,,,null,,,,
null,is touching,,html-keyboard-response,108,577292,0.0-13.0-2.19,50118,List1B,black,woman,,,,null,,,,
6775,,,survey-text,109,584067,0.0-13.0-3.19,50118,List1B,black,woman,,,,,"{""Q0"":""Kate is touching ben""}","<img src=""stim_listB/touch1.gif""style=""height:400px;""></stim_listB>",is touching,
25032,"<img src='img/portrait_matrix_list1.jpg' style='width:900px;height:500px;''></img><p>If you have memorised all the portraits and names and are ready to start, press Continue.</p><p><strong>Please note: Your memory of these faces will be tested 4 times during this experiment.</strong></p>",0,html-button-response,110,609100,0.0-14.0-0.0,50118,List1B,black,woman,,,,,,,,
3354,"<img src=""portrait/BM2.jpg""style=""height:400px;""></img>",5,html-button-response,111,613461,0.0-14.0-1.0,50118,List1B,black,woman,,TRUE,5,,,,,
null,CORRECT,,html-keyboard-response,112,614971,0.0-14.0-2.0-0.0,50118,List1B,black,woman,,,,null,,,,
1984,"<img src=""portrait/BW1.jpg""style=""height:400px;""></img>",0,html-button-response,113,616957,0.0-14.0-4.0,50118,List1B,black,woman,,TRUE,0,,,,,
null,CORRECT,,html-keyboard-response,114,618468,0.0-14.0-5.0-0.0,50118,List1B,black,woman,,,,null,,,,
1351,"<img src=""portrait/BW2.jpg""style=""height:400px;""></img>",2,html-button-response,115,619821,0.0-14.0-7.0,50118,List1B,black,woman,,TRUE,2,,,,,
null,CORRECT,,html-keyboard-response,116,621332,0.0-14.0-8.0-0.0,50118,List1B,black,woman,,,,null,,,,
1632,"<img src=""portrait/WW1.jpg""style=""height:400px;""></img>",1,html-button-response,117,622965,0.0-14.0-10.0,50118,List1B,black,woman,,TRUE,1,,,,,
null,CORRECT,,html-keyboard-response,118,624472,0.0-14.0-11.0-0.0,50118,List1B,black,woman,,,,null,,,,
1957,"<img src=""portrait/BM1.jpg""style=""height:400px;""></img>",4,html-button-response,119,626429,0.0-14.0-13.0,50118,List1B,black,woman,,TRUE,4,,,,,
null,CORRECT,,html-keyboard-response,120,627935,0.0-14.0-14.0-0.0,50118,List1B,black,woman,,,,null,,,,
1837,"<img src=""portrait/WM2.jpg""style=""height:400px;""></img>",7,html-button-response,121,629773,0.0-14.0-16.0,50118,List1B,black,woman,,TRUE,7,,,,,
null,CORRECT,,html-keyboard-response,122,631285,0.0-14.0-17.0-0.0,50118,List1B,black,woman,,,,null,,,,
5128,"<img src=""portrait/WW2.jpg""style=""height:400px;""></img>",3,html-button-response,123,636414,0.0-14.0-19.0,50118,List1B,black,woman,,TRUE,3,,,,,
null,CORRECT,,html-keyboard-response,124,637925,0.0-14.0-20.0-0.0,50118,List1B,black,woman,,,,null,,,,
3200,"<img src=""portrait/WM1.jpg""style=""height:400px;""></img>",6,html-button-response,125,641126,0.0-14.0-22.0,50118,List1B,black,woman,,TRUE,6,,,,,
null,CORRECT,,html-keyboard-response,126,642637,0.0-14.0-23.0-0.0,50118,List1B,black,woman,,,,null,,,,
1408,<p>You got 8 out of 8 right first time. Press Continue.</p>,0,html-button-response,127,644046,0.0-14.0-25.0,50118,List1B,black,woman,,,,,,,,
null,"<div style=""font-size:60px;"">+</div>",,html-keyboard-response,128,645557,0.0-15.0-0.0,50118,List1B,black,woman,,,,null,,,,
null,"<img src=""stim_listB/marry2.gif""style=""height:400px;""></stim_listB>",,html-keyboard-response,129,647561,0.0-15.0-1.0,50118,List1B,black,woman,,,,null,,,,
null,are marrying each other,,html-keyboard-response,130,649562,0.0-15.0-2.0,50118,List1B,black,woman,,,,null,,,,
17532,,,survey-text,131,667095,0.0-15.0-3.0,50118,List1B,black,woman,,,,,"{""Q0"":""fred and kate are marrying each other""}","<img src=""stim_listB/marry2.gif""style=""height:400px;""></stim_listB>",are marrying each other,
null,"<div style=""font-size:60px;"">+</div>",,html-keyboard-response,132,667599,0.0-15.0-0.1,50118,List1B,black,woman,,,,null,,,,
null,"<img src=""stim_listB/kiss2.gif""style=""height:400px;""></stim_listB>",,html-keyboard-response,133,669601,0.0-15.0-1.1,50118,List1B,black,woman,,,,null,,,,
null,are kissing each other,,html-keyboard-response,134,671603,0.0-15.0-2.1,50118,List1B,black,woman,,,,null,,,,
8371,,,survey-text,135,679976,0.0-15.0-3.1,50118,List1B,black,woman,,,,,"{""Q0"":""mike and kate are kissing each other ""}","<img src=""stim_listB/kiss2.gif""style=""height:400px;""></stim_listB>",are kissing each other,
null,"<div style=""font-size:60px;"">+</div>",,html-keyboard-response,136,680479,0.0-15.0-0.2,50118,List1B,black,woman,,,,null,,,,
null,"<img src=""stim_listB/shout5.gif""style=""height:400px;""></stim_listB>",,html-keyboard-response,137,682480,0.0-15.0-1.2,50118,List1B,black,woman,,,,null,,,,
null,is shouting at,,html-keyboard-response,138,684483,0.0-15.0-2.2,50118,List1B,black,woman,,,,null,,,,
7885,,,survey-text,139,692368,0.0-15.0-3.2,50118,List1B,black,woman,,,,,"{""Q0"":""mike is shouting at luke""}","<img src=""stim_listB/shout5.gif""style=""height:400px;""></stim_listB>",is shouting at,
null,"<div style=""font-size:60px;"">+</div>",,html-keyboard-response,140,692874,0.0-15.0-0.3,50118,List1B,black,woman,,,,null,,,,
null,"<img src=""stim_listB/talk5.gif""style=""height:400px;""></stim_listB>",,html-keyboard-response,141,694877,0.0-15.0-1.3,50118,List1B,black,woman,,,,null,,,,
null,is talking to,,html-keyboard-response,142,696882,0.0-15.0-2.3,50118,List1B,black,woman,,,,null,,,,
12246,,,survey-text,143,709129,0.0-15.0-3.3,50118,List1B,black,woman,,,,,"{""Q0"":""fred is talking to dave""}","<img src=""stim_listB/talk5.gif""style=""height:400px;""></stim_listB>",is talking to,
null,"<div style=""font-size:60px;"">+</div>",,html-keyboard-response,144,709634,0.0-15.0-0.4,50118,List1B,black,woman,,,,null,,,,
null,"<img src=""stim_listB/talk6.gif""style=""height:400px;""></stim_listB>",,html-keyboard-response,145,711636,0.0-15.0-1.4,50118,List1B,black,woman,,,,null,,,,
null,are talking to each other,,html-keyboard-response,146,713642,0.0-15.0-2.4,50118,List1B,black,woman,,,,null,,,,
9672,,,survey-text,147,723314,0.0-15.0-3.4,50118,List1B,black,woman,,,,,"{""Q0"":""mike and luke are talking to each other ""}","<img src=""stim_listB/talk6.gif""style=""height:400px;""></stim_listB>",are talking to each other,
null,"<div style=""font-size:60px;"">+</div>",,html-keyboard-response,148,723820,0.0-15.0-0.5,50118,List1B,black,woman,,,,null,,,,
null,"<img src=""stim_listB/fight6.gif""style=""height:400px;""></stim_listB>",,html-keyboard-response,149,725826,0.0-15.0-1.5,50118,List1B,black,woman,,,,null,,,,
null,are fighting each other,,html-keyboard-response,150,727831,0.0-15.0-2.5,50118,List1B,black,woman,,,,null,,,,
10659,,,survey-text,151,738491,0.0-15.0-3.5,50118,List1B,black,woman,,,,,"{""Q0"":""fred and luke are fighting each other""}","<img src=""stim_listB/fight6.gif""style=""height:400px;""></stim_listB>",are fighting each other,
null,"<div style=""font-size:60px;"">+</div>",,html-keyboard-response,152,738997,0.0-15.0-0.6,50118,List1B,black,woman,,,,null,,,,
null,"<img src=""stim_listB/marry3.gif""style=""height:400px;""></stim_listB>",,html-keyboard-response,153,741002,0.0-15.0-1.6,50118,List1B,black,woman,,,,null,,,,
null,is marrying,,html-keyboard-response,154,743007,0.0-15.0-2.6,50118,List1B,black,woman,,,,null,,,,
6291,,,survey-text,155,749299,0.0-15.0-3.6,50118,List1B,black,woman,,,,,"{""Q0"":""dave is marrying ruth""}","<img src=""stim_listB/marry3.gif""style=""height:400px;""></stim_listB>",is marrying,
null,"<div style=""font-size:60px;"">+</div>",,html-keyboard-response,156,749801,0.0-15.0-0.7,50118,List1B,black,woman,,,,null,,,,
null,"<img src=""stim_listB/dance2.gif""style=""height:400px;""></stim_listB>",,html-keyboard-response,157,751803,0.0-15.0-1.7,50118,List1B,black,woman,,,,null,,,,
null,are dancing with each other,,html-keyboard-response,158,753808,0.0-15.0-2.7,50118,List1B,black,woman,,,,null,,,,
12459,,,survey-text,159,766268,0.0-15.0-3.7,50118,List1B,black,woman,,,,,"{""Q0"":""mike and beth is dancing""}","<img src=""stim_listB/dance2.gif""style=""height:400px;""></stim_listB>",are dancing with each other,
null,"<div style=""font-size:60px;"">+</div>",,html-keyboard-response,160,766771,0.0-15.0-0.8,50118,List1B,black,woman,,,,null,,,,
null,"<img src=""stim_listB/play2.gif""style=""height:400px;""></stim_listB>",,html-keyboard-response,161,768773,0.0-15.0-1.8,50118,List1B,black,woman,,,,null,,,,
null,are playing with each other,,html-keyboard-response,162,770778,0.0-15.0-2.8,50118,List1B,black,woman,,,,null,,,,
16978,,,survey-text,163,787757,0.0-15.0-3.8,50118,List1B,black,woman,,,,,"{""Q0"":""fred and beth are playing with each other ""}","<img src=""stim_listB/play2.gif""style=""height:400px;""></stim_listB>",are playing with each other,
null,"<div style=""font-size:60px;"">+</div>",,html-keyboard-response,164,788265,0.0-15.0-0.9,50118,List1B,black,woman,,,,null,,,,
null,"<img src=""stim_listB/shout4.gif""style=""height:400px;""></stim_listB>",,html-keyboard-response,165,790269,0.0-15.0-1.9,50118,List1B,black,woman,,,,null,,,,
null,are shouting at each other,,html-keyboard-response,166,792272,0.0-15.0-2.9,50118,List1B,black,woman,,,,null,,,,
11301,,,survey-text,167,803574,0.0-15.0-3.9,50118,List1B,black,woman,,,,,"{""Q0"":""Jane and dave are shouting at each other""}","<img src=""stim_listB/shout4.gif""style=""height:400px;""></stim_listB>",are shouting at each other,
null,"<div style=""font-size:60px;"">+</div>",,html-keyboard-response,168,804080,0.0-15.0-0.10,50118,List1B,black,woman,,,,null,,,,
null,"<img src=""stim_listB/play4.gif""style=""height:400px;""></stim_listB>",,html-keyboard-response,169,806082,0.0-15.0-1.10,50118,List1B,black,woman,,,,null,,,,
null,are playing with each other,,html-keyboard-response,170,808084,0.0-15.0-2.10,50118,List1B,black,woman,,,,null,,,,
15338,,,survey-text,171,823423,0.0-15.0-3.10,50118,List1B,black,woman,,,,,"{""Q0"":""ruth and luke are playing with each other""}","<img src=""stim_listB/play4.gif""style=""height:400px;""></stim_listB>",are playing with each other,
null,"<div style=""font-size:60px;"">+</div>",,html-keyboard-response,172,823924,0.0-15.0-0.11,50118,List1B,black,woman,,,,null,,,,
null,"<img src=""stim_listB/fight2.gif""style=""height:400px;""></stim_listB>",,html-keyboard-response,173,825925,0.0-15.0-1.11,50118,List1B,black,woman,,,,null,,,,
null,are fighting each other,,html-keyboard-response,174,827926,0.0-15.0-2.11,50118,List1B,black,woman,,,,null,,,,
12833,,,survey-text,175,840760,0.0-15.0-3.11,50118,List1B,black,woman,,,,,"{""Q0"":""beth and fred are fighting each other ""}","<img src=""stim_listB/fight2.gif""style=""height:400px;""></stim_listB>",are fighting each other,
null,"<div style=""font-size:60px;"">+</div>",,html-keyboard-response,176,841266,0.0-15.0-0.12,50118,List1B,black,woman,,,,null,,,,
null,"<img src=""stim_listB/argue5.gif""style=""height:400px;""></stim_listB>",,html-keyboard-response,177,843269,0.0-15.0-1.12,50118,List1B,black,woman,,,,null,,,,
null,is arguing with,,html-keyboard-response,178,845274,0.0-15.0-2.12,50118,List1B,black,woman,,,,null,,,,
12341,,,survey-text,179,857616,0.0-15.0-3.12,50118,List1B,black,woman,,,,,"{""Q0"":""luke and mike are arguing with each other""}","<img src=""stim_listB/argue5.gif""style=""height:400px;""></stim_listB>",is arguing with,
null,"<div style=""font-size:60px;"">+</div>",,html-keyboard-response,180,858118,0.0-15.0-0.13,50118,List1B,black,woman,,,,null,,,,
null,"<img src=""stim_listB/fight7.gif""style=""height:400px;""></stim_listB>",,html-keyboard-response,181,860120,0.0-15.0-1.13,50118,List1B,black,woman,,,,null,,,,
null,is fighting,,html-keyboard-response,182,862126,0.0-15.0-2.13,50118,List1B,black,woman,,,,null,,,,
7867,,,survey-text,183,869993,0.0-15.0-3.13,50118,List1B,black,woman,,,,,"{""Q0"":""jane is fighting kate""}","<img src=""stim_listB/fight7.gif""style=""height:400px;""></stim_listB>",is fighting,
null,"<div style=""font-size:60px;"">+</div>",,html-keyboard-response,184,870499,0.0-15.0-0.14,50118,List1B,black,woman,,,,null,,,,
null,"<img src=""stim_listB/marry7.gif""style=""height:400px;""></stim_listB>",,html-keyboard-response,185,872502,0.0-15.0-1.14,50118,List1B,black,woman,,,,null,,,,
null,is marrying,,html-keyboard-response,186,874507,0.0-15.0-2.14,50118,List1B,black,woman,,,,null,,,,
8110,,,survey-text,187,882618,0.0-15.0-3.14,50118,List1B,black,woman,,,,,"{""Q0"":""ruth is marrying kate""}","<img src=""stim_listB/marry7.gif""style=""height:400px;""></stim_listB>",is marrying,
null,"<div style=""font-size:60px;"">+</div>",,html-keyboard-response,188,883124,0.0-15.0-0.15,50118,List1B,black,woman,,,,null,,,,
null,"<img src=""stim_listB/play7.gif""style=""height:400px;""></stim_listB>",,html-keyboard-response,189,885126,0.0-15.0-1.15,50118,List1B,black,woman,,,,null,,,,
null,is playing with,,html-keyboard-response,190,887129,0.0-15.0-2.15,50118,List1B,black,woman,,,,null,,,,
9193,,,survey-text,191,896322,0.0-15.0-3.15,50118,List1B,black,woman,,,,,"{""Q0"":""kate is playing with jane""}","<img src=""stim_listB/play7.gif""style=""height:400px;""></stim_listB>",is playing with,
null,"<div style=""font-size:60px;"">+</div>",,html-keyboard-response,192,896828,0.0-15.0-0.16,50118,List1B,black,woman,,,,null,,,,
null,"<img src=""stim_listB/argue8.gif""style=""height:400px;""></stim_listB>",,html-keyboard-response,193,898834,0.0-15.0-1.16,50118,List1B,black,woman,,,,null,,,,
null,are arguing with each other,,html-keyboard-response,194,900840,0.0-15.0-2.16,50118,List1B,black,woman,,,,null,,,,
18843,,,survey-text,195,919683,0.0-15.0-3.16,50118,List1B,black,woman,,,,,"{""Q0"":""jane and beth are arguing with each other""}","<img src=""stim_listB/argue8.gif""style=""height:400px;""></stim_listB>",are arguing with each other,
null,"<div style=""font-size:60px;"">+</div>",,html-keyboard-response,196,920190,0.0-15.0-0.17,50118,List1B,black,woman,,,,null,,,,
null,"<img src=""stim_listB/marry1.gif""style=""height:400px;""></stim_listB>",,html-keyboard-response,197,922191,0.0-15.0-1.17,50118,List1B,black,woman,,,,null,,,,
null,is marrying,,html-keyboard-response,198,924197,0.0-15.0-2.17,50118,List1B,black,woman,,,,null,,,,
10351,,,survey-text,199,934548,0.0-15.0-3.17,50118,List1B,black,woman,,,,,"{""Q0"":""mike is marrying beth""}","<img src=""stim_listB/marry1.gif""style=""height:400px;""></stim_listB>",is marrying,
null,"<div style=""font-size:60px;"">+</div>",,html-keyboard-response,200,935054,0.0-15.0-0.18,50118,List1B,black,woman,,,,null,,,,
null,"<img src=""stim_listB/play5.gif""style=""height:400px;""></stim_listB>",,html-keyboard-response,201,937057,0.0-15.0-1.18,50118,List1B,black,woman,,,,null,,,,
null,is playing with,,html-keyboard-response,202,939062,0.0-15.0-2.18,50118,List1B,black,woman,,,,null,,,,
8045,,,survey-text,203,947109,0.0-15.0-3.18,50118,List1B,black,woman,,,,,"{""Q0"":""mike is playing with dave""}","<img src=""stim_listB/play5.gif""style=""height:400px;""></stim_listB>",is playing with,
null,"<div style=""font-size:60px;"">+</div>",,html-keyboard-response,204,947614,0.0-15.0-0.19,50118,List1B,black,woman,,,,null,,,,
null,"<img src=""stim_listB/dance3.gif""style=""height:400px;""></stim_listB>",,html-keyboard-response,205,949620,0.0-15.0-1.19,50118,List1B,black,woman,,,,null,,,,
null,is dancing with,,html-keyboard-response,206,951625,0.0-15.0-2.19,50118,List1B,black,woman,,,,null,,,,
7676,,,survey-text,207,959301,0.0-15.0-3.19,50118,List1B,black,woman,,,,,"{""Q0"":""jane is dancing with luke""}","<img src=""stim_listB/dance3.gif""style=""height:400px;""></stim_listB>",is dancing with,
6655,"<img src='img/portrait_matrix_list1.jpg' style='width:900px;height:500px;''></img><p>If you have memorised all the portraits and names and are ready to start, press Continue.</p><p><strong>Please note: Your memory of these faces will be tested 4 times during this experiment.</strong></p>",0,html-button-response,208,965958,0.0-16.0-0.0,50118,List1B,black,woman,,,,,,,,
2474,"<img src=""portrait/WM1.jpg""style=""height:400px;""></img>",6,html-button-response,209,969438,0.0-16.0-1.0,50118,List1B,black,woman,,TRUE,6,,,,,
null,CORRECT,,html-keyboard-response,210,970947,0.0-16.0-2.0-0.0,50118,List1B,black,woman,,,,null,,,,
1539,"<img src=""portrait/BM1.jpg""style=""height:400px;""></img>",4,html-button-response,211,972486,0.0-16.0-4.0,50118,List1B,black,woman,,TRUE,4,,,,,
null,CORRECT,,html-keyboard-response,212,973997,0.0-16.0-5.0-0.0,50118,List1B,black,woman,,,,null,,,,
1537,"<img src=""portrait/BW1.jpg""style=""height:400px;""></img>",0,html-button-response,213,975534,0.0-16.0-7.0,50118,List1B,black,woman,,TRUE,0,,,,,
null,CORRECT,,html-keyboard-response,214,977042,0.0-16.0-8.0-0.0,50118,List1B,black,woman,,,,null,,,,
1140,"<img src=""portrait/WW1.jpg""style=""height:400px;""></img>",1,html-button-response,215,978182,0.0-16.0-10.0,50118,List1B,black,woman,,TRUE,1,,,,,
null,CORRECT,,html-keyboard-response,216,979691,0.0-16.0-11.0-0.0,50118,List1B,black,woman,,,,null,,,,
1402,"<img src=""portrait/WM2.jpg""style=""height:400px;""></img>",7,html-button-response,217,981095,0.0-16.0-13.0,50118,List1B,black,woman,,TRUE,7,,,,,
null,CORRECT,,html-keyboard-response,218,982603,0.0-16.0-14.0-0.0,50118,List1B,black,woman,,,,null,,,,
2051,"<img src=""portrait/BM2.jpg""style=""height:400px;""></img>",5,html-button-response,219,984655,0.0-16.0-16.0,50118,List1B,black,woman,,TRUE,5,,,,,
null,CORRECT,,html-keyboard-response,220,986166,0.0-16.0-17.0-0.0,50118,List1B,black,woman,,,,null,,,,
1231,"<img src=""portrait/BW2.jpg""style=""height:400px;""></img>",2,html-button-response,221,987399,0.0-16.0-19.0,50118,List1B,black,woman,,TRUE,2,,,,,
null,CORRECT,,html-keyboard-response,222,988906,0.0-16.0-20.0-0.0,50118,List1B,black,woman,,,,null,,,,
861,"<img src=""portrait/WW2.jpg""style=""height:400px;""></img>",3,html-button-response,223,989767,0.0-16.0-22.0,50118,List1B,black,woman,,TRUE,3,,,,,
null,CORRECT,,html-keyboard-response,224,991278,0.0-16.0-23.0-0.0,50118,List1B,black,woman,,,,null,,,,
1432,<p>You got 8 out of 8 right first time. Press Continue.</p>,0,html-button-response,225,992711,0.0-16.0-25.0,50118,List1B,black,woman,,,,,,,,
null,"<div style=""font-size:60px;"">+</div>",,html-keyboard-response,226,994222,0.0-17.0-0.0,50118,List1B,black,woman,,,,null,,,,
null,"<img src=""stim_listB/fight5.gif""style=""height:400px;""></stim_listB>",,html-keyboard-response,227,996226,0.0-17.0-1.0,50118,List1B,black,woman,,,,null,,,,
null,is fighting,,html-keyboard-response,228,998228,0.0-17.0-2.0,50118,List1B,black,woman,,,,null,,,,
8362,,,survey-text,229,1006592,0.0-17.0-3.0,50118,List1B,black,woman,,,,,"{""Q0"":""dave is fighting mike""}","<img src=""stim_listB/fight5.gif""style=""height:400px;""></stim_listB>",is fighting,
null,"<div style=""font-size:60px;"">+</div>",,html-keyboard-response,230,1007095,0.0-17.0-0.1,50118,List1B,black,woman,,,,null,,,,
null,"<img src=""stim_listB/kiss8.gif""style=""height:400px;""></stim_listB>",,html-keyboard-response,231,1009096,0.0-17.0-1.1,50118,List1B,black,woman,,,,null,,,,
null,are kissing each other,,html-keyboard-response,232,1011101,0.0-17.0-2.1,50118,List1B,black,woman,,,,null,,,,
8203,,,survey-text,233,1019304,0.0-17.0-3.1,50118,List1B,black,woman,,,,,"{""Q0"":""jane and kate is kissing each other ""}","<img src=""stim_listB/kiss8.gif""style=""height:400px;""></stim_listB>",are kissing each other,
null,"<div style=""font-size:60px;"">+</div>",,html-keyboard-response,234,1019806,0.0-17.0-0.2,50118,List1B,black,woman,,,,null,,,,
null,"<img src=""stim_listB/flirt6.gif""style=""height:400px;""></stim_listB>",,html-keyboard-response,235,1021810,0.0-17.0-1.2,50118,List1B,black,woman,,,,null,,,,
null,are flirting with each other,,html-keyboard-response,236,1023815,0.0-17.0-2.2,50118,List1B,black,woman,,,,null,,,,
11441,,,survey-text,237,1035257,0.0-17.0-3.2,50118,List1B,black,woman,,,,,"{""Q0"":""luke and mike are flirting with each other""}","<img src=""stim_listB/flirt6.gif""style=""height:400px;""></stim_listB>",are flirting with each other,
null,"<div style=""font-size:60px;"">+</div>",,html-keyboard-response,238,1035763,0.0-17.0-0.3,50118,List1B,black,woman,,,,null,,,,
null,"<img src=""stim_listB/touch2.gif""style=""height:400px;""></stim_listB>",,html-keyboard-response,239,1037766,0.0-17.0-1.3,50118,List1B,black,woman,,,,null,,,,
null,are touching each other,,html-keyboard-response,240,1039767,0.0-17.0-2.3,50118,List1B,black,woman,,,,null,,,,
15218,,,survey-text,241,1054986,0.0-17.0-3.3,50118,List1B,black,woman,,,,,"{""Q0"":""fred and beth are touching each other""}","<img src=""stim_listB/touch2.gif""style=""height:400px;""></stim_listB>",are touching each other,
null,"<div style=""font-size:60px;"">+</div>",,html-keyboard-response,242,1055487,0.0-17.0-0.4,50118,List1B,black,woman,,,,null,,,,
null,"<img src=""stim_listB/flirt8.gif""style=""height:400px;""></stim_listB>",,html-keyboard-response,243,1057489,0.0-17.0-1.4,50118,List1B,black,woman,,,,null,,,,
null,are flirting with each other,,html-keyboard-response,244,1059491,0.0-17.0-2.4,50118,List1B,black,woman,,,,null,,,,
28880,,,survey-text,245,1088372,0.0-17.0-3.4,50118,List1B,black,woman,,,,,"{""Q0"":""kate and ruth is flirting with each other ""}","<img src=""stim_listB/flirt8.gif""style=""height:400px;""></stim_listB>",are flirting with each other,
null,"<div style=""font-size:60px;"">+</div>",,html-keyboard-response,246,1088875,0.0-17.0-0.5,50118,List1B,black,woman,,,,null,,,,
null,"<img src=""stim_listB/kiss4.gif""style=""height:400px;""></stim_listB>",,html-keyboard-response,247,1090877,0.0-17.0-1.5,50118,List1B,black,woman,,,,null,,,,
null,are kissing each other,,html-keyboard-response,248,1092882,0.0-17.0-2.5,50118,List1B,black,woman,,,,null,,,,
9609,,,survey-text,249,1102492,0.0-17.0-3.5,50118,List1B,black,woman,,,,,"{""Q0"":""dave and jane is kissing each other ""}","<img src=""stim_listB/kiss4.gif""style=""height:400px;""></stim_listB>",are kissing each other,
null,"<div style=""font-size:60px;"">+</div>",,html-keyboard-response,250,1102994,0.0-17.0-0.6,50118,List1B,black,woman,,,,null,,,,
null,"<img src=""stim_listB/marry6.gif""style=""height:400px;""></stim_listB>",,html-keyboard-response,251,1104998,0.0-17.0-1.6,50118,List1B,black,woman,,,,null,,,,
null,are marrying each other,,html-keyboard-response,252,1106999,0.0-17.0-2.6,50118,List1B,black,woman,,,,null,,,,
12269,,,survey-text,253,1119269,0.0-17.0-3.6,50118,List1B,black,woman,,,,,"{""Q0"":""fred and dave is marrying each other""}","<img src=""stim_listB/marry6.gif""style=""height:400px;""></stim_listB>",are marrying each other,
null,"<div style=""font-size:60px;"">+</div>",,html-keyboard-response,254,1119772,0.0-17.0-0.7,50118,List1B,black,woman,,,,null,,,,
null,"<img src=""stim_listB/dance6.gif""style=""height:400px;""></stim_listB>",,html-keyboard-response,255,1121773,0.0-17.0-1.7,50118,List1B,black,woman,,,,null,,,,
null,are dancing with each other,,html-keyboard-response,256,1123774,0.0-17.0-2.7,50118,List1B,black,woman,,,,null,,,,
10639,,,survey-text,257,1134414,0.0-17.0-3.7,50118,List1B,black,woman,,,,,"{""Q0"":""mike and luke are dancing with each other ""}","<img src=""stim_listB/dance6.gif""style=""height:400px;""></stim_listB>",are dancing with each other,
null,"<div style=""font-size:60px;"">+</div>",,html-keyboard-response,258,1134920,0.0-17.0-0.8,50118,List1B,black,woman,,,,null,,,,
null,"<img src=""stim_listB/shout1.gif""style=""height:400px;""></stim_listB>",,html-keyboard-response,259,1136922,0.0-17.0-1.8,50118,List1B,black,woman,,,,null,,,,
null,is shouting at,,html-keyboard-response,260,1138927,0.0-17.0-2.8,50118,List1B,black,woman,,,,null,,,,
11670,,,survey-text,261,1150599,0.0-17.0-3.8,50118,List1B,black,woman,,,,,"{""Q0"":""ruth is shouting at dave ""}","<img src=""stim_listB/shout1.gif""style=""height:400px;""></stim_listB>",is shouting at,
null,"<div style=""font-size:60px;"">+</div>",,html-keyboard-response,262,1151105,0.0-17.0-0.9,50118,List1B,black,woman,,,,null,,,,
null,"<img src=""stim_listB/talk4.gif""style=""height:400px;""></stim_listB>",,html-keyboard-response,263,1153108,0.0-17.0-1.9,50118,List1B,black,woman,,,,null,,,,
null,are talking to each other,,html-keyboard-response,264,1155110,0.0-17.0-2.9,50118,List1B,black,woman,,,,null,,,,
17832,,,survey-text,265,1172944,0.0-17.0-3.9,50118,List1B,black,woman,,,,,"{""Q0"":""dave and ruth is talking to each other""}","<img src=""stim_listB/talk4.gif""style=""height:400px;""></stim_listB>",are talking to each other,
null,"<div style=""font-size:60px;"">+</div>",,html-keyboard-response,266,1173445,0.0-17.0-0.10,50118,List1B,black,woman,,,,null,,,,
null,"<img src=""stim_listB/play1.gif""style=""height:400px;""></stim_listB>",,html-keyboard-response,267,1175449,0.0-17.0-1.10,50118,List1B,black,woman,,,,null,,,,
null,is playing with,,html-keyboard-response,268,1177453,0.0-17.0-2.10,50118,List1B,black,woman,,,,null,,,,
7075,,,survey-text,269,1184528,0.0-17.0-3.10,50118,List1B,black,woman,,,,,"{""Q0"":""mike is playing with kate""}","<img src=""stim_listB/play1.gif""style=""height:400px;""></stim_listB>",is playing with,
null,"<div style=""font-size:60px;"">+</div>",,html-keyboard-response,270,1185031,0.0-17.0-0.11,50118,List1B,black,woman,,,,null,,,,
null,"<img src=""stim_listB/kiss3.gif""style=""height:400px;""></stim_listB>",,html-keyboard-response,271,1187035,0.0-17.0-1.11,50118,List1B,black,woman,,,,null,,,,
null,is kissing,,html-keyboard-response,272,1189038,0.0-17.0-2.11,50118,List1B,black,woman,,,,null,,,,
13387,,,survey-text,273,1202425,0.0-17.0-3.11,50118,List1B,black,woman,,,,,"{""Q0"":""luke is kissing ruth""}","<img src=""stim_listB/kiss3.gif""style=""height:400px;""></stim_listB>",is kissing,
null,"<div style=""font-size:60px;"">+</div>",,html-keyboard-response,274,1202928,0.0-17.0-0.12,50118,List1B,black,woman,,,,null,,,,
null,"<img src=""stim_listB/flirt4.gif""style=""height:400px;""></stim_listB>",,html-keyboard-response,275,1204929,0.0-17.0-1.12,50118,List1B,black,woman,,,,null,,,,
null,are flirting with each other,,html-keyboard-response,276,1206930,0.0-17.0-2.12,50118,List1B,black,woman,,,,null,,,,
17871,,,survey-text,277,1224802,0.0-17.0-3.12,50118,List1B,black,woman,,,,,"{""Q0"":""ruth and dave is flirting with each other""}","<img src=""stim_listB/flirt4.gif""style=""height:400px;""></stim_listB>",are flirting with each other,
null,"<div style=""font-size:60px;"">+</div>",,html-keyboard-response,278,1225308,0.0-17.0-0.13,50118,List1B,black,woman,,,,null,,,,
null,"<img src=""stim_listB/flirt3.gif""style=""height:400px;""></stim_listB>",,html-keyboard-response,279,1227312,0.0-17.0-1.13,50118,List1B,black,woman,,,,null,,,,
null,is flirting with,,html-keyboard-response,280,1229317,0.0-17.0-2.13,50118,List1B,black,woman,,,,null,,,,
8837,,,survey-text,281,1238155,0.0-17.0-3.13,50118,List1B,black,woman,,,,,"{""Q0"":""luke is flirting with Jane""}","<img src=""stim_listB/flirt3.gif""style=""height:400px;""></stim_listB>",is flirting with,
null,"<div style=""font-size:60px;"">+</div>",,html-keyboard-response,282,1238661,0.0-17.0-0.14,50118,List1B,black,woman,,,,null,,,,
null,"<img src=""stim_listB/touch7.gif""style=""height:400px;""></stim_listB>",,html-keyboard-response,283,1240663,0.0-17.0-1.14,50118,List1B,black,woman,,,,null,,,,
null,is touching,,html-keyboard-response,284,1242669,0.0-17.0-2.14,50118,List1B,black,woman,,,,null,,,,
7390,,,survey-text,285,1250060,0.0-17.0-3.14,50118,List1B,black,woman,,,,,"{""Q0"":""jane is touching kate""}","<img src=""stim_listB/touch7.gif""style=""height:400px;""></stim_listB>",is touching,
null,"<div style=""font-size:60px;"">+</div>",,html-keyboard-response,286,1250562,0.0-17.0-0.15,50118,List1B,black,woman,,,,null,,,,
null,"<img src=""stim_listB/talk1.gif""style=""height:400px;""></stim_listB>",,html-keyboard-response,287,1252568,0.0-17.0-1.15,50118,List1B,black,woman,,,,null,,,,
null,is talking to,,html-keyboard-response,288,1254569,0.0-17.0-2.15,50118,List1B,black,woman,,,,null,,,,
6226,,,survey-text,289,1260796,0.0-17.0-3.15,50118,List1B,black,woman,,,,,"{""Q0"":""dave is talking to kate""}","<img src=""stim_listB/talk1.gif""style=""height:400px;""></stim_listB>",is talking to,
null,"<div style=""font-size:60px;"">+</div>",,html-keyboard-response,290,1261302,0.0-17.0-0.16,50118,List1B,black,woman,,,,null,,,,
null,"<img src=""stim_listB/touch5.gif""style=""height:400px;""></stim_listB>",,html-keyboard-response,291,1263305,0.0-17.0-1.16,50118,List1B,black,woman,,,,null,,,,
null,is touching,,html-keyboard-response,292,1265307,0.0-17.0-2.16,50118,List1B,black,woman,,,,null,,,,
6280,,,survey-text,293,1271589,0.0-17.0-3.16,50118,List1B,black,woman,,,,,"{""Q0"":""dave is touching mike""}","<img src=""stim_listB/touch5.gif""style=""height:400px;""></stim_listB>",is touching,
null,"<div style=""font-size:60px;"">+</div>",,html-keyboard-response,294,1272094,0.0-17.0-0.17,50118,List1B,black,woman,,,,null,,,,
null,"<img src=""stim_listB/play6.gif""style=""height:400px;""></stim_listB>",,html-keyboard-response,295,1274096,0.0-17.0-1.17,50118,List1B,black,woman,,,,null,,,,
null,are playing with each other,,html-keyboard-response,296,1276098,0.0-17.0-2.17,50118,List1B,black,woman,,,,null,,,,
11650,,,survey-text,297,1287749,0.0-17.0-3.17,50118,List1B,black,woman,,,,,"{""Q0"":""luke and fred are playing with each other""}","<img src=""stim_listB/play6.gif""style=""height:400px;""></stim_listB>",are playing with each other,
null,"<div style=""font-size:60px;"">+</div>",,html-keyboard-response,298,1288255,0.0-17.0-0.18,50118,List1B,black,woman,,,,null,,,,
null,"<img src=""stim_listB/shout6.gif""style=""height:400px;""></stim_listB>",,html-keyboard-response,299,1290258,0.0-17.0-1.18,50118,List1B,black,woman,,,,null,,,,
null,are shouting at each other,,html-keyboard-response,300,1292261,0.0-17.0-2.18,50118,List1B,black,woman,,,,null,,,,
16793,,,survey-text,301,1309054,0.0-17.0-3.18,50118,List1B,black,woman,,,,,"{""Q0"":""dave and mike are shouting at each other""}","<img src=""stim_listB/shout6.gif""style=""height:400px;""></stim_listB>",are shouting at each other,
null,"<div style=""font-size:60px;"">+</div>",,html-keyboard-response,302,1309560,0.0-17.0-0.19,50118,List1B,black,woman,,,,null,,,,
null,"<img src=""stim_listB/kiss7.gif""style=""height:400px;""></stim_listB>",,html-keyboard-response,303,1311562,0.0-17.0-1.19,50118,List1B,black,woman,,,,null,,,,
null,is kissing,,html-keyboard-response,304,1313567,0.0-17.0-2.19,50118,List1B,black,woman,,,,null,,,,
6920,,,survey-text,305,1320487,0.0-17.0-3.19,50118,List1B,black,woman,,,,,"{""Q0"":""beth is kissing ruth""}","<img src=""stim_listB/kiss7.gif""style=""height:400px;""></stim_listB>",is kissing,
2527,"<img src='img/portrait_matrix_list1.jpg' style='width:900px;height:500px;''></img><p>If you have memorised all the portraits and names and are ready to start, press Continue.</p><p><strong>Please note: Your memory of these faces will be tested 4 times during this experiment.</strong></p>",0,html-button-response,306,1323015,0.0-18.0-0.0,50118,List1B,black,woman,,,,,,,,
1838,"<img src=""portrait/WW2.jpg""style=""height:400px;""></img>",3,html-button-response,307,1325856,0.0-18.0-1.0,50118,List1B,black,woman,,TRUE,3,,,,,
null,CORRECT,,html-keyboard-response,308,1327367,0.0-18.0-2.0-0.0,50118,List1B,black,woman,,,,null,,,,
856,"<img src=""portrait/BW2.jpg""style=""height:400px;""></img>",2,html-button-response,309,1328224,0.0-18.0-4.0,50118,List1B,black,woman,,TRUE,2,,,,,
null,CORRECT,,html-keyboard-response,310,1329735,0.0-18.0-5.0-0.0,50118,List1B,black,woman,,,,null,,,,
1808,"<img src=""portrait/BM2.jpg""style=""height:400px;""></img>",5,html-button-response,311,1331544,0.0-18.0-7.0,50118,List1B,black,woman,,TRUE,5,,,,,
null,CORRECT,,html-keyboard-response,312,1333052,0.0-18.0-8.0-0.0,50118,List1B,black,woman,,,,null,,,,
1682,"<img src=""portrait/WM1.jpg""style=""height:400px;""></img>",6,html-button-response,313,1334736,0.0-18.0-10.0,50118,List1B,black,woman,,TRUE,6,,,,,
null,CORRECT,,html-keyboard-response,314,1336247,0.0-18.0-11.0-0.0,50118,List1B,black,woman,,,,null,,,,
2224,"<img src=""portrait/BW1.jpg""style=""height:400px;""></img>",0,html-button-response,315,1338472,0.0-18.0-13.0,50118,List1B,black,woman,,TRUE,0,,,,,
null,CORRECT,,html-keyboard-response,316,1339980,0.0-18.0-14.0-0.0,50118,List1B,black,woman,,,,null,,,,
1579,"<img src=""portrait/WM2.jpg""style=""height:400px;""></img>",7,html-button-response,317,1341560,0.0-18.0-16.0,50118,List1B,black,woman,,TRUE,7,,,,,
null,CORRECT,,html-keyboard-response,318,1343071,0.0-18.0-17.0-0.0,50118,List1B,black,woman,,,,null,,,,
1408,"<img src=""portrait/BM1.jpg""style=""height:400px;""></img>",4,html-button-response,319,1344480,0.0-18.0-19.0,50118,List1B,black,woman,,TRUE,4,,,,,
null,CORRECT,,html-keyboard-response,320,1345987,0.0-18.0-20.0-0.0,50118,List1B,black,woman,,,,null,,,,
2365,"<img src=""portrait/WW1.jpg""style=""height:400px;""></img>",1,html-button-response,321,1348352,0.0-18.0-22.0,50118,List1B,black,woman,,TRUE,1,,,,,
null,CORRECT,,html-keyboard-response,322,1349864,0.0-18.0-23.0-0.0,50118,List1B,black,woman,,,,null,,,,
1936,<p>You got 8 out of 8 right first time. Press Continue.</p>,0,html-button-response,323,1351801,0.0-18.0-25.0,50118,List1B,black,woman,,,,,,,,
null,"<div style=""font-size:60px;"">+</div>",,html-keyboard-response,324,1353311,0.0-19.0-0.0,50118,List1B,black,woman,,,,null,,,,
null,"<img src=""stim_listB/shout3.gif""style=""height:400px;""></stim_listB>",,html-keyboard-response,325,1355313,0.0-19.0-1.0,50118,List1B,black,woman,,,,null,,,,
null,is shouting at,,html-keyboard-response,326,1357314,0.0-19.0-2.0,50118,List1B,black,woman,,,,null,,,,
8510,,,survey-text,327,1365825,0.0-19.0-3.0,50118,List1B,black,woman,,,,,"{""Q0"":""luke is shouting at ruth""}","<img src=""stim_listB/shout3.gif""style=""height:400px;""></stim_listB>",is shouting at,
null,"<div style=""font-size:60px;"">+</div>",,html-keyboard-response,328,1366328,0.0-19.0-0.1,50118,List1B,black,woman,,,,null,,,,
null,"<img src=""stim_listB/argue7.gif""style=""height:400px;""></stim_listB>",,html-keyboard-response,329,1368332,0.0-19.0-1.1,50118,List1B,black,woman,,,,null,,,,
null,is arguing with,,html-keyboard-response,330,1370336,0.0-19.0-2.1,50118,List1B,black,woman,,,,null,,,,
6265,,,survey-text,331,1376602,0.0-19.0-3.1,50118,List1B,black,woman,,,,,"{""Q0"":""kate is arguing with ruth""}","<img src=""stim_listB/argue7.gif""style=""height:400px;""></stim_listB>",is arguing with,
null,"<div style=""font-size:60px;"">+</div>",,html-keyboard-response,332,1377108,0.0-19.0-0.2,50118,List1B,black,woman,,,,null,,,,
null,"<img src=""stim_listB/shout8.gif""style=""height:400px;""></stim_listB>",,html-keyboard-response,333,1379110,0.0-19.0-1.2,50118,List1B,black,woman,,,,null,,,,
null,are shouting at each other,,html-keyboard-response,334,1381111,0.0-19.0-2.2,50118,List1B,black,woman,,,,null,,,,
6482,,,survey-text,335,1387594,0.0-19.0-3.2,50118,List1B,black,woman,,,,,"{""Q0"":""kate is shouting at jane""}","<img src=""stim_listB/shout8.gif""style=""height:400px;""></stim_listB>",are shouting at each other,
null,"<div style=""font-size:60px;"">+</div>",,html-keyboard-response,336,1388097,0.0-19.0-0.3,50118,List1B,black,woman,,,,null,,,,
null,"<img src=""stim_listB/flirt5.gif""style=""height:400px;""></stim_listB>",,html-keyboard-response,337,1390098,0.0-19.0-1.3,50118,List1B,black,woman,,,,null,,,,
null,is flirting with,,html-keyboard-response,338,1392103,0.0-19.0-2.3,50118,List1B,black,woman,,,,null,,,,
10547,,,survey-text,339,1402651,0.0-19.0-3.3,50118,List1B,black,woman,,,,,"{""Q0"":""fred is flirting with dave""}","<img src=""stim_listB/flirt5.gif""style=""height:400px;""></stim_listB>",is flirting with,
null,"<div style=""font-size:60px;"">+</div>",,html-keyboard-response,340,1403157,0.0-19.0-0.4,50118,List1B,black,woman,,,,null,,,,
null,"<img src=""stim_listB/touch4.gif""style=""height:400px;""></stim_listB>",,html-keyboard-response,341,1405159,0.0-19.0-1.4,50118,List1B,black,woman,,,,null,,,,
null,are touching each other,,html-keyboard-response,342,1407162,0.0-19.0-2.4,50118,List1B,black,woman,,,,null,,,,
9424,,,survey-text,343,1416588,0.0-19.0-3.4,50118,List1B,black,woman,,,,,"{""Q0"":""ruth and luke are touching each other ""}","<img src=""stim_listB/touch4.gif""style=""height:400px;""></stim_listB>",are touching each other,
null,"<div style=""font-size:60px;"">+</div>",,html-keyboard-response,344,1417091,0.0-19.0-0.5,50118,List1B,black,woman,,,,null,,,,
null,"<img src=""stim_listB/argue2.gif""style=""height:400px;""></stim_listB>",,html-keyboard-response,345,1419093,0.0-19.0-1.5,50118,List1B,black,woman,,,,null,,,,
null,are arguing with each other,,html-keyboard-response,346,1421098,0.0-19.0-2.5,50118,List1B,black,woman,,,,null,,,,
14073,,,survey-text,347,1435173,0.0-19.0-3.5,50118,List1B,black,woman,,,,,"{""Q0"":""fred and kate are arguing with each other""}","<img src=""stim_listB/argue2.gif""style=""height:400px;""></stim_listB>",are arguing with each other,
null,"<div style=""font-size:60px;"">+</div>",,html-keyboard-response,348,1435678,0.0-19.0-0.6,50118,List1B,black,woman,,,,null,,,,
null,"<img src=""stim_listB/kiss5.gif""style=""height:400px;""></stim_listB>",,html-keyboard-response,349,1437683,0.0-19.0-1.6,50118,List1B,black,woman,,,,null,,,,
null,is kissing,,html-keyboard-response,350,1439685,0.0-19.0-2.6,50118,List1B,black,woman,,,,null,,,,
5959,,,survey-text,351,1445645,0.0-19.0-3.6,50118,List1B,black,woman,,,,,"{""Q0"":""luke is kissing fred""}","<img src=""stim_listB/kiss5.gif""style=""height:400px;""></stim_listB>",is kissing,
null,"<div style=""font-size:60px;"">+</div>",,html-keyboard-response,352,1446146,0.0-19.0-0.7,50118,List1B,black,woman,,,,null,,,,
null,"<img src=""stim_listB/kiss1.gif""style=""height:400px;""></stim_listB>",,html-keyboard-response,353,1448151,0.0-19.0-1.7,50118,List1B,black,woman,,,,null,,,,
null,is kissing,,html-keyboard-response,354,1450154,0.0-19.0-2.7,50118,List1B,black,woman,,,,null,,,,
5363,,,survey-text,355,1455518,0.0-19.0-3.7,50118,List1B,black,woman,,,,,"{""Q0"":""fred is kissing beth""}","<img src=""stim_listB/kiss1.gif""style=""height:400px;""></stim_listB>",is kissing,
null,"<div style=""font-size:60px;"">+</div>",,html-keyboard-response,356,1456020,0.0-19.0-0.8,50118,List1B,black,woman,,,,null,,,,
null,"<img src=""stim_listB/talk3.gif""style=""height:400px;""></stim_listB>",,html-keyboard-response,357,1458022,0.0-19.0-1.8,50118,List1B,black,woman,,,,null,,,,
null,is talking to,,html-keyboard-response,358,1460026,0.0-19.0-2.8,50118,List1B,black,woman,,,,null,,,,
6820,,,survey-text,359,1466846,0.0-19.0-3.8,50118,List1B,black,woman,,,,,"{""Q0"":""luke is talking to jane""}","<img src=""stim_listB/talk3.gif""style=""height:400px;""></stim_listB>",is talking to,
null,"<div style=""font-size:60px;"">+</div>",,html-keyboard-response,360,1467348,0.0-19.0-0.9,50118,List1B,black,woman,,,,null,,,,
null,"<img src=""stim_listB/touch3.gif""style=""height:400px;""></stim_listB>",,html-keyboard-response,361,1469350,0.0-19.0-1.9,50118,List1B,black,woman,,,,null,,,,
null,is touching,,html-keyboard-response,362,1471351,0.0-19.0-2.9,50118,List1B,black,woman,,,,null,,,,
7231,,,survey-text,363,1478583,0.0-19.0-3.9,50118,List1B,black,woman,,,,,"{""Q0"":""jane is touching dave""}","<img src=""stim_listB/touch3.gif""style=""height:400px;""></stim_listB>",is touching,
null,"<div style=""font-size:60px;"">+</div>",,html-keyboard-response,364,1479084,0.0-19.0-0.10,50118,List1B,black,woman,,,,null,,,,
null,"<img src=""stim_listB/play3.gif""style=""height:400px;""></stim_listB>",,html-keyboard-response,365,1481085,0.0-19.0-1.10,50118,List1B,black,woman,,,,null,,,,
null,is playing with,,html-keyboard-response,366,1483086,0.0-19.0-2.10,50118,List1B,black,woman,,,,null,,,,
9225,,,survey-text,367,1492311,0.0-19.0-3.10,50118,List1B,black,woman,,,,,"{""Q0"":""dave is playing with jane""}","<img src=""stim_listB/play3.gif""style=""height:400px;""></stim_listB>",is playing with,
null,"<div style=""font-size:60px;"">+</div>",,html-keyboard-response,368,1492817,0.0-19.0-0.11,50118,List1B,black,woman,,,,null,,,,
null,"<img src=""stim_listB/fight4.gif""style=""height:400px;""></stim_listB>",,html-keyboard-response,369,1494819,0.0-19.0-1.11,50118,List1B,black,woman,,,,null,,,,
null,are fighting each other,,html-keyboard-response,370,1496820,0.0-19.0-2.11,50118,List1B,black,woman,,,,null,,,,
9372,,,survey-text,371,1506192,0.0-19.0-3.11,50118,List1B,black,woman,,,,,"{""Q0"":""ruth and dave are fighting with each other""}","<img src=""stim_listB/fight4.gif""style=""height:400px;""></stim_listB>",are fighting each other,
null,"<div style=""font-size:60px;"">+</div>",,html-keyboard-response,372,1506694,0.0-19.0-0.12,50118,List1B,black,woman,,,,null,,,,
null,"<img src=""stim_listB/marry5.gif""style=""height:400px;""></stim_listB>",,html-keyboard-response,373,1508698,0.0-19.0-1.12,50118,List1B,black,woman,,,,null,,,,
null,is marrying,,html-keyboard-response,374,1510701,0.0-19.0-2.12,50118,List1B,black,woman,,,,null,,,,
7459,,,survey-text,375,1518161,0.0-19.0-3.12,50118,List1B,black,woman,,,,,"{""Q0"":""mike is marrying luke""}","<img src=""stim_listB/marry5.gif""style=""height:400px;""></stim_listB>",is marrying,
null,"<div style=""font-size:60px;"">+</div>",,html-keyboard-response,376,1518667,0.0-19.0-0.13,50118,List1B,black,woman,,,,null,,,,
null,"<img src=""stim_listB/touch6.gif""style=""height:400px;""></stim_listB>",,html-keyboard-response,377,1520670,0.0-19.0-1.13,50118,List1B,black,woman,,,,null,,,,
null,are touching each other,,html-keyboard-response,378,1522673,0.0-19.0-2.13,50118,List1B,black,woman,,,,null,,,,
10567,,,survey-text,379,1533241,0.0-19.0-3.13,50118,List1B,black,woman,,,,,"{""Q0"":""fred and luke touching each other ""}","<img src=""stim_listB/touch6.gif""style=""height:400px;""></stim_listB>",are touching each other,
null,"<div style=""font-size:60px;"">+</div>",,html-keyboard-response,380,1533743,0.0-19.0-0.14,50118,List1B,black,woman,,,,null,,,,
null,"<img src=""stim_listB/fight8.gif""style=""height:400px;""></stim_listB>",,html-keyboard-response,381,1535749,0.0-19.0-1.14,50118,List1B,black,woman,,,,null,,,,
null,are fighting each other,,html-keyboard-response,382,1537750,0.0-19.0-2.14,50118,List1B,black,woman,,,,null,,,,
9499,,,survey-text,383,1547250,0.0-19.0-3.14,50118,List1B,black,woman,,,,,"{""Q0"":""ruth and beth are fighting each other ""}","<img src=""stim_listB/fight8.gif""style=""height:400px;""></stim_listB>",are fighting each other,
null,"<div style=""font-size:60px;"">+</div>",,html-keyboard-response,384,1547754,0.0-19.0-0.15,50118,List1B,black,woman,,,,null,,,,
null,"<img src=""stim_listB/flirt1.gif""style=""height:400px;""></stim_listB>",,html-keyboard-response,385,1549756,0.0-19.0-1.15,50118,List1B,black,woman,,,,null,,,,
null,is flirting with,,html-keyboard-response,386,1551759,0.0-19.0-2.15,50118,List1B,black,woman,,,,null,,,,
11403,,,survey-text,387,1563162,0.0-19.0-3.15,50118,List1B,black,woman,,,,,"{""Q0"":""dave is flirting with kate""}","<img src=""stim_listB/flirt1.gif""style=""height:400px;""></stim_listB>",is flirting with,
null,"<div style=""font-size:60px;"">+</div>",,html-keyboard-response,388,1563668,0.0-19.0-0.16,50118,List1B,black,woman,,,,null,,,,
null,"<img src=""stim_listB/flirt7.gif""style=""height:400px;""></stim_listB>",,html-keyboard-response,389,1565670,0.0-19.0-1.16,50118,List1B,black,woman,,,,null,,,,
null,is flirting with,,html-keyboard-response,390,1567675,0.0-19.0-2.16,50118,List1B,black,woman,,,,null,,,,
17336,,,survey-text,391,1585012,0.0-19.0-3.16,50118,List1B,black,woman,,,,,"{""Q0"":""jane is flirting with beth""}","<img src=""stim_listB/flirt7.gif""style=""height:400px;""></stim_listB>",is flirting with,
null,"<div style=""font-size:60px;"">+</div>",,html-keyboard-response,392,1585513,0.0-19.0-0.17,50118,List1B,black,woman,,,,null,,,,
null,"<img src=""stim_listB/shout7.gif""style=""height:400px;""></stim_listB>",,html-keyboard-response,393,1587515,0.0-19.0-1.17,50118,List1B,black,woman,,,,null,,,,
null,is shouting at,,html-keyboard-response,394,1589521,0.0-19.0-2.17,50118,List1B,black,woman,,,,null,,,,
8163,,,survey-text,395,1597684,0.0-19.0-3.17,50118,List1B,black,woman,,,,,"{""Q0"":""ruth is shouting at beth""}","<img src=""stim_listB/shout7.gif""style=""height:400px;""></stim_listB>",is shouting at,
null,"<div style=""font-size:60px;"">+</div>",,html-keyboard-response,396,1598190,0.0-19.0-0.18,50118,List1B,black,woman,,,,null,,,,
null,"<img src=""stim_listB/kiss6.gif""style=""height:400px;""></stim_listB>",,html-keyboard-response,397,1600192,0.0-19.0-1.18,50118,List1B,black,woman,,,,null,,,,
null,are kissing each other,,html-keyboard-response,398,1602193,0.0-19.0-2.18,50118,List1B,black,woman,,,,null,,,,
9379,,,survey-text,399,1611573,0.0-19.0-3.18,50118,List1B,black,woman,,,,,"{""Q0"":""dave and mike are kissing each other ""}","<img src=""stim_listB/kiss6.gif""style=""height:400px;""></stim_listB>",are kissing each other,
null,"<div style=""font-size:60px;"">+</div>",,html-keyboard-response,400,1612079,0.0-19.0-0.19,50118,List1B,black,woman,,,,null,,,,
null,"<img src=""stim_listB/argue6.gif""style=""height:400px;""></stim_listB>",,html-keyboard-response,401,1614080,0.0-19.0-1.19,50118,List1B,black,woman,,,,null,,,,
null,are arguing with each other,,html-keyboard-response,402,1616082,0.0-19.0-2.19,50118,List1B,black,woman,,,,null,,,,
13715,,,survey-text,403,1629798,0.0-19.0-3.19,50118,List1B,black,woman,,,,,"{""Q0"":""dave and fred are arguing with each other ""}","<img src=""stim_listB/argue6.gif""style=""height:400px;""></stim_listB>",are arguing with each other,
1335,<p>Thank you for completing that task.</p><p>The final part of this session is a short questionnaire.</p><p>Press Continue.</p>,0,html-button-response,404,1631134,0.0-20.0,50118,List1B,black,woman,,,,,,,,
34323,,,survey-text,405,1666464,0.0-21.0,50118,List1B,black,woman,,,,,"{""Q0"":""27"",""Q1"":""English"",""Q2"":""English"",""Q3"":""London, England"",""Q4"":""Black British "",""Q5"":""Female""}",,,demographics
5343,,,survey-likert,406,1671808,0.0-22.0,50118,List1B,black,woman,,,,,"{""Q0"":3}",,,likert_ESS
10423,,,survey-likert,407,1682232,0.0-23.0,50118,List1B,black,woman,,,,,"{""Q0"":5}",,,likert_NSSAL_Q1
3719,,,survey-likert,408,1685953,0.0-24.0,50118,List1B,black,woman,,,,,"{""Q0"":5}",,,likert_NSSAL_Q2
5446,,,survey-likert,409,1691401,0.0-25.0,50118,List1B,black,woman,,,,,"{""Q0"":4}",,,likert_CGRS_Q1
2631,,,survey-likert,410,1694033,0.0-26.0,50118,List1B,black,woman,,,,,"{""Q0"":4}",,,likert_CGRS_Q2
1799,,,survey-likert,411,1695833,0.0-27.0,50118,List1B,black,woman,,,,,"{""Q0"":""""}",,,likert_CGRS_Q3
6087,,,survey-text,412,1701921,0.0-28.0,50118,List1B,black,woman,,,,,"{""Q0"":""ccc""}",,,worker_id
5623,,,external-html,413,1707594,0.0-29.0,50118,List1B,black,woman,debrief.html,,,,,,,
