rt,stimulus,button_pressed,trial_type,trial_index,time_elapsed,internal_node_id,subject,list,ppt_race,ppt_gender,url,first_guess,correct,key_press,responses,image_type,phrase_type,test_part
2286,Welcome to the experiment. Press Continue to begin.,0,html-button-response,0,2288,0.0-0.0,5069,List2B,white,man,,,,,,,,
9938,,,external-html,1,13291,0.0-1.0,5069,List2B,white,man,consent.html,,,,,,,
11721,"<p>On the next page, you will see portraits of 8 people and their names.</p><p>Your first task is to take a few minutes to memorise the names of these people.</p><p>You will have to recall their names during the rest of the experiment, so it is</p><p>essential that you try to memorise these people and their names as best as you can.</p><br><p><strong>You will then be tested on your memory of these names and portraits.</strong></p><br><p>The experiment will start after you have completed this memory test.</p><br><p>Ready?</p>",0,html-button-response,2,25014,0.0-2.0,5069,List2B,white,man,,,,,,,,
96333,"<img src='img/portrait_matrix_list2.jpg' style='width:900px;height:500px;''></img><p>If you have memorised all the portraits and names and are ready to start, press Continue.</p><p><strong>Please note: Your memory of these faces will be tested 4 times during this experiment.</strong></p>",0,html-button-response,3,122352,0.0-3.0-0.0,5069,List2B,white,man,,,,,,,,
5475,"<img src=""portrait/WM2.jpg""style=""height:400px;""></img>",7,html-button-response,4,128831,0.0-3.0-1.0,5069,List2B,white,man,,TRUE,7,,,,,
null,CORRECT,,html-keyboard-response,5,130337,0.0-3.0-2.0-0.0,5069,List2B,white,man,,,,null,,,,
3826,"<img src=""portrait/BW2.jpg""style=""height:400px;""></img>",2,html-button-response,6,134165,0.0-3.0-4.0,5069,List2B,white,man,,TRUE,2,,,,,
null,CORRECT,,html-keyboard-response,7,135672,0.0-3.0-5.0-0.0,5069,List2B,white,man,,,,null,,,,
2069,"<img src=""portrait/BM2.jpg""style=""height:400px;""></img>",5,html-button-response,8,137743,0.0-3.0-7.0,5069,List2B,white,man,,TRUE,5,,,,,
null,CORRECT,,html-keyboard-response,9,139248,0.0-3.0-8.0-0.0,5069,List2B,white,man,,,,null,,,,
2724,"<img src=""portrait/BW1.jpg""style=""height:400px;""></img>",1,html-button-response,10,141973,0.0-3.0-10.0,5069,List2B,white,man,,TRUE,0,,,,,
5861,"<img src=""portrait/BW1.jpg""style=""height:400px;""></img>",0,html-button-response,11,148836,0.0-3.0-12.0-0.0,5069,List2B,white,man,,FALSE,0,,,,,
null,CORRECT,,html-keyboard-response,12,150345,0.0-3.0-12.0-1.0-0.0,5069,List2B,white,man,,,,null,,,,
1798,"<img src=""portrait/WW2.jpg""style=""height:400px;""></img>",3,html-button-response,13,152145,0.0-3.0-13.0,5069,List2B,white,man,,TRUE,3,,,,,
null,CORRECT,,html-keyboard-response,14,153651,0.0-3.0-14.0-0.0,5069,List2B,white,man,,,,null,,,,
2745,"<img src=""portrait/BM1.jpg""style=""height:400px;""></img>",4,html-button-response,15,156398,0.0-3.0-16.0,5069,List2B,white,man,,TRUE,4,,,,,
null,CORRECT,,html-keyboard-response,16,157902,0.0-3.0-17.0-0.0,5069,List2B,white,man,,,,null,,,,
2016,"<img src=""portrait/WW1.jpg""style=""height:400px;""></img>",1,html-button-response,17,159919,0.0-3.0-19.0,5069,List2B,white,man,,TRUE,1,,,,,
null,CORRECT,,html-keyboard-response,18,161423,0.0-3.0-20.0-0.0,5069,List2B,white,man,,,,null,,,,
2039,"<img src=""portrait/WM1.jpg""style=""height:400px;""></img>",6,html-button-response,19,163463,0.0-3.0-22.0,5069,List2B,white,man,,TRUE,6,,,,,
null,CORRECT,,html-keyboard-response,20,164974,0.0-3.0-23.0-0.0,5069,List2B,white,man,,,,null,,,,
3045,<p>You got 7 out of 8 right first time. Press Continue.</p>,0,html-button-response,21,168020,0.0-3.0-25.0,5069,List2B,white,man,,,,,,,,
2745,"As you did not score 100%, the memory game will repeat. Press Continue.",0,html-button-response,22,171767,0.0-3.0-26.0-0.0,5069,List2B,white,man,,,,,,,,
9293,"<img src='img/portrait_matrix_list2.jpg' style='width:900px;height:500px;''></img><p>If you have memorised all the portraits and names and are ready to start, press Continue.</p><p><strong>Please note: Your memory of these faces will be tested 4 times during this experiment.</strong></p>",0,html-button-response,23,182062,0.0-3.1-0.1,5069,List2B,white,man,,,,,,,,
1539,"<img src=""portrait/WM2.jpg""style=""height:400px;""></img>",7,html-button-response,24,184605,0.0-3.1-1.1,5069,List2B,white,man,,TRUE,7,,,,,
null,CORRECT,,html-keyboard-response,25,186108,0.0-3.1-2.1-0.1,5069,List2B,white,man,,,,null,,,,
2355,"<img src=""portrait/BW2.jpg""style=""height:400px;""></img>",2,html-button-response,26,188464,0.0-3.1-4.1,5069,List2B,white,man,,TRUE,2,,,,,
null,CORRECT,,html-keyboard-response,27,189971,0.0-3.1-5.1-0.1,5069,List2B,white,man,,,,null,,,,
1934,"<img src=""portrait/BM2.jpg""style=""height:400px;""></img>",5,html-button-response,28,191907,0.0-3.1-7.1,5069,List2B,white,man,,TRUE,5,,,,,
null,CORRECT,,html-keyboard-response,29,193414,0.0-3.1-8.1-0.1,5069,List2B,white,man,,,,null,,,,
3127,"<img src=""portrait/BW1.jpg""style=""height:400px;""></img>",0,html-button-response,30,196543,0.0-3.1-10.1,5069,List2B,white,man,,TRUE,0,,,,,
null,CORRECT,,html-keyboard-response,31,198045,0.0-3.1-11.1-0.1,5069,List2B,white,man,,,,null,,,,
1174,"<img src=""portrait/WW2.jpg""style=""height:400px;""></img>",3,html-button-response,32,199220,0.0-3.1-13.1,5069,List2B,white,man,,TRUE,3,,,,,
null,CORRECT,,html-keyboard-response,33,200724,0.0-3.1-14.1-0.1,5069,List2B,white,man,,,,null,,,,
2378,"<img src=""portrait/BM1.jpg""style=""height:400px;""></img>",4,html-button-response,34,203102,0.0-3.1-16.1,5069,List2B,white,man,,TRUE,4,,,,,
null,CORRECT,,html-keyboard-response,35,204606,0.0-3.1-17.1-0.1,5069,List2B,white,man,,,,null,,,,
2365,"<img src=""portrait/WW1.jpg""style=""height:400px;""></img>",1,html-button-response,36,206972,0.0-3.1-19.1,5069,List2B,white,man,,TRUE,1,,,,,
null,CORRECT,,html-keyboard-response,37,208476,0.0-3.1-20.1-0.1,5069,List2B,white,man,,,,null,,,,
1454,"<img src=""portrait/WM1.jpg""style=""height:400px;""></img>",6,html-button-response,38,209932,0.0-3.1-22.1,5069,List2B,white,man,,TRUE,6,,,,,
null,CORRECT,,html-keyboard-response,39,211438,0.0-3.1-23.1-0.1,5069,List2B,white,man,,,,null,,,,
2296,<p>You got 8 out of 8 right first time. Press Continue.</p>,0,html-button-response,40,213735,0.0-3.1-25.1,5069,List2B,white,man,,,,,,,,
42042,"<p>In this experiment, you will view photographs of the people from the memory game interacting.</p><p>By using the <strong>exact</strong> phrase given <i>after</i> the photograph appears and recalling the correct names of the people in the photographs, form a sentence describing the interaction. You do not need to capitalise names.</p><p>Type your answer in the space provided. Please complete every sentence before moving onto the next trial.</p><p>You will only have a few seconds to memorise each given photograph and phrase before you can respond, so try your best to focus.</p><p>An example is given below. Press 'Continue' when you are ready.</p><img src='img/speaking_example.jpg' style='width:800px;height:460px;''></img>",0,html-button-response,41,256783,0.0-4.0,5069,List2B,white,man,,,,,,,,
2066,"<p>Before the experiment starts, you will watch two example trials. Press 'Continue'.</p>",0,html-button-response,42,259855,0.0-5.0,5069,List2B,white,man,,,,,,,,
null,<img src='img/meet_eg.gif' style='height:400px;''></img>,,html-keyboard-response,43,262858,0.0-6.0,5069,List2B,white,man,,,,null,,,,
null,<p>is meeting</p>,,html-keyboard-response,44,264864,0.0-7.0,5069,List2B,white,man,,,,null,,,,
4249,<p><b>Answer:</b> jane is meeting ruth</p>,0,html-button-response,45,269114,0.0-8.0,5069,List2B,white,man,,,,,,,,
null,<img src='img/look_eg.gif' style='height:400px;''></img>,,html-keyboard-response,46,272117,0.0-9.0,5069,List2B,white,man,,,,null,,,,
null,<p>are looking at each other</p>,,html-keyboard-response,47,274118,0.0-10.0,5069,List2B,white,man,,,,null,,,,
7777,<p><b>Answer:</b> fred and mike are looking at each other</p>,0,html-button-response,48,281896,0.0-11.0,5069,List2B,white,man,,,,,,,,
35235,"<p>Ready to start the experiment?</p><br><p><strong>Remember to describe the picture using a full sentence,</strong></p><p><strong>that combines the names of the people with the <i>exact</i> phrase given.</strong></p><p><strong>To receive full payment you must do this correctly.</strong></p><p><strong> You do not need to capitalise names or use punctuation.</strong></p><br><p>Press 'Continue' to begin.</p>",0,html-button-response,49,318137,0.0-12.0,5069,List2B,white,man,,,,,,,,
null,"<div style=""font-size:60px;"">+</div>",,html-keyboard-response,50,319647,0.0-13.0-0.0,5069,List2B,white,man,,,,null,,,,
null,"<img src=""stim_listB/flirt8.gif""style=""height:400px;""></stim_listB>",,html-keyboard-response,51,321650,0.0-13.0-1.0,5069,List2B,white,man,,,,null,,,,
null,are flirting with each other,,html-keyboard-response,52,323655,0.0-13.0-2.0,5069,List2B,white,man,,,,null,,,,
17749,,,survey-text,53,341405,0.0-13.0-3.0,5069,List2B,white,man,,,,,"{""Q0"":""jane and kate are flirting with each other""}","<img src=""stim_listB/flirt8.gif""style=""height:400px;""></stim_listB>",are flirting with each other,
null,"<div style=""font-size:60px;"">+</div>",,html-keyboard-response,54,341912,0.0-13.0-0.1,5069,List2B,white,man,,,,null,,,,
null,"<img src=""stim_listB/kiss6.gif""style=""height:400px;""></stim_listB>",,html-keyboard-response,55,343916,0.0-13.0-1.1,5069,List2B,white,man,,,,null,,,,
null,are kissing each other,,html-keyboard-response,56,345918,0.0-13.0-2.1,5069,List2B,white,man,,,,null,,,,
12397,,,survey-text,57,358316,0.0-13.0-3.1,5069,List2B,white,man,,,,,"{""Q0"":""fred and mike are kissing each other""}","<img src=""stim_listB/kiss6.gif""style=""height:400px;""></stim_listB>",are kissing each other,
null,"<div style=""font-size:60px;"">+</div>",,html-keyboard-response,58,358819,0.0-13.0-0.2,5069,List2B,white,man,,,,null,,,,
null,"<img src=""stim_listB/flirt1.gif""style=""height:400px;""></stim_listB>",,html-keyboard-response,59,360822,0.0-13.0-1.2,5069,List2B,white,man,,,,null,,,,
null,is flirting with,,html-keyboard-response,60,362823,0.0-13.0-2.2,5069,List2B,white,man,,,,null,,,,
20167,,,survey-text,61,382990,0.0-13.0-3.2,5069,List2B,white,man,,,,,"{""Q0"":""jane and luke are flirting with each other""}","<img src=""stim_listB/flirt1.gif""style=""height:400px;""></stim_listB>",is flirting with,
null,"<div style=""font-size:60px;"">+</div>",,html-keyboard-response,62,383491,0.0-13.0-0.3,5069,List2B,white,man,,,,null,,,,
null,"<img src=""stim_listB/argue6.gif""style=""height:400px;""></stim_listB>",,html-keyboard-response,63,385496,0.0-13.0-1.3,5069,List2B,white,man,,,,null,,,,
null,are arguing with each other,,html-keyboard-response,64,387501,0.0-13.0-2.3,5069,List2B,white,man,,,,null,,,,
19251,,,survey-text,65,406754,0.0-13.0-3.3,5069,List2B,white,man,,,,,"{""Q0"":""fred and luke are arguing with each other""}","<img src=""stim_listB/argue6.gif""style=""height:400px;""></stim_listB>",are arguing with each other,
null,"<div style=""font-size:60px;"">+</div>",,html-keyboard-response,66,407260,0.0-13.0-0.4,5069,List2B,white,man,,,,null,,,,
null,"<img src=""stim_listB/kiss5.gif""style=""height:400px;""></stim_listB>",,html-keyboard-response,67,409261,0.0-13.0-1.4,5069,List2B,white,man,,,,null,,,,
null,is kissing,,html-keyboard-response,68,411266,0.0-13.0-2.4,5069,List2B,white,man,,,,null,,,,
14895,,,survey-text,69,426162,0.0-13.0-3.4,5069,List2B,white,man,,,,,"{""Q0"":""fred and luke is kissing""}","<img src=""stim_listB/kiss5.gif""style=""height:400px;""></stim_listB>",is kissing,
null,"<div style=""font-size:60px;"">+</div>",,html-keyboard-response,70,426665,0.0-13.0-0.5,5069,List2B,white,man,,,,null,,,,
null,"<img src=""stim_listB/play6.gif""style=""height:400px;""></stim_listB>",,html-keyboard-response,71,428666,0.0-13.0-1.5,5069,List2B,white,man,,,,null,,,,
null,are playing with each other,,html-keyboard-response,72,430670,0.0-13.0-2.5,5069,List2B,white,man,,,,null,,,,
10669,,,survey-text,73,441341,0.0-13.0-3.5,5069,List2B,white,man,,,,,"{""Q0"":""fred and luke are playing with each other""}","<img src=""stim_listB/play6.gif""style=""height:400px;""></stim_listB>",are playing with each other,
null,"<div style=""font-size:60px;"">+</div>",,html-keyboard-response,74,441847,0.0-13.0-0.6,5069,List2B,white,man,,,,null,,,,
null,"<img src=""stim_listB/kiss4.gif""style=""height:400px;""></stim_listB>",,html-keyboard-response,75,443849,0.0-13.0-1.6,5069,List2B,white,man,,,,null,,,,
null,are kissing each other,,html-keyboard-response,76,445853,0.0-13.0-2.6,5069,List2B,white,man,,,,null,,,,
8380,,,survey-text,77,454235,0.0-13.0-3.6,5069,List2B,white,man,,,,,"{""Q0"":""mike and kate are kissing each other""}","<img src=""stim_listB/kiss4.gif""style=""height:400px;""></stim_listB>",are kissing each other,
null,"<div style=""font-size:60px;"">+</div>",,html-keyboard-response,78,454739,0.0-13.0-0.7,5069,List2B,white,man,,,,null,,,,
null,"<img src=""stim_listB/talk4.gif""style=""height:400px;""></stim_listB>",,html-keyboard-response,79,456743,0.0-13.0-1.7,5069,List2B,white,man,,,,null,,,,
null,are talking to each other,,html-keyboard-response,80,458748,0.0-13.0-2.7,5069,List2B,white,man,,,,null,,,,
14410,,,survey-text,81,473160,0.0-13.0-3.7,5069,List2B,white,man,,,,,"{""Q0"":""mike and beth are talking to each other""}","<img src=""stim_listB/talk4.gif""style=""height:400px;""></stim_listB>",are talking to each other,
null,"<div style=""font-size:60px;"">+</div>",,html-keyboard-response,82,473666,0.0-13.0-0.8,5069,List2B,white,man,,,,null,,,,
null,"<img src=""stim_listB/kiss8.gif""style=""height:400px;""></stim_listB>",,html-keyboard-response,83,475667,0.0-13.0-1.8,5069,List2B,white,man,,,,null,,,,
null,are kissing each other,,html-keyboard-response,84,477670,0.0-13.0-2.8,5069,List2B,white,man,,,,null,,,,
10340,,,survey-text,85,488012,0.0-13.0-3.8,5069,List2B,white,man,,,,,"{""Q0"":""jane and kate are kissing each other""}","<img src=""stim_listB/kiss8.gif""style=""height:400px;""></stim_listB>",are kissing each other,
null,"<div style=""font-size:60px;"">+</div>",,html-keyboard-response,86,488518,0.0-13.0-0.9,5069,List2B,white,man,,,,null,,,,
null,"<img src=""stim_listB/kiss3.gif""style=""height:400px;""></stim_listB>",,html-keyboard-response,87,490519,0.0-13.0-1.9,5069,List2B,white,man,,,,null,,,,
null,is kissing,,html-keyboard-response,88,492523,0.0-13.0-2.9,5069,List2B,white,man,,,,null,,,,
7325,,,survey-text,89,499848,0.0-13.0-3.9,5069,List2B,white,man,,,,,"{""Q0"":""fred and beth is kissing""}","<img src=""stim_listB/kiss3.gif""style=""height:400px;""></stim_listB>",is kissing,
null,"<div style=""font-size:60px;"">+</div>",,html-keyboard-response,90,500354,0.0-13.0-0.10,5069,List2B,white,man,,,,null,,,,
null,"<img src=""stim_listB/touch4.gif""style=""height:400px;""></stim_listB>",,html-keyboard-response,91,502357,0.0-13.0-1.10,5069,List2B,white,man,,,,null,,,,
null,are touching each other,,html-keyboard-response,92,504363,0.0-13.0-2.10,5069,List2B,white,man,,,,null,,,,
7096,,,survey-text,93,511460,0.0-13.0-3.10,5069,List2B,white,man,,,,,"{""Q0"":""fred and beth is touching each other""}","<img src=""stim_listB/touch4.gif""style=""height:400px;""></stim_listB>",are touching each other,
null,"<div style=""font-size:60px;"">+</div>",,html-keyboard-response,94,511964,0.0-13.0-0.11,5069,List2B,white,man,,,,null,,,,
null,"<img src=""stim_listB/flirt2.gif""style=""height:400px;""></stim_listB>",,html-keyboard-response,95,513967,0.0-13.0-1.11,5069,List2B,white,man,,,,null,,,,
null,are flirting with each other,,html-keyboard-response,96,515972,0.0-13.0-2.11,5069,List2B,white,man,,,,null,,,,
12882,,,survey-text,97,528854,0.0-13.0-3.11,5069,List2B,white,man,,,,,"{""Q0"":""dave and ruth are flirting with each other""}","<img src=""stim_listB/flirt2.gif""style=""height:400px;""></stim_listB>",are flirting with each other,
null,"<div style=""font-size:60px;"">+</div>",,html-keyboard-response,98,529360,0.0-13.0-0.12,5069,List2B,white,man,,,,null,,,,
null,"<img src=""stim_listB/dance5.gif""style=""height:400px;""></stim_listB>",,html-keyboard-response,99,531362,0.0-13.0-1.12,5069,List2B,white,man,,,,null,,,,
null,is dancing with,,html-keyboard-response,100,533368,0.0-13.0-2.12,5069,List2B,white,man,,,,null,,,,
11339,,,survey-text,101,544708,0.0-13.0-3.12,5069,List2B,white,man,,,,,"{""Q0"":""mike and luke are dancing with each other""}","<img src=""stim_listB/dance5.gif""style=""height:400px;""></stim_listB>",is dancing with,
null,"<div style=""font-size:60px;"">+</div>",,html-keyboard-response,102,545211,0.0-13.0-0.13,5069,List2B,white,man,,,,null,,,,
null,"<img src=""stim_listB/dance8.gif""style=""height:400px;""></stim_listB>",,html-keyboard-response,103,547214,0.0-13.0-1.13,5069,List2B,white,man,,,,null,,,,
null,are dancing with each other,,html-keyboard-response,104,549219,0.0-13.0-2.13,5069,List2B,white,man,,,,null,,,,
14468,,,survey-text,105,563689,0.0-13.0-3.13,5069,List2B,white,man,,,,,"{""Q0"":""jane and beth are dancing with each other""}","<img src=""stim_listB/dance8.gif""style=""height:400px;""></stim_listB>",are dancing with each other,
null,"<div style=""font-size:60px;"">+</div>",,html-keyboard-response,106,564190,0.0-13.0-0.14,5069,List2B,white,man,,,,null,,,,
null,"<img src=""stim_listB/play3.gif""style=""height:400px;""></stim_listB>",,html-keyboard-response,107,566191,0.0-13.0-1.14,5069,List2B,white,man,,,,null,,,,
null,is playing with,,html-keyboard-response,108,568192,0.0-13.0-2.14,5069,List2B,white,man,,,,null,,,,
19282,,,survey-text,109,587474,0.0-13.0-3.14,5069,List2B,white,man,,,,,"{""Q0"":""kate is playing with mike""}","<img src=""stim_listB/play3.gif""style=""height:400px;""></stim_listB>",is playing with,
null,"<div style=""font-size:60px;"">+</div>",,html-keyboard-response,110,587980,0.0-13.0-0.15,5069,List2B,white,man,,,,null,,,,
null,"<img src=""stim_listB/marry5.gif""style=""height:400px;""></stim_listB>",,html-keyboard-response,111,589982,0.0-13.0-1.15,5069,List2B,white,man,,,,null,,,,
null,is marrying,,html-keyboard-response,112,591982,0.0-13.0-2.15,5069,List2B,white,man,,,,null,,,,
7542,,,survey-text,113,599525,0.0-13.0-3.15,5069,List2B,white,man,,,,,"{""Q0"":""fred is marrying dave""}","<img src=""stim_listB/marry5.gif""style=""height:400px;""></stim_listB>",is marrying,
null,"<div style=""font-size:60px;"">+</div>",,html-keyboard-response,114,600026,0.0-13.0-0.16,5069,List2B,white,man,,,,null,,,,
null,"<img src=""stim_listB/kiss7.gif""style=""height:400px;""></stim_listB>",,html-keyboard-response,115,602028,0.0-13.0-1.16,5069,List2B,white,man,,,,null,,,,
null,is kissing,,html-keyboard-response,116,604029,0.0-13.0-2.16,5069,List2B,white,man,,,,null,,,,
13632,,,survey-text,117,617662,0.0-13.0-3.16,5069,List2B,white,man,,,,,"{""Q0"":""beth is kissing ruth""}","<img src=""stim_listB/kiss7.gif""style=""height:400px;""></stim_listB>",is kissing,
null,"<div style=""font-size:60px;"">+</div>",,html-keyboard-response,118,618168,0.0-13.0-0.17,5069,List2B,white,man,,,,null,,,,
null,"<img src=""stim_listB/argue3.gif""style=""height:400px;""></stim_listB>",,html-keyboard-response,119,620171,0.0-13.0-1.17,5069,List2B,white,man,,,,null,,,,
null,is arguing with,,html-keyboard-response,120,622176,0.0-13.0-2.17,5069,List2B,white,man,,,,null,,,,
11553,,,survey-text,121,633729,0.0-13.0-3.17,5069,List2B,white,man,,,,,"{""Q0"":""mike is arguing with beth""}","<img src=""stim_listB/argue3.gif""style=""height:400px;""></stim_listB>",is arguing with,
null,"<div style=""font-size:60px;"">+</div>",,html-keyboard-response,122,634232,0.0-13.0-0.18,5069,List2B,white,man,,,,null,,,,
null,"<img src=""stim_listB/play4.gif""style=""height:400px;""></stim_listB>",,html-keyboard-response,123,636233,0.0-13.0-1.18,5069,List2B,white,man,,,,null,,,,
null,are playing with each other,,html-keyboard-response,124,638235,0.0-13.0-2.18,5069,List2B,white,man,,,,null,,,,
12495,,,survey-text,125,650730,0.0-13.0-3.18,5069,List2B,white,man,,,,,"{""Q0"":""beth and fred are playing with each other""}","<img src=""stim_listB/play4.gif""style=""height:400px;""></stim_listB>",are playing with each other,
null,"<div style=""font-size:60px;"">+</div>",,html-keyboard-response,126,651232,0.0-13.0-0.19,5069,List2B,white,man,,,,null,,,,
null,"<img src=""stim_listB/talk2.gif""style=""height:400px;""></stim_listB>",,html-keyboard-response,127,653234,0.0-13.0-1.19,5069,List2B,white,man,,,,null,,,,
null,are talking to each other,,html-keyboard-response,128,655236,0.0-13.0-2.19,5069,List2B,white,man,,,,null,,,,
8624,,,survey-text,129,663861,0.0-13.0-3.19,5069,List2B,white,man,,,,,"{""Q0"":""ruth and dave are talking with each other""}","<img src=""stim_listB/talk2.gif""style=""height:400px;""></stim_listB>",are talking to each other,
16145,"<img src='img/portrait_matrix_list2.jpg' style='width:900px;height:500px;''></img><p>If you have memorised all the portraits and names and are ready to start, press Continue.</p><p><strong>Please note: Your memory of these faces will be tested 4 times during this experiment.</strong></p>",0,html-button-response,130,680007,0.0-14.0-0.0,5069,List2B,white,man,,,,,,,,
1900,"<img src=""portrait/WW2.jpg""style=""height:400px;""></img>",3,html-button-response,131,682909,0.0-14.0-1.0,5069,List2B,white,man,,TRUE,3,,,,,
null,CORRECT,,html-keyboard-response,132,684421,0.0-14.0-2.0-0.0,5069,List2B,white,man,,,,null,,,,
1998,"<img src=""portrait/BW2.jpg""style=""height:400px;""></img>",2,html-button-response,133,686420,0.0-14.0-4.0,5069,List2B,white,man,,TRUE,2,,,,,
null,CORRECT,,html-keyboard-response,134,687929,0.0-14.0-5.0-0.0,5069,List2B,white,man,,,,null,,,,
1967,"<img src=""portrait/BW1.jpg""style=""height:400px;""></img>",0,html-button-response,135,689896,0.0-14.0-7.0,5069,List2B,white,man,,TRUE,0,,,,,
null,CORRECT,,html-keyboard-response,136,691408,0.0-14.0-8.0-0.0,5069,List2B,white,man,,,,null,,,,
1672,"<img src=""portrait/BM2.jpg""style=""height:400px;""></img>",5,html-button-response,137,693081,0.0-14.0-10.0,5069,List2B,white,man,,TRUE,5,,,,,
null,CORRECT,,html-keyboard-response,138,694583,0.0-14.0-11.0-0.0,5069,List2B,white,man,,,,null,,,,
1410,"<img src=""portrait/WM2.jpg""style=""height:400px;""></img>",7,html-button-response,139,695995,0.0-14.0-13.0,5069,List2B,white,man,,TRUE,7,,,,,
null,CORRECT,,html-keyboard-response,140,697506,0.0-14.0-14.0-0.0,5069,List2B,white,man,,,,null,,,,
2245,"<img src=""portrait/BM1.jpg""style=""height:400px;""></img>",4,html-button-response,141,699753,0.0-14.0-16.0,5069,List2B,white,man,,TRUE,4,,,,,
null,CORRECT,,html-keyboard-response,142,701262,0.0-14.0-17.0-0.0,5069,List2B,white,man,,,,null,,,,
1831,"<img src=""portrait/WM1.jpg""style=""height:400px;""></img>",6,html-button-response,143,703095,0.0-14.0-19.0,5069,List2B,white,man,,TRUE,6,,,,,
null,CORRECT,,html-keyboard-response,144,704606,0.0-14.0-20.0-0.0,5069,List2B,white,man,,,,null,,,,
1592,"<img src=""portrait/WW1.jpg""style=""height:400px;""></img>",1,html-button-response,145,706200,0.0-14.0-22.0,5069,List2B,white,man,,TRUE,1,,,,,
null,CORRECT,,html-keyboard-response,146,707706,0.0-14.0-23.0-0.0,5069,List2B,white,man,,,,null,,,,
1250,<p>You got 8 out of 8 right first time. Press Continue.</p>,0,html-button-response,147,708956,0.0-14.0-25.0,5069,List2B,white,man,,,,,,,,
null,"<div style=""font-size:60px;"">+</div>",,html-keyboard-response,148,710466,0.0-15.0-0.0,5069,List2B,white,man,,,,null,,,,
null,"<img src=""stim_listB/marry1.gif""style=""height:400px;""></stim_listB>",,html-keyboard-response,149,712468,0.0-15.0-1.0,5069,List2B,white,man,,,,null,,,,
null,is marrying,,html-keyboard-response,150,714472,0.0-15.0-2.0,5069,List2B,white,man,,,,null,,,,
5982,,,survey-text,151,720456,0.0-15.0-3.0,5069,List2B,white,man,,,,,"{""Q0"":""ruth is marrying dave""}","<img src=""stim_listB/marry1.gif""style=""height:400px;""></stim_listB>",is marrying,
null,"<div style=""font-size:60px;"">+</div>",,html-keyboard-response,152,720961,0.0-15.0-0.1,5069,List2B,white,man,,,,null,,,,
null,"<img src=""stim_listB/dance4.gif""style=""height:400px;""></stim_listB>",,html-keyboard-response,153,722963,0.0-15.0-1.1,5069,List2B,white,man,,,,null,,,,
null,are dancing with each other,,html-keyboard-response,154,724967,0.0-15.0-2.1,5069,List2B,white,man,,,,null,,,,
9226,,,survey-text,155,734193,0.0-15.0-3.1,5069,List2B,white,man,,,,,"{""Q0"":""mike and beth are dancing with each other""}","<img src=""stim_listB/dance4.gif""style=""height:400px;""></stim_listB>",are dancing with each other,
null,"<div style=""font-size:60px;"">+</div>",,html-keyboard-response,156,734695,0.0-15.0-0.2,5069,List2B,white,man,,,,null,,,,
null,"<img src=""stim_listB/touch6.gif""style=""height:400px;""></stim_listB>",,html-keyboard-response,157,736697,0.0-15.0-1.2,5069,List2B,white,man,,,,null,,,,
null,are touching each other,,html-keyboard-response,158,738698,0.0-15.0-2.2,5069,List2B,white,man,,,,null,,,,
12158,,,survey-text,159,750857,0.0-15.0-3.2,5069,List2B,white,man,,,,,"{""Q0"":""luke and fred are touching each other""}","<img src=""stim_listB/touch6.gif""style=""height:400px;""></stim_listB>",are touching each other,
null,"<div style=""font-size:60px;"">+</div>",,html-keyboard-response,160,751363,0.0-15.0-0.3,5069,List2B,white,man,,,,null,,,,
null,"<img src=""stim_listB/play8.gif""style=""height:400px;""></stim_listB>",,html-keyboard-response,161,753365,0.0-15.0-1.3,5069,List2B,white,man,,,,null,,,,
null,are playing with each other,,html-keyboard-response,162,755370,0.0-15.0-2.3,5069,List2B,white,man,,,,null,,,,
8403,,,survey-text,163,763774,0.0-15.0-3.3,5069,List2B,white,man,,,,,"{""Q0"":""beth and ruth are playing with each other""}","<img src=""stim_listB/play8.gif""style=""height:400px;""></stim_listB>",are playing with each other,
null,"<div style=""font-size:60px;"">+</div>",,html-keyboard-response,164,764280,0.0-15.0-0.4,5069,List2B,white,man,,,,null,,,,
null,"<img src=""stim_listB/fight6.gif""style=""height:400px;""></stim_listB>",,html-keyboard-response,165,766282,0.0-15.0-1.4,5069,List2B,white,man,,,,null,,,,
null,are fighting each other,,html-keyboard-response,166,768283,0.0-15.0-2.4,5069,List2B,white,man,,,,null,,,,
10071,,,survey-text,167,778355,0.0-15.0-3.4,5069,List2B,white,man,,,,,"{""Q0"":""luke and fred are fighting with each other""}","<img src=""stim_listB/fight6.gif""style=""height:400px;""></stim_listB>",are fighting each other,
null,"<div style=""font-size:60px;"">+</div>",,html-keyboard-response,168,778861,0.0-15.0-0.5,5069,List2B,white,man,,,,null,,,,
null,"<img src=""stim_listB/talk6.gif""style=""height:400px;""></stim_listB>",,html-keyboard-response,169,780863,0.0-15.0-1.5,5069,List2B,white,man,,,,null,,,,
null,are talking to each other,,html-keyboard-response,170,782865,0.0-15.0-2.5,5069,List2B,white,man,,,,null,,,,
8496,,,survey-text,171,791362,0.0-15.0-3.5,5069,List2B,white,man,,,,,"{""Q0"":""dave and fred are talking with each other""}","<img src=""stim_listB/talk6.gif""style=""height:400px;""></stim_listB>",are talking to each other,
null,"<div style=""font-size:60px;"">+</div>",,html-keyboard-response,172,791868,0.0-15.0-0.6,5069,List2B,white,man,,,,null,,,,
null,"<img src=""stim_listB/argue5.gif""style=""height:400px;""></stim_listB>",,html-keyboard-response,173,793871,0.0-15.0-1.6,5069,List2B,white,man,,,,null,,,,
null,is arguing with,,html-keyboard-response,174,795872,0.0-15.0-2.6,5069,List2B,white,man,,,,null,,,,
9080,,,survey-text,175,804954,0.0-15.0-3.6,5069,List2B,white,man,,,,,"{""Q0"":""fred is arguing with dave""}","<img src=""stim_listB/argue5.gif""style=""height:400px;""></stim_listB>",is arguing with,
null,"<div style=""font-size:60px;"">+</div>",,html-keyboard-response,176,805456,0.0-15.0-0.7,5069,List2B,white,man,,,,null,,,,
null,"<img src=""stim_listB/fight7.gif""style=""height:400px;""></stim_listB>",,html-keyboard-response,177,807459,0.0-15.0-1.7,5069,List2B,white,man,,,,null,,,,
null,is fighting,,html-keyboard-response,178,809464,0.0-15.0-2.7,5069,List2B,white,man,,,,null,,,,
8856,,,survey-text,179,818321,0.0-15.0-3.7,5069,List2B,white,man,,,,,"{""Q0"":""kate is fighting jane""}","<img src=""stim_listB/fight7.gif""style=""height:400px;""></stim_listB>",is fighting,
null,"<div style=""font-size:60px;"">+</div>",,html-keyboard-response,180,818827,0.0-15.0-0.8,5069,List2B,white,man,,,,null,,,,
null,"<img src=""stim_listB/talk5.gif""style=""height:400px;""></stim_listB>",,html-keyboard-response,181,820828,0.0-15.0-1.8,5069,List2B,white,man,,,,null,,,,
null,is talking to,,html-keyboard-response,182,822829,0.0-15.0-2.8,5069,List2B,white,man,,,,null,,,,
6460,,,survey-text,183,829291,0.0-15.0-3.8,5069,List2B,white,man,,,,,"{""Q0"":""mike is talking to luke""}","<img src=""stim_listB/talk5.gif""style=""height:400px;""></stim_listB>",is talking to,
null,"<div style=""font-size:60px;"">+</div>",,html-keyboard-response,184,829797,0.0-15.0-0.9,5069,List2B,white,man,,,,null,,,,
null,"<img src=""stim_listB/shout4.gif""style=""height:400px;""></stim_listB>",,html-keyboard-response,185,831799,0.0-15.0-1.9,5069,List2B,white,man,,,,null,,,,
null,are shouting at each other,,html-keyboard-response,186,833801,0.0-15.0-2.9,5069,List2B,white,man,,,,null,,,,
11207,,,survey-text,187,845009,0.0-15.0-3.9,5069,List2B,white,man,,,,,"{""Q0"":""mike and kate are shouting at each other""}","<img src=""stim_listB/shout4.gif""style=""height:400px;""></stim_listB>",are shouting at each other,
null,"<div style=""font-size:60px;"">+</div>",,html-keyboard-response,188,845515,0.0-15.0-0.10,5069,List2B,white,man,,,,null,,,,
null,"<img src=""stim_listB/shout5.gif""style=""height:400px;""></stim_listB>",,html-keyboard-response,189,847517,0.0-15.0-1.10,5069,List2B,white,man,,,,null,,,,
null,is shouting at,,html-keyboard-response,190,849519,0.0-15.0-2.10,5069,List2B,white,man,,,,null,,,,
9981,,,survey-text,191,859501,0.0-15.0-3.10,5069,List2B,white,man,,,,,"{""Q0"":""mike is shouting at luke""}","<img src=""stim_listB/shout5.gif""style=""height:400px;""></stim_listB>",is shouting at,
null,"<div style=""font-size:60px;"">+</div>",,html-keyboard-response,192,860007,0.0-15.0-0.11,5069,List2B,white,man,,,,null,,,,
null,"<img src=""stim_listB/touch8.gif""style=""height:400px;""></stim_listB>",,html-keyboard-response,193,862008,0.0-15.0-1.11,5069,List2B,white,man,,,,null,,,,
null,are touching each other,,html-keyboard-response,194,864010,0.0-15.0-2.11,5069,List2B,white,man,,,,null,,,,
10376,,,survey-text,195,874387,0.0-15.0-3.11,5069,List2B,white,man,,,,,"{""Q0"":""beth and ruth are touching each other""}","<img src=""stim_listB/touch8.gif""style=""height:400px;""></stim_listB>",are touching each other,
null,"<div style=""font-size:60px;"">+</div>",,html-keyboard-response,196,874893,0.0-15.0-0.12,5069,List2B,white,man,,,,null,,,,
null,"<img src=""stim_listB/play7.gif""style=""height:400px;""></stim_listB>",,html-keyboard-response,197,876895,0.0-15.0-1.12,5069,List2B,white,man,,,,null,,,,
null,is playing with,,html-keyboard-response,198,878897,0.0-15.0-2.12,5069,List2B,white,man,,,,null,,,,
7133,,,survey-text,199,886032,0.0-15.0-3.12,5069,List2B,white,man,,,,,"{""Q0"":""jane is playing with kate""}","<img src=""stim_listB/play7.gif""style=""height:400px;""></stim_listB>",is playing with,
null,"<div style=""font-size:60px;"">+</div>",,html-keyboard-response,200,886535,0.0-15.0-0.13,5069,List2B,white,man,,,,null,,,,
null,"<img src=""stim_listB/kiss2.gif""style=""height:400px;""></stim_listB>",,html-keyboard-response,201,888536,0.0-15.0-1.13,5069,List2B,white,man,,,,null,,,,
null,are kissing each other,,html-keyboard-response,202,890537,0.0-15.0-2.13,5069,List2B,white,man,,,,null,,,,
6644,,,survey-text,203,897182,0.0-15.0-3.13,5069,List2B,white,man,,,,,"{""Q0"":""dave and jane are kissing each other""}","<img src=""stim_listB/kiss2.gif""style=""height:400px;""></stim_listB>",are kissing each other,
null,"<div style=""font-size:60px;"">+</div>",,html-keyboard-response,204,897688,0.0-15.0-0.14,5069,List2B,white,man,,,,null,,,,
null,"<img src=""stim_listB/argue4.gif""style=""height:400px;""></stim_listB>",,html-keyboard-response,205,899691,0.0-15.0-1.14,5069,List2B,white,man,,,,null,,,,
null,are arguing with each other,,html-keyboard-response,206,901696,0.0-15.0-2.14,5069,List2B,white,man,,,,null,,,,
11529,,,survey-text,207,913226,0.0-15.0-3.14,5069,List2B,white,man,,,,,"{""Q0"":""kate and fred are arguing with each other""}","<img src=""stim_listB/argue4.gif""style=""height:400px;""></stim_listB>",are arguing with each other,
null,"<div style=""font-size:60px;"">+</div>",,html-keyboard-response,208,913728,0.0-15.0-0.15,5069,List2B,white,man,,,,null,,,,
null,"<img src=""stim_listB/fight4.gif""style=""height:400px;""></stim_listB>",,html-keyboard-response,209,915731,0.0-15.0-1.15,5069,List2B,white,man,,,,null,,,,
null,are fighting each other,,html-keyboard-response,210,917732,0.0-15.0-2.15,5069,List2B,white,man,,,,null,,,,
10458,,,survey-text,211,928191,0.0-15.0-3.15,5069,List2B,white,man,,,,,"{""Q0"":""beth and fred are fighting each other""}","<img src=""stim_listB/fight4.gif""style=""height:400px;""></stim_listB>",are fighting each other,
null,"<div style=""font-size:60px;"">+</div>",,html-keyboard-response,212,928697,0.0-15.0-0.16,5069,List2B,white,man,,,,null,,,,
null,"<img src=""stim_listB/flirt6.gif""style=""height:400px;""></stim_listB>",,html-keyboard-response,213,930699,0.0-15.0-1.16,5069,List2B,white,man,,,,null,,,,
null,are flirting with each other,,html-keyboard-response,214,932701,0.0-15.0-2.16,5069,List2B,white,man,,,,null,,,,
13637,,,survey-text,215,946339,0.0-15.0-3.16,5069,List2B,white,man,,,,,"{""Q0"":""dave and fred are flirting with each other""}","<img src=""stim_listB/flirt6.gif""style=""height:400px;""></stim_listB>",are flirting with each other,
null,"<div style=""font-size:60px;"">+</div>",,html-keyboard-response,216,946841,0.0-15.0-0.17,5069,List2B,white,man,,,,null,,,,
null,"<img src=""stim_listB/talk7.gif""style=""height:400px;""></stim_listB>",,html-keyboard-response,217,948844,0.0-15.0-1.17,5069,List2B,white,man,,,,null,,,,
null,is talking to,,html-keyboard-response,218,950845,0.0-15.0-2.17,5069,List2B,white,man,,,,null,,,,
9502,,,survey-text,219,960348,0.0-15.0-3.17,5069,List2B,white,man,,,,,"{""Q0"":""kate is talking to ruth""}","<img src=""stim_listB/talk7.gif""style=""height:400px;""></stim_listB>",is talking to,
null,"<div style=""font-size:60px;"">+</div>",,html-keyboard-response,220,960850,0.0-15.0-0.18,5069,List2B,white,man,,,,null,,,,
null,"<img src=""stim_listB/marry3.gif""style=""height:400px;""></stim_listB>",,html-keyboard-response,221,962851,0.0-15.0-1.18,5069,List2B,white,man,,,,null,,,,
null,is marrying,,html-keyboard-response,222,964853,0.0-15.0-2.18,5069,List2B,white,man,,,,null,,,,
7556,,,survey-text,223,972409,0.0-15.0-3.18,5069,List2B,white,man,,,,,"{""Q0"":""beth is marrying mike""}","<img src=""stim_listB/marry3.gif""style=""height:400px;""></stim_listB>",is marrying,
null,"<div style=""font-size:60px;"">+</div>",,html-keyboard-response,224,972915,0.0-15.0-0.19,5069,List2B,white,man,,,,null,,,,
null,"<img src=""stim_listB/fight2.gif""style=""height:400px;""></stim_listB>",,html-keyboard-response,225,974917,0.0-15.0-1.19,5069,List2B,white,man,,,,null,,,,
null,are fighting each other,,html-keyboard-response,226,976918,0.0-15.0-2.19,5069,List2B,white,man,,,,null,,,,
11804,,,survey-text,227,988724,0.0-15.0-3.19,5069,List2B,white,man,,,,,"{""Q0"":""luke and beth are fighting each other""}","<img src=""stim_listB/fight2.gif""style=""height:400px;""></stim_listB>",are fighting each other,
2632,"<img src='img/portrait_matrix_list2.jpg' style='width:900px;height:500px;''></img><p>If you have memorised all the portraits and names and are ready to start, press Continue.</p><p><strong>Please note: Your memory of these faces will be tested 4 times during this experiment.</strong></p>",0,html-button-response,228,991356,0.0-16.0-0.0,5069,List2B,white,man,,,,,,,,
2099,"<img src=""portrait/BM2.jpg""style=""height:400px;""></img>",5,html-button-response,229,994462,0.0-16.0-1.0,5069,List2B,white,man,,TRUE,5,,,,,
null,CORRECT,,html-keyboard-response,230,995973,0.0-16.0-2.0-0.0,5069,List2B,white,man,,,,null,,,,
2212,"<img src=""portrait/BW1.jpg""style=""height:400px;""></img>",0,html-button-response,231,998186,0.0-16.0-4.0,5069,List2B,white,man,,TRUE,0,,,,,
null,CORRECT,,html-keyboard-response,232,999692,0.0-16.0-5.0-0.0,5069,List2B,white,man,,,,null,,,,
1013,"<img src=""portrait/WW1.jpg""style=""height:400px;""></img>",1,html-button-response,233,1000706,0.0-16.0-7.0,5069,List2B,white,man,,TRUE,1,,,,,
null,CORRECT,,html-keyboard-response,234,1002210,0.0-16.0-8.0-0.0,5069,List2B,white,man,,,,null,,,,
1443,"<img src=""portrait/WM2.jpg""style=""height:400px;""></img>",7,html-button-response,235,1003654,0.0-16.0-10.0,5069,List2B,white,man,,TRUE,7,,,,,
null,CORRECT,,html-keyboard-response,236,1005159,0.0-16.0-11.0-0.0,5069,List2B,white,man,,,,null,,,,
1914,"<img src=""portrait/WW2.jpg""style=""height:400px;""></img>",3,html-button-response,237,1007075,0.0-16.0-13.0,5069,List2B,white,man,,TRUE,3,,,,,
null,CORRECT,,html-keyboard-response,238,1008585,0.0-16.0-14.0-0.0,5069,List2B,white,man,,,,null,,,,
2045,"<img src=""portrait/BW2.jpg""style=""height:400px;""></img>",2,html-button-response,239,1010630,0.0-16.0-16.0,5069,List2B,white,man,,TRUE,2,,,,,
null,CORRECT,,html-keyboard-response,240,1012137,0.0-16.0-17.0-0.0,5069,List2B,white,man,,,,null,,,,
1947,"<img src=""portrait/WM1.jpg""style=""height:400px;""></img>",6,html-button-response,241,1014084,0.0-16.0-19.0,5069,List2B,white,man,,TRUE,6,,,,,
null,CORRECT,,html-keyboard-response,242,1015596,0.0-16.0-20.0-0.0,5069,List2B,white,man,,,,null,,,,
1627,"<img src=""portrait/BM1.jpg""style=""height:400px;""></img>",4,html-button-response,243,1017224,0.0-16.0-22.0,5069,List2B,white,man,,TRUE,4,,,,,
null,CORRECT,,html-keyboard-response,244,1018731,0.0-16.0-23.0-0.0,5069,List2B,white,man,,,,null,,,,
831,<p>You got 8 out of 8 right first time. Press Continue.</p>,0,html-button-response,245,1019563,0.0-16.0-25.0,5069,List2B,white,man,,,,,,,,
null,"<div style=""font-size:60px;"">+</div>",,html-keyboard-response,246,1021070,0.0-17.0-0.0,5069,List2B,white,man,,,,null,,,,
null,"<img src=""stim_listB/shout3.gif""style=""height:400px;""></stim_listB>",,html-keyboard-response,247,1023072,0.0-17.0-1.0,5069,List2B,white,man,,,,null,,,,
null,is shouting at,,html-keyboard-response,248,1025073,0.0-17.0-2.0,5069,List2B,white,man,,,,null,,,,
5550,,,survey-text,249,1030624,0.0-17.0-3.0,5069,List2B,white,man,,,,,"{""Q0"":""beth is shouting at dave""}","<img src=""stim_listB/shout3.gif""style=""height:400px;""></stim_listB>",is shouting at,
null,"<div style=""font-size:60px;"">+</div>",,html-keyboard-response,250,1031130,0.0-17.0-0.1,5069,List2B,white,man,,,,null,,,,
null,"<img src=""stim_listB/argue1.gif""style=""height:400px;""></stim_listB>",,html-keyboard-response,251,1033131,0.0-17.0-1.1,5069,List2B,white,man,,,,null,,,,
null,is arguing with,,html-keyboard-response,252,1035133,0.0-17.0-2.1,5069,List2B,white,man,,,,null,,,,
5604,,,survey-text,253,1040739,0.0-17.0-3.1,5069,List2B,white,man,,,,,"{""Q0"":""ruth is arguing with dave""}","<img src=""stim_listB/argue1.gif""style=""height:400px;""></stim_listB>",is arguing with,
null,"<div style=""font-size:60px;"">+</div>",,html-keyboard-response,254,1041241,0.0-17.0-0.2,5069,List2B,white,man,,,,null,,,,
null,"<img src=""stim_listB/shout2.gif""style=""height:400px;""></stim_listB>",,html-keyboard-response,255,1043242,0.0-17.0-1.2,5069,List2B,white,man,,,,null,,,,
null,are shouting at each other,,html-keyboard-response,256,1045243,0.0-17.0-2.2,5069,List2B,white,man,,,,null,,,,
12169,,,survey-text,257,1057414,0.0-17.0-3.2,5069,List2B,white,man,,,,,"{""Q0"":""dave and jane are shouting at each other""}","<img src=""stim_listB/shout2.gif""style=""height:400px;""></stim_listB>",are shouting at each other,
null,"<div style=""font-size:60px;"">+</div>",,html-keyboard-response,258,1057920,0.0-17.0-0.3,5069,List2B,white,man,,,,null,,,,
null,"<img src=""stim_listB/play2.gif""style=""height:400px;""></stim_listB>",,html-keyboard-response,259,1059925,0.0-17.0-1.3,5069,List2B,white,man,,,,null,,,,
null,are playing with each other,,html-keyboard-response,260,1061926,0.0-17.0-2.3,5069,List2B,white,man,,,,null,,,,
9495,,,survey-text,261,1071422,0.0-17.0-3.3,5069,List2B,white,man,,,,,"{""Q0"":""luke and beth are playing with each other""}","<img src=""stim_listB/play2.gif""style=""height:400px;""></stim_listB>",are playing with each other,
null,"<div style=""font-size:60px;"">+</div>",,html-keyboard-response,262,1071928,0.0-17.0-0.4,5069,List2B,white,man,,,,null,,,,
null,"<img src=""stim_listB/dance3.gif""style=""height:400px;""></stim_listB>",,html-keyboard-response,263,1073929,0.0-17.0-1.4,5069,List2B,white,man,,,,null,,,,
null,is dancing with,,html-keyboard-response,264,1075930,0.0-17.0-2.4,5069,List2B,white,man,,,,null,,,,
7147,,,survey-text,265,1083078,0.0-17.0-3.4,5069,List2B,white,man,,,,,"{""Q0"":""kate is dancing with fred""}","<img src=""stim_listB/dance3.gif""style=""height:400px;""></stim_listB>",is dancing with,
null,"<div style=""font-size:60px;"">+</div>",,html-keyboard-response,266,1083584,0.0-17.0-0.5,5069,List2B,white,man,,,,null,,,,
null,"<img src=""stim_listB/fight5.gif""style=""height:400px;""></stim_listB>",,html-keyboard-response,267,1085586,0.0-17.0-1.5,5069,List2B,white,man,,,,null,,,,
null,is fighting,,html-keyboard-response,268,1087588,0.0-17.0-2.5,5069,List2B,white,man,,,,null,,,,
5626,,,survey-text,269,1093216,0.0-17.0-3.5,5069,List2B,white,man,,,,,"{""Q0"":""mike is fighting dave""}","<img src=""stim_listB/fight5.gif""style=""height:400px;""></stim_listB>",is fighting,
null,"<div style=""font-size:60px;"">+</div>",,html-keyboard-response,270,1093722,0.0-17.0-0.6,5069,List2B,white,man,,,,null,,,,
null,"<img src=""stim_listB/touch1.gif""style=""height:400px;""></stim_listB>",,html-keyboard-response,271,1095723,0.0-17.0-1.6,5069,List2B,white,man,,,,null,,,,
null,is touching,,html-keyboard-response,272,1097724,0.0-17.0-2.6,5069,List2B,white,man,,,,null,,,,
8262,,,survey-text,273,1105986,0.0-17.0-3.6,5069,List2B,white,man,,,,,"{""Q0"":""jane is touching dave""}","<img src=""stim_listB/touch1.gif""style=""height:400px;""></stim_listB>",is touching,
null,"<div style=""font-size:60px;"">+</div>",,html-keyboard-response,274,1106490,0.0-17.0-0.7,5069,List2B,white,man,,,,null,,,,
null,"<img src=""stim_listB/play1.gif""style=""height:400px;""></stim_listB>",,html-keyboard-response,275,1108493,0.0-17.0-1.7,5069,List2B,white,man,,,,null,,,,
null,is playing with,,html-keyboard-response,276,1110496,0.0-17.0-2.7,5069,List2B,white,man,,,,null,,,,
9699,,,survey-text,277,1120197,0.0-17.0-3.7,5069,List2B,white,man,,,,,"{""Q0"":""jane is playing with dave""}","<img src=""stim_listB/play1.gif""style=""height:400px;""></stim_listB>",is playing with,
null,"<div style=""font-size:60px;"">+</div>",,html-keyboard-response,278,1120698,0.0-17.0-0.8,5069,List2B,white,man,,,,null,,,,
null,"<img src=""stim_listB/talk8.gif""style=""height:400px;""></stim_listB>",,html-keyboard-response,279,1122699,0.0-17.0-1.8,5069,List2B,white,man,,,,null,,,,
null,are talking to each other,,html-keyboard-response,280,1124701,0.0-17.0-2.8,5069,List2B,white,man,,,,null,,,,
9412,,,survey-text,281,1134115,0.0-17.0-3.8,5069,List2B,white,man,,,,,"{""Q0"":""jane and beth are talking to each other""}","<img src=""stim_listB/talk8.gif""style=""height:400px;""></stim_listB>",are talking to each other,
null,"<div style=""font-size:60px;"">+</div>",,html-keyboard-response,282,1134621,0.0-17.0-0.9,5069,List2B,white,man,,,,null,,,,
null,"<img src=""stim_listB/talk1.gif""style=""height:400px;""></stim_listB>",,html-keyboard-response,283,1136623,0.0-17.0-1.9,5069,List2B,white,man,,,,null,,,,
null,is talking to,,html-keyboard-response,284,1138626,0.0-17.0-2.9,5069,List2B,white,man,,,,null,,,,
5513,,,survey-text,285,1144140,0.0-17.0-3.9,5069,List2B,white,man,,,,,"{""Q0"":""jane is talking to luke""}","<img src=""stim_listB/talk1.gif""style=""height:400px;""></stim_listB>",is talking to,
null,"<div style=""font-size:60px;"">+</div>",,html-keyboard-response,286,1144641,0.0-17.0-0.10,5069,List2B,white,man,,,,null,,,,
null,"<img src=""stim_listB/touch5.gif""style=""height:400px;""></stim_listB>",,html-keyboard-response,287,1146642,0.0-17.0-1.10,5069,List2B,white,man,,,,null,,,,
null,is touching,,html-keyboard-response,288,1148644,0.0-17.0-2.10,5069,List2B,white,man,,,,null,,,,
8232,,,survey-text,289,1156876,0.0-17.0-3.10,5069,List2B,white,man,,,,,"{""Q0"":""mike is touching dave""}","<img src=""stim_listB/touch5.gif""style=""height:400px;""></stim_listB>",is touching,
null,"<div style=""font-size:60px;"">+</div>",,html-keyboard-response,290,1157378,0.0-17.0-0.11,5069,List2B,white,man,,,,null,,,,
null,"<img src=""stim_listB/flirt3.gif""style=""height:400px;""></stim_listB>",,html-keyboard-response,291,1159380,0.0-17.0-1.11,5069,List2B,white,man,,,,null,,,,
null,is flirting with,,html-keyboard-response,292,1161381,0.0-17.0-2.11,5069,List2B,white,man,,,,null,,,,
8355,,,survey-text,293,1169737,0.0-17.0-3.11,5069,List2B,white,man,,,,,"{""Q0"":""kate is flirting with fred""}","<img src=""stim_listB/flirt3.gif""style=""height:400px;""></stim_listB>",is flirting with,
null,"<div style=""font-size:60px;"">+</div>",,html-keyboard-response,294,1170243,0.0-17.0-0.12,5069,List2B,white,man,,,,null,,,,
null,"<img src=""stim_listB/flirt7.gif""style=""height:400px;""></stim_listB>",,html-keyboard-response,295,1172245,0.0-17.0-1.12,5069,List2B,white,man,,,,null,,,,
null,is flirting with,,html-keyboard-response,296,1174246,0.0-17.0-2.12,5069,List2B,white,man,,,,null,,,,
9847,,,survey-text,297,1184094,0.0-17.0-3.12,5069,List2B,white,man,,,,,"{""Q0"":""kate is flirting with beth""}","<img src=""stim_listB/flirt7.gif""style=""height:400px;""></stim_listB>",is flirting with,
null,"<div style=""font-size:60px;"">+</div>",,html-keyboard-response,298,1184600,0.0-17.0-0.13,5069,List2B,white,man,,,,null,,,,
null,"<img src=""stim_listB/marry4.gif""style=""height:400px;""></stim_listB>",,html-keyboard-response,299,1186601,0.0-17.0-1.13,5069,List2B,white,man,,,,null,,,,
null,are marrying each other,,html-keyboard-response,300,1188603,0.0-17.0-2.13,5069,List2B,white,man,,,,null,,,,
10060,,,survey-text,301,1198664,0.0-17.0-3.13,5069,List2B,white,man,,,,,"{""Q0"":""kate and fred are marrying each other""}","<img src=""stim_listB/marry4.gif""style=""height:400px;""></stim_listB>",are marrying each other,
null,"<div style=""font-size:60px;"">+</div>",,html-keyboard-response,302,1199170,0.0-17.0-0.14,5069,List2B,white,man,,,,null,,,,
null,"<img src=""stim_listB/fight3.gif""style=""height:400px;""></stim_listB>",,html-keyboard-response,303,1201172,0.0-17.0-1.14,5069,List2B,white,man,,,,null,,,,
null,is fighting,,html-keyboard-response,304,1203174,0.0-17.0-2.14,5069,List2B,white,man,,,,null,,,,
5311,,,survey-text,305,1208487,0.0-17.0-3.14,5069,List2B,white,man,,,,,"{""Q0"":""mike is fighting kate""}","<img src=""stim_listB/fight3.gif""style=""height:400px;""></stim_listB>",is fighting,
null,"<div style=""font-size:60px;"">+</div>",,html-keyboard-response,306,1208993,0.0-17.0-0.15,5069,List2B,white,man,,,,null,,,,
null,"<img src=""stim_listB/flirt5.gif""style=""height:400px;""></stim_listB>",,html-keyboard-response,307,1210995,0.0-17.0-1.15,5069,List2B,white,man,,,,null,,,,
null,is flirting with,,html-keyboard-response,308,1212997,0.0-17.0-2.15,5069,List2B,white,man,,,,null,,,,
7448,,,survey-text,309,1220447,0.0-17.0-3.15,5069,List2B,white,man,,,,,"{""Q0"":""mike is flirting with luke""}","<img src=""stim_listB/flirt5.gif""style=""height:400px;""></stim_listB>",is flirting with,
null,"<div style=""font-size:60px;"">+</div>",,html-keyboard-response,310,1220948,0.0-17.0-0.16,5069,List2B,white,man,,,,null,,,,
null,"<img src=""stim_listB/dance2.gif""style=""height:400px;""></stim_listB>",,html-keyboard-response,311,1222950,0.0-17.0-1.16,5069,List2B,white,man,,,,null,,,,
null,are dancing with each other,,html-keyboard-response,312,1224951,0.0-17.0-2.16,5069,List2B,white,man,,,,null,,,,
11698,,,survey-text,313,1236649,0.0-17.0-3.16,5069,List2B,white,man,,,,,"{""Q0"":""dave and beth are dancing with each other""}","<img src=""stim_listB/dance2.gif""style=""height:400px;""></stim_listB>",are dancing with each other,
null,"<div style=""font-size:60px;"">+</div>",,html-keyboard-response,314,1237151,0.0-17.0-0.17,5069,List2B,white,man,,,,null,,,,
null,"<img src=""stim_listB/argue2.gif""style=""height:400px;""></stim_listB>",,html-keyboard-response,315,1239153,0.0-17.0-1.17,5069,List2B,white,man,,,,null,,,,
null,are arguing with each other,,html-keyboard-response,316,1241154,0.0-17.0-2.17,5069,List2B,white,man,,,,null,,,,
11371,,,survey-text,317,1252525,0.0-17.0-3.17,5069,List2B,white,man,,,,,"{""Q0"":""luke and jane are dancing with each other""}","<img src=""stim_listB/argue2.gif""style=""height:400px;""></stim_listB>",are arguing with each other,
null,"<div style=""font-size:60px;"">+</div>",,html-keyboard-response,318,1253031,0.0-17.0-0.18,5069,List2B,white,man,,,,null,,,,
null,"<img src=""stim_listB/shout6.gif""style=""height:400px;""></stim_listB>",,html-keyboard-response,319,1255032,0.0-17.0-1.18,5069,List2B,white,man,,,,null,,,,
null,are shouting at each other,,html-keyboard-response,320,1257035,0.0-17.0-2.18,5069,List2B,white,man,,,,null,,,,
11837,,,survey-text,321,1268873,0.0-17.0-3.18,5069,List2B,white,man,,,,,"{""Q0"":""dave and mike are shouting at each other""}","<img src=""stim_listB/shout6.gif""style=""height:400px;""></stim_listB>",are shouting at each other,
null,"<div style=""font-size:60px;"">+</div>",,html-keyboard-response,322,1269379,0.0-17.0-0.19,5069,List2B,white,man,,,,null,,,,
null,"<img src=""stim_listB/touch7.gif""style=""height:400px;""></stim_listB>",,html-keyboard-response,323,1271383,0.0-17.0-1.19,5069,List2B,white,man,,,,null,,,,
null,is touching,,html-keyboard-response,324,1273384,0.0-17.0-2.19,5069,List2B,white,man,,,,null,,,,
5738,,,survey-text,325,1279123,0.0-17.0-3.19,5069,List2B,white,man,,,,,"{""Q0"":""kate is touching jane""}","<img src=""stim_listB/touch7.gif""style=""height:400px;""></stim_listB>",is touching,
4207,"<img src='img/portrait_matrix_list2.jpg' style='width:900px;height:500px;''></img><p>If you have memorised all the portraits and names and are ready to start, press Continue.</p><p><strong>Please note: Your memory of these faces will be tested 4 times during this experiment.</strong></p>",0,html-button-response,326,1283331,0.0-18.0-0.0,5069,List2B,white,man,,,,,,,,
4183,"<img src=""portrait/WW1.jpg""style=""height:400px;""></img>",1,html-button-response,327,1288518,0.0-18.0-1.0,5069,List2B,white,man,,TRUE,1,,,,,
null,CORRECT,,html-keyboard-response,328,1290023,0.0-18.0-2.0-0.0,5069,List2B,white,man,,,,null,,,,
1420,"<img src=""portrait/BM1.jpg""style=""height:400px;""></img>",4,html-button-response,329,1291444,0.0-18.0-4.0,5069,List2B,white,man,,TRUE,4,,,,,
null,CORRECT,,html-keyboard-response,330,1292949,0.0-18.0-5.0-0.0,5069,List2B,white,man,,,,null,,,,
1442,"<img src=""portrait/WM1.jpg""style=""height:400px;""></img>",6,html-button-response,331,1294392,0.0-18.0-7.0,5069,List2B,white,man,,TRUE,6,,,,,
null,CORRECT,,html-keyboard-response,332,1295901,0.0-18.0-8.0-0.0,5069,List2B,white,man,,,,null,,,,
2033,"<img src=""portrait/WW2.jpg""style=""height:400px;""></img>",3,html-button-response,333,1297936,0.0-18.0-10.0,5069,List2B,white,man,,TRUE,3,,,,,
null,CORRECT,,html-keyboard-response,334,1299447,0.0-18.0-11.0-0.0,5069,List2B,white,man,,,,null,,,,
1345,"<img src=""portrait/WM2.jpg""style=""height:400px;""></img>",7,html-button-response,335,1300794,0.0-18.0-13.0,5069,List2B,white,man,,TRUE,7,,,,,
null,CORRECT,,html-keyboard-response,336,1302302,0.0-18.0-14.0-0.0,5069,List2B,white,man,,,,null,,,,
1584,"<img src=""portrait/BW1.jpg""style=""height:400px;""></img>",0,html-button-response,337,1303888,0.0-18.0-16.0,5069,List2B,white,man,,TRUE,0,,,,,
null,CORRECT,,html-keyboard-response,338,1305395,0.0-18.0-17.0-0.0,5069,List2B,white,man,,,,null,,,,
1371,"<img src=""portrait/BM2.jpg""style=""height:400px;""></img>",5,html-button-response,339,1306768,0.0-18.0-19.0,5069,List2B,white,man,,TRUE,5,,,,,
null,CORRECT,,html-keyboard-response,340,1308279,0.0-18.0-20.0-0.0,5069,List2B,white,man,,,,null,,,,
1210,"<img src=""portrait/BW2.jpg""style=""height:400px;""></img>",2,html-button-response,341,1309491,0.0-18.0-22.0,5069,List2B,white,man,,TRUE,2,,,,,
null,CORRECT,,html-keyboard-response,342,1311002,0.0-18.0-23.0-0.0,5069,List2B,white,man,,,,null,,,,
850,<p>You got 8 out of 8 right first time. Press Continue.</p>,0,html-button-response,343,1311853,0.0-18.0-25.0,5069,List2B,white,man,,,,,,,,
null,"<div style=""font-size:60px;"">+</div>",,html-keyboard-response,344,1313359,0.0-19.0-0.0,5069,List2B,white,man,,,,null,,,,
null,"<img src=""stim_listB/fight8.gif""style=""height:400px;""></stim_listB>",,html-keyboard-response,345,1315363,0.0-19.0-1.0,5069,List2B,white,man,,,,null,,,,
null,are fighting each other,,html-keyboard-response,346,1317365,0.0-19.0-2.0,5069,List2B,white,man,,,,null,,,,
10498,,,survey-text,347,1327864,0.0-19.0-3.0,5069,List2B,white,man,,,,,"{""Q0"":""beth and ruth are fighting each other""}","<img src=""stim_listB/fight8.gif""style=""height:400px;""></stim_listB>",are fighting each other,
null,"<div style=""font-size:60px;"">+</div>",,html-keyboard-response,348,1328369,0.0-19.0-0.1,5069,List2B,white,man,,,,null,,,,
null,"<img src=""stim_listB/dance6.gif""style=""height:400px;""></stim_listB>",,html-keyboard-response,349,1330371,0.0-19.0-1.1,5069,List2B,white,man,,,,null,,,,
null,are dancing with each other,,html-keyboard-response,350,1332371,0.0-19.0-2.1,5069,List2B,white,man,,,,null,,,,
13191,,,survey-text,351,1345563,0.0-19.0-3.1,5069,List2B,white,man,,,,,"{""Q0"":""dave and fred are dancing with each other""}","<img src=""stim_listB/dance6.gif""style=""height:400px;""></stim_listB>",are dancing with each other,
null,"<div style=""font-size:60px;"">+</div>",,html-keyboard-response,352,1346069,0.0-19.0-0.2,5069,List2B,white,man,,,,null,,,,
null,"<img src=""stim_listB/dance7.gif""style=""height:400px;""></stim_listB>",,html-keyboard-response,353,1348071,0.0-19.0-1.2,5069,List2B,white,man,,,,null,,,,
null,is dancing with,,html-keyboard-response,354,1350073,0.0-19.0-2.2,5069,List2B,white,man,,,,null,,,,
6504,,,survey-text,355,1356578,0.0-19.0-3.2,5069,List2B,white,man,,,,,"{""Q0"":""kate is dancing with beth""}","<img src=""stim_listB/dance7.gif""style=""height:400px;""></stim_listB>",is dancing with,
null,"<div style=""font-size:60px;"">+</div>",,html-keyboard-response,356,1357079,0.0-19.0-0.3,5069,List2B,white,man,,,,null,,,,
null,"<img src=""stim_listB/shout1.gif""style=""height:400px;""></stim_listB>",,html-keyboard-response,357,1359083,0.0-19.0-1.3,5069,List2B,white,man,,,,null,,,,
null,is shouting at,,html-keyboard-response,358,1361088,0.0-19.0-2.3,5069,List2B,white,man,,,,null,,,,
8844,,,survey-text,359,1369934,0.0-19.0-3.3,5069,List2B,white,man,,,,,"{""Q0"":""ruth is shouting at luke""}","<img src=""stim_listB/shout1.gif""style=""height:400px;""></stim_listB>",is shouting at,
null,"<div style=""font-size:60px;"">+</div>",,html-keyboard-response,360,1370440,0.0-19.0-0.4,5069,List2B,white,man,,,,null,,,,
null,"<img src=""stim_listB/kiss1.gif""style=""height:400px;""></stim_listB>",,html-keyboard-response,361,1372445,0.0-19.0-1.4,5069,List2B,white,man,,,,null,,,,
null,is kissing,,html-keyboard-response,362,1374446,0.0-19.0-2.4,5069,List2B,white,man,,,,null,,,,
9078,,,survey-text,363,1383525,0.0-19.0-3.4,5069,List2B,white,man,,,,,"{""Q0"":""ruth is kissing luke""}","<img src=""stim_listB/kiss1.gif""style=""height:400px;""></stim_listB>",is kissing,
null,"<div style=""font-size:60px;"">+</div>",,html-keyboard-response,364,1384031,0.0-19.0-0.5,5069,List2B,white,man,,,,null,,,,
null,"<img src=""stim_listB/play5.gif""style=""height:400px;""></stim_listB>",,html-keyboard-response,365,1386033,0.0-19.0-1.5,5069,List2B,white,man,,,,null,,,,
null,is playing with,,html-keyboard-response,366,1388034,0.0-19.0-2.5,5069,List2B,white,man,,,,null,,,,
10702,,,survey-text,367,1398737,0.0-19.0-3.5,5069,List2B,white,man,,,,,"{""Q0"":""mike is playing with dave""}","<img src=""stim_listB/play5.gif""style=""height:400px;""></stim_listB>",is playing with,
null,"<div style=""font-size:60px;"">+</div>",,html-keyboard-response,368,1399243,0.0-19.0-0.6,5069,List2B,white,man,,,,null,,,,
null,"<img src=""stim_listB/touch3.gif""style=""height:400px;""></stim_listB>",,html-keyboard-response,369,1401247,0.0-19.0-1.6,5069,List2B,white,man,,,,null,,,,
null,is touching,,html-keyboard-response,370,1403248,0.0-19.0-2.6,5069,List2B,white,man,,,,null,,,,
6154,,,survey-text,371,1409403,0.0-19.0-3.6,5069,List2B,white,man,,,,,"{""Q0"":""kate is touching mike""}","<img src=""stim_listB/touch3.gif""style=""height:400px;""></stim_listB>",is touching,
null,"<div style=""font-size:60px;"">+</div>",,html-keyboard-response,372,1409908,0.0-19.0-0.7,5069,List2B,white,man,,,,null,,,,
null,"<img src=""stim_listB/shout8.gif""style=""height:400px;""></stim_listB>",,html-keyboard-response,373,1411911,0.0-19.0-1.7,5069,List2B,white,man,,,,null,,,,
null,are shouting at each other,,html-keyboard-response,374,1413912,0.0-19.0-2.7,5069,List2B,white,man,,,,null,,,,
8778,,,survey-text,375,1422692,0.0-19.0-3.7,5069,List2B,white,man,,,,,"{""Q0"":""jane and kate are shouting at each other""}","<img src=""stim_listB/shout8.gif""style=""height:400px;""></stim_listB>",are shouting at each other,
null,"<div style=""font-size:60px;"">+</div>",,html-keyboard-response,376,1423198,0.0-19.0-0.8,5069,List2B,white,man,,,,null,,,,
null,"<img src=""stim_listB/shout7.gif""style=""height:400px;""></stim_listB>",,html-keyboard-response,377,1425200,0.0-19.0-1.8,5069,List2B,white,man,,,,null,,,,
null,is shouting at,,html-keyboard-response,378,1427206,0.0-19.0-2.8,5069,List2B,white,man,,,,null,,,,
8210,,,survey-text,379,1435417,0.0-19.0-3.8,5069,List2B,white,man,,,,,"{""Q0"":""ruth is shouting at beth""}","<img src=""stim_listB/shout7.gif""style=""height:400px;""></stim_listB>",is shouting at,
null,"<div style=""font-size:60px;"">+</div>",,html-keyboard-response,380,1435920,0.0-19.0-0.9,5069,List2B,white,man,,,,null,,,,
null,"<img src=""stim_listB/marry2.gif""style=""height:400px;""></stim_listB>",,html-keyboard-response,381,1437924,0.0-19.0-1.9,5069,List2B,white,man,,,,null,,,,
null,are marrying each other,,html-keyboard-response,382,1439925,0.0-19.0-2.9,5069,List2B,white,man,,,,null,,,,
8103,,,survey-text,383,1448030,0.0-19.0-3.9,5069,List2B,white,man,,,,,"{""Q0"":""luke and jane are marrying each other""}","<img src=""stim_listB/marry2.gif""style=""height:400px;""></stim_listB>",are marrying each other,
null,"<div style=""font-size:60px;"">+</div>",,html-keyboard-response,384,1448536,0.0-19.0-0.10,5069,List2B,white,man,,,,null,,,,
null,"<img src=""stim_listB/marry8.gif""style=""height:400px;""></stim_listB>",,html-keyboard-response,385,1450537,0.0-19.0-1.10,5069,List2B,white,man,,,,null,,,,
null,are marrying each other,,html-keyboard-response,386,1452540,0.0-19.0-2.10,5069,List2B,white,man,,,,null,,,,
8789,,,survey-text,387,1461329,0.0-19.0-3.10,5069,List2B,white,man,,,,,"{""Q0"":""kate and ruth are marrying each other""}","<img src=""stim_listB/marry8.gif""style=""height:400px;""></stim_listB>",are marrying each other,
null,"<div style=""font-size:60px;"">+</div>",,html-keyboard-response,388,1461836,0.0-19.0-0.11,5069,List2B,white,man,,,,null,,,,
null,"<img src=""stim_listB/flirt4.gif""style=""height:400px;""></stim_listB>",,html-keyboard-response,389,1463837,0.0-19.0-1.11,5069,List2B,white,man,,,,null,,,,
null,are flirting with each other,,html-keyboard-response,390,1465839,0.0-19.0-2.11,5069,List2B,white,man,,,,null,,,,
9756,,,survey-text,391,1475596,0.0-19.0-3.11,5069,List2B,white,man,,,,,"{""Q0"":""mike and beth are flirting with each other""}","<img src=""stim_listB/flirt4.gif""style=""height:400px;""></stim_listB>",are flirting with each other,
null,"<div style=""font-size:60px;"">+</div>",,html-keyboard-response,392,1476100,0.0-19.0-0.12,5069,List2B,white,man,,,,null,,,,
null,"<img src=""stim_listB/marry6.gif""style=""height:400px;""></stim_listB>",,html-keyboard-response,393,1478102,0.0-19.0-1.12,5069,List2B,white,man,,,,null,,,,
null,are marrying each other,,html-keyboard-response,394,1480104,0.0-19.0-2.12,5069,List2B,white,man,,,,null,,,,
7159,,,survey-text,395,1487264,0.0-19.0-3.12,5069,List2B,white,man,,,,,"{""Q0"":""luke and mike are marrying each other""}","<img src=""stim_listB/marry6.gif""style=""height:400px;""></stim_listB>",are marrying each other,
null,"<div style=""font-size:60px;"">+</div>",,html-keyboard-response,396,1487765,0.0-19.0-0.13,5069,List2B,white,man,,,,null,,,,
null,"<img src=""stim_listB/argue7.gif""style=""height:400px;""></stim_listB>",,html-keyboard-response,397,1489766,0.0-19.0-1.13,5069,List2B,white,man,,,,null,,,,
null,is arguing with,,html-keyboard-response,398,1491768,0.0-19.0-2.13,5069,List2B,white,man,,,,null,,,,
9717,,,survey-text,399,1501486,0.0-19.0-3.13,5069,List2B,white,man,,,,,"{""Q0"":""beth is arguing with jane""}","<img src=""stim_listB/argue7.gif""style=""height:400px;""></stim_listB>",is arguing with,
null,"<div style=""font-size:60px;"">+</div>",,html-keyboard-response,400,1501990,0.0-19.0-0.14,5069,List2B,white,man,,,,null,,,,
null,"<img src=""stim_listB/fight1.gif""style=""height:400px;""></stim_listB>",,html-keyboard-response,401,1503992,0.0-19.0-1.14,5069,List2B,white,man,,,,null,,,,
null,is fighting,,html-keyboard-response,402,1505993,0.0-19.0-2.14,5069,List2B,white,man,,,,null,,,,
6326,,,survey-text,403,1512320,0.0-19.0-3.14,5069,List2B,white,man,,,,,"{""Q0"":""jane is fighting dave""}","<img src=""stim_listB/fight1.gif""style=""height:400px;""></stim_listB>",is fighting,
null,"<div style=""font-size:60px;"">+</div>",,html-keyboard-response,404,1512825,0.0-19.0-0.15,5069,List2B,white,man,,,,null,,,,
null,"<img src=""stim_listB/touch2.gif""style=""height:400px;""></stim_listB>",,html-keyboard-response,405,1514827,0.0-19.0-1.15,5069,List2B,white,man,,,,null,,,,
null,are touching each other,,html-keyboard-response,406,1516831,0.0-19.0-2.15,5069,List2B,white,man,,,,null,,,,
10589,,,survey-text,407,1527420,0.0-19.0-3.15,5069,List2B,white,man,,,,,"{""Q0"":""luke and ruth are touching each other""}","<img src=""stim_listB/touch2.gif""style=""height:400px;""></stim_listB>",are touching each other,
null,"<div style=""font-size:60px;"">+</div>",,html-keyboard-response,408,1527926,0.0-19.0-0.16,5069,List2B,white,man,,,,null,,,,
null,"<img src=""stim_listB/dance1.gif""style=""height:400px;""></stim_listB>",,html-keyboard-response,409,1529928,0.0-19.0-1.16,5069,List2B,white,man,,,,null,,,,
null,is dancing with,,html-keyboard-response,410,1531929,0.0-19.0-2.16,5069,List2B,white,man,,,,null,,,,
12851,,,survey-text,411,1544781,0.0-19.0-3.16,5069,List2B,white,man,,,,,"{""Q0"":""jane is dancing with luke""}","<img src=""stim_listB/dance1.gif""style=""height:400px;""></stim_listB>",is dancing with,
null,"<div style=""font-size:60px;"">+</div>",,html-keyboard-response,412,1545282,0.0-19.0-0.17,5069,List2B,white,man,,,,null,,,,
null,"<img src=""stim_listB/talk3.gif""style=""height:400px;""></stim_listB>",,html-keyboard-response,413,1547284,0.0-19.0-1.17,5069,List2B,white,man,,,,null,,,,
null,is talking to,,html-keyboard-response,414,1549285,0.0-19.0-2.17,5069,List2B,white,man,,,,null,,,,
5386,,,survey-text,415,1554671,0.0-19.0-3.17,5069,List2B,white,man,,,,,"{""Q0"":""kate is talking to fred""}","<img src=""stim_listB/talk3.gif""style=""height:400px;""></stim_listB>",is talking to,
null,"<div style=""font-size:60px;"">+</div>",,html-keyboard-response,416,1555177,0.0-19.0-0.18,5069,List2B,white,man,,,,null,,,,
null,"<img src=""stim_listB/argue8.gif""style=""height:400px;""></stim_listB>",,html-keyboard-response,417,1557179,0.0-19.0-1.18,5069,List2B,white,man,,,,null,,,,
null,are arguing with each other,,html-keyboard-response,418,1559180,0.0-19.0-2.18,5069,List2B,white,man,,,,null,,,,
9656,,,survey-text,419,1568836,0.0-19.0-3.18,5069,List2B,white,man,,,,,"{""Q0"":""ruth and kate are talking to each other""}","<img src=""stim_listB/argue8.gif""style=""height:400px;""></stim_listB>",are arguing with each other,
null,"<div style=""font-size:60px;"">+</div>",,html-keyboard-response,420,1569342,0.0-19.0-0.19,5069,List2B,white,man,,,,null,,,,
null,"<img src=""stim_listB/marry7.gif""style=""height:400px;""></stim_listB>",,html-keyboard-response,421,1571344,0.0-19.0-1.19,5069,List2B,white,man,,,,null,,,,
null,is marrying,,html-keyboard-response,422,1573344,0.0-19.0-2.19,5069,List2B,white,man,,,,null,,,,
5190,,,survey-text,423,1578535,0.0-19.0-3.19,5069,List2B,white,man,,,,,"{""Q0"":""beth is marrying jane""}","<img src=""stim_listB/marry7.gif""style=""height:400px;""></stim_listB>",is marrying,
1799,<p>Thank you for completing that task.</p><p>The final part of this session is a short questionnaire.</p><p>Press Continue.</p>,0,html-button-response,424,1580336,0.0-20.0,5069,List2B,white,man,,,,,,,,
18154,,,survey-text,425,1599496,0.0-21.0,5069,List2B,white,man,,,,,"{""Q0"":""43"",""Q1"":""English"",""Q2"":""English"",""Q3"":""England"",""Q4"":""White"",""Q5"":""Male""}",,,demographics
10485,,,survey-likert,426,1609984,0.0-22.0,5069,List2B,white,man,,,,,"{""Q0"":4}",,,likert_ESS
9798,,,survey-likert,427,1619783,0.0-23.0,5069,List2B,white,man,,,,,"{""Q0"":5}",,,likert_NSSAL_Q1
2441,,,survey-likert,428,1622225,0.0-24.0,5069,List2B,white,man,,,,,"{""Q0"":5}",,,likert_NSSAL_Q2
2654,,,survey-likert,429,1624880,0.0-25.0,5069,List2B,white,man,,,,,"{""Q0"":""""}",,,likert_CGRS_Q1
10339,,,survey-likert,430,1635220,0.0-26.0,5069,List2B,white,man,,,,,"{""Q0"":2}",,,likert_CGRS_Q2
2552,,,survey-likert,431,1637774,0.0-27.0,5069,List2B,white,man,,,,,"{""Q0"":2}",,,likert_CGRS_Q3
3982,,,survey-text,432,1641757,0.0-28.0,5069,List2B,white,man,,,,,"{""Q0"":""ccc""}",,,worker_id
15975,,,external-html,433,1657970,0.0-29.0,5069,List2B,white,man,debrief.html,,,,,,,
