rt,stimulus,button_pressed,trial_type,trial_index,time_elapsed,internal_node_id,subject,list,ppt_race,ppt_gender,url,first_guess,correct,key_press,responses,image_type,phrase_type,test_part
1948,Welcome to the experiment. Press Continue to begin.,0,html-button-response,0,1954,0.0-0.0,51409,List1A,white,woman,,,,,,,,
17686,,,external-html,1,20709,0.0-1.0,51409,List1A,white,woman,consent.html,,,,,,,
50999,"<p>On the next page, you will see portraits of 8 people and their names.</p><p>Your first task is to take a few minutes to memorise the names of these people.</p><p>You will have to recall their names during the rest of the experiment, so it is</p><p>essential that you try to memorise these people and their names as best as you can.</p><br><p><strong>You will then be tested on your memory of these names and portraits.</strong></p><br><p>The experiment will start after you have completed this memory test.</p><br><p>Ready?</p>",0,html-button-response,2,71713,0.0-2.0,51409,List1A,white,woman,,,,,,,,
128784,"<img src='img/portrait_matrix_list1.jpg' style='width:900px;height:500px;''></img><p>If you have memorised all the portraits and names and are ready to start, press Continue.</p><p><strong>Please note: Your memory of these faces will be tested 4 times during this experiment.</strong></p>",0,html-button-response,3,201500,0.0-3.0-0.0,51409,List1A,white,woman,,,,,,,,
8085,"<img src=""portrait/BM1.jpg""style=""height:400px;""></img>",4,html-button-response,4,210591,0.0-3.0-1.0,51409,List1A,white,woman,,TRUE,4,,,,,
null,CORRECT,,html-keyboard-response,5,212096,0.0-3.0-2.0-0.0,51409,List1A,white,woman,,,,null,,,,
15066,"<img src=""portrait/WW2.jpg""style=""height:400px;""></img>",3,html-button-response,6,227166,0.0-3.0-4.0,51409,List1A,white,woman,,TRUE,3,,,,,
null,CORRECT,,html-keyboard-response,7,228670,0.0-3.0-5.0-0.0,51409,List1A,white,woman,,,,null,,,,
4651,"<img src=""portrait/WW1.jpg""style=""height:400px;""></img>",1,html-button-response,8,233325,0.0-3.0-7.0,51409,List1A,white,woman,,TRUE,1,,,,,
null,CORRECT,,html-keyboard-response,9,234828,0.0-3.0-8.0-0.0,51409,List1A,white,woman,,,,null,,,,
7723,"<img src=""portrait/BM2.jpg""style=""height:400px;""></img>",5,html-button-response,10,242554,0.0-3.0-10.0,51409,List1A,white,woman,,TRUE,5,,,,,
null,CORRECT,,html-keyboard-response,11,244058,0.0-3.0-11.0-0.0,51409,List1A,white,woman,,,,null,,,,
5418,"<img src=""portrait/WM2.jpg""style=""height:400px;""></img>",7,html-button-response,12,249481,0.0-3.0-13.0,51409,List1A,white,woman,,TRUE,7,,,,,
null,CORRECT,,html-keyboard-response,13,250984,0.0-3.0-14.0-0.0,51409,List1A,white,woman,,,,null,,,,
5229,"<img src=""portrait/BW2.jpg""style=""height:400px;""></img>",2,html-button-response,14,256219,0.0-3.0-16.0,51409,List1A,white,woman,,TRUE,2,,,,,
null,CORRECT,,html-keyboard-response,15,257723,0.0-3.0-17.0-0.0,51409,List1A,white,woman,,,,null,,,,
8890,"<img src=""portrait/WM1.jpg""style=""height:400px;""></img>",6,html-button-response,16,266617,0.0-3.0-19.0,51409,List1A,white,woman,,TRUE,6,,,,,
null,CORRECT,,html-keyboard-response,17,268120,0.0-3.0-20.0-0.0,51409,List1A,white,woman,,,,null,,,,
11086,"<img src=""portrait/BW1.jpg""style=""height:400px;""></img>",0,html-button-response,18,279209,0.0-3.0-22.0,51409,List1A,white,woman,,TRUE,0,,,,,
null,CORRECT,,html-keyboard-response,19,280714,0.0-3.0-23.0-0.0,51409,List1A,white,woman,,,,null,,,,
1778,<p>You got 8 out of 8 right first time. Press Continue.</p>,0,html-button-response,20,282497,0.0-3.0-25.0,51409,List1A,white,woman,,,,,,,,
43800,"<p>In this experiment, you will view photographs of the people from the memory game interacting.</p><p>By using the <strong>exact</strong> phrase given <i>after</i> the photograph appears and recalling the correct names of the people in the photographs, form a sentence describing the interaction. You do not need to capitalise names.</p><p>Type your answer in the space provided. Please complete every sentence before moving onto the next trial.</p><p>You will only have a few seconds to memorise each given photograph and phrase before you can respond, so try your best to focus.</p><p>An example is given below. Press 'Continue' when you are ready.</p><img src='img/speaking_example.jpg' style='width:800px;height:460px;''></img>",0,html-button-response,21,327305,0.0-4.0,51409,List1A,white,woman,,,,,,,,
2037,"<p>Before the experiment starts, you will watch two example trials. Press 'Continue'.</p>",0,html-button-response,22,330346,0.0-5.0,51409,List1A,white,woman,,,,,,,,
null,<img src='img/meet_eg.gif' style='height:400px;''></img>,,html-keyboard-response,23,333351,0.0-6.0,51409,List1A,white,woman,,,,null,,,,
null,<p>is meeting</p>,,html-keyboard-response,24,335353,0.0-7.0,51409,List1A,white,woman,,,,null,,,,
2806,<p><b>Answer:</b> kate is meeting beth</p>,0,html-button-response,25,338162,0.0-8.0,51409,List1A,white,woman,,,,,,,,
null,<img src='img/look_eg.gif' style='height:400px;''></img>,,html-keyboard-response,26,341166,0.0-9.0,51409,List1A,white,woman,,,,null,,,,
null,<p>are looking at each other</p>,,html-keyboard-response,27,343170,0.0-10.0,51409,List1A,white,woman,,,,null,,,,
2536,<p><b>Answer:</b> luke and dave are looking at each other</p>,0,html-button-response,28,345709,0.0-11.0,51409,List1A,white,woman,,,,,,,,
3851,"<p>Ready to start the experiment?</p><br><p><strong>Remember to describe the picture using a full sentence,</strong></p><p><strong>that combines the names of the people with the <i>exact</i> phrase given.</strong></p><p><strong>To receive full payment you must do this correctly.</strong></p><p><strong> You do not need to capitalise names or use punctuation.</strong></p><br><p>Press 'Continue' to begin.</p>",0,html-button-response,29,350564,0.0-12.0,51409,List1A,white,woman,,,,,,,,
null,"<div style=""font-size:60px;"">+</div>",,html-keyboard-response,30,352067,0.0-13.0-0.0,51409,List1A,white,woman,,,,null,,,,
null,"<img src=""stim_listA/dance5.gif""style=""height:400px;""></stim_listA>",,html-keyboard-response,31,354075,0.0-13.0-1.0,51409,List1A,white,woman,,,,null,,,,
null,is dancing with,,html-keyboard-response,32,356077,0.0-13.0-2.0,51409,List1A,white,woman,,,,null,,,,
15007,,,survey-text,33,371086,0.0-13.0-3.0,51409,List1A,white,woman,,,,,"{""Q0"":""Luke is dancing with fred""}","<img src=""stim_listA/dance5.gif""style=""height:400px;""></stim_listA>",is dancing with,
null,"<div style=""font-size:60px;"">+</div>",,html-keyboard-response,34,371589,0.0-13.0-0.1,51409,List1A,white,woman,,,,null,,,,
null,"<img src=""stim_listA/talk6.gif""style=""height:400px;""></stim_listA>",,html-keyboard-response,35,373591,0.0-13.0-1.1,51409,List1A,white,woman,,,,null,,,,
null,are talking to each other,,html-keyboard-response,36,375593,0.0-13.0-2.1,51409,List1A,white,woman,,,,null,,,,
26152,,,survey-text,37,401749,0.0-13.0-3.1,51409,List1A,white,woman,,,,,"{""Q0"":""mike and luke are talking to each other""}","<img src=""stim_listA/talk6.gif""style=""height:400px;""></stim_listA>",are talking to each other,
null,"<div style=""font-size:60px;"">+</div>",,html-keyboard-response,38,402253,0.0-13.0-0.2,51409,List1A,white,woman,,,,null,,,,
null,"<img src=""stim_listA/touch5.gif""style=""height:400px;""></stim_listA>",,html-keyboard-response,39,404255,0.0-13.0-1.2,51409,List1A,white,woman,,,,null,,,,
null,is touching,,html-keyboard-response,40,406257,0.0-13.0-2.2,51409,List1A,white,woman,,,,null,,,,
16734,,,survey-text,41,422993,0.0-13.0-3.2,51409,List1A,white,woman,,,,,"{""Q0"":""dave is touching mike""}","<img src=""stim_listA/touch5.gif""style=""height:400px;""></stim_listA>",is touching,
null,"<div style=""font-size:60px;"">+</div>",,html-keyboard-response,42,423496,0.0-13.0-0.3,51409,List1A,white,woman,,,,null,,,,
null,"<img src=""stim_listA/flirt6.gif""style=""height:400px;""></stim_listA>",,html-keyboard-response,43,425499,0.0-13.0-1.3,51409,List1A,white,woman,,,,null,,,,
null,are flirting with each other,,html-keyboard-response,44,427501,0.0-13.0-2.3,51409,List1A,white,woman,,,,null,,,,
16836,,,survey-text,45,444341,0.0-13.0-3.3,51409,List1A,white,woman,,,,,"{""Q0"":""mike and luke are flirting""}","<img src=""stim_listA/flirt6.gif""style=""height:400px;""></stim_listA>",are flirting with each other,
null,"<div style=""font-size:60px;"">+</div>",,html-keyboard-response,46,444844,0.0-13.0-0.4,51409,List1A,white,woman,,,,null,,,,
null,"<img src=""stim_listA/fight2.gif""style=""height:400px;""></stim_listA>",,html-keyboard-response,47,446847,0.0-13.0-1.4,51409,List1A,white,woman,,,,null,,,,
null,are fighting each other,,html-keyboard-response,48,449230,0.0-13.0-2.4,51409,List1A,white,woman,,,,null,,,,
9310,,,survey-text,49,458542,0.0-13.0-3.4,51409,List1A,white,woman,,,,,"{""Q0"":""fred and beth are fighting""}","<img src=""stim_listA/fight2.gif""style=""height:400px;""></stim_listA>",are fighting each other,
null,"<div style=""font-size:60px;"">+</div>",,html-keyboard-response,50,459044,0.0-13.0-0.5,51409,List1A,white,woman,,,,null,,,,
null,"<img src=""stim_listA/talk2.gif""style=""height:400px;""></stim_listA>",,html-keyboard-response,51,461047,0.0-13.0-1.5,51409,List1A,white,woman,,,,null,,,,
null,are talking to each other,,html-keyboard-response,52,463050,0.0-13.0-2.5,51409,List1A,white,woman,,,,null,,,,
12585,,,survey-text,53,475637,0.0-13.0-3.5,51409,List1A,white,woman,,,,,"{""Q0"":""beth and mike are talking""}","<img src=""stim_listA/talk2.gif""style=""height:400px;""></stim_listA>",are talking to each other,
null,"<div style=""font-size:60px;"">+</div>",,html-keyboard-response,54,476140,0.0-13.0-0.6,51409,List1A,white,woman,,,,null,,,,
null,"<img src=""stim_listA/play8.gif""style=""height:400px;""></stim_listA>",,html-keyboard-response,55,478142,0.0-13.0-1.6,51409,List1A,white,woman,,,,null,,,,
null,are playing with each other,,html-keyboard-response,56,480144,0.0-13.0-2.6,51409,List1A,white,woman,,,,null,,,,
5976,,,survey-text,57,486123,0.0-13.0-3.6,51409,List1A,white,woman,,,,,"{""Q0"":""""}","<img src=""stim_listA/play8.gif""style=""height:400px;""></stim_listA>",are playing with each other,
null,"<div style=""font-size:60px;"">+</div>",,html-keyboard-response,58,486626,0.0-13.0-0.7,51409,List1A,white,woman,,,,null,,,,
null,"<img src=""stim_listA/marry8.gif""style=""height:400px;""></stim_listA>",,html-keyboard-response,59,488629,0.0-13.0-1.7,51409,List1A,white,woman,,,,null,,,,
null,are marrying each other,,html-keyboard-response,60,490630,0.0-13.0-2.7,51409,List1A,white,woman,,,,null,,,,
12857,,,survey-text,61,503490,0.0-13.0-3.7,51409,List1A,white,woman,,,,,"{""Q0"":""beth and jane are marrying""}","<img src=""stim_listA/marry8.gif""style=""height:400px;""></stim_listA>",are marrying each other,
null,"<div style=""font-size:60px;"">+</div>",,html-keyboard-response,62,503992,0.0-13.0-0.8,51409,List1A,white,woman,,,,null,,,,
null,"<img src=""stim_listA/dance1.gif""style=""height:400px;""></stim_listA>",,html-keyboard-response,63,505999,0.0-13.0-1.8,51409,List1A,white,woman,,,,null,,,,
null,is dancing with,,html-keyboard-response,64,508003,0.0-13.0-2.8,51409,List1A,white,woman,,,,null,,,,
4769,,,survey-text,65,512775,0.0-13.0-3.8,51409,List1A,white,woman,,,,,"{""Q0"":""""}","<img src=""stim_listA/dance1.gif""style=""height:400px;""></stim_listA>",is dancing with,
null,"<div style=""font-size:60px;"">+</div>",,html-keyboard-response,66,513281,0.0-13.0-0.9,51409,List1A,white,woman,,,,null,,,,
null,"<img src=""stim_listA/shout4.gif""style=""height:400px;""></stim_listA>",,html-keyboard-response,67,515284,0.0-13.0-1.9,51409,List1A,white,woman,,,,null,,,,
null,are shouting at each other,,html-keyboard-response,68,517286,0.0-13.0-2.9,51409,List1A,white,woman,,,,null,,,,
1837,,,survey-text,69,519127,0.0-13.0-3.9,51409,List1A,white,woman,,,,,"{""Q0"":""""}","<img src=""stim_listA/shout4.gif""style=""height:400px;""></stim_listA>",are shouting at each other,
null,"<div style=""font-size:60px;"">+</div>",,html-keyboard-response,70,519628,0.0-13.0-0.10,51409,List1A,white,woman,,,,null,,,,
null,"<img src=""stim_listA/dance7.gif""style=""height:400px;""></stim_listA>",,html-keyboard-response,71,521630,0.0-13.0-1.10,51409,List1A,white,woman,,,,null,,,,
null,is dancing with,,html-keyboard-response,72,523632,0.0-13.0-2.10,51409,List1A,white,woman,,,,null,,,,
13087,,,survey-text,73,536721,0.0-13.0-3.10,51409,List1A,white,woman,,,,,"{""Q0"":""beth is dancing with jane""}","<img src=""stim_listA/dance7.gif""style=""height:400px;""></stim_listA>",is dancing with,
null,"<div style=""font-size:60px;"">+</div>",,html-keyboard-response,74,537224,0.0-13.0-0.11,51409,List1A,white,woman,,,,null,,,,
null,"<img src=""stim_listA/kiss1.gif""style=""height:400px;""></stim_listA>",,html-keyboard-response,75,539227,0.0-13.0-1.11,51409,List1A,white,woman,,,,null,,,,
null,is kissing,,html-keyboard-response,76,541229,0.0-13.0-2.11,51409,List1A,white,woman,,,,null,,,,
11303,,,survey-text,77,552535,0.0-13.0-3.11,51409,List1A,white,woman,,,,,"{""Q0"":""beth is kissing fred""}","<img src=""stim_listA/kiss1.gif""style=""height:400px;""></stim_listA>",is kissing,
null,"<div style=""font-size:60px;"">+</div>",,html-keyboard-response,78,553038,0.0-13.0-0.12,51409,List1A,white,woman,,,,null,,,,
null,"<img src=""stim_listA/argue5.gif""style=""height:400px;""></stim_listA>",,html-keyboard-response,79,555041,0.0-13.0-1.12,51409,List1A,white,woman,,,,null,,,,
null,is arguing with,,html-keyboard-response,80,557044,0.0-13.0-2.12,51409,List1A,white,woman,,,,null,,,,
7188,,,survey-text,81,564234,0.0-13.0-3.12,51409,List1A,white,woman,,,,,"{""Q0"":""mike is arguing with luke""}","<img src=""stim_listA/argue5.gif""style=""height:400px;""></stim_listA>",is arguing with,
null,"<div style=""font-size:60px;"">+</div>",,html-keyboard-response,82,564735,0.0-13.0-0.13,51409,List1A,white,woman,,,,null,,,,
null,"<img src=""stim_listA/play4.gif""style=""height:400px;""></stim_listA>",,html-keyboard-response,83,566738,0.0-13.0-1.13,51409,List1A,white,woman,,,,null,,,,
null,are playing with each other,,html-keyboard-response,84,568741,0.0-13.0-2.13,51409,List1A,white,woman,,,,null,,,,
18255,,,survey-text,85,586998,0.0-13.0-3.13,51409,List1A,white,woman,,,,,"{""Q0"":""mike is playing with ruth""}","<img src=""stim_listA/play4.gif""style=""height:400px;""></stim_listA>",are playing with each other,
null,"<div style=""font-size:60px;"">+</div>",,html-keyboard-response,86,587500,0.0-13.0-0.14,51409,List1A,white,woman,,,,null,,,,
null,"<img src=""stim_listA/dance6.gif""style=""height:400px;""></stim_listA>",,html-keyboard-response,87,589503,0.0-13.0-1.14,51409,List1A,white,woman,,,,null,,,,
null,are dancing with each other,,html-keyboard-response,88,591505,0.0-13.0-2.14,51409,List1A,white,woman,,,,null,,,,
9872,,,survey-text,89,601379,0.0-13.0-3.14,51409,List1A,white,woman,,,,,"{""Q0"":""luke and mike are dancing with each other""}","<img src=""stim_listA/dance6.gif""style=""height:400px;""></stim_listA>",are dancing with each other,
null,"<div style=""font-size:60px;"">+</div>",,html-keyboard-response,90,601882,0.0-13.0-0.15,51409,List1A,white,woman,,,,null,,,,
null,"<img src=""stim_listA/flirt3.gif""style=""height:400px;""></stim_listA>",,html-keyboard-response,91,603885,0.0-13.0-1.15,51409,List1A,white,woman,,,,null,,,,
null,is flirting with,,html-keyboard-response,92,605887,0.0-13.0-2.15,51409,List1A,white,woman,,,,null,,,,
10459,,,survey-text,93,616348,0.0-13.0-3.15,51409,List1A,white,woman,,,,,"{""Q0"":""mike is flirting with jane""}","<img src=""stim_listA/flirt3.gif""style=""height:400px;""></stim_listA>",is flirting with,
null,"<div style=""font-size:60px;"">+</div>",,html-keyboard-response,94,616850,0.0-13.0-0.16,51409,List1A,white,woman,,,,null,,,,
null,"<img src=""stim_listA/shout2.gif""style=""height:400px;""></stim_listA>",,html-keyboard-response,95,618858,0.0-13.0-1.16,51409,List1A,white,woman,,,,null,,,,
null,are shouting at each other,,html-keyboard-response,96,620861,0.0-13.0-2.16,51409,List1A,white,woman,,,,null,,,,
16446,,,survey-text,97,637311,0.0-13.0-3.16,51409,List1A,white,woman,,,,,"{""Q0"":""mike and jane are shouting at each other""}","<img src=""stim_listA/shout2.gif""style=""height:400px;""></stim_listA>",are shouting at each other,
null,"<div style=""font-size:60px;"">+</div>",,html-keyboard-response,98,637814,0.0-13.0-0.17,51409,List1A,white,woman,,,,null,,,,
null,"<img src=""stim_listA/flirt2.gif""style=""height:400px;""></stim_listA>",,html-keyboard-response,99,639817,0.0-13.0-1.17,51409,List1A,white,woman,,,,null,,,,
null,are flirting with each other,,html-keyboard-response,100,641821,0.0-13.0-2.17,51409,List1A,white,woman,,,,null,,,,
13370,,,survey-text,101,655195,0.0-13.0-3.17,51409,List1A,white,woman,,,,,"{""Q0"":""mike and beth are flirting with each other""}","<img src=""stim_listA/flirt2.gif""style=""height:400px;""></stim_listA>",are flirting with each other,
null,"<div style=""font-size:60px;"">+</div>",,html-keyboard-response,102,655697,0.0-13.0-0.18,51409,List1A,white,woman,,,,null,,,,
null,"<img src=""stim_listA/shout8.gif""style=""height:400px;""></stim_listA>",,html-keyboard-response,103,657700,0.0-13.0-1.18,51409,List1A,white,woman,,,,null,,,,
null,are shouting at each other,,html-keyboard-response,104,660231,0.0-13.0-2.18,51409,List1A,white,woman,,,,null,,,,
1978,,,survey-text,105,662210,0.0-13.0-3.18,51409,List1A,white,woman,,,,,"{""Q0"":""""}","<img src=""stim_listA/shout8.gif""style=""height:400px;""></stim_listA>",are shouting at each other,
null,"<div style=""font-size:60px;"">+</div>",,html-keyboard-response,106,662712,0.0-13.0-0.19,51409,List1A,white,woman,,,,null,,,,
null,"<img src=""stim_listA/touch1.gif""style=""height:400px;""></stim_listA>",,html-keyboard-response,107,664714,0.0-13.0-1.19,51409,List1A,white,woman,,,,null,,,,
null,is touching,,html-keyboard-response,108,666716,0.0-13.0-2.19,51409,List1A,white,woman,,,,null,,,,
7401,,,survey-text,109,674120,0.0-13.0-3.19,51409,List1A,white,woman,,,,,"{""Q0"":""kate is touching mike""}","<img src=""stim_listA/touch1.gif""style=""height:400px;""></stim_listA>",is touching,
4355,"<img src='img/portrait_matrix_list1.jpg' style='width:900px;height:500px;''></img><p>If you have memorised all the portraits and names and are ready to start, press Continue.</p><p><strong>Please note: Your memory of these faces will be tested 4 times during this experiment.</strong></p>",0,html-button-response,110,678478,0.0-14.0-0.0,51409,List1A,white,woman,,,,,,,,
2471,"<img src=""portrait/WW2.jpg""style=""height:400px;""></img>",3,html-button-response,111,681952,0.0-14.0-1.0,51409,List1A,white,woman,,TRUE,3,,,,,
null,CORRECT,,html-keyboard-response,112,683457,0.0-14.0-2.0-0.0,51409,List1A,white,woman,,,,null,,,,
11738,"<img src=""portrait/BW1.jpg""style=""height:400px;""></img>",0,html-button-response,113,695200,0.0-14.0-4.0,51409,List1A,white,woman,,TRUE,0,,,,,
null,CORRECT,,html-keyboard-response,114,696705,0.0-14.0-5.0-0.0,51409,List1A,white,woman,,,,null,,,,
4206,"<img src=""portrait/BM2.jpg""style=""height:400px;""></img>",6,html-button-response,115,700917,0.0-14.0-7.0,51409,List1A,white,woman,,TRUE,5,,,,,
6900,"<img src=""portrait/BM2.jpg""style=""height:400px;""></img>",5,html-button-response,116,708822,0.0-14.0-9.0-0.0,51409,List1A,white,woman,,FALSE,5,,,,,
null,CORRECT,,html-keyboard-response,117,710326,0.0-14.0-9.0-1.0-0.0,51409,List1A,white,woman,,,,null,,,,
2515,"<img src=""portrait/BM1.jpg""style=""height:400px;""></img>",7,html-button-response,118,712844,0.0-14.0-10.0,51409,List1A,white,woman,,TRUE,4,,,,,
3904,"<img src=""portrait/BM1.jpg""style=""height:400px;""></img>",4,html-button-response,119,717754,0.0-14.0-12.0-0.0,51409,List1A,white,woman,,FALSE,4,,,,,
null,CORRECT,,html-keyboard-response,120,719257,0.0-14.0-12.0-1.0-0.0,51409,List1A,white,woman,,,,null,,,,
2915,"<img src=""portrait/WM2.jpg""style=""height:400px;""></img>",7,html-button-response,121,722180,0.0-14.0-13.0,51409,List1A,white,woman,,TRUE,7,,,,,
null,CORRECT,,html-keyboard-response,122,723684,0.0-14.0-14.0-0.0,51409,List1A,white,woman,,,,null,,,,
4587,"<img src=""portrait/WM1.jpg""style=""height:400px;""></img>",6,html-button-response,123,728275,0.0-14.0-16.0,51409,List1A,white,woman,,TRUE,6,,,,,
null,CORRECT,,html-keyboard-response,124,729778,0.0-14.0-17.0-0.0,51409,List1A,white,woman,,,,null,,,,
6493,"<img src=""portrait/BW2.jpg""style=""height:400px;""></img>",2,html-button-response,125,736274,0.0-14.0-19.0,51409,List1A,white,woman,,TRUE,2,,,,,
null,CORRECT,,html-keyboard-response,126,737777,0.0-14.0-20.0-0.0,51409,List1A,white,woman,,,,null,,,,
1783,"<img src=""portrait/WW1.jpg""style=""height:400px;""></img>",1,html-button-response,127,739563,0.0-14.0-22.0,51409,List1A,white,woman,,TRUE,1,,,,,
null,CORRECT,,html-keyboard-response,128,741066,0.0-14.0-23.0-0.0,51409,List1A,white,woman,,,,null,,,,
1468,<p>You got 6 out of 8 right first time. Press Continue.</p>,0,html-button-response,129,742537,0.0-14.0-25.0,51409,List1A,white,woman,,,,,,,,
2154,"As you did not score 100%, the memory game will repeat. Press Continue.",0,html-button-response,130,745693,0.0-14.0-26.0-0.0,51409,List1A,white,woman,,,,,,,,
1616,"<img src='img/portrait_matrix_list1.jpg' style='width:900px;height:500px;''></img><p>If you have memorised all the portraits and names and are ready to start, press Continue.</p><p><strong>Please note: Your memory of these faces will be tested 4 times during this experiment.</strong></p>",0,html-button-response,131,748314,0.0-14.1-0.1,51409,List1A,white,woman,,,,,,,,
2203,"<img src=""portrait/WW2.jpg""style=""height:400px;""></img>",3,html-button-response,132,751521,0.0-14.1-1.1,51409,List1A,white,woman,,TRUE,3,,,,,
null,CORRECT,,html-keyboard-response,133,753024,0.0-14.1-2.1-0.1,51409,List1A,white,woman,,,,null,,,,
6470,"<img src=""portrait/BW1.jpg""style=""height:400px;""></img>",0,html-button-response,134,759497,0.0-14.1-4.1,51409,List1A,white,woman,,TRUE,0,,,,,
null,CORRECT,,html-keyboard-response,135,761000,0.0-14.1-5.1-0.1,51409,List1A,white,woman,,,,null,,,,
1803,"<img src=""portrait/BM2.jpg""style=""height:400px;""></img>",5,html-button-response,136,762807,0.0-14.1-7.1,51409,List1A,white,woman,,TRUE,5,,,,,
null,CORRECT,,html-keyboard-response,137,764310,0.0-14.1-8.1-0.1,51409,List1A,white,woman,,,,null,,,,
2407,"<img src=""portrait/BM1.jpg""style=""height:400px;""></img>",4,html-button-response,138,766720,0.0-14.1-10.1,51409,List1A,white,woman,,TRUE,4,,,,,
null,CORRECT,,html-keyboard-response,139,768223,0.0-14.1-11.1-0.1,51409,List1A,white,woman,,,,null,,,,
1429,"<img src=""portrait/WM2.jpg""style=""height:400px;""></img>",7,html-button-response,140,769657,0.0-14.1-13.1,51409,List1A,white,woman,,TRUE,7,,,,,
null,CORRECT,,html-keyboard-response,141,771159,0.0-14.1-14.1-0.1,51409,List1A,white,woman,,,,null,,,,
3193,"<img src=""portrait/WM1.jpg""style=""height:400px;""></img>",6,html-button-response,142,774357,0.0-14.1-16.1,51409,List1A,white,woman,,TRUE,6,,,,,
null,CORRECT,,html-keyboard-response,143,775861,0.0-14.1-17.1-0.1,51409,List1A,white,woman,,,,null,,,,
4759,"<img src=""portrait/BW2.jpg""style=""height:400px;""></img>",2,html-button-response,144,780623,0.0-14.1-19.1,51409,List1A,white,woman,,TRUE,2,,,,,
null,CORRECT,,html-keyboard-response,145,782127,0.0-14.1-20.1-0.1,51409,List1A,white,woman,,,,null,,,,
1676,"<img src=""portrait/WW1.jpg""style=""height:400px;""></img>",1,html-button-response,146,783809,0.0-14.1-22.1,51409,List1A,white,woman,,TRUE,1,,,,,
null,CORRECT,,html-keyboard-response,147,785311,0.0-14.1-23.1-0.1,51409,List1A,white,woman,,,,null,,,,
1050,<p>You got 8 out of 8 right first time. Press Continue.</p>,0,html-button-response,148,786365,0.0-14.1-25.1,51409,List1A,white,woman,,,,,,,,
null,"<div style=""font-size:60px;"">+</div>",,html-keyboard-response,149,787868,0.0-15.0-0.0,51409,List1A,white,woman,,,,null,,,,
null,"<img src=""stim_listA/shout5.gif""style=""height:400px;""></stim_listA>",,html-keyboard-response,150,789871,0.0-15.0-1.0,51409,List1A,white,woman,,,,null,,,,
null,is shouting at,,html-keyboard-response,151,791873,0.0-15.0-2.0,51409,List1A,white,woman,,,,null,,,,
12847,,,survey-text,152,804724,0.0-15.0-3.0,51409,List1A,white,woman,,,,,"{""Q0"":""luke is shouting at fred""}","<img src=""stim_listA/shout5.gif""style=""height:400px;""></stim_listA>",is shouting at,
null,"<div style=""font-size:60px;"">+</div>",,html-keyboard-response,153,805226,0.0-15.0-0.1,51409,List1A,white,woman,,,,null,,,,
null,"<img src=""stim_listA/play3.gif""style=""height:400px;""></stim_listA>",,html-keyboard-response,154,807229,0.0-15.0-1.1,51409,List1A,white,woman,,,,null,,,,
null,is playing with,,html-keyboard-response,155,809232,0.0-15.0-2.1,51409,List1A,white,woman,,,,null,,,,
10741,,,survey-text,156,819976,0.0-15.0-3.1,51409,List1A,white,woman,,,,,"{""Q0"":""dave is playing with jane""}","<img src=""stim_listA/play3.gif""style=""height:400px;""></stim_listA>",is playing with,
null,"<div style=""font-size:60px;"">+</div>",,html-keyboard-response,157,820482,0.0-15.0-0.2,51409,List1A,white,woman,,,,null,,,,
null,"<img src=""stim_listA/talk1.gif""style=""height:400px;""></stim_listA>",,html-keyboard-response,158,822485,0.0-15.0-1.2,51409,List1A,white,woman,,,,null,,,,
null,is talking to,,html-keyboard-response,159,824488,0.0-15.0-2.2,51409,List1A,white,woman,,,,null,,,,
7258,,,survey-text,160,831748,0.0-15.0-3.2,51409,List1A,white,woman,,,,,"{""Q0"":""kate is talking to fred""}","<img src=""stim_listA/talk1.gif""style=""height:400px;""></stim_listA>",is talking to,
null,"<div style=""font-size:60px;"">+</div>",,html-keyboard-response,161,832251,0.0-15.0-0.3,51409,List1A,white,woman,,,,null,,,,
null,"<img src=""stim_listA/argue2.gif""style=""height:400px;""></stim_listA>",,html-keyboard-response,162,834255,0.0-15.0-1.3,51409,List1A,white,woman,,,,null,,,,
null,are arguing with each other,,html-keyboard-response,163,836257,0.0-15.0-2.3,51409,List1A,white,woman,,,,null,,,,
14238,,,survey-text,164,850497,0.0-15.0-3.3,51409,List1A,white,woman,,,,,"{""Q0"":""kate and fred are arguing with each other""}","<img src=""stim_listA/argue2.gif""style=""height:400px;""></stim_listA>",are arguing with each other,
null,"<div style=""font-size:60px;"">+</div>",,html-keyboard-response,165,850999,0.0-15.0-0.4,51409,List1A,white,woman,,,,null,,,,
null,"<img src=""stim_listA/flirt5.gif""style=""height:400px;""></stim_listA>",,html-keyboard-response,166,853003,0.0-15.0-1.4,51409,List1A,white,woman,,,,null,,,,
null,is flirting with,,html-keyboard-response,167,855006,0.0-15.0-2.4,51409,List1A,white,woman,,,,null,,,,
7195,,,survey-text,168,862203,0.0-15.0-3.4,51409,List1A,white,woman,,,,,"{""Q0"":""dave is flirting with fred""}","<img src=""stim_listA/flirt5.gif""style=""height:400px;""></stim_listA>",is flirting with,
null,"<div style=""font-size:60px;"">+</div>",,html-keyboard-response,169,862705,0.0-15.0-0.5,51409,List1A,white,woman,,,,null,,,,
null,"<img src=""stim_listA/fight7.gif""style=""height:400px;""></stim_listA>",,html-keyboard-response,170,864708,0.0-15.0-1.5,51409,List1A,white,woman,,,,null,,,,
null,is fighting,,html-keyboard-response,171,866710,0.0-15.0-2.5,51409,List1A,white,woman,,,,null,,,,
6092,,,survey-text,172,872805,0.0-15.0-3.5,51409,List1A,white,woman,,,,,"{""Q0"":""kate is fighting jane""}","<img src=""stim_listA/fight7.gif""style=""height:400px;""></stim_listA>",is fighting,
null,"<div style=""font-size:60px;"">+</div>",,html-keyboard-response,173,873307,0.0-15.0-0.6,51409,List1A,white,woman,,,,null,,,,
null,"<img src=""stim_listA/fight5.gif""style=""height:400px;""></stim_listA>",,html-keyboard-response,174,875310,0.0-15.0-1.6,51409,List1A,white,woman,,,,null,,,,
null,is fighting,,html-keyboard-response,175,877313,0.0-15.0-2.6,51409,List1A,white,woman,,,,null,,,,
7230,,,survey-text,176,884545,0.0-15.0-3.6,51409,List1A,white,woman,,,,,"{""Q0"":""mike is fighting dave""}","<img src=""stim_listA/fight5.gif""style=""height:400px;""></stim_listA>",is fighting,
null,"<div style=""font-size:60px;"">+</div>",,html-keyboard-response,177,885047,0.0-15.0-0.7,51409,List1A,white,woman,,,,null,,,,
null,"<img src=""stim_listA/shout1.gif""style=""height:400px;""></stim_listA>",,html-keyboard-response,178,887051,0.0-15.0-1.7,51409,List1A,white,woman,,,,null,,,,
null,is shouting at,,html-keyboard-response,179,889054,0.0-15.0-2.7,51409,List1A,white,woman,,,,null,,,,
8388,,,survey-text,180,897445,0.0-15.0-3.7,51409,List1A,white,woman,,,,,"{""Q0"":""beth is shouting at fred""}","<img src=""stim_listA/shout1.gif""style=""height:400px;""></stim_listA>",is shouting at,
null,"<div style=""font-size:60px;"">+</div>",,html-keyboard-response,181,897948,0.0-15.0-0.8,51409,List1A,white,woman,,,,null,,,,
null,"<img src=""stim_listA/argue4.gif""style=""height:400px;""></stim_listA>",,html-keyboard-response,182,899950,0.0-15.0-1.8,51409,List1A,white,woman,,,,null,,,,
null,are arguing with each other,,html-keyboard-response,183,901953,0.0-15.0-2.8,51409,List1A,white,woman,,,,null,,,,
13788,,,survey-text,184,915743,0.0-15.0-3.8,51409,List1A,white,woman,,,,,"{""Q0"":""kate and luke are arguing with each other""}","<img src=""stim_listA/argue4.gif""style=""height:400px;""></stim_listA>",are arguing with each other,
null,"<div style=""font-size:60px;"">+</div>",,html-keyboard-response,185,916245,0.0-15.0-0.9,51409,List1A,white,woman,,,,null,,,,
null,"<img src=""stim_listA/argue1.gif""style=""height:400px;""></stim_listA>",,html-keyboard-response,186,918249,0.0-15.0-1.9,51409,List1A,white,woman,,,,null,,,,
null,is arguing with,,html-keyboard-response,187,920252,0.0-15.0-2.9,51409,List1A,white,woman,,,,null,,,,
7870,,,survey-text,188,928125,0.0-15.0-3.9,51409,List1A,white,woman,,,,,"{""Q0"":""mike is arguing with beth""}","<img src=""stim_listA/argue1.gif""style=""height:400px;""></stim_listA>",is arguing with,
null,"<div style=""font-size:60px;"">+</div>",,html-keyboard-response,189,928628,0.0-15.0-0.10,51409,List1A,white,woman,,,,null,,,,
null,"<img src=""stim_listA/marry7.gif""style=""height:400px;""></stim_listA>",,html-keyboard-response,190,930631,0.0-15.0-1.10,51409,List1A,white,woman,,,,null,,,,
null,is marrying,,html-keyboard-response,191,933230,0.0-15.0-2.10,51409,List1A,white,woman,,,,null,,,,
8307,,,survey-text,192,941540,0.0-15.0-3.10,51409,List1A,white,woman,,,,,"{""Q0"":""kate is marrying ruth""}","<img src=""stim_listA/marry7.gif""style=""height:400px;""></stim_listA>",is marrying,
null,"<div style=""font-size:60px;"">+</div>",,html-keyboard-response,193,942042,0.0-15.0-0.11,51409,List1A,white,woman,,,,null,,,,
null,"<img src=""stim_listA/shout3.gif""style=""height:400px;""></stim_listA>",,html-keyboard-response,194,944046,0.0-15.0-1.11,51409,List1A,white,woman,,,,null,,,,
null,is shouting at,,html-keyboard-response,195,946049,0.0-15.0-2.11,51409,List1A,white,woman,,,,null,,,,
9304,,,survey-text,196,955355,0.0-15.0-3.11,51409,List1A,white,woman,,,,,"{""Q0"":""ruth is shouting at luke""}","<img src=""stim_listA/shout3.gif""style=""height:400px;""></stim_listA>",is shouting at,
null,"<div style=""font-size:60px;"">+</div>",,html-keyboard-response,197,955858,0.0-15.0-0.12,51409,List1A,white,woman,,,,null,,,,
null,"<img src=""stim_listA/play7.gif""style=""height:400px;""></stim_listA>",,html-keyboard-response,198,957862,0.0-15.0-1.12,51409,List1A,white,woman,,,,null,,,,
null,is playing with,,html-keyboard-response,199,960231,0.0-15.0-2.12,51409,List1A,white,woman,,,,null,,,,
13504,,,survey-text,200,973738,0.0-15.0-3.12,51409,List1A,white,woman,,,,,"{""Q0"":""kate is playing with jane""}","<img src=""stim_listA/play7.gif""style=""height:400px;""></stim_listA>",is playing with,
null,"<div style=""font-size:60px;"">+</div>",,html-keyboard-response,201,974240,0.0-15.0-0.13,51409,List1A,white,woman,,,,null,,,,
null,"<img src=""stim_listA/fight1.gif""style=""height:400px;""></stim_listA>",,html-keyboard-response,202,976244,0.0-15.0-1.13,51409,List1A,white,woman,,,,null,,,,
null,is fighting,,html-keyboard-response,203,978246,0.0-15.0-2.13,51409,List1A,white,woman,,,,null,,,,
7143,,,survey-text,204,985391,0.0-15.0-3.13,51409,List1A,white,woman,,,,,"{""Q0"":""kate is fighting mike""}","<img src=""stim_listA/fight1.gif""style=""height:400px;""></stim_listA>",is fighting,
null,"<div style=""font-size:60px;"">+</div>",,html-keyboard-response,205,985894,0.0-15.0-0.14,51409,List1A,white,woman,,,,null,,,,
null,"<img src=""stim_listA/touch6.gif""style=""height:400px;""></stim_listA>",,html-keyboard-response,206,987898,0.0-15.0-1.14,51409,List1A,white,woman,,,,null,,,,
null,are touching each other,,html-keyboard-response,207,989904,0.0-15.0-2.14,51409,List1A,white,woman,,,,null,,,,
9783,,,survey-text,208,999691,0.0-15.0-3.14,51409,List1A,white,woman,,,,,"{""Q0"":""fred and luke are touching each other""}","<img src=""stim_listA/touch6.gif""style=""height:400px;""></stim_listA>",are touching each other,
null,"<div style=""font-size:60px;"">+</div>",,html-keyboard-response,209,1000194,0.0-15.0-0.15,51409,List1A,white,woman,,,,null,,,,
null,"<img src=""stim_listA/touch3.gif""style=""height:400px;""></stim_listA>",,html-keyboard-response,210,1002197,0.0-15.0-1.15,51409,List1A,white,woman,,,,null,,,,
null,is touching,,html-keyboard-response,211,1004199,0.0-15.0-2.15,51409,List1A,white,woman,,,,null,,,,
6835,,,survey-text,212,1011036,0.0-15.0-3.15,51409,List1A,white,woman,,,,,"{""Q0"":""dave is touching jane""}","<img src=""stim_listA/touch3.gif""style=""height:400px;""></stim_listA>",is touching,
null,"<div style=""font-size:60px;"">+</div>",,html-keyboard-response,213,1011539,0.0-15.0-0.16,51409,List1A,white,woman,,,,null,,,,
null,"<img src=""stim_listA/play1.gif""style=""height:400px;""></stim_listA>",,html-keyboard-response,214,1013542,0.0-15.0-1.16,51409,List1A,white,woman,,,,null,,,,
null,is playing with,,html-keyboard-response,215,1015544,0.0-15.0-2.16,51409,List1A,white,woman,,,,null,,,,
8390,,,survey-text,216,1023936,0.0-15.0-3.16,51409,List1A,white,woman,,,,,"{""Q0"":""mike is playing with jane""}","<img src=""stim_listA/play1.gif""style=""height:400px;""></stim_listA>",is playing with,
null,"<div style=""font-size:60px;"">+</div>",,html-keyboard-response,217,1024438,0.0-15.0-0.17,51409,List1A,white,woman,,,,null,,,,
null,"<img src=""stim_listA/touch8.gif""style=""height:400px;""></stim_listA>",,html-keyboard-response,218,1026441,0.0-15.0-1.17,51409,List1A,white,woman,,,,null,,,,
null,are touching each other,,html-keyboard-response,219,1029231,0.0-15.0-2.17,51409,List1A,white,woman,,,,null,,,,
10202,,,survey-text,220,1039435,0.0-15.0-3.17,51409,List1A,white,woman,,,,,"{""Q0"":""beth and ruth are touching each other""}","<img src=""stim_listA/touch8.gif""style=""height:400px;""></stim_listA>",are touching each other,
null,"<div style=""font-size:60px;"">+</div>",,html-keyboard-response,221,1039938,0.0-15.0-0.18,51409,List1A,white,woman,,,,null,,,,
null,"<img src=""stim_listA/fight6.gif""style=""height:400px;""></stim_listA>",,html-keyboard-response,222,1041942,0.0-15.0-1.18,51409,List1A,white,woman,,,,null,,,,
null,are fighting each other,,html-keyboard-response,223,1043947,0.0-15.0-2.18,51409,List1A,white,woman,,,,null,,,,
9845,,,survey-text,224,1053797,0.0-15.0-3.18,51409,List1A,white,woman,,,,,"{""Q0"":""fred and luke are fighting each other""}","<img src=""stim_listA/fight6.gif""style=""height:400px;""></stim_listA>",are fighting each other,
null,"<div style=""font-size:60px;"">+</div>",,html-keyboard-response,225,1054299,0.0-15.0-0.19,51409,List1A,white,woman,,,,null,,,,
null,"<img src=""stim_listA/shout7.gif""style=""height:400px;""></stim_listA>",,html-keyboard-response,226,1056302,0.0-15.0-1.19,51409,List1A,white,woman,,,,null,,,,
null,is shouting at,,html-keyboard-response,227,1058305,0.0-15.0-2.19,51409,List1A,white,woman,,,,null,,,,
10383,,,survey-text,228,1068690,0.0-15.0-3.19,51409,List1A,white,woman,,,,,"{""Q0"":""beth is shouting at ruth""}","<img src=""stim_listA/shout7.gif""style=""height:400px;""></stim_listA>",is shouting at,
3722,"<img src='img/portrait_matrix_list1.jpg' style='width:900px;height:500px;''></img><p>If you have memorised all the portraits and names and are ready to start, press Continue.</p><p><strong>Please note: Your memory of these faces will be tested 4 times during this experiment.</strong></p>",0,html-button-response,229,1072416,0.0-16.0-0.0,51409,List1A,white,woman,,,,,,,,
2926,"<img src=""portrait/WM1.jpg""style=""height:400px;""></img>",6,html-button-response,230,1076347,0.0-16.0-1.0,51409,List1A,white,woman,,TRUE,6,,,,,
null,CORRECT,,html-keyboard-response,231,1077850,0.0-16.0-2.0-0.0,51409,List1A,white,woman,,,,null,,,,
2791,"<img src=""portrait/BW2.jpg""style=""height:400px;""></img>",2,html-button-response,232,1080645,0.0-16.0-4.0,51409,List1A,white,woman,,TRUE,2,,,,,
null,CORRECT,,html-keyboard-response,233,1082149,0.0-16.0-5.0-0.0,51409,List1A,white,woman,,,,null,,,,
1551,"<img src=""portrait/WW2.jpg""style=""height:400px;""></img>",3,html-button-response,234,1083707,0.0-16.0-7.0,51409,List1A,white,woman,,TRUE,3,,,,,
null,CORRECT,,html-keyboard-response,235,1085210,0.0-16.0-8.0-0.0,51409,List1A,white,woman,,,,null,,,,
8517,"<img src=""portrait/BW1.jpg""style=""height:400px;""></img>",0,html-button-response,236,1093730,0.0-16.0-10.0,51409,List1A,white,woman,,TRUE,0,,,,,
null,CORRECT,,html-keyboard-response,237,1095234,0.0-16.0-11.0-0.0,51409,List1A,white,woman,,,,null,,,,
2140,"<img src=""portrait/WM2.jpg""style=""height:400px;""></img>",7,html-button-response,238,1097377,0.0-16.0-13.0,51409,List1A,white,woman,,TRUE,7,,,,,
null,CORRECT,,html-keyboard-response,239,1098879,0.0-16.0-14.0-0.0,51409,List1A,white,woman,,,,null,,,,
1876,"<img src=""portrait/BM1.jpg""style=""height:400px;""></img>",4,html-button-response,240,1100759,0.0-16.0-16.0,51409,List1A,white,woman,,TRUE,4,,,,,
null,CORRECT,,html-keyboard-response,241,1102262,0.0-16.0-17.0-0.0,51409,List1A,white,woman,,,,null,,,,
1559,"<img src=""portrait/BM2.jpg""style=""height:400px;""></img>",5,html-button-response,242,1103826,0.0-16.0-19.0,51409,List1A,white,woman,,TRUE,5,,,,,
null,CORRECT,,html-keyboard-response,243,1105329,0.0-16.0-20.0-0.0,51409,List1A,white,woman,,,,null,,,,
1525,"<img src=""portrait/WW1.jpg""style=""height:400px;""></img>",1,html-button-response,244,1106858,0.0-16.0-22.0,51409,List1A,white,woman,,TRUE,1,,,,,
null,CORRECT,,html-keyboard-response,245,1108362,0.0-16.0-23.0-0.0,51409,List1A,white,woman,,,,null,,,,
1149,<p>You got 8 out of 8 right first time. Press Continue.</p>,0,html-button-response,246,1109514,0.0-16.0-25.0,51409,List1A,white,woman,,,,,,,,
null,"<div style=""font-size:60px;"">+</div>",,html-keyboard-response,247,1111024,0.0-17.0-0.0,51409,List1A,white,woman,,,,null,,,,
null,"<img src=""stim_listA/flirt1.gif""style=""height:400px;""></stim_listA>",,html-keyboard-response,248,1113031,0.0-17.0-1.0,51409,List1A,white,woman,,,,null,,,,
null,is flirting with,,html-keyboard-response,249,1115033,0.0-17.0-2.0,51409,List1A,white,woman,,,,null,,,,
11631,,,survey-text,250,1126669,0.0-17.0-3.0,51409,List1A,white,woman,,,,,"{""Q0"":""fred is flirting with kate""}","<img src=""stim_listA/flirt1.gif""style=""height:400px;""></stim_listA>",is flirting with,
null,"<div style=""font-size:60px;"">+</div>",,html-keyboard-response,251,1127172,0.0-17.0-0.1,51409,List1A,white,woman,,,,null,,,,
null,"<img src=""stim_listA/marry5.gif""style=""height:400px;""></stim_listA>",,html-keyboard-response,252,1129175,0.0-17.0-1.1,51409,List1A,white,woman,,,,null,,,,
null,is marrying,,html-keyboard-response,253,1131179,0.0-17.0-2.1,51409,List1A,white,woman,,,,null,,,,
8687,,,survey-text,254,1139871,0.0-17.0-3.1,51409,List1A,white,woman,,,,,"{""Q0"":""mike is marrying luke""}","<img src=""stim_listA/marry5.gif""style=""height:400px;""></stim_listA>",is marrying,
null,"<div style=""font-size:60px;"">+</div>",,html-keyboard-response,255,1140374,0.0-17.0-0.2,51409,List1A,white,woman,,,,null,,,,
null,"<img src=""stim_listA/marry3.gif""style=""height:400px;""></stim_listA>",,html-keyboard-response,256,1142376,0.0-17.0-1.2,51409,List1A,white,woman,,,,null,,,,
null,is marrying,,html-keyboard-response,257,1145132,0.0-17.0-2.2,51409,List1A,white,woman,,,,null,,,,
11112,,,survey-text,258,1156247,0.0-17.0-3.2,51409,List1A,white,woman,,,,,"{""Q0"":""dave is marrying ruth""}","<img src=""stim_listA/marry3.gif""style=""height:400px;""></stim_listA>",is marrying,
null,"<div style=""font-size:60px;"">+</div>",,html-keyboard-response,259,1156750,0.0-17.0-0.3,51409,List1A,white,woman,,,,null,,,,
null,"<img src=""stim_listA/marry6.gif""style=""height:400px;""></stim_listA>",,html-keyboard-response,260,1158752,0.0-17.0-1.3,51409,List1A,white,woman,,,,null,,,,
null,are marrying each other,,html-keyboard-response,261,1160754,0.0-17.0-2.3,51409,List1A,white,woman,,,,null,,,,
9070,,,survey-text,262,1169827,0.0-17.0-3.3,51409,List1A,white,woman,,,,,"{""Q0"":""dave and fred are marrying each other""}","<img src=""stim_listA/marry6.gif""style=""height:400px;""></stim_listA>",are marrying each other,
null,"<div style=""font-size:60px;"">+</div>",,html-keyboard-response,263,1170329,0.0-17.0-0.4,51409,List1A,white,woman,,,,null,,,,
null,"<img src=""stim_listA/talk3.gif""style=""height:400px;""></stim_listA>",,html-keyboard-response,264,1172332,0.0-17.0-1.4,51409,List1A,white,woman,,,,null,,,,
null,is talking to,,html-keyboard-response,265,1174334,0.0-17.0-2.4,51409,List1A,white,woman,,,,null,,,,
6508,,,survey-text,266,1180844,0.0-17.0-3.4,51409,List1A,white,woman,,,,,"{""Q0"":""mike is talking to jane""}","<img src=""stim_listA/talk3.gif""style=""height:400px;""></stim_listA>",is talking to,
null,"<div style=""font-size:60px;"">+</div>",,html-keyboard-response,267,1181346,0.0-17.0-0.5,51409,List1A,white,woman,,,,null,,,,
null,"<img src=""stim_listA/dance8.gif""style=""height:400px;""></stim_listA>",,html-keyboard-response,268,1183349,0.0-17.0-1.5,51409,List1A,white,woman,,,,null,,,,
null,are dancing with each other,,html-keyboard-response,269,1185352,0.0-17.0-2.5,51409,List1A,white,woman,,,,null,,,,
13099,,,survey-text,270,1198455,0.0-17.0-3.5,51409,List1A,white,woman,,,,,"{""Q0"":""kate and ruth are dancing with each other""}","<img src=""stim_listA/dance8.gif""style=""height:400px;""></stim_listA>",are dancing with each other,
null,"<div style=""font-size:60px;"">+</div>",,html-keyboard-response,271,1198959,0.0-17.0-0.6,51409,List1A,white,woman,,,,null,,,,
null,"<img src=""stim_listA/dance2.gif""style=""height:400px;""></stim_listA>",,html-keyboard-response,272,1200962,0.0-17.0-1.6,51409,List1A,white,woman,,,,null,,,,
null,are dancing with each other,,html-keyboard-response,273,1202964,0.0-17.0-2.6,51409,List1A,white,woman,,,,null,,,,
9527,,,survey-text,274,1212494,0.0-17.0-3.6,51409,List1A,white,woman,,,,,"{""Q0"":""beth and mike are dancing with each other""}","<img src=""stim_listA/dance2.gif""style=""height:400px;""></stim_listA>",are dancing with each other,
null,"<div style=""font-size:60px;"">+</div>",,html-keyboard-response,275,1212997,0.0-17.0-0.7,51409,List1A,white,woman,,,,null,,,,
null,"<img src=""stim_listA/talk8.gif""style=""height:400px;""></stim_listA>",,html-keyboard-response,276,1214999,0.0-17.0-1.7,51409,List1A,white,woman,,,,null,,,,
null,are talking to each other,,html-keyboard-response,277,1217001,0.0-17.0-2.7,51409,List1A,white,woman,,,,null,,,,
8886,,,survey-text,278,1225890,0.0-17.0-3.7,51409,List1A,white,woman,,,,,"{""Q0"":""ruth and kate are talking to each other""}","<img src=""stim_listA/talk8.gif""style=""height:400px;""></stim_listA>",are talking to each other,
null,"<div style=""font-size:60px;"">+</div>",,html-keyboard-response,279,1226392,0.0-17.0-0.8,51409,List1A,white,woman,,,,null,,,,
null,"<img src=""stim_listA/kiss6.gif""style=""height:400px;""></stim_listA>",,html-keyboard-response,280,1228395,0.0-17.0-1.8,51409,List1A,white,woman,,,,null,,,,
null,are kissing each other,,html-keyboard-response,281,1230398,0.0-17.0-2.8,51409,List1A,white,woman,,,,null,,,,
8739,,,survey-text,282,1239139,0.0-17.0-3.8,51409,List1A,white,woman,,,,,"{""Q0"":""dave and mike are kissing each other""}","<img src=""stim_listA/kiss6.gif""style=""height:400px;""></stim_listA>",are kissing each other,
null,"<div style=""font-size:60px;"">+</div>",,html-keyboard-response,283,1239641,0.0-17.0-0.9,51409,List1A,white,woman,,,,null,,,,
null,"<img src=""stim_listA/marry2.gif""style=""height:400px;""></stim_listA>",,html-keyboard-response,284,1241649,0.0-17.0-1.9,51409,List1A,white,woman,,,,null,,,,
null,are marrying each other,,html-keyboard-response,285,1243656,0.0-17.0-2.9,51409,List1A,white,woman,,,,null,,,,
8918,,,survey-text,286,1252578,0.0-17.0-3.9,51409,List1A,white,woman,,,,,"{""Q0"":""kate and fred are marrying each other""}","<img src=""stim_listA/marry2.gif""style=""height:400px;""></stim_listA>",are marrying each other,
null,"<div style=""font-size:60px;"">+</div>",,html-keyboard-response,287,1253091,0.0-17.0-0.10,51409,List1A,white,woman,,,,null,,,,
null,"<img src=""stim_listA/kiss3.gif""style=""height:400px;""></stim_listA>",,html-keyboard-response,288,1255094,0.0-17.0-1.10,51409,List1A,white,woman,,,,null,,,,
null,is kissing,,html-keyboard-response,289,1257097,0.0-17.0-2.10,51409,List1A,white,woman,,,,null,,,,
9598,,,survey-text,290,1266699,0.0-17.0-3.10,51409,List1A,white,woman,,,,,"{""Q0"":""luke is kissing ruth""}","<img src=""stim_listA/kiss3.gif""style=""height:400px;""></stim_listA>",is kissing,
null,"<div style=""font-size:60px;"">+</div>",,html-keyboard-response,291,1267202,0.0-17.0-0.11,51409,List1A,white,woman,,,,null,,,,
null,"<img src=""stim_listA/flirt8.gif""style=""height:400px;""></stim_listA>",,html-keyboard-response,292,1269206,0.0-17.0-1.11,51409,List1A,white,woman,,,,null,,,,
null,are flirting with each other,,html-keyboard-response,293,1271209,0.0-17.0-2.11,51409,List1A,white,woman,,,,null,,,,
10593,,,survey-text,294,1281806,0.0-17.0-3.11,51409,List1A,white,woman,,,,,"{""Q0"":""kate and ruth are flirting with each other""}","<img src=""stim_listA/flirt8.gif""style=""height:400px;""></stim_listA>",are flirting with each other,
null,"<div style=""font-size:60px;"">+</div>",,html-keyboard-response,295,1282310,0.0-17.0-0.12,51409,List1A,white,woman,,,,null,,,,
null,"<img src=""stim_listA/dance3.gif""style=""height:400px;""></stim_listA>",,html-keyboard-response,296,1284314,0.0-17.0-1.12,51409,List1A,white,woman,,,,null,,,,
null,is dancing with,,html-keyboard-response,297,1286315,0.0-17.0-2.12,51409,List1A,white,woman,,,,null,,,,
8918,,,survey-text,298,1295235,0.0-17.0-3.12,51409,List1A,white,woman,,,,,"{""Q0"":""luke is dancing with jane""}","<img src=""stim_listA/dance3.gif""style=""height:400px;""></stim_listA>",is dancing with,
null,"<div style=""font-size:60px;"">+</div>",,html-keyboard-response,299,1295737,0.0-17.0-0.13,51409,List1A,white,woman,,,,null,,,,
null,"<img src=""stim_listA/talk7.gif""style=""height:400px;""></stim_listA>",,html-keyboard-response,300,1297741,0.0-17.0-1.13,51409,List1A,white,woman,,,,null,,,,
null,is talking to,,html-keyboard-response,301,1299744,0.0-17.0-2.13,51409,List1A,white,woman,,,,null,,,,
6447,,,survey-text,302,1306193,0.0-17.0-3.13,51409,List1A,white,woman,,,,,"{""Q0"":""jane is talking to beth""}","<img src=""stim_listA/talk7.gif""style=""height:400px;""></stim_listA>",is talking to,
null,"<div style=""font-size:60px;"">+</div>",,html-keyboard-response,303,1306695,0.0-17.0-0.14,51409,List1A,white,woman,,,,null,,,,
null,"<img src=""stim_listA/argue3.gif""style=""height:400px;""></stim_listA>",,html-keyboard-response,304,1308699,0.0-17.0-1.14,51409,List1A,white,woman,,,,null,,,,
null,is arguing with,,html-keyboard-response,305,1310701,0.0-17.0-2.14,51409,List1A,white,woman,,,,null,,,,
9491,,,survey-text,306,1320194,0.0-17.0-3.14,51409,List1A,white,woman,,,,,"{""Q0"":""dave is arguing with ruth""}","<img src=""stim_listA/argue3.gif""style=""height:400px;""></stim_listA>",is arguing with,
null,"<div style=""font-size:60px;"">+</div>",,html-keyboard-response,307,1320697,0.0-17.0-0.15,51409,List1A,white,woman,,,,null,,,,
null,"<img src=""stim_listA/kiss4.gif""style=""height:400px;""></stim_listA>",,html-keyboard-response,308,1322703,0.0-17.0-1.15,51409,List1A,white,woman,,,,null,,,,
null,are kissing each other,,html-keyboard-response,309,1324707,0.0-17.0-2.15,51409,List1A,white,woman,,,,null,,,,
11920,,,survey-text,310,1336630,0.0-17.0-3.15,51409,List1A,white,woman,,,,,"{""Q0"":""dave and jane are kissing each other""}","<img src=""stim_listA/kiss4.gif""style=""height:400px;""></stim_listA>",are kissing each other,
null,"<div style=""font-size:60px;"">+</div>",,html-keyboard-response,311,1337133,0.0-17.0-0.16,51409,List1A,white,woman,,,,null,,,,
null,"<img src=""stim_listA/play5.gif""style=""height:400px;""></stim_listA>",,html-keyboard-response,312,1339137,0.0-17.0-1.16,51409,List1A,white,woman,,,,null,,,,
null,is playing with,,html-keyboard-response,313,1341139,0.0-17.0-2.16,51409,List1A,white,woman,,,,null,,,,
10871,,,survey-text,314,1352014,0.0-17.0-3.16,51409,List1A,white,woman,,,,,"{""Q0"":""luke is playing with mike""}","<img src=""stim_listA/play5.gif""style=""height:400px;""></stim_listA>",is playing with,
null,"<div style=""font-size:60px;"">+</div>",,html-keyboard-response,315,1352516,0.0-17.0-0.17,51409,List1A,white,woman,,,,null,,,,
null,"<img src=""stim_listA/play2.gif""style=""height:400px;""></stim_listA>",,html-keyboard-response,316,1354519,0.0-17.0-1.17,51409,List1A,white,woman,,,,null,,,,
null,are playing with each other,,html-keyboard-response,317,1356521,0.0-17.0-2.17,51409,List1A,white,woman,,,,null,,,,
10537,,,survey-text,318,1367061,0.0-17.0-3.17,51409,List1A,white,woman,,,,,"{""Q0"":""fred and beth are playing with each other""}","<img src=""stim_listA/play2.gif""style=""height:400px;""></stim_listA>",are playing with each other,
null,"<div style=""font-size:60px;"">+</div>",,html-keyboard-response,319,1367564,0.0-17.0-0.18,51409,List1A,white,woman,,,,null,,,,
null,"<img src=""stim_listA/argue8.gif""style=""height:400px;""></stim_listA>",,html-keyboard-response,320,1369566,0.0-17.0-1.18,51409,List1A,white,woman,,,,null,,,,
null,are arguing with each other,,html-keyboard-response,321,1371569,0.0-17.0-2.18,51409,List1A,white,woman,,,,null,,,,
11381,,,survey-text,322,1382953,0.0-17.0-3.18,51409,List1A,white,woman,,,,,"{""Q0"":""jane and beth are arguing with each other""}","<img src=""stim_listA/argue8.gif""style=""height:400px;""></stim_listA>",are arguing with each other,
null,"<div style=""font-size:60px;"">+</div>",,html-keyboard-response,323,1383455,0.0-17.0-0.19,51409,List1A,white,woman,,,,null,,,,
null,"<img src=""stim_listA/flirt4.gif""style=""height:400px;""></stim_listA>",,html-keyboard-response,324,1385458,0.0-17.0-1.19,51409,List1A,white,woman,,,,null,,,,
null,are flirting with each other,,html-keyboard-response,325,1387464,0.0-17.0-2.19,51409,List1A,white,woman,,,,null,,,,
11141,,,survey-text,326,1398608,0.0-17.0-3.19,51409,List1A,white,woman,,,,,"{""Q0"":""ruth and dave are flirting with each other""}","<img src=""stim_listA/flirt4.gif""style=""height:400px;""></stim_listA>",are flirting with each other,
2536,"<img src='img/portrait_matrix_list1.jpg' style='width:900px;height:500px;''></img><p>If you have memorised all the portraits and names and are ready to start, press Continue.</p><p><strong>Please note: Your memory of these faces will be tested 4 times during this experiment.</strong></p>",0,html-button-response,327,1401147,0.0-18.0-0.0,51409,List1A,white,woman,,,,,,,,
2074,"<img src=""portrait/BW2.jpg""style=""height:400px;""></img>",2,html-button-response,328,1404226,0.0-18.0-1.0,51409,List1A,white,woman,,TRUE,2,,,,,
null,CORRECT,,html-keyboard-response,329,1405731,0.0-18.0-2.0-0.0,51409,List1A,white,woman,,,,null,,,,
1549,"<img src=""portrait/BM1.jpg""style=""height:400px;""></img>",4,html-button-response,330,1407284,0.0-18.0-4.0,51409,List1A,white,woman,,TRUE,4,,,,,
null,CORRECT,,html-keyboard-response,331,1408788,0.0-18.0-5.0-0.0,51409,List1A,white,woman,,,,null,,,,
1682,"<img src=""portrait/WM2.jpg""style=""height:400px;""></img>",7,html-button-response,332,1410478,0.0-18.0-7.0,51409,List1A,white,woman,,TRUE,7,,,,,
null,CORRECT,,html-keyboard-response,333,1411980,0.0-18.0-8.0-0.0,51409,List1A,white,woman,,,,null,,,,
1582,"<img src=""portrait/WW2.jpg""style=""height:400px;""></img>",3,html-button-response,334,1413566,0.0-18.0-10.0,51409,List1A,white,woman,,TRUE,3,,,,,
null,CORRECT,,html-keyboard-response,335,1415069,0.0-18.0-11.0-0.0,51409,List1A,white,woman,,,,null,,,,
1968,"<img src=""portrait/WW1.jpg""style=""height:400px;""></img>",1,html-button-response,336,1417044,0.0-18.0-13.0,51409,List1A,white,woman,,TRUE,1,,,,,
null,CORRECT,,html-keyboard-response,337,1418547,0.0-18.0-14.0-0.0,51409,List1A,white,woman,,,,null,,,,
1959,"<img src=""portrait/WM1.jpg""style=""height:400px;""></img>",6,html-button-response,338,1420510,0.0-18.0-16.0,51409,List1A,white,woman,,TRUE,6,,,,,
null,CORRECT,,html-keyboard-response,339,1422014,0.0-18.0-17.0-0.0,51409,List1A,white,woman,,,,null,,,,
1654,"<img src=""portrait/BM2.jpg""style=""height:400px;""></img>",5,html-button-response,340,1423675,0.0-18.0-19.0,51409,List1A,white,woman,,TRUE,5,,,,,
null,CORRECT,,html-keyboard-response,341,1425182,0.0-18.0-20.0-0.0,51409,List1A,white,woman,,,,null,,,,
2172,"<img src=""portrait/BW1.jpg""style=""height:400px;""></img>",0,html-button-response,342,1427361,0.0-18.0-22.0,51409,List1A,white,woman,,TRUE,0,,,,,
null,CORRECT,,html-keyboard-response,343,1428864,0.0-18.0-23.0-0.0,51409,List1A,white,woman,,,,null,,,,
1139,<p>You got 8 out of 8 right first time. Press Continue.</p>,0,html-button-response,344,1430006,0.0-18.0-25.0,51409,List1A,white,woman,,,,,,,,
null,"<div style=""font-size:60px;"">+</div>",,html-keyboard-response,345,1431510,0.0-19.0-0.0,51409,List1A,white,woman,,,,null,,,,
null,"<img src=""stim_listA/shout6.gif""style=""height:400px;""></stim_listA>",,html-keyboard-response,346,1433518,0.0-19.0-1.0,51409,List1A,white,woman,,,,null,,,,
null,are shouting at each other,,html-keyboard-response,347,1435520,0.0-19.0-2.0,51409,List1A,white,woman,,,,null,,,,
10829,,,survey-text,348,1446352,0.0-19.0-3.0,51409,List1A,white,woman,,,,,"{""Q0"":""mike and dave are shouting at each other""}","<img src=""stim_listA/shout6.gif""style=""height:400px;""></stim_listA>",are shouting at each other,
null,"<div style=""font-size:60px;"">+</div>",,html-keyboard-response,349,1446854,0.0-19.0-0.1,51409,List1A,white,woman,,,,null,,,,
null,"<img src=""stim_listA/play6.gif""style=""height:400px;""></stim_listA>",,html-keyboard-response,350,1448859,0.0-19.0-1.1,51409,List1A,white,woman,,,,null,,,,
null,are playing with each other,,html-keyboard-response,351,1450862,0.0-19.0-2.1,51409,List1A,white,woman,,,,null,,,,
9945,,,survey-text,352,1460810,0.0-19.0-3.1,51409,List1A,white,woman,,,,,"{""Q0"":""luke and fred are playing with each other""}","<img src=""stim_listA/play6.gif""style=""height:400px;""></stim_listA>",are playing with each other,
null,"<div style=""font-size:60px;"">+</div>",,html-keyboard-response,353,1461312,0.0-19.0-0.2,51409,List1A,white,woman,,,,null,,,,
null,"<img src=""stim_listA/talk5.gif""style=""height:400px;""></stim_listA>",,html-keyboard-response,354,1463315,0.0-19.0-1.2,51409,List1A,white,woman,,,,null,,,,
null,is talking to,,html-keyboard-response,355,1465317,0.0-19.0-2.2,51409,List1A,white,woman,,,,null,,,,
6538,,,survey-text,356,1471858,0.0-19.0-3.2,51409,List1A,white,woman,,,,,"{""Q0"":""dave is talking to fred""}","<img src=""stim_listA/talk5.gif""style=""height:400px;""></stim_listA>",is talking to,
null,"<div style=""font-size:60px;"">+</div>",,html-keyboard-response,357,1472360,0.0-19.0-0.3,51409,List1A,white,woman,,,,null,,,,
null,"<img src=""stim_listA/touch4.gif""style=""height:400px;""></stim_listA>",,html-keyboard-response,358,1474363,0.0-19.0-1.3,51409,List1A,white,woman,,,,null,,,,
null,are touching each other,,html-keyboard-response,359,1476365,0.0-19.0-2.3,51409,List1A,white,woman,,,,null,,,,
13483,,,survey-text,360,1489851,0.0-19.0-3.3,51409,List1A,white,woman,,,,,"{""Q0"":""ruth and luke are touching each other""}","<img src=""stim_listA/touch4.gif""style=""height:400px;""></stim_listA>",are touching each other,
null,"<div style=""font-size:60px;"">+</div>",,html-keyboard-response,361,1490353,0.0-19.0-0.4,51409,List1A,white,woman,,,,null,,,,
null,"<img src=""stim_listA/kiss7.gif""style=""height:400px;""></stim_listA>",,html-keyboard-response,362,1492357,0.0-19.0-1.4,51409,List1A,white,woman,,,,null,,,,
null,is kissing,,html-keyboard-response,363,1494360,0.0-19.0-2.4,51409,List1A,white,woman,,,,null,,,,
6224,,,survey-text,364,1500586,0.0-19.0-3.4,51409,List1A,white,woman,,,,,"{""Q0"":""ruth is kissing beth""}","<img src=""stim_listA/kiss7.gif""style=""height:400px;""></stim_listA>",is kissing,
null,"<div style=""font-size:60px;"">+</div>",,html-keyboard-response,365,1501089,0.0-19.0-0.5,51409,List1A,white,woman,,,,null,,,,
null,"<img src=""stim_listA/touch2.gif""style=""height:400px;""></stim_listA>",,html-keyboard-response,366,1503093,0.0-19.0-1.5,51409,List1A,white,woman,,,,null,,,,
null,are touching each other,,html-keyboard-response,367,1505097,0.0-19.0-2.5,51409,List1A,white,woman,,,,null,,,,
9483,,,survey-text,368,1514582,0.0-19.0-3.5,51409,List1A,white,woman,,,,,"{""Q0"":""beth and fred are touching each other""}","<img src=""stim_listA/touch2.gif""style=""height:400px;""></stim_listA>",are touching each other,
null,"<div style=""font-size:60px;"">+</div>",,html-keyboard-response,369,1515086,0.0-19.0-0.6,51409,List1A,white,woman,,,,null,,,,
null,"<img src=""stim_listA/touch7.gif""style=""height:400px;""></stim_listA>",,html-keyboard-response,370,1517088,0.0-19.0-1.6,51409,List1A,white,woman,,,,null,,,,
null,is touching,,html-keyboard-response,371,1519090,0.0-19.0-2.6,51409,List1A,white,woman,,,,null,,,,
5318,,,survey-text,372,1524411,0.0-19.0-3.6,51409,List1A,white,woman,,,,,"{""Q0"":""kate is touching jane""}","<img src=""stim_listA/touch7.gif""style=""height:400px;""></stim_listA>",is touching,
null,"<div style=""font-size:60px;"">+</div>",,html-keyboard-response,373,1524913,0.0-19.0-0.7,51409,List1A,white,woman,,,,null,,,,
null,"<img src=""stim_listA/kiss8.gif""style=""height:400px;""></stim_listA>",,html-keyboard-response,374,1526917,0.0-19.0-1.7,51409,List1A,white,woman,,,,null,,,,
null,are kissing each other,,html-keyboard-response,375,1528920,0.0-19.0-2.7,51409,List1A,white,woman,,,,null,,,,
8974,,,survey-text,376,1537899,0.0-19.0-3.7,51409,List1A,white,woman,,,,,"{""Q0"":""jane and kate are kissing each other""}","<img src=""stim_listA/kiss8.gif""style=""height:400px;""></stim_listA>",are kissing each other,
null,"<div style=""font-size:60px;"">+</div>",,html-keyboard-response,377,1538402,0.0-19.0-0.8,51409,List1A,white,woman,,,,null,,,,
null,"<img src=""stim_listA/kiss5.gif""style=""height:400px;""></stim_listA>",,html-keyboard-response,378,1540405,0.0-19.0-1.8,51409,List1A,white,woman,,,,null,,,,
null,is kissing,,html-keyboard-response,379,1542409,0.0-19.0-2.8,51409,List1A,white,woman,,,,null,,,,
7378,,,survey-text,380,1549790,0.0-19.0-3.8,51409,List1A,white,woman,,,,,"{""Q0"":""dave is kissing luke""}","<img src=""stim_listA/kiss5.gif""style=""height:400px;""></stim_listA>",is kissing,
null,"<div style=""font-size:60px;"">+</div>",,html-keyboard-response,381,1550294,0.0-19.0-0.9,51409,List1A,white,woman,,,,null,,,,
null,"<img src=""stim_listA/argue7.gif""style=""height:400px;""></stim_listA>",,html-keyboard-response,382,1552297,0.0-19.0-1.9,51409,List1A,white,woman,,,,null,,,,
null,is arguing with,,html-keyboard-response,383,1554299,0.0-19.0-2.9,51409,List1A,white,woman,,,,null,,,,
6477,,,survey-text,384,1560778,0.0-19.0-3.9,51409,List1A,white,woman,,,,,"{""Q0"":""kate is arguing with ruth""}","<img src=""stim_listA/argue7.gif""style=""height:400px;""></stim_listA>",is arguing with,
null,"<div style=""font-size:60px;"">+</div>",,html-keyboard-response,385,1561282,0.0-19.0-0.10,51409,List1A,white,woman,,,,null,,,,
null,"<img src=""stim_listA/fight4.gif""style=""height:400px;""></stim_listA>",,html-keyboard-response,386,1563284,0.0-19.0-1.10,51409,List1A,white,woman,,,,null,,,,
null,are fighting each other,,html-keyboard-response,387,1565286,0.0-19.0-2.10,51409,List1A,white,woman,,,,null,,,,
12643,,,survey-text,388,1577933,0.0-19.0-3.10,51409,List1A,white,woman,,,,,"{""Q0"":""ruth and luke are fighting each other""}","<img src=""stim_listA/fight4.gif""style=""height:400px;""></stim_listA>",are fighting each other,
null,"<div style=""font-size:60px;"">+</div>",,html-keyboard-response,389,1578436,0.0-19.0-0.11,51409,List1A,white,woman,,,,null,,,,
null,"<img src=""stim_listA/fight3.gif""style=""height:400px;""></stim_listA>",,html-keyboard-response,390,1580439,0.0-19.0-1.11,51409,List1A,white,woman,,,,null,,,,
null,is fighting,,html-keyboard-response,391,1582441,0.0-19.0-2.11,51409,List1A,white,woman,,,,null,,,,
5320,,,survey-text,392,1587764,0.0-19.0-3.11,51409,List1A,white,woman,,,,,"{""Q0"":""dave is fighting jane""}","<img src=""stim_listA/fight3.gif""style=""height:400px;""></stim_listA>",is fighting,
null,"<div style=""font-size:60px;"">+</div>",,html-keyboard-response,393,1588267,0.0-19.0-0.12,51409,List1A,white,woman,,,,null,,,,
null,"<img src=""stim_listA/talk4.gif""style=""height:400px;""></stim_listA>",,html-keyboard-response,394,1590271,0.0-19.0-1.12,51409,List1A,white,woman,,,,null,,,,
null,are talking to each other,,html-keyboard-response,395,1592273,0.0-19.0-2.12,51409,List1A,white,woman,,,,null,,,,
9295,,,survey-text,396,1601571,0.0-19.0-3.12,51409,List1A,white,woman,,,,,"{""Q0"":""dave and ruth are talking to each other""}","<img src=""stim_listA/talk4.gif""style=""height:400px;""></stim_listA>",are talking to each other,
null,"<div style=""font-size:60px;"">+</div>",,html-keyboard-response,397,1602074,0.0-19.0-0.13,51409,List1A,white,woman,,,,null,,,,
null,"<img src=""stim_listA/kiss2.gif""style=""height:400px;""></stim_listA>",,html-keyboard-response,398,1604077,0.0-19.0-1.13,51409,List1A,white,woman,,,,null,,,,
null,are kissing each other,,html-keyboard-response,399,1606079,0.0-19.0-2.13,51409,List1A,white,woman,,,,null,,,,
8271,,,survey-text,400,1614353,0.0-19.0-3.13,51409,List1A,white,woman,,,,,"{""Q0"":""kate and mike are kissing each other""}","<img src=""stim_listA/kiss2.gif""style=""height:400px;""></stim_listA>",are kissing each other,
null,"<div style=""font-size:60px;"">+</div>",,html-keyboard-response,401,1614855,0.0-19.0-0.14,51409,List1A,white,woman,,,,null,,,,
null,"<img src=""stim_listA/marry1.gif""style=""height:400px;""></stim_listA>",,html-keyboard-response,402,1616857,0.0-19.0-1.14,51409,List1A,white,woman,,,,null,,,,
null,is marrying,,html-keyboard-response,403,1618859,0.0-19.0-2.14,51409,List1A,white,woman,,,,null,,,,
8590,,,survey-text,404,1627451,0.0-19.0-3.14,51409,List1A,white,woman,,,,,"{""Q0"":""mike is marrying beth""}","<img src=""stim_listA/marry1.gif""style=""height:400px;""></stim_listA>",is marrying,
null,"<div style=""font-size:60px;"">+</div>",,html-keyboard-response,405,1627955,0.0-19.0-0.15,51409,List1A,white,woman,,,,null,,,,
null,"<img src=""stim_listA/argue6.gif""style=""height:400px;""></stim_listA>",,html-keyboard-response,406,1629958,0.0-19.0-1.15,51409,List1A,white,woman,,,,null,,,,
null,are arguing with each other,,html-keyboard-response,407,1631960,0.0-19.0-2.15,51409,List1A,white,woman,,,,null,,,,
10576,,,survey-text,408,1642539,0.0-19.0-3.15,51409,List1A,white,woman,,,,,"{""Q0"":""dave and fred are arguing with each other""}","<img src=""stim_listA/argue6.gif""style=""height:400px;""></stim_listA>",are arguing with each other,
null,"<div style=""font-size:60px;"">+</div>",,html-keyboard-response,409,1643041,0.0-19.0-0.16,51409,List1A,white,woman,,,,null,,,,
null,"<img src=""stim_listA/marry4.gif""style=""height:400px;""></stim_listA>",,html-keyboard-response,410,1645045,0.0-19.0-1.16,51409,List1A,white,woman,,,,null,,,,
null,are marrying each other,,html-keyboard-response,411,1647050,0.0-19.0-2.16,51409,List1A,white,woman,,,,null,,,,
8579,,,survey-text,412,1655633,0.0-19.0-3.16,51409,List1A,white,woman,,,,,"{""Q0"":""jane and luke are marrying each other""}","<img src=""stim_listA/marry4.gif""style=""height:400px;""></stim_listA>",are marrying each other,
null,"<div style=""font-size:60px;"">+</div>",,html-keyboard-response,413,1656135,0.0-19.0-0.17,51409,List1A,white,woman,,,,null,,,,
null,"<img src=""stim_listA/fight8.gif""style=""height:400px;""></stim_listA>",,html-keyboard-response,414,1658139,0.0-19.0-1.17,51409,List1A,white,woman,,,,null,,,,
null,are fighting each other,,html-keyboard-response,415,1660143,0.0-19.0-2.17,51409,List1A,white,woman,,,,null,,,,
8367,,,survey-text,416,1668512,0.0-19.0-3.17,51409,List1A,white,woman,,,,,"{""Q0"":""ruth and beth are fighting each other""}","<img src=""stim_listA/fight8.gif""style=""height:400px;""></stim_listA>",are fighting each other,
null,"<div style=""font-size:60px;"">+</div>",,html-keyboard-response,417,1669017,0.0-19.0-0.18,51409,List1A,white,woman,,,,null,,,,
null,"<img src=""stim_listA/flirt7.gif""style=""height:400px;""></stim_listA>",,html-keyboard-response,418,1671020,0.0-19.0-1.18,51409,List1A,white,woman,,,,null,,,,
null,is flirting with,,html-keyboard-response,419,1673024,0.0-19.0-2.18,51409,List1A,white,woman,,,,null,,,,
7192,,,survey-text,420,1680220,0.0-19.0-3.18,51409,List1A,white,woman,,,,,"{""Q0"":""beth is flirting with jane""}","<img src=""stim_listA/flirt7.gif""style=""height:400px;""></stim_listA>",is flirting with,
null,"<div style=""font-size:60px;"">+</div>",,html-keyboard-response,421,1680722,0.0-19.0-0.19,51409,List1A,white,woman,,,,null,,,,
null,"<img src=""stim_listA/dance4.gif""style=""height:400px;""></stim_listA>",,html-keyboard-response,422,1682731,0.0-19.0-1.19,51409,List1A,white,woman,,,,null,,,,
null,are dancing with each other,,html-keyboard-response,423,1684736,0.0-19.0-2.19,51409,List1A,white,woman,,,,null,,,,
10421,,,survey-text,424,1695159,0.0-19.0-3.19,51409,List1A,white,woman,,,,,"{""Q0"":""dave and ruth are dancing with each other""}","<img src=""stim_listA/dance4.gif""style=""height:400px;""></stim_listA>",are dancing with each other,
1769,<p>Thank you for completing that task.</p><p>The final part of this session is a short questionnaire.</p><p>Press Continue.</p>,0,html-button-response,425,1696932,0.0-20.0,51409,List1A,white,woman,,,,,,,,
36863,,,survey-text,426,1734799,0.0-21.0,51409,List1A,white,woman,,,,,"{""Q0"":""64"",""Q1"":""english"",""Q2"":""english"",""Q3"":""scotland"",""Q4"":""white/scottish"",""Q5"":""female""}",,,demographics
10768,,,survey-likert,427,1745574,0.0-22.0,51409,List1A,white,woman,,,,,"{""Q0"":4}",,,likert_ESS
6883,,,survey-likert,428,1752461,0.0-23.0,51409,List1A,white,woman,,,,,"{""Q0"":4}",,,likert_NSSAL_Q1
2666,,,survey-likert,429,1755131,0.0-24.0,51409,List1A,white,woman,,,,,"{""Q0"":4}",,,likert_NSSAL_Q2
3513,,,survey-likert,430,1758650,0.0-25.0,51409,List1A,white,woman,,,,,"{""Q0"":4}",,,likert_CGRS_Q1
5678,,,survey-likert,431,1764333,0.0-26.0,51409,List1A,white,woman,,,,,"{""Q0"":3}",,,likert_CGRS_Q2
3981,,,survey-likert,432,1768318,0.0-27.0,51409,List1A,white,woman,,,,,"{""Q0"":3}",,,likert_CGRS_Q3
8979,,,survey-text,433,1777301,0.0-28.0,51409,List1A,white,woman,,,,,"{""Q0"":""ccc""}",,,worker_id
8077,,,external-html,434,1785573,0.0-29.0,51409,List1A,white,woman,debrief.html,,,,,,,
