"rt","stimulus","button_pressed","trial_type","trial_index","time_elapsed","internal_node_id","subject","list","ppt_race","ppt_gender","url","first_guess","correct","key_press","responses","image_type","phrase_type","test_part"
"2088","Welcome to the experiment. Press Continue to begin.","0","html-button-response","0","2093","0.0-0.0","51431","List1A","black","woman","","","","","","","",""
"11431","","","external-html","1","14870","0.0-1.0","51431","List1A","black","woman","consent.html","","","","","","",""
"15997","<p>On the next page, you will see portraits of 8 people and their names.</p><p>Your first task is to take a few minutes to memorise the names of these people.</p><p>You will have to recall their names during the rest of the experiment, so it is</p><p>essential that you try to memorise these people and their names as best as you can.</p><br><p><strong>You will then be tested on your memory of these names and portraits.</strong></p><br><p>The experiment will start after you have completed this memory test.</p><br><p>Ready?</p>","0","html-button-response","2","30869","0.0-2.0","51431","List1A","black","woman","","","","","","","",""
"78572","<img src='img/portrait_matrix_list1.jpg' style='width:900px;height:500px;''></img><p>If you have memorised all the portraits and names and are ready to start, press Continue.</p><p><strong>Please note: Your memory of these faces will be tested 4 times during this experiment.</strong></p>","0","html-button-response","3","110446","0.0-3.0-0.0","51431","List1A","black","woman","","","","","","","",""
"4335","<img src=""portrait/WM1.jpg""style=""height:400px;""></img>","6","html-button-response","4","115786","0.0-3.0-1.0","51431","List1A","black","woman","","true","6","","","","",""
"null","CORRECT","","html-keyboard-response","5","117297","0.0-3.0-2.0-0.0","51431","List1A","black","woman","","","","null","","","",""
"3145","<img src=""portrait/BW2.jpg""style=""height:400px;""></img>","2","html-button-response","6","120444","0.0-3.0-4.0","51431","List1A","black","woman","","true","2","","","","",""
"null","CORRECT","","html-keyboard-response","7","121960","0.0-3.0-5.0-0.0","51431","List1A","black","woman","","","","null","","","",""
"2378","<img src=""portrait/BM1.jpg""style=""height:400px;""></img>","4","html-button-response","8","124340","0.0-3.0-7.0","51431","List1A","black","woman","","true","4","","","","",""
"null","CORRECT","","html-keyboard-response","9","125843","0.0-3.0-8.0-0.0","51431","List1A","black","woman","","","","null","","","",""
"2406","<img src=""portrait/WM2.jpg""style=""height:400px;""></img>","7","html-button-response","10","128252","0.0-3.0-10.0","51431","List1A","black","woman","","true","7","","","","",""
"null","CORRECT","","html-keyboard-response","11","129756","0.0-3.0-11.0-0.0","51431","List1A","black","woman","","","","null","","","",""
"2983","<img src=""portrait/WW2.jpg""style=""height:400px;""></img>","3","html-button-response","12","132742","0.0-3.0-13.0","51431","List1A","black","woman","","true","3","","","","",""
"null","CORRECT","","html-keyboard-response","13","134245","0.0-3.0-14.0-0.0","51431","List1A","black","woman","","","","null","","","",""
"4644","<img src=""portrait/BW1.jpg""style=""height:400px;""></img>","0","html-button-response","14","138891","0.0-3.0-16.0","51431","List1A","black","woman","","true","0","","","","",""
"null","CORRECT","","html-keyboard-response","15","140394","0.0-3.0-17.0-0.0","51431","List1A","black","woman","","","","null","","","",""
"3077","<img src=""portrait/BM2.jpg""style=""height:400px;""></img>","5","html-button-response","16","143473","0.0-3.0-19.0","51431","List1A","black","woman","","true","5","","","","",""
"null","CORRECT","","html-keyboard-response","17","144977","0.0-3.0-20.0-0.0","51431","List1A","black","woman","","","","null","","","",""
"5385","<img src=""portrait/WW1.jpg""style=""height:400px;""></img>","1","html-button-response","18","150365","0.0-3.0-22.0","51431","List1A","black","woman","","true","1","","","","",""
"null","CORRECT","","html-keyboard-response","19","151869","0.0-3.0-23.0-0.0","51431","List1A","black","woman","","","","null","","","",""
"3718","<p>You got 8 out of 8 right first time. Press Continue.</p>","0","html-button-response","20","155588","0.0-3.0-25.0","51431","List1A","black","woman","","","","","","","",""
"64489","<p>In this experiment, you will view photographs of the people from the memory game interacting.</p><p>By using the <strong>exact</strong> phrase given <i>after</i> the photograph appears and recalling the correct names of the people in the photographs, form a sentence describing the interaction. You do not need to capitalise names.</p><p>Type your answer in the space provided. Please complete every sentence before moving onto the next trial.</p><p>You will only have a few seconds to memorise each given photograph and phrase before you can respond, so try your best to focus.</p><p>An example is given below. Press 'Continue' when you are ready.</p><img src='img/speaking_example.jpg' style='width:800px;height:460px;''></img>","0","html-button-response","21","221083","0.0-4.0","51431","List1A","black","woman","","","","","","","",""
"3250","<p>Before the experiment starts, you will watch two example trials. Press 'Continue'.</p>","0","html-button-response","22","225337","0.0-5.0","51431","List1A","black","woman","","","","","","","",""
"null","<img src='img/meet_eg.gif' style='height:400px;''></img>","","html-keyboard-response","23","228340","0.0-6.0","51431","List1A","black","woman","","","","null","","","",""
"null","<p>is meeting</p>","","html-keyboard-response","24","230343","0.0-7.0","51431","List1A","black","woman","","","","null","","","",""
"6916","<p><b>Answer:</b> kate is meeting beth</p>","0","html-button-response","25","237263","0.0-8.0","51431","List1A","black","woman","","","","","","","",""
"null","<img src='img/look_eg.gif' style='height:400px;''></img>","","html-keyboard-response","26","240266","0.0-9.0","51431","List1A","black","woman","","","","null","","","",""
"null","<p>are looking at each other</p>","","html-keyboard-response","27","242267","0.0-10.0","51431","List1A","black","woman","","","","null","","","",""
"3414","<p><b>Answer:</b> luke and dave are looking at each other</p>","0","html-button-response","28","245682","0.0-11.0","51431","List1A","black","woman","","","","","","","",""
"9052","<p>Ready to start the experiment?</p><br><p><strong>Remember to describe the picture using a full sentence,</strong></p><p><strong>that combines the names of the people with the <i>exact</i> phrase given.</strong></p><p><strong>To receive full payment you must do this correctly.</strong></p><p><strong> You do not need to capitalise names or use punctuation.</strong></p><br><p>Press 'Continue' to begin.</p>","0","html-button-response","29","255740","0.0-12.0","51431","List1A","black","woman","","","","","","","",""
"null","<div style=""font-size:60px;"">+</div>","","html-keyboard-response","30","257245","0.0-13.0-0.0","51431","List1A","black","woman","","","","null","","","",""
"null","<img src=""stim_listA/marry5.gif""style=""height:400px;""></stim_listA>","","html-keyboard-response","31","259247","0.0-13.0-1.0","51431","List1A","black","woman","","","","null","","","",""
"null","is marrying","","html-keyboard-response","32","261249","0.0-13.0-2.0","51431","List1A","black","woman","","","","null","","","",""
"11242","","","survey-text","33","272494","0.0-13.0-3.0","51431","List1A","black","woman","","","","","{""Q0"":""Luke is marrying Mike""}","<img src=""stim_listA/marry5.gif""style=""height:400px;""></stim_listA>","is marrying",""
"null","<div style=""font-size:60px;"">+</div>","","html-keyboard-response","34","272997","0.0-13.0-0.1","51431","List1A","black","woman","","","","null","","","",""
"null","<img src=""stim_listA/flirt8.gif""style=""height:400px;""></stim_listA>","","html-keyboard-response","35","274999","0.0-13.0-1.1","51431","List1A","black","woman","","","","null","","","",""
"null","are flirting with each other","","html-keyboard-response","36","277002","0.0-13.0-2.1","51431","List1A","black","woman","","","","null","","","",""
"12951","","","survey-text","37","289955","0.0-13.0-3.1","51431","List1A","black","woman","","","","","{""Q0"":""Ruth is talking to Kate""}","<img src=""stim_listA/flirt8.gif""style=""height:400px;""></stim_listA>","are flirting with each other",""
"null","<div style=""font-size:60px;"">+</div>","","html-keyboard-response","38","290465","0.0-13.0-0.2","51431","List1A","black","woman","","","","null","","","",""
"null","<img src=""stim_listA/dance4.gif""style=""height:400px;""></stim_listA>","","html-keyboard-response","39","292469","0.0-13.0-1.2","51431","List1A","black","woman","","","","null","","","",""
"null","are dancing with each other","","html-keyboard-response","40","294470","0.0-13.0-2.2","51431","List1A","black","woman","","","","null","","","",""
"13150","","","survey-text","41","307621","0.0-13.0-3.2","51431","List1A","black","woman","","","","","{""Q0"":""Ruth and Dave are dancing with each other""}","<img src=""stim_listA/dance4.gif""style=""height:400px;""></stim_listA>","are dancing with each other",""
"null","<div style=""font-size:60px;"">+</div>","","html-keyboard-response","42","308125","0.0-13.0-0.3","51431","List1A","black","woman","","","","null","","","",""
"null","<img src=""stim_listA/argue8.gif""style=""height:400px;""></stim_listA>","","html-keyboard-response","43","310127","0.0-13.0-1.3","51431","List1A","black","woman","","","","null","","","",""
"null","are arguing with each other","","html-keyboard-response","44","312129","0.0-13.0-2.3","51431","List1A","black","woman","","","","null","","","",""
"10535","","","survey-text","45","322665","0.0-13.0-3.3","51431","List1A","black","woman","","","","","{""Q0"":""Jane and Beth are arguing with each other""}","<img src=""stim_listA/argue8.gif""style=""height:400px;""></stim_listA>","are arguing with each other",""
"null","<div style=""font-size:60px;"">+</div>","","html-keyboard-response","46","323167","0.0-13.0-0.4","51431","List1A","black","woman","","","","null","","","",""
"null","<img src=""stim_listA/flirt7.gif""style=""height:400px;""></stim_listA>","","html-keyboard-response","47","325169","0.0-13.0-1.4","51431","List1A","black","woman","","","","null","","","",""
"null","is flirting with","","html-keyboard-response","48","327171","0.0-13.0-2.4","51431","List1A","black","woman","","","","null","","","",""
"7447","","","survey-text","49","334621","0.0-13.0-3.4","51431","List1A","black","woman","","","","","{""Q0"":""Jane is flirting with Beth""}","<img src=""stim_listA/flirt7.gif""style=""height:400px;""></stim_listA>","is flirting with",""
"null","<div style=""font-size:60px;"">+</div>","","html-keyboard-response","50","335124","0.0-13.0-0.5","51431","List1A","black","woman","","","","null","","","",""
"null","<img src=""stim_listA/talk3.gif""style=""height:400px;""></stim_listA>","","html-keyboard-response","51","337127","0.0-13.0-1.5","51431","List1A","black","woman","","","","null","","","",""
"null","is talking to","","html-keyboard-response","52","339129","0.0-13.0-2.5","51431","List1A","black","woman","","","","null","","","",""
"12895","","","survey-text","53","352026","0.0-13.0-3.5","51431","List1A","black","woman","","","","","{""Q0"":""Jane is talking with Luke""}","<img src=""stim_listA/talk3.gif""style=""height:400px;""></stim_listA>","is talking to",""
"null","<div style=""font-size:60px;"">+</div>","","html-keyboard-response","54","352529","0.0-13.0-0.6","51431","List1A","black","woman","","","","null","","","",""
"null","<img src=""stim_listA/argue5.gif""style=""height:400px;""></stim_listA>","","html-keyboard-response","55","354531","0.0-13.0-1.6","51431","List1A","black","woman","","","","null","","","",""
"null","is arguing with","","html-keyboard-response","56","356533","0.0-13.0-2.6","51431","List1A","black","woman","","","","null","","","",""
"10873","","","survey-text","57","367408","0.0-13.0-3.6","51431","List1A","black","woman","","","","","{""Q0"":""Luke is arguing with Mike""}","<img src=""stim_listA/argue5.gif""style=""height:400px;""></stim_listA>","is arguing with",""
"null","<div style=""font-size:60px;"">+</div>","","html-keyboard-response","58","367910","0.0-13.0-0.7","51431","List1A","black","woman","","","","null","","","",""
"null","<img src=""stim_listA/flirt4.gif""style=""height:400px;""></stim_listA>","","html-keyboard-response","59","369913","0.0-13.0-1.7","51431","List1A","black","woman","","","","null","","","",""
"null","are flirting with each other","","html-keyboard-response","60","371915","0.0-13.0-2.7","51431","List1A","black","woman","","","","null","","","",""
"11005","","","survey-text","61","382922","0.0-13.0-3.7","51431","List1A","black","woman","","","","","{""Q0"":""Ruth and Dave are flirting with each other""}","<img src=""stim_listA/flirt4.gif""style=""height:400px;""></stim_listA>","are flirting with each other",""
"null","<div style=""font-size:60px;"">+</div>","","html-keyboard-response","62","383425","0.0-13.0-0.8","51431","List1A","black","woman","","","","null","","","",""
"null","<img src=""stim_listA/marry3.gif""style=""height:400px;""></stim_listA>","","html-keyboard-response","63","385428","0.0-13.0-1.8","51431","List1A","black","woman","","","","null","","","",""
"null","is marrying","","html-keyboard-response","64","387430","0.0-13.0-2.8","51431","List1A","black","woman","","","","null","","","",""
"14647","","","survey-text","65","402079","0.0-13.0-3.8","51431","List1A","black","woman","","","","","{""Q0"":""Ruth and Dave are marrying""}","<img src=""stim_listA/marry3.gif""style=""height:400px;""></stim_listA>","is marrying",""
"null","<div style=""font-size:60px;"">+</div>","","html-keyboard-response","66","402587","0.0-13.0-0.9","51431","List1A","black","woman","","","","null","","","",""
"null","<img src=""stim_listA/touch2.gif""style=""height:400px;""></stim_listA>","","html-keyboard-response","67","404590","0.0-13.0-1.9","51431","List1A","black","woman","","","","null","","","",""
"null","are touching each other","","html-keyboard-response","68","406591","0.0-13.0-2.9","51431","List1A","black","woman","","","","null","","","",""
"14616","","","survey-text","69","421209","0.0-13.0-3.9","51431","List1A","black","woman","","","","","{""Q0"":""Beth are Fred are touching each other""}","<img src=""stim_listA/touch2.gif""style=""height:400px;""></stim_listA>","are touching each other",""
"null","<div style=""font-size:60px;"">+</div>","","html-keyboard-response","70","421712","0.0-13.0-0.10","51431","List1A","black","woman","","","","null","","","",""
"null","<img src=""stim_listA/kiss4.gif""style=""height:400px;""></stim_listA>","","html-keyboard-response","71","423715","0.0-13.0-1.10","51431","List1A","black","woman","","","","null","","","",""
"null","are kissing each other","","html-keyboard-response","72","425717","0.0-13.0-2.10","51431","List1A","black","woman","","","","null","","","",""
"10483","","","survey-text","73","436203","0.0-13.0-3.10","51431","List1A","black","woman","","","","","{""Q0"":""Jane and Dave are kissing each other""}","<img src=""stim_listA/kiss4.gif""style=""height:400px;""></stim_listA>","are kissing each other",""
"null","<div style=""font-size:60px;"">+</div>","","html-keyboard-response","74","436706","0.0-13.0-0.11","51431","List1A","black","woman","","","","null","","","",""
"null","<img src=""stim_listA/talk6.gif""style=""height:400px;""></stim_listA>","","html-keyboard-response","75","438709","0.0-13.0-1.11","51431","List1A","black","woman","","","","null","","","",""
"null","are talking to each other","","html-keyboard-response","76","440711","0.0-13.0-2.11","51431","List1A","black","woman","","","","null","","","",""
"15643","","","survey-text","77","456356","0.0-13.0-3.11","51431","List1A","black","woman","","","","","{""Q0"":""Luke and Mike are talking with each other""}","<img src=""stim_listA/talk6.gif""style=""height:400px;""></stim_listA>","are talking to each other",""
"null","<div style=""font-size:60px;"">+</div>","","html-keyboard-response","78","456859","0.0-13.0-0.12","51431","List1A","black","woman","","","","null","","","",""
"null","<img src=""stim_listA/fight6.gif""style=""height:400px;""></stim_listA>","","html-keyboard-response","79","458861","0.0-13.0-1.12","51431","List1A","black","woman","","","","null","","","",""
"null","are fighting each other","","html-keyboard-response","80","460865","0.0-13.0-2.12","51431","List1A","black","woman","","","","null","","","",""
"11193","","","survey-text","81","472060","0.0-13.0-3.12","51431","List1A","black","woman","","","","","{""Q0"":""Luke and Fred are fighting each other""}","<img src=""stim_listA/fight6.gif""style=""height:400px;""></stim_listA>","are fighting each other",""
"null","<div style=""font-size:60px;"">+</div>","","html-keyboard-response","82","472562","0.0-13.0-0.13","51431","List1A","black","woman","","","","null","","","",""
"null","<img src=""stim_listA/shout3.gif""style=""height:400px;""></stim_listA>","","html-keyboard-response","83","474566","0.0-13.0-1.13","51431","List1A","black","woman","","","","null","","","",""
"null","is shouting at","","html-keyboard-response","84","476568","0.0-13.0-2.13","51431","List1A","black","woman","","","","null","","","",""
"10448","","","survey-text","85","487018","0.0-13.0-3.13","51431","List1A","black","woman","","","","","{""Q0"":""Luke is shouting at Ruth""}","<img src=""stim_listA/shout3.gif""style=""height:400px;""></stim_listA>","is shouting at",""
"null","<div style=""font-size:60px;"">+</div>","","html-keyboard-response","86","487519","0.0-13.0-0.14","51431","List1A","black","woman","","","","null","","","",""
"null","<img src=""stim_listA/kiss6.gif""style=""height:400px;""></stim_listA>","","html-keyboard-response","87","489521","0.0-13.0-1.14","51431","List1A","black","woman","","","","null","","","",""
"null","are kissing each other","","html-keyboard-response","88","491523","0.0-13.0-2.14","51431","List1A","black","woman","","","","null","","","",""
"11035","","","survey-text","89","502560","0.0-13.0-3.14","51431","List1A","black","woman","","","","","{""Q0"":""Dave and Mike are kissing each other""}","<img src=""stim_listA/kiss6.gif""style=""height:400px;""></stim_listA>","are kissing each other",""
"null","<div style=""font-size:60px;"">+</div>","","html-keyboard-response","90","503063","0.0-13.0-0.15","51431","List1A","black","woman","","","","null","","","",""
"null","<img src=""stim_listA/touch5.gif""style=""height:400px;""></stim_listA>","","html-keyboard-response","91","505068","0.0-13.0-1.15","51431","List1A","black","woman","","","","null","","","",""
"null","is touching","","html-keyboard-response","92","507070","0.0-13.0-2.15","51431","List1A","black","woman","","","","null","","","",""
"20068","","","survey-text","93","527140","0.0-13.0-3.15","51431","List1A","black","woman","","","","","{""Q0"":""Dave is touching Mike""}","<img src=""stim_listA/touch5.gif""style=""height:400px;""></stim_listA>","is touching",""
"null","<div style=""font-size:60px;"">+</div>","","html-keyboard-response","94","527642","0.0-13.0-0.16","51431","List1A","black","woman","","","","null","","","",""
"null","<img src=""stim_listA/argue7.gif""style=""height:400px;""></stim_listA>","","html-keyboard-response","95","529647","0.0-13.0-1.16","51431","List1A","black","woman","","","","null","","","",""
"null","is arguing with","","html-keyboard-response","96","531648","0.0-13.0-2.16","51431","List1A","black","woman","","","","null","","","",""
"18346","","","survey-text","97","549996","0.0-13.0-3.16","51431","List1A","black","woman","","","","","{""Q0"":""Ruth and Kate are arguing with each other""}","<img src=""stim_listA/argue7.gif""style=""height:400px;""></stim_listA>","is arguing with",""
"null","<div style=""font-size:60px;"">+</div>","","html-keyboard-response","98","550498","0.0-13.0-0.17","51431","List1A","black","woman","","","","null","","","",""
"null","<img src=""stim_listA/talk7.gif""style=""height:400px;""></stim_listA>","","html-keyboard-response","99","552502","0.0-13.0-1.17","51431","List1A","black","woman","","","","null","","","",""
"null","is talking to","","html-keyboard-response","100","554503","0.0-13.0-2.17","51431","List1A","black","woman","","","","null","","","",""
"6946","","","survey-text","101","561451","0.0-13.0-3.17","51431","List1A","black","woman","","","","","{""Q0"":""Jane is talking to Beth""}","<img src=""stim_listA/talk7.gif""style=""height:400px;""></stim_listA>","is talking to",""
"null","<div style=""font-size:60px;"">+</div>","","html-keyboard-response","102","561954","0.0-13.0-0.18","51431","List1A","black","woman","","","","null","","","",""
"null","<img src=""stim_listA/touch8.gif""style=""height:400px;""></stim_listA>","","html-keyboard-response","103","563958","0.0-13.0-1.18","51431","List1A","black","woman","","","","null","","","",""
"null","are touching each other","","html-keyboard-response","104","565960","0.0-13.0-2.18","51431","List1A","black","woman","","","","null","","","",""
"9802","","","survey-text","105","575764","0.0-13.0-3.18","51431","List1A","black","woman","","","","","{""Q0"":""Ruth and Beth are touching each other""}","<img src=""stim_listA/touch8.gif""style=""height:400px;""></stim_listA>","are touching each other",""
"null","<div style=""font-size:60px;"">+</div>","","html-keyboard-response","106","576266","0.0-13.0-0.19","51431","List1A","black","woman","","","","null","","","",""
"null","<img src=""stim_listA/marry4.gif""style=""height:400px;""></stim_listA>","","html-keyboard-response","107","578269","0.0-13.0-1.19","51431","List1A","black","woman","","","","null","","","",""
"null","are marrying each other","","html-keyboard-response","108","580272","0.0-13.0-2.19","51431","List1A","black","woman","","","","null","","","",""
"10841","","","survey-text","109","591115","0.0-13.0-3.19","51431","List1A","black","woman","","","","","{""Q0"":""Luke and Jane are marrying each other""}","<img src=""stim_listA/marry4.gif""style=""height:400px;""></stim_listA>","are marrying each other",""
"14261","<img src='img/portrait_matrix_list1.jpg' style='width:900px;height:500px;''></img><p>If you have memorised all the portraits and names and are ready to start, press Continue.</p><p><strong>Please note: Your memory of these faces will be tested 4 times during this experiment.</strong></p>","0","html-button-response","110","605380","0.0-14.0-0.0","51431","List1A","black","woman","","","","","","","",""
"2891","<img src=""portrait/BW2.jpg""style=""height:400px;""></img>","2","html-button-response","111","609275","0.0-14.0-1.0","51431","List1A","black","woman","","true","2","","","","",""
"null","CORRECT","","html-keyboard-response","112","610778","0.0-14.0-2.0-0.0","51431","List1A","black","woman","","","","null","","","",""
"2314","<img src=""portrait/BW1.jpg""style=""height:400px;""></img>","0","html-button-response","113","613095","0.0-14.0-4.0","51431","List1A","black","woman","","true","0","","","","",""
"null","CORRECT","","html-keyboard-response","114","614600","0.0-14.0-5.0-0.0","51431","List1A","black","woman","","","","null","","","",""
"1824","<img src=""portrait/BM1.jpg""style=""height:400px;""></img>","4","html-button-response","115","616426","0.0-14.0-7.0","51431","List1A","black","woman","","true","4","","","","",""
"null","CORRECT","","html-keyboard-response","116","617930","0.0-14.0-8.0-0.0","51431","List1A","black","woman","","","","null","","","",""
"1584","<img src=""portrait/WW1.jpg""style=""height:400px;""></img>","1","html-button-response","117","619516","0.0-14.0-10.0","51431","List1A","black","woman","","true","1","","","","",""
"null","CORRECT","","html-keyboard-response","118","621020","0.0-14.0-11.0-0.0","51431","List1A","black","woman","","","","null","","","",""
"2089","<img src=""portrait/WM2.jpg""style=""height:400px;""></img>","7","html-button-response","119","623112","0.0-14.0-13.0","51431","List1A","black","woman","","true","7","","","","",""
"null","CORRECT","","html-keyboard-response","120","624616","0.0-14.0-14.0-0.0","51431","List1A","black","woman","","","","null","","","",""
"4518","<img src=""portrait/BM2.jpg""style=""height:400px;""></img>","5","html-button-response","121","629136","0.0-14.0-16.0","51431","List1A","black","woman","","true","5","","","","",""
"null","CORRECT","","html-keyboard-response","122","630641","0.0-14.0-17.0-0.0","51431","List1A","black","woman","","","","null","","","",""
"1514","<img src=""portrait/WW2.jpg""style=""height:400px;""></img>","3","html-button-response","123","632158","0.0-14.0-19.0","51431","List1A","black","woman","","true","3","","","","",""
"null","CORRECT","","html-keyboard-response","124","633663","0.0-14.0-20.0-0.0","51431","List1A","black","woman","","","","null","","","",""
"2437","<img src=""portrait/WM1.jpg""style=""height:400px;""></img>","6","html-button-response","125","636102","0.0-14.0-22.0","51431","List1A","black","woman","","true","6","","","","",""
"null","CORRECT","","html-keyboard-response","126","637605","0.0-14.0-23.0-0.0","51431","List1A","black","woman","","","","null","","","",""
"1898","<p>You got 8 out of 8 right first time. Press Continue.</p>","0","html-button-response","127","639506","0.0-14.0-25.0","51431","List1A","black","woman","","","","","","","",""
"null","<div style=""font-size:60px;"">+</div>","","html-keyboard-response","128","641010","0.0-15.0-0.0","51431","List1A","black","woman","","","","null","","","",""
"null","<img src=""stim_listA/dance7.gif""style=""height:400px;""></stim_listA>","","html-keyboard-response","129","643013","0.0-15.0-1.0","51431","List1A","black","woman","","","","null","","","",""
"null","is dancing with","","html-keyboard-response","130","645016","0.0-15.0-2.0","51431","List1A","black","woman","","","","null","","","",""
"8385","","","survey-text","131","653402","0.0-15.0-3.0","51431","List1A","black","woman","","","","","{""Q0"":""Jane is dancing with Beth""}","<img src=""stim_listA/dance7.gif""style=""height:400px;""></stim_listA>","is dancing with",""
"null","<div style=""font-size:60px;"">+</div>","","html-keyboard-response","132","653905","0.0-15.0-0.1","51431","List1A","black","woman","","","","null","","","",""
"null","<img src=""stim_listA/dance5.gif""style=""height:400px;""></stim_listA>","","html-keyboard-response","133","655908","0.0-15.0-1.1","51431","List1A","black","woman","","","","null","","","",""
"null","is dancing with","","html-keyboard-response","134","657909","0.0-15.0-2.1","51431","List1A","black","woman","","","","null","","","",""
"7174","","","survey-text","135","665086","0.0-15.0-3.1","51431","List1A","black","woman","","","","","{""Q0"":""Dave is dancing with Fred""}","<img src=""stim_listA/dance5.gif""style=""height:400px;""></stim_listA>","is dancing with",""
"null","<div style=""font-size:60px;"">+</div>","","html-keyboard-response","136","665588","0.0-15.0-0.2","51431","List1A","black","woman","","","","null","","","",""
"null","<img src=""stim_listA/marry2.gif""style=""height:400px;""></stim_listA>","","html-keyboard-response","137","667591","0.0-15.0-1.2","51431","List1A","black","woman","","","","null","","","",""
"null","are marrying each other","","html-keyboard-response","138","669594","0.0-15.0-2.2","51431","List1A","black","woman","","","","null","","","",""
"15975","","","survey-text","139","685572","0.0-15.0-3.2","51431","List1A","black","woman","","","","","{""Q0"":""Fred and Kate is marrying each other""}","<img src=""stim_listA/marry2.gif""style=""height:400px;""></stim_listA>","are marrying each other",""
"null","<div style=""font-size:60px;"">+</div>","","html-keyboard-response","140","686075","0.0-15.0-0.3","51431","List1A","black","woman","","","","null","","","",""
"null","<img src=""stim_listA/play2.gif""style=""height:400px;""></stim_listA>","","html-keyboard-response","141","688077","0.0-15.0-1.3","51431","List1A","black","woman","","","","null","","","",""
"null","are playing with each other","","html-keyboard-response","142","690079","0.0-15.0-2.3","51431","List1A","black","woman","","","","null","","","",""
"9344","","","survey-text","143","699425","0.0-15.0-3.3","51431","List1A","black","woman","","","","","{""Q0"":""Fred and Beth are playing with each other""}","<img src=""stim_listA/play2.gif""style=""height:400px;""></stim_listA>","are playing with each other",""
"null","<div style=""font-size:60px;"">+</div>","","html-keyboard-response","144","699927","0.0-15.0-0.4","51431","List1A","black","woman","","","","null","","","",""
"null","<img src=""stim_listA/shout1.gif""style=""height:400px;""></stim_listA>","","html-keyboard-response","145","701930","0.0-15.0-1.4","51431","List1A","black","woman","","","","null","","","",""
"null","is shouting at","","html-keyboard-response","146","703933","0.0-15.0-2.4","51431","List1A","black","woman","","","","null","","","",""
"7713","","","survey-text","147","711648","0.0-15.0-3.4","51431","List1A","black","woman","","","","","{""Q0"":""Fred is shouting at Beth""}","<img src=""stim_listA/shout1.gif""style=""height:400px;""></stim_listA>","is shouting at",""
"null","<div style=""font-size:60px;"">+</div>","","html-keyboard-response","148","712150","0.0-15.0-0.5","51431","List1A","black","woman","","","","null","","","",""
"null","<img src=""stim_listA/argue2.gif""style=""height:400px;""></stim_listA>","","html-keyboard-response","149","714152","0.0-15.0-1.5","51431","List1A","black","woman","","","","null","","","",""
"null","are arguing with each other","","html-keyboard-response","150","716154","0.0-15.0-2.5","51431","List1A","black","woman","","","","null","","","",""
"10948","","","survey-text","151","727104","0.0-15.0-3.5","51431","List1A","black","woman","","","","","{""Q0"":""Fred and Kate are arguing with each other""}","<img src=""stim_listA/argue2.gif""style=""height:400px;""></stim_listA>","are arguing with each other",""
"null","<div style=""font-size:60px;"">+</div>","","html-keyboard-response","152","727607","0.0-15.0-0.6","51431","List1A","black","woman","","","","null","","","",""
"null","<img src=""stim_listA/argue6.gif""style=""height:400px;""></stim_listA>","","html-keyboard-response","153","729609","0.0-15.0-1.6","51431","List1A","black","woman","","","","null","","","",""
"null","are arguing with each other","","html-keyboard-response","154","731612","0.0-15.0-2.6","51431","List1A","black","woman","","","","null","","","",""
"10034","","","survey-text","155","741648","0.0-15.0-3.6","51431","List1A","black","woman","","","","","{""Q0"":""Fred and Dave are arguing with each other""}","<img src=""stim_listA/argue6.gif""style=""height:400px;""></stim_listA>","are arguing with each other",""
"null","<div style=""font-size:60px;"">+</div>","","html-keyboard-response","156","742152","0.0-15.0-0.7","51431","List1A","black","woman","","","","null","","","",""
"null","<img src=""stim_listA/marry8.gif""style=""height:400px;""></stim_listA>","","html-keyboard-response","157","744155","0.0-15.0-1.7","51431","List1A","black","woman","","","","null","","","",""
"null","are marrying each other","","html-keyboard-response","158","746157","0.0-15.0-2.7","51431","List1A","black","woman","","","","null","","","",""
"10216","","","survey-text","159","756375","0.0-15.0-3.7","51431","List1A","black","woman","","","","","{""Q0"":""Jane and Fred are marrying each other""}","<img src=""stim_listA/marry8.gif""style=""height:400px;""></stim_listA>","are marrying each other",""
"null","<div style=""font-size:60px;"">+</div>","","html-keyboard-response","160","756876","0.0-15.0-0.8","51431","List1A","black","woman","","","","null","","","",""
"null","<img src=""stim_listA/shout6.gif""style=""height:400px;""></stim_listA>","","html-keyboard-response","161","758879","0.0-15.0-1.8","51431","List1A","black","woman","","","","null","","","",""
"null","are shouting at each other","","html-keyboard-response","162","760881","0.0-15.0-2.8","51431","List1A","black","woman","","","","null","","","",""
"9766","","","survey-text","163","770649","0.0-15.0-3.8","51431","List1A","black","woman","","","","","{""Q0"":""Dave and Mike are shouting at each other""}","<img src=""stim_listA/shout6.gif""style=""height:400px;""></stim_listA>","are shouting at each other",""
"null","<div style=""font-size:60px;"">+</div>","","html-keyboard-response","164","771152","0.0-15.0-0.9","51431","List1A","black","woman","","","","null","","","",""
"null","<img src=""stim_listA/talk8.gif""style=""height:400px;""></stim_listA>","","html-keyboard-response","165","773156","0.0-15.0-1.9","51431","List1A","black","woman","","","","null","","","",""
"null","are talking to each other","","html-keyboard-response","166","775157","0.0-15.0-2.9","51431","List1A","black","woman","","","","null","","","",""
"10295","","","survey-text","167","785454","0.0-15.0-3.9","51431","List1A","black","woman","","","","","{""Q0"":""Ruth and Kate are talking to each other""}","<img src=""stim_listA/talk8.gif""style=""height:400px;""></stim_listA>","are talking to each other",""
"null","<div style=""font-size:60px;"">+</div>","","html-keyboard-response","168","785956","0.0-15.0-0.10","51431","List1A","black","woman","","","","null","","","",""
"null","<img src=""stim_listA/talk4.gif""style=""height:400px;""></stim_listA>","","html-keyboard-response","169","787958","0.0-15.0-1.10","51431","List1A","black","woman","","","","null","","","",""
"null","are talking to each other","","html-keyboard-response","170","789960","0.0-15.0-2.10","51431","List1A","black","woman","","","","null","","","",""
"9085","","","survey-text","171","799047","0.0-15.0-3.10","51431","List1A","black","woman","","","","","{""Q0"":""Ruth and Dave are talking to each other""}","<img src=""stim_listA/talk4.gif""style=""height:400px;""></stim_listA>","are talking to each other",""
"null","<div style=""font-size:60px;"">+</div>","","html-keyboard-response","172","799551","0.0-15.0-0.11","51431","List1A","black","woman","","","","null","","","",""
"null","<img src=""stim_listA/marry1.gif""style=""height:400px;""></stim_listA>","","html-keyboard-response","173","801553","0.0-15.0-1.11","51431","List1A","black","woman","","","","null","","","",""
"null","is marrying","","html-keyboard-response","174","803554","0.0-15.0-2.11","51431","List1A","black","woman","","","","null","","","",""
"12555","","","survey-text","175","816111","0.0-15.0-3.11","51431","List1A","black","woman","","","","","{""Q0"":""Beth is marrying Mike""}","<img src=""stim_listA/marry1.gif""style=""height:400px;""></stim_listA>","is marrying",""
"null","<div style=""font-size:60px;"">+</div>","","html-keyboard-response","176","816614","0.0-15.0-0.12","51431","List1A","black","woman","","","","null","","","",""
"null","<img src=""stim_listA/touch6.gif""style=""height:400px;""></stim_listA>","","html-keyboard-response","177","818616","0.0-15.0-1.12","51431","List1A","black","woman","","","","null","","","",""
"null","are touching each other","","html-keyboard-response","178","820619","0.0-15.0-2.12","51431","List1A","black","woman","","","","null","","","",""
"9968","","","survey-text","179","830589","0.0-15.0-3.12","51431","List1A","black","woman","","","","","{""Q0"":""Fred and Luke are touching each other""}","<img src=""stim_listA/touch6.gif""style=""height:400px;""></stim_listA>","are touching each other",""
"null","<div style=""font-size:60px;"">+</div>","","html-keyboard-response","180","831092","0.0-15.0-0.13","51431","List1A","black","woman","","","","null","","","",""
"null","<img src=""stim_listA/argue1.gif""style=""height:400px;""></stim_listA>","","html-keyboard-response","181","833097","0.0-15.0-1.13","51431","List1A","black","woman","","","","null","","","",""
"null","is arguing with","","html-keyboard-response","182","835099","0.0-15.0-2.13","51431","List1A","black","woman","","","","null","","","",""
"6428","","","survey-text","183","841529","0.0-15.0-3.13","51431","List1A","black","woman","","","","","{""Q0"":""Beth is arguing with Mike""}","<img src=""stim_listA/argue1.gif""style=""height:400px;""></stim_listA>","is arguing with",""
"null","<div style=""font-size:60px;"">+</div>","","html-keyboard-response","184","842031","0.0-15.0-0.14","51431","List1A","black","woman","","","","null","","","",""
"null","<img src=""stim_listA/dance1.gif""style=""height:400px;""></stim_listA>","","html-keyboard-response","185","844035","0.0-15.0-1.14","51431","List1A","black","woman","","","","null","","","",""
"null","is dancing with","","html-keyboard-response","186","846036","0.0-15.0-2.14","51431","List1A","black","woman","","","","null","","","",""
"7601","","","survey-text","187","853639","0.0-15.0-3.14","51431","List1A","black","woman","","","","","{""Q0"":""Kate is dancing with Fred""}","<img src=""stim_listA/dance1.gif""style=""height:400px;""></stim_listA>","is dancing with",""
"null","<div style=""font-size:60px;"">+</div>","","html-keyboard-response","188","854142","0.0-15.0-0.15","51431","List1A","black","woman","","","","null","","","",""
"null","<img src=""stim_listA/talk2.gif""style=""height:400px;""></stim_listA>","","html-keyboard-response","189","856146","0.0-15.0-1.15","51431","List1A","black","woman","","","","null","","","",""
"null","are talking to each other","","html-keyboard-response","190","858148","0.0-15.0-2.15","51431","List1A","black","woman","","","","null","","","",""
"10141","","","survey-text","191","868291","0.0-15.0-3.15","51431","List1A","black","woman","","","","","{""Q0"":""Beth and Mike are talking to each other""}","<img src=""stim_listA/talk2.gif""style=""height:400px;""></stim_listA>","are talking to each other",""
"null","<div style=""font-size:60px;"">+</div>","","html-keyboard-response","192","868794","0.0-15.0-0.16","51431","List1A","black","woman","","","","null","","","",""
"null","<img src=""stim_listA/talk5.gif""style=""height:400px;""></stim_listA>","","html-keyboard-response","193","870797","0.0-15.0-1.16","51431","List1A","black","woman","","","","null","","","",""
"null","is talking to","","html-keyboard-response","194","872798","0.0-15.0-2.16","51431","List1A","black","woman","","","","null","","","",""
"6571","","","survey-text","195","879372","0.0-15.0-3.16","51431","List1A","black","woman","","","","","{""Q0"":""Dave is talking to Fred""}","<img src=""stim_listA/talk5.gif""style=""height:400px;""></stim_listA>","is talking to",""
"null","<div style=""font-size:60px;"">+</div>","","html-keyboard-response","196","879875","0.0-15.0-0.17","51431","List1A","black","woman","","","","null","","","",""
"null","<img src=""stim_listA/shout5.gif""style=""height:400px;""></stim_listA>","","html-keyboard-response","197","881878","0.0-15.0-1.17","51431","List1A","black","woman","","","","null","","","",""
"null","is shouting at","","html-keyboard-response","198","883880","0.0-15.0-2.17","51431","List1A","black","woman","","","","null","","","",""
"16616","","","survey-text","199","900497","0.0-15.0-3.17","51431","List1A","black","woman","","","","","{""Q0"":""Fred is shouting at Luke""}","<img src=""stim_listA/shout5.gif""style=""height:400px;""></stim_listA>","is shouting at",""
"null","<div style=""font-size:60px;"">+</div>","","html-keyboard-response","200","900999","0.0-15.0-0.18","51431","List1A","black","woman","","","","null","","","",""
"null","<img src=""stim_listA/flirt6.gif""style=""height:400px;""></stim_listA>","","html-keyboard-response","201","903002","0.0-15.0-1.18","51431","List1A","black","woman","","","","null","","","",""
"null","are flirting with each other","","html-keyboard-response","202","905004","0.0-15.0-2.18","51431","List1A","black","woman","","","","null","","","",""
"10244","","","survey-text","203","915250","0.0-15.0-3.18","51431","List1A","black","woman","","","","","{""Q0"":""Luke and Mike are flirting with each other""}","<img src=""stim_listA/flirt6.gif""style=""height:400px;""></stim_listA>","are flirting with each other",""
"null","<div style=""font-size:60px;"">+</div>","","html-keyboard-response","204","915766","0.0-15.0-0.19","51431","List1A","black","woman","","","","null","","","",""
"null","<img src=""stim_listA/flirt2.gif""style=""height:400px;""></stim_listA>","","html-keyboard-response","205","917769","0.0-15.0-1.19","51431","List1A","black","woman","","","","null","","","",""
"null","are flirting with each other","","html-keyboard-response","206","919770","0.0-15.0-2.19","51431","List1A","black","woman","","","","null","","","",""
"8752","","","survey-text","207","928525","0.0-15.0-3.19","51431","List1A","black","woman","","","","","{""Q0"":""Beth and Mike are flirting with each other""}","<img src=""stim_listA/flirt2.gif""style=""height:400px;""></stim_listA>","are flirting with each other",""
"8170","<img src='img/portrait_matrix_list1.jpg' style='width:900px;height:500px;''></img><p>If you have memorised all the portraits and names and are ready to start, press Continue.</p><p><strong>Please note: Your memory of these faces will be tested 4 times during this experiment.</strong></p>","0","html-button-response","208","936697","0.0-16.0-0.0","51431","List1A","black","woman","","","","","","","",""
"2378","<img src=""portrait/BM1.jpg""style=""height:400px;""></img>","4","html-button-response","209","940078","0.0-16.0-1.0","51431","List1A","black","woman","","true","4","","","","",""
"null","CORRECT","","html-keyboard-response","210","941581","0.0-16.0-2.0-0.0","51431","List1A","black","woman","","","","null","","","",""
"1919","<img src=""portrait/WW1.jpg""style=""height:400px;""></img>","1","html-button-response","211","943503","0.0-16.0-4.0","51431","List1A","black","woman","","true","1","","","","",""
"null","CORRECT","","html-keyboard-response","212","945007","0.0-16.0-5.0-0.0","51431","List1A","black","woman","","","","null","","","",""
"1289","<img src=""portrait/WW2.jpg""style=""height:400px;""></img>","3","html-button-response","213","946299","0.0-16.0-7.0","51431","List1A","black","woman","","true","3","","","","",""
"null","CORRECT","","html-keyboard-response","214","947803","0.0-16.0-8.0-0.0","51431","List1A","black","woman","","","","null","","","",""
"2789","<img src=""portrait/BW2.jpg""style=""height:400px;""></img>","2","html-button-response","215","950595","0.0-16.0-10.0","51431","List1A","black","woman","","true","2","","","","",""
"null","CORRECT","","html-keyboard-response","216","952099","0.0-16.0-11.0-0.0","51431","List1A","black","woman","","","","null","","","",""
"1931","<img src=""portrait/WM2.jpg""style=""height:400px;""></img>","7","html-button-response","217","954032","0.0-16.0-13.0","51431","List1A","black","woman","","true","7","","","","",""
"null","CORRECT","","html-keyboard-response","218","955535","0.0-16.0-14.0-0.0","51431","List1A","black","woman","","","","null","","","",""
"2300","<img src=""portrait/BM2.jpg""style=""height:400px;""></img>","5","html-button-response","219","957837","0.0-16.0-16.0","51431","List1A","black","woman","","true","5","","","","",""
"null","CORRECT","","html-keyboard-response","220","959341","0.0-16.0-17.0-0.0","51431","List1A","black","woman","","","","null","","","",""
"2334","<img src=""portrait/BW1.jpg""style=""height:400px;""></img>","0","html-button-response","221","961677","0.0-16.0-19.0","51431","List1A","black","woman","","true","0","","","","",""
"null","CORRECT","","html-keyboard-response","222","963181","0.0-16.0-20.0-0.0","51431","List1A","black","woman","","","","null","","","",""
"2482","<img src=""portrait/WM1.jpg""style=""height:400px;""></img>","6","html-button-response","223","965665","0.0-16.0-22.0","51431","List1A","black","woman","","true","6","","","","",""
"null","CORRECT","","html-keyboard-response","224","967167","0.0-16.0-23.0-0.0","51431","List1A","black","woman","","","","null","","","",""
"1665","<p>You got 8 out of 8 right first time. Press Continue.</p>","0","html-button-response","225","968834","0.0-16.0-25.0","51431","List1A","black","woman","","","","","","","",""
"null","<div style=""font-size:60px;"">+</div>","","html-keyboard-response","226","970338","0.0-17.0-0.0","51431","List1A","black","woman","","","","null","","","",""
"null","<img src=""stim_listA/play7.gif""style=""height:400px;""></stim_listA>","","html-keyboard-response","227","972341","0.0-17.0-1.0","51431","List1A","black","woman","","","","null","","","",""
"null","is playing with","","html-keyboard-response","228","974342","0.0-17.0-2.0","51431","List1A","black","woman","","","","null","","","",""
"8158","","","survey-text","229","982502","0.0-17.0-3.0","51431","List1A","black","woman","","","","","{""Q0"":""Kate is playing with Jane""}","<img src=""stim_listA/play7.gif""style=""height:400px;""></stim_listA>","is playing with",""
"null","<div style=""font-size:60px;"">+</div>","","html-keyboard-response","230","983005","0.0-17.0-0.1","51431","List1A","black","woman","","","","null","","","",""
"null","<img src=""stim_listA/dance6.gif""style=""height:400px;""></stim_listA>","","html-keyboard-response","231","985007","0.0-17.0-1.1","51431","List1A","black","woman","","","","null","","","",""
"null","are dancing with each other","","html-keyboard-response","232","987010","0.0-17.0-2.1","51431","List1A","black","woman","","","","null","","","",""
"12975","","","survey-text","233","999987","0.0-17.0-3.1","51431","List1A","black","woman","","","","","{""Q0"":""Mike and Luke are talking to each other""}","<img src=""stim_listA/dance6.gif""style=""height:400px;""></stim_listA>","are dancing with each other",""
"null","<div style=""font-size:60px;"">+</div>","","html-keyboard-response","234","1000489","0.0-17.0-0.2","51431","List1A","black","woman","","","","null","","","",""
"null","<img src=""stim_listA/flirt5.gif""style=""height:400px;""></stim_listA>","","html-keyboard-response","235","1002493","0.0-17.0-1.2","51431","List1A","black","woman","","","","null","","","",""
"null","is flirting with","","html-keyboard-response","236","1004494","0.0-17.0-2.2","51431","List1A","black","woman","","","","null","","","",""
"7009","","","survey-text","237","1011505","0.0-17.0-3.2","51431","List1A","black","woman","","","","","{""Q0"":""Fred is flirting with Dave""}","<img src=""stim_listA/flirt5.gif""style=""height:400px;""></stim_listA>","is flirting with",""
"null","<div style=""font-size:60px;"">+</div>","","html-keyboard-response","238","1012007","0.0-17.0-0.3","51431","List1A","black","woman","","","","null","","","",""
"null","<img src=""stim_listA/shout7.gif""style=""height:400px;""></stim_listA>","","html-keyboard-response","239","1014010","0.0-17.0-1.3","51431","List1A","black","woman","","","","null","","","",""
"null","is shouting at","","html-keyboard-response","240","1016012","0.0-17.0-2.3","51431","List1A","black","woman","","","","null","","","",""
"7821","","","survey-text","241","1023835","0.0-17.0-3.3","51431","List1A","black","woman","","","","","{""Q0"":""Beth is shouting at Ruth""}","<img src=""stim_listA/shout7.gif""style=""height:400px;""></stim_listA>","is shouting at",""
"null","<div style=""font-size:60px;"">+</div>","","html-keyboard-response","242","1024338","0.0-17.0-0.4","51431","List1A","black","woman","","","","null","","","",""
"null","<img src=""stim_listA/fight8.gif""style=""height:400px;""></stim_listA>","","html-keyboard-response","243","1026342","0.0-17.0-1.4","51431","List1A","black","woman","","","","null","","","",""
"null","are fighting each other","","html-keyboard-response","244","1028344","0.0-17.0-2.4","51431","List1A","black","woman","","","","null","","","",""
"9132","","","survey-text","245","1037477","0.0-17.0-3.4","51431","List1A","black","woman","","","","","{""Q0"":""Beth and Ruth are fighting each other""}","<img src=""stim_listA/fight8.gif""style=""height:400px;""></stim_listA>","are fighting each other",""
"null","<div style=""font-size:60px;"">+</div>","","html-keyboard-response","246","1037979","0.0-17.0-0.5","51431","List1A","black","woman","","","","null","","","",""
"null","<img src=""stim_listA/kiss2.gif""style=""height:400px;""></stim_listA>","","html-keyboard-response","247","1039982","0.0-17.0-1.5","51431","List1A","black","woman","","","","null","","","",""
"null","are kissing each other","","html-keyboard-response","248","1041984","0.0-17.0-2.5","51431","List1A","black","woman","","","","null","","","",""
"11994","","","survey-text","249","1053979","0.0-17.0-3.5","51431","List1A","black","woman","","","","","{""Q0"":""Mike and Kate are kissing each other""}","<img src=""stim_listA/kiss2.gif""style=""height:400px;""></stim_listA>","are kissing each other",""
"null","<div style=""font-size:60px;"">+</div>","","html-keyboard-response","250","1054482","0.0-17.0-0.6","51431","List1A","black","woman","","","","null","","","",""
"null","<img src=""stim_listA/dance3.gif""style=""height:400px;""></stim_listA>","","html-keyboard-response","251","1056487","0.0-17.0-1.6","51431","List1A","black","woman","","","","null","","","",""
"null","is dancing with","","html-keyboard-response","252","1058489","0.0-17.0-2.6","51431","List1A","black","woman","","","","null","","","",""
"6487","","","survey-text","253","1064977","0.0-17.0-3.6","51431","List1A","black","woman","","","","","{""Q0"":""Luke is dancing with Jane""}","<img src=""stim_listA/dance3.gif""style=""height:400px;""></stim_listA>","is dancing with",""
"null","<div style=""font-size:60px;"">+</div>","","html-keyboard-response","254","1065479","0.0-17.0-0.7","51431","List1A","black","woman","","","","null","","","",""
"null","<img src=""stim_listA/talk1.gif""style=""height:400px;""></stim_listA>","","html-keyboard-response","255","1067484","0.0-17.0-1.7","51431","List1A","black","woman","","","","null","","","",""
"null","is talking to","","html-keyboard-response","256","1069485","0.0-17.0-2.7","51431","List1A","black","woman","","","","null","","","",""
"6387","","","survey-text","257","1075874","0.0-17.0-3.7","51431","List1A","black","woman","","","","","{""Q0"":""Kate is talking to Fred""}","<img src=""stim_listA/talk1.gif""style=""height:400px;""></stim_listA>","is talking to",""
"null","<div style=""font-size:60px;"">+</div>","","html-keyboard-response","258","1076375","0.0-17.0-0.8","51431","List1A","black","woman","","","","null","","","",""
"null","<img src=""stim_listA/play8.gif""style=""height:400px;""></stim_listA>","","html-keyboard-response","259","1078377","0.0-17.0-1.8","51431","List1A","black","woman","","","","null","","","",""
"null","are playing with each other","","html-keyboard-response","260","1080379","0.0-17.0-2.8","51431","List1A","black","woman","","","","null","","","",""
"17975","","","survey-text","261","1098356","0.0-17.0-3.8","51431","List1A","black","woman","","","","","{""Q0"":""Ruth and Beth are playing with each other""}","<img src=""stim_listA/play8.gif""style=""height:400px;""></stim_listA>","are playing with each other",""
"null","<div style=""font-size:60px;"">+</div>","","html-keyboard-response","262","1098858","0.0-17.0-0.9","51431","List1A","black","woman","","","","null","","","",""
"null","<img src=""stim_listA/marry7.gif""style=""height:400px;""></stim_listA>","","html-keyboard-response","263","1100861","0.0-17.0-1.9","51431","List1A","black","woman","","","","null","","","",""
"null","is marrying","","html-keyboard-response","264","1102864","0.0-17.0-2.9","51431","List1A","black","woman","","","","null","","","",""
"10083","","","survey-text","265","1112948","0.0-17.0-3.9","51431","List1A","black","woman","","","","","{""Q0"":""Kate is marrying Ruth""}","<img src=""stim_listA/marry7.gif""style=""height:400px;""></stim_listA>","is marrying",""
"null","<div style=""font-size:60px;"">+</div>","","html-keyboard-response","266","1113451","0.0-17.0-0.10","51431","List1A","black","woman","","","","null","","","",""
"null","<img src=""stim_listA/shout4.gif""style=""height:400px;""></stim_listA>","","html-keyboard-response","267","1115455","0.0-17.0-1.10","51431","List1A","black","woman","","","","null","","","",""
"null","are shouting at each other","","html-keyboard-response","268","1117457","0.0-17.0-2.10","51431","List1A","black","woman","","","","null","","","",""
"11847","","","survey-text","269","1129306","0.0-17.0-3.10","51431","List1A","black","woman","","","","","{""Q0"":""Jane and Dave are shouting at each other""}","<img src=""stim_listA/shout4.gif""style=""height:400px;""></stim_listA>","are shouting at each other",""
"null","<div style=""font-size:60px;"">+</div>","","html-keyboard-response","270","1129809","0.0-17.0-0.11","51431","List1A","black","woman","","","","null","","","",""
"null","<img src=""stim_listA/touch3.gif""style=""height:400px;""></stim_listA>","","html-keyboard-response","271","1131815","0.0-17.0-1.11","51431","List1A","black","woman","","","","null","","","",""
"null","is touching","","html-keyboard-response","272","1133818","0.0-17.0-2.11","51431","List1A","black","woman","","","","null","","","",""
"8014","","","survey-text","273","1141836","0.0-17.0-3.11","51431","List1A","black","woman","","","","","{""Q0"":""Dave is touching Jane""}","<img src=""stim_listA/touch3.gif""style=""height:400px;""></stim_listA>","is touching",""
"null","<div style=""font-size:60px;"">+</div>","","html-keyboard-response","274","1142339","0.0-17.0-0.12","51431","List1A","black","woman","","","","null","","","",""
"null","<img src=""stim_listA/play4.gif""style=""height:400px;""></stim_listA>","","html-keyboard-response","275","1144342","0.0-17.0-1.12","51431","List1A","black","woman","","","","null","","","",""
"null","are playing with each other","","html-keyboard-response","276","1146345","0.0-17.0-2.12","51431","List1A","black","woman","","","","null","","","",""
"9168","","","survey-text","277","1155515","0.0-17.0-3.12","51431","List1A","black","woman","","","","","{""Q0"":""Luke and Ruth are playing with each other""}","<img src=""stim_listA/play4.gif""style=""height:400px;""></stim_listA>","are playing with each other",""
"null","<div style=""font-size:60px;"">+</div>","","html-keyboard-response","278","1156016","0.0-17.0-0.13","51431","List1A","black","woman","","","","null","","","",""
"null","<img src=""stim_listA/play1.gif""style=""height:400px;""></stim_listA>","","html-keyboard-response","279","1158020","0.0-17.0-1.13","51431","List1A","black","woman","","","","null","","","",""
"null","is playing with","","html-keyboard-response","280","1160021","0.0-17.0-2.13","51431","List1A","black","woman","","","","null","","","",""
"7042","","","survey-text","281","1167065","0.0-17.0-3.13","51431","List1A","black","woman","","","","","{""Q0"":""Kate is playing with Mike""}","<img src=""stim_listA/play1.gif""style=""height:400px;""></stim_listA>","is playing with",""
"null","<div style=""font-size:60px;"">+</div>","","html-keyboard-response","282","1167567","0.0-17.0-0.14","51431","List1A","black","woman","","","","null","","","",""
"null","<img src=""stim_listA/kiss7.gif""style=""height:400px;""></stim_listA>","","html-keyboard-response","283","1169569","0.0-17.0-1.14","51431","List1A","black","woman","","","","null","","","",""
"null","is kissing","","html-keyboard-response","284","1171570","0.0-17.0-2.14","51431","List1A","black","woman","","","","null","","","",""
"6373","","","survey-text","285","1177945","0.0-17.0-3.14","51431","List1A","black","woman","","","","","{""Q0"":""Beth is kissing Ruth""}","<img src=""stim_listA/kiss7.gif""style=""height:400px;""></stim_listA>","is kissing",""
"null","<div style=""font-size:60px;"">+</div>","","html-keyboard-response","286","1178447","0.0-17.0-0.15","51431","List1A","black","woman","","","","null","","","",""
"null","<img src=""stim_listA/touch1.gif""style=""height:400px;""></stim_listA>","","html-keyboard-response","287","1180452","0.0-17.0-1.15","51431","List1A","black","woman","","","","null","","","",""
"null","is touching","","html-keyboard-response","288","1182454","0.0-17.0-2.15","51431","List1A","black","woman","","","","null","","","",""
"6484","","","survey-text","289","1188940","0.0-17.0-3.15","51431","List1A","black","woman","","","","","{""Q0"":""Kate is touching Mike""}","<img src=""stim_listA/touch1.gif""style=""height:400px;""></stim_listA>","is touching",""
"null","<div style=""font-size:60px;"">+</div>","","html-keyboard-response","290","1189444","0.0-17.0-0.16","51431","List1A","black","woman","","","","null","","","",""
"null","<img src=""stim_listA/fight3.gif""style=""height:400px;""></stim_listA>","","html-keyboard-response","291","1191447","0.0-17.0-1.16","51431","List1A","black","woman","","","","null","","","",""
"null","is fighting","","html-keyboard-response","292","1193449","0.0-17.0-2.16","51431","List1A","black","woman","","","","null","","","",""
"5889","","","survey-text","293","1199340","0.0-17.0-3.16","51431","List1A","black","woman","","","","","{""Q0"":""Jane is fighting Dave""}","<img src=""stim_listA/fight3.gif""style=""height:400px;""></stim_listA>","is fighting",""
"null","<div style=""font-size:60px;"">+</div>","","html-keyboard-response","294","1199843","0.0-17.0-0.17","51431","List1A","black","woman","","","","null","","","",""
"null","<img src=""stim_listA/fight1.gif""style=""height:400px;""></stim_listA>","","html-keyboard-response","295","1201845","0.0-17.0-1.17","51431","List1A","black","woman","","","","null","","","",""
"null","is fighting","","html-keyboard-response","296","1203848","0.0-17.0-2.17","51431","List1A","black","woman","","","","null","","","",""
"7982","","","survey-text","297","1211831","0.0-17.0-3.17","51431","List1A","black","woman","","","","","{""Q0"":""Mike is fighting Kate""}","<img src=""stim_listA/fight1.gif""style=""height:400px;""></stim_listA>","is fighting",""
"null","<div style=""font-size:60px;"">+</div>","","html-keyboard-response","298","1212334","0.0-17.0-0.18","51431","List1A","black","woman","","","","null","","","",""
"null","<img src=""stim_listA/play5.gif""style=""height:400px;""></stim_listA>","","html-keyboard-response","299","1214338","0.0-17.0-1.18","51431","List1A","black","woman","","","","null","","","",""
"null","is playing with","","html-keyboard-response","300","1216341","0.0-17.0-2.18","51431","List1A","black","woman","","","","null","","","",""
"6598","","","survey-text","301","1222942","0.0-17.0-3.18","51431","List1A","black","woman","","","","","{""Q0"":""Mike is playing with Dave""}","<img src=""stim_listA/play5.gif""style=""height:400px;""></stim_listA>","is playing with",""
"null","<div style=""font-size:60px;"">+</div>","","html-keyboard-response","302","1223445","0.0-17.0-0.19","51431","List1A","black","woman","","","","null","","","",""
"null","<img src=""stim_listA/kiss1.gif""style=""height:400px;""></stim_listA>","","html-keyboard-response","303","1225448","0.0-17.0-1.19","51431","List1A","black","woman","","","","null","","","",""
"null","is kissing","","html-keyboard-response","304","1227451","0.0-17.0-2.19","51431","List1A","black","woman","","","","null","","","",""
"10292","","","survey-text","305","1237744","0.0-17.0-3.19","51431","List1A","black","woman","","","","","{""Q0"":""Beth is kissing Fred""}","<img src=""stim_listA/kiss1.gif""style=""height:400px;""></stim_listA>","is kissing",""
"5682","<img src='img/portrait_matrix_list1.jpg' style='width:900px;height:500px;''></img><p>If you have memorised all the portraits and names and are ready to start, press Continue.</p><p><strong>Please note: Your memory of these faces will be tested 4 times during this experiment.</strong></p>","0","html-button-response","306","1243429","0.0-18.0-0.0","51431","List1A","black","woman","","","","","","","",""
"2392","<img src=""portrait/WW1.jpg""style=""height:400px;""></img>","1","html-button-response","307","1246826","0.0-18.0-1.0","51431","List1A","black","woman","","true","1","","","","",""
"null","CORRECT","","html-keyboard-response","308","1248330","0.0-18.0-2.0-0.0","51431","List1A","black","woman","","","","null","","","",""
"2585","<img src=""portrait/WM1.jpg""style=""height:400px;""></img>","6","html-button-response","309","1250918","0.0-18.0-4.0","51431","List1A","black","woman","","true","6","","","","",""
"null","CORRECT","","html-keyboard-response","310","1252425","0.0-18.0-5.0-0.0","51431","List1A","black","woman","","","","null","","","",""
"1474","<img src=""portrait/WW2.jpg""style=""height:400px;""></img>","3","html-button-response","311","1253902","0.0-18.0-7.0","51431","List1A","black","woman","","true","3","","","","",""
"null","CORRECT","","html-keyboard-response","312","1255407","0.0-18.0-8.0-0.0","51431","List1A","black","woman","","","","null","","","",""
"1858","<img src=""portrait/BM1.jpg""style=""height:400px;""></img>","4","html-button-response","313","1257267","0.0-18.0-10.0","51431","List1A","black","woman","","true","4","","","","",""
"null","CORRECT","","html-keyboard-response","314","1258771","0.0-18.0-11.0-0.0","51431","List1A","black","woman","","","","null","","","",""
"2246","<img src=""portrait/BM2.jpg""style=""height:400px;""></img>","5","html-button-response","315","1261020","0.0-18.0-13.0","51431","List1A","black","woman","","true","5","","","","",""
"null","CORRECT","","html-keyboard-response","316","1262523","0.0-18.0-14.0-0.0","51431","List1A","black","woman","","","","null","","","",""
"2140","<img src=""portrait/BW2.jpg""style=""height:400px;""></img>","2","html-button-response","317","1264665","0.0-18.0-16.0","51431","List1A","black","woman","","true","2","","","","",""
"null","CORRECT","","html-keyboard-response","318","1266168","0.0-18.0-17.0-0.0","51431","List1A","black","woman","","","","null","","","",""
"2246","<img src=""portrait/WM2.jpg""style=""height:400px;""></img>","7","html-button-response","319","1268416","0.0-18.0-19.0","51431","List1A","black","woman","","true","7","","","","",""
"null","CORRECT","","html-keyboard-response","320","1269919","0.0-18.0-20.0-0.0","51431","List1A","black","woman","","","","null","","","",""
"4737","<img src=""portrait/BW1.jpg""style=""height:400px;""></img>","0","html-button-response","321","1274658","0.0-18.0-22.0","51431","List1A","black","woman","","true","0","","","","",""
"null","CORRECT","","html-keyboard-response","322","1276162","0.0-18.0-23.0-0.0","51431","List1A","black","woman","","","","null","","","",""
"1720","<p>You got 8 out of 8 right first time. Press Continue.</p>","0","html-button-response","323","1277884","0.0-18.0-25.0","51431","List1A","black","woman","","","","","","","",""
"null","<div style=""font-size:60px;"">+</div>","","html-keyboard-response","324","1279388","0.0-19.0-0.0","51431","List1A","black","woman","","","","null","","","",""
"null","<img src=""stim_listA/fight5.gif""style=""height:400px;""></stim_listA>","","html-keyboard-response","325","1281391","0.0-19.0-1.0","51431","List1A","black","woman","","","","null","","","",""
"null","is fighting","","html-keyboard-response","326","1283393","0.0-19.0-2.0","51431","List1A","black","woman","","","","null","","","",""
"7922","","","survey-text","327","1291317","0.0-19.0-3.0","51431","List1A","black","woman","","","","","{""Q0"":""Dave is fighting Mike""}","<img src=""stim_listA/fight5.gif""style=""height:400px;""></stim_listA>","is fighting",""
"null","<div style=""font-size:60px;"">+</div>","","html-keyboard-response","328","1291821","0.0-19.0-0.1","51431","List1A","black","woman","","","","null","","","",""
"null","<img src=""stim_listA/kiss8.gif""style=""height:400px;""></stim_listA>","","html-keyboard-response","329","1293824","0.0-19.0-1.1","51431","List1A","black","woman","","","","null","","","",""
"null","are kissing each other","","html-keyboard-response","330","1295826","0.0-19.0-2.1","51431","List1A","black","woman","","","","null","","","",""
"8226","","","survey-text","331","1304053","0.0-19.0-3.1","51431","List1A","black","woman","","","","","{""Q0"":""Jane and Kate are kissing each other""}","<img src=""stim_listA/kiss8.gif""style=""height:400px;""></stim_listA>","are kissing each other",""
"null","<div style=""font-size:60px;"">+</div>","","html-keyboard-response","332","1304556","0.0-19.0-0.2","51431","List1A","black","woman","","","","null","","","",""
"null","<img src=""stim_listA/dance2.gif""style=""height:400px;""></stim_listA>","","html-keyboard-response","333","1306560","0.0-19.0-1.2","51431","List1A","black","woman","","","","null","","","",""
"null","are dancing with each other","","html-keyboard-response","334","1308562","0.0-19.0-2.2","51431","List1A","black","woman","","","","null","","","",""
"10532","","","survey-text","335","1319096","0.0-19.0-3.2","51431","List1A","black","woman","","","","","{""Q0"":""Beth and Mike are dancing with each other""}","<img src=""stim_listA/dance2.gif""style=""height:400px;""></stim_listA>","are dancing with each other",""
"null","<div style=""font-size:60px;"">+</div>","","html-keyboard-response","336","1319598","0.0-19.0-0.3","51431","List1A","black","woman","","","","null","","","",""
"null","<img src=""stim_listA/shout2.gif""style=""height:400px;""></stim_listA>","","html-keyboard-response","337","1321602","0.0-19.0-1.3","51431","List1A","black","woman","","","","null","","","",""
"null","are shouting at each other","","html-keyboard-response","338","1323603","0.0-19.0-2.3","51431","List1A","black","woman","","","","null","","","",""
"9775","","","survey-text","339","1333378","0.0-19.0-3.3","51431","List1A","black","woman","","","","","{""Q0"":""Mike and Kate are shouting at each other""}","<img src=""stim_listA/shout2.gif""style=""height:400px;""></stim_listA>","are shouting at each other",""
"null","<div style=""font-size:60px;"">+</div>","","html-keyboard-response","340","1333881","0.0-19.0-0.4","51431","List1A","black","woman","","","","null","","","",""
"null","<img src=""stim_listA/fight7.gif""style=""height:400px;""></stim_listA>","","html-keyboard-response","341","1335885","0.0-19.0-1.4","51431","List1A","black","woman","","","","null","","","",""
"null","is fighting","","html-keyboard-response","342","1337887","0.0-19.0-2.4","51431","List1A","black","woman","","","","null","","","",""
"7147","","","survey-text","343","1345035","0.0-19.0-3.4","51431","List1A","black","woman","","","","","{""Q0"":""Kate is fighting Jane""}","<img src=""stim_listA/fight7.gif""style=""height:400px;""></stim_listA>","is fighting",""
"null","<div style=""font-size:60px;"">+</div>","","html-keyboard-response","344","1345539","0.0-19.0-0.5","51431","List1A","black","woman","","","","null","","","",""
"null","<img src=""stim_listA/touch7.gif""style=""height:400px;""></stim_listA>","","html-keyboard-response","345","1347543","0.0-19.0-1.5","51431","List1A","black","woman","","","","null","","","",""
"null","is touching","","html-keyboard-response","346","1349545","0.0-19.0-2.5","51431","List1A","black","woman","","","","null","","","",""
"5893","","","survey-text","347","1355440","0.0-19.0-3.5","51431","List1A","black","woman","","","","","{""Q0"":""Kate is touching Jane""}","<img src=""stim_listA/touch7.gif""style=""height:400px;""></stim_listA>","is touching",""
"null","<div style=""font-size:60px;"">+</div>","","html-keyboard-response","348","1355943","0.0-19.0-0.6","51431","List1A","black","woman","","","","null","","","",""
"null","<img src=""stim_listA/fight2.gif""style=""height:400px;""></stim_listA>","","html-keyboard-response","349","1357945","0.0-19.0-1.6","51431","List1A","black","woman","","","","null","","","",""
"null","are fighting each other","","html-keyboard-response","350","1359947","0.0-19.0-2.6","51431","List1A","black","woman","","","","null","","","",""
"8355","","","survey-text","351","1368304","0.0-19.0-3.6","51431","List1A","black","woman","","","","","{""Q0"":""Beth and Fred are fighting each other""}","<img src=""stim_listA/fight2.gif""style=""height:400px;""></stim_listA>","are fighting each other",""
"null","<div style=""font-size:60px;"">+</div>","","html-keyboard-response","352","1368807","0.0-19.0-0.7","51431","List1A","black","woman","","","","null","","","",""
"null","<img src=""stim_listA/flirt3.gif""style=""height:400px;""></stim_listA>","","html-keyboard-response","353","1370810","0.0-19.0-1.7","51431","List1A","black","woman","","","","null","","","",""
"null","is flirting with","","html-keyboard-response","354","1372813","0.0-19.0-2.7","51431","List1A","black","woman","","","","null","","","",""
"6834","","","survey-text","355","1379650","0.0-19.0-3.7","51431","List1A","black","woman","","","","","{""Q0"":""Luke is flirting with Jane""}","<img src=""stim_listA/flirt3.gif""style=""height:400px;""></stim_listA>","is flirting with",""
"null","<div style=""font-size:60px;"">+</div>","","html-keyboard-response","356","1380154","0.0-19.0-0.8","51431","List1A","black","woman","","","","null","","","",""
"null","<img src=""stim_listA/fight4.gif""style=""height:400px;""></stim_listA>","","html-keyboard-response","357","1382156","0.0-19.0-1.8","51431","List1A","black","woman","","","","null","","","",""
"null","are fighting each other","","html-keyboard-response","358","1384158","0.0-19.0-2.8","51431","List1A","black","woman","","","","null","","","",""
"8815","","","survey-text","359","1392974","0.0-19.0-3.8","51431","List1A","black","woman","","","","","{""Q0"":""Luke and Ruth are fighting each other""}","<img src=""stim_listA/fight4.gif""style=""height:400px;""></stim_listA>","are fighting each other",""
"null","<div style=""font-size:60px;"">+</div>","","html-keyboard-response","360","1393477","0.0-19.0-0.9","51431","List1A","black","woman","","","","null","","","",""
"null","<img src=""stim_listA/flirt1.gif""style=""height:400px;""></stim_listA>","","html-keyboard-response","361","1395483","0.0-19.0-1.9","51431","List1A","black","woman","","","","null","","","",""
"null","is flirting with","","html-keyboard-response","362","1397486","0.0-19.0-2.9","51431","List1A","black","woman","","","","null","","","",""
"13342","","","survey-text","363","1410829","0.0-19.0-3.9","51431","List1A","black","woman","","","","","{""Q0"":""Fred is talking to Kate""}","<img src=""stim_listA/flirt1.gif""style=""height:400px;""></stim_listA>","is flirting with",""
"null","<div style=""font-size:60px;"">+</div>","","html-keyboard-response","364","1411332","0.0-19.0-0.10","51431","List1A","black","woman","","","","null","","","",""
"null","<img src=""stim_listA/play3.gif""style=""height:400px;""></stim_listA>","","html-keyboard-response","365","1413336","0.0-19.0-1.10","51431","List1A","black","woman","","","","null","","","",""
"null","is playing with","","html-keyboard-response","366","1415338","0.0-19.0-2.10","51431","List1A","black","woman","","","","null","","","",""
"8069","","","survey-text","367","1423409","0.0-19.0-3.10","51431","List1A","black","woman","","","","","{""Q0"":""Jane is playing with Dave""}","<img src=""stim_listA/play3.gif""style=""height:400px;""></stim_listA>","is playing with",""
"null","<div style=""font-size:60px;"">+</div>","","html-keyboard-response","368","1423912","0.0-19.0-0.11","51431","List1A","black","woman","","","","null","","","",""
"null","<img src=""stim_listA/kiss3.gif""style=""height:400px;""></stim_listA>","","html-keyboard-response","369","1425914","0.0-19.0-1.11","51431","List1A","black","woman","","","","null","","","",""
"null","is kissing","","html-keyboard-response","370","1427917","0.0-19.0-2.11","51431","List1A","black","woman","","","","null","","","",""
"8061","","","survey-text","371","1435980","0.0-19.0-3.11","51431","List1A","black","woman","","","","","{""Q0"":""Luke is kissing Ruth""}","<img src=""stim_listA/kiss3.gif""style=""height:400px;""></stim_listA>","is kissing",""
"null","<div style=""font-size:60px;"">+</div>","","html-keyboard-response","372","1436483","0.0-19.0-0.12","51431","List1A","black","woman","","","","null","","","",""
"null","<img src=""stim_listA/argue3.gif""style=""height:400px;""></stim_listA>","","html-keyboard-response","373","1438487","0.0-19.0-1.12","51431","List1A","black","woman","","","","null","","","",""
"null","is arguing with","","html-keyboard-response","374","1440489","0.0-19.0-2.12","51431","List1A","black","woman","","","","null","","","",""
"8121","","","survey-text","375","1448612","0.0-19.0-3.12","51431","List1A","black","woman","","","","","{""Q0"":""Ruth is arguing with Dave""}","<img src=""stim_listA/argue3.gif""style=""height:400px;""></stim_listA>","is arguing with",""
"null","<div style=""font-size:60px;"">+</div>","","html-keyboard-response","376","1449115","0.0-19.0-0.13","51431","List1A","black","woman","","","","null","","","",""
"null","<img src=""stim_listA/touch4.gif""style=""height:400px;""></stim_listA>","","html-keyboard-response","377","1451119","0.0-19.0-1.13","51431","List1A","black","woman","","","","null","","","",""
"null","are touching each other","","html-keyboard-response","378","1453121","0.0-19.0-2.13","51431","List1A","black","woman","","","","null","","","",""
"8391","","","survey-text","379","1461512","0.0-19.0-3.13","51431","List1A","black","woman","","","","","{""Q0"":""Luke and Ruth are touching each other""}","<img src=""stim_listA/touch4.gif""style=""height:400px;""></stim_listA>","are touching each other",""
"null","<div style=""font-size:60px;"">+</div>","","html-keyboard-response","380","1462014","0.0-19.0-0.14","51431","List1A","black","woman","","","","null","","","",""
"null","<img src=""stim_listA/dance8.gif""style=""height:400px;""></stim_listA>","","html-keyboard-response","381","1464017","0.0-19.0-1.14","51431","List1A","black","woman","","","","null","","","",""
"null","are dancing with each other","","html-keyboard-response","382","1466019","0.0-19.0-2.14","51431","List1A","black","woman","","","","null","","","",""
"9864","","","survey-text","383","1475884","0.0-19.0-3.14","51431","List1A","black","woman","","","","","{""Q0"":""Ruth and Kate are dancing with each other""}","<img src=""stim_listA/dance8.gif""style=""height:400px;""></stim_listA>","are dancing with each other",""
"null","<div style=""font-size:60px;"">+</div>","","html-keyboard-response","384","1476387","0.0-19.0-0.15","51431","List1A","black","woman","","","","null","","","",""
"null","<img src=""stim_listA/kiss5.gif""style=""height:400px;""></stim_listA>","","html-keyboard-response","385","1478390","0.0-19.0-1.15","51431","List1A","black","woman","","","","null","","","",""
"null","is kissing","","html-keyboard-response","386","1480394","0.0-19.0-2.15","51431","List1A","black","woman","","","","null","","","",""
"8221","","","survey-text","387","1488617","0.0-19.0-3.15","51431","List1A","black","woman","","","","","{""Q0"":""Luke is kissing Fred""}","<img src=""stim_listA/kiss5.gif""style=""height:400px;""></stim_listA>","is kissing",""
"null","<div style=""font-size:60px;"">+</div>","","html-keyboard-response","388","1489118","0.0-19.0-0.16","51431","List1A","black","woman","","","","null","","","",""
"null","<img src=""stim_listA/argue4.gif""style=""height:400px;""></stim_listA>","","html-keyboard-response","389","1491121","0.0-19.0-1.16","51431","List1A","black","woman","","","","null","","","",""
"null","are arguing with each other","","html-keyboard-response","390","1493123","0.0-19.0-2.16","51431","List1A","black","woman","","","","null","","","",""
"8949","","","survey-text","391","1502075","0.0-19.0-3.16","51431","List1A","black","woman","","","","","{""Q0"":""Luke and Jane are arguing with each other""}","<img src=""stim_listA/argue4.gif""style=""height:400px;""></stim_listA>","are arguing with each other",""
"null","<div style=""font-size:60px;"">+</div>","","html-keyboard-response","392","1502578","0.0-19.0-0.17","51431","List1A","black","woman","","","","null","","","",""
"null","<img src=""stim_listA/marry6.gif""style=""height:400px;""></stim_listA>","","html-keyboard-response","393","1504582","0.0-19.0-1.17","51431","List1A","black","woman","","","","null","","","",""
"null","are marrying each other","","html-keyboard-response","394","1506583","0.0-19.0-2.17","51431","List1A","black","woman","","","","null","","","",""
"9663","","","survey-text","395","1516247","0.0-19.0-3.17","51431","List1A","black","woman","","","","","{""Q0"":""Dave and Fred are marrying each other""}","<img src=""stim_listA/marry6.gif""style=""height:400px;""></stim_listA>","are marrying each other",""
"null","<div style=""font-size:60px;"">+</div>","","html-keyboard-response","396","1516749","0.0-19.0-0.18","51431","List1A","black","woman","","","","null","","","",""
"null","<img src=""stim_listA/shout8.gif""style=""height:400px;""></stim_listA>","","html-keyboard-response","397","1518753","0.0-19.0-1.18","51431","List1A","black","woman","","","","null","","","",""
"null","are shouting at each other","","html-keyboard-response","398","1520756","0.0-19.0-2.18","51431","List1A","black","woman","","","","null","","","",""
"9495","","","survey-text","399","1530253","0.0-19.0-3.18","51431","List1A","black","woman","","","","","{""Q0"":""Jane and Kate are shouting at each other""}","<img src=""stim_listA/shout8.gif""style=""height:400px;""></stim_listA>","are shouting at each other",""
"null","<div style=""font-size:60px;"">+</div>","","html-keyboard-response","400","1530756","0.0-19.0-0.19","51431","List1A","black","woman","","","","null","","","",""
"null","<img src=""stim_listA/play6.gif""style=""height:400px;""></stim_listA>","","html-keyboard-response","401","1532758","0.0-19.0-1.19","51431","List1A","black","woman","","","","null","","","",""
"null","are playing with each other","","html-keyboard-response","402","1534762","0.0-19.0-2.19","51431","List1A","black","woman","","","","null","","","",""
"18260","","","survey-text","403","1553025","0.0-19.0-3.19","51431","List1A","black","woman","","","","","{""Q0"":""Fred and Luke are playing with each other""}","<img src=""stim_listA/play6.gif""style=""height:400px;""></stim_listA>","are playing with each other",""
"1762","<p>Thank you for completing that task.</p><p>The final part of this session is a short questionnaire.</p><p>Press Continue.</p>","0","html-button-response","404","1554789","0.0-20.0","51431","List1A","black","woman","","","","","","","",""
"27921","","","survey-text","405","1583715","0.0-21.0","51431","List1A","black","woman","","","","","{""Q0"":""27"",""Q1"":""English"",""Q2"":""English"",""Q3"":""United States"",""Q4"":""Black"",""Q5"":""Female""}","","","demographics"
"11445","","","survey-likert","406","1595166","0.0-22.0","51431","List1A","black","woman","","","","","{""Q0"":3}","","","likert_ESS"
"8340","","","survey-likert","407","1603511","0.0-23.0","51431","List1A","black","woman","","","","","{""Q0"":4}","","","likert_NSSAL_Q1"
"5288","","","survey-likert","408","1608803","0.0-24.0","51431","List1A","black","woman","","","","","{""Q0"":4}","","","likert_NSSAL_Q2"
"4501","","","survey-likert","409","1613308","0.0-25.0","51431","List1A","black","woman","","","","","{""Q0"":4}","","","likert_CGRS_Q1"
"3610","","","survey-likert","410","1616922","0.0-26.0","51431","List1A","black","woman","","","","","{""Q0"":4}","","","likert_CGRS_Q2"
"3464","","","survey-likert","411","1620390","0.0-27.0","51431","List1A","black","woman","","","","","{""Q0"":4}","","","likert_CGRS_Q3"
"10194","","","survey-text","412","1630587","0.0-28.0","51431","List1A","black","woman","","","","","{""Q0"":""5d49eeb67a3e5f0001111d4c""}","","","worker_id"
"4852","","","external-html","413","1635774","0.0-29.0","51431","List1A","black","woman","debrief.html","","","","","","",""
