rt,stimulus,button_pressed,trial_type,trial_index,time_elapsed,internal_node_id,subject,list,ppt_race,ppt_gender,url,first_guess,correct,key_press,responses,image_type,phrase_type,test_part
3033,Welcome to the experiment. Press Continue to begin.,0,html-button-response,0,3040,0.0-0.0,52856,List2B,white,man,,,,,,,,
10044,,,external-html,1,14117,0.0-1.0,52856,List2B,white,man,consent.html,,,,,,,
12387,"<p>On the next page, you will see portraits of 8 people and their names.</p><p>Your first task is to take a few minutes to memorise the names of these people.</p><p>You will have to recall their names during the rest of the experiment, so it is</p><p>essential that you try to memorise these people and their names as best as you can.</p><br><p><strong>You will then be tested on your memory of these names and portraits.</strong></p><br><p>The experiment will start after you have completed this memory test.</p><br><p>Ready?</p>",0,html-button-response,2,26508,0.0-2.0,52856,List2B,white,man,,,,,,,,
186907,"<img src='img/portrait_matrix_list2.jpg' style='width:900px;height:500px;''></img><p>If you have memorised all the portraits and names and are ready to start, press Continue.</p><p><strong>Please note: Your memory of these faces will be tested 4 times during this experiment.</strong></p>",0,html-button-response,3,214418,0.0-3.0-0.0,52856,List2B,white,man,,,,,,,,
2557,"<img src=""portrait/WW2.jpg""style=""height:400px;""></img>",3,html-button-response,4,217980,0.0-3.0-1.0,52856,List2B,white,man,,TRUE,3,,,,,
null,CORRECT,,html-keyboard-response,5,219485,0.0-3.0-2.0-0.0,52856,List2B,white,man,,,,null,,,,
4768,"<img src=""portrait/BW2.jpg""style=""height:400px;""></img>",2,html-button-response,6,224257,0.0-3.0-4.0,52856,List2B,white,man,,TRUE,2,,,,,
null,CORRECT,,html-keyboard-response,7,225762,0.0-3.0-5.0-0.0,52856,List2B,white,man,,,,null,,,,
3920,"<img src=""portrait/WM2.jpg""style=""height:400px;""></img>",7,html-button-response,8,229685,0.0-3.0-7.0,52856,List2B,white,man,,TRUE,7,,,,,
null,CORRECT,,html-keyboard-response,9,231187,0.0-3.0-8.0-0.0,52856,List2B,white,man,,,,null,,,,
2558,"<img src=""portrait/BM1.jpg""style=""height:400px;""></img>",4,html-button-response,10,233747,0.0-3.0-10.0,52856,List2B,white,man,,TRUE,4,,,,,
null,CORRECT,,html-keyboard-response,11,235249,0.0-3.0-11.0-0.0,52856,List2B,white,man,,,,null,,,,
2562,"<img src=""portrait/WW1.jpg""style=""height:400px;""></img>",1,html-button-response,12,237815,0.0-3.0-13.0,52856,List2B,white,man,,TRUE,1,,,,,
null,CORRECT,,html-keyboard-response,13,239317,0.0-3.0-14.0-0.0,52856,List2B,white,man,,,,null,,,,
2998,"<img src=""portrait/BM2.jpg""style=""height:400px;""></img>",5,html-button-response,14,242319,0.0-3.0-16.0,52856,List2B,white,man,,TRUE,5,,,,,
null,CORRECT,,html-keyboard-response,15,243820,0.0-3.0-17.0-0.0,52856,List2B,white,man,,,,null,,,,
2360,"<img src=""portrait/WM1.jpg""style=""height:400px;""></img>",6,html-button-response,16,246183,0.0-3.0-19.0,52856,List2B,white,man,,TRUE,6,,,,,
null,CORRECT,,html-keyboard-response,17,247685,0.0-3.0-20.0-0.0,52856,List2B,white,man,,,,null,,,,
2556,"<img src=""portrait/BW1.jpg""style=""height:400px;""></img>",0,html-button-response,18,250244,0.0-3.0-22.0,52856,List2B,white,man,,TRUE,0,,,,,
null,CORRECT,,html-keyboard-response,19,251745,0.0-3.0-23.0-0.0,52856,List2B,white,man,,,,null,,,,
2368,<p>You got 8 out of 8 right first time. Press Continue.</p>,0,html-button-response,20,254116,0.0-3.0-25.0,52856,List2B,white,man,,,,,,,,
41385,"<p>In this experiment, you will view photographs of the people from the memory game interacting.</p><p>By using the <strong>exact</strong> phrase given <i>after</i> the photograph appears and recalling the correct names of the people in the photographs, form a sentence describing the interaction. You do not need to capitalise names.</p><p>Type your answer in the space provided. Please complete every sentence before moving onto the next trial.</p><p>You will only have a few seconds to memorise each given photograph and phrase before you can respond, so try your best to focus.</p><p>An example is given below. Press 'Continue' when you are ready.</p><img src='img/speaking_example.jpg' style='width:800px;height:460px;''></img>",0,html-button-response,21,296506,0.0-4.0,52856,List2B,white,man,,,,,,,,
2475,"<p>Before the experiment starts, you will watch two example trials. Press 'Continue'.</p>",0,html-button-response,22,299983,0.0-5.0,52856,List2B,white,man,,,,,,,,
null,<img src='img/meet_eg.gif' style='height:400px;''></img>,,html-keyboard-response,23,302986,0.0-6.0,52856,List2B,white,man,,,,null,,,,
null,<p>is meeting</p>,,html-keyboard-response,24,304987,0.0-7.0,52856,List2B,white,man,,,,null,,,,
4141,<p><b>Answer:</b> jane is meeting ruth</p>,0,html-button-response,25,309130,0.0-8.0,52856,List2B,white,man,,,,,,,,
null,<img src='img/look_eg.gif' style='height:400px;''></img>,,html-keyboard-response,26,312132,0.0-9.0,52856,List2B,white,man,,,,null,,,,
null,<p>are looking at each other</p>,,html-keyboard-response,27,314133,0.0-10.0,52856,List2B,white,man,,,,null,,,,
1978,<p><b>Answer:</b> fred and mike are looking at each other</p>,0,html-button-response,28,316113,0.0-11.0,52856,List2B,white,man,,,,,,,,
10920,"<p>Ready to start the experiment?</p><br><p><strong>Remember to describe the picture using a full sentence,</strong></p><p><strong>that combines the names of the people with the <i>exact</i> phrase given.</strong></p><p><strong>To receive full payment you must do this correctly.</strong></p><p><strong> You do not need to capitalise names or use punctuation.</strong></p><br><p>Press 'Continue' to begin.</p>",0,html-button-response,29,328037,0.0-12.0,52856,List2B,white,man,,,,,,,,
null,"<div style=""font-size:60px;"">+</div>",,html-keyboard-response,30,329539,0.0-13.0-0.0,52856,List2B,white,man,,,,null,,,,
null,"<img src=""stim_listB/argue1.gif""style=""height:400px;""></stim_listB>",,html-keyboard-response,31,331542,0.0-13.0-1.0,52856,List2B,white,man,,,,null,,,,
null,is arguing with,,html-keyboard-response,32,333543,0.0-13.0-2.0,52856,List2B,white,man,,,,null,,,,
12188,,,survey-text,33,345734,0.0-13.0-3.0,52856,List2B,white,man,,,,,"{""Q0"":""Ruth is arguing with Dave""}","<img src=""stim_listB/argue1.gif""style=""height:400px;""></stim_listB>",is arguing with,
null,"<div style=""font-size:60px;"">+</div>",,html-keyboard-response,34,346237,0.0-13.0-0.1,52856,List2B,white,man,,,,null,,,,
null,"<img src=""stim_listB/flirt1.gif""style=""height:400px;""></stim_listB>",,html-keyboard-response,35,348239,0.0-13.0-1.1,52856,List2B,white,man,,,,null,,,,
null,is flirting with,,html-keyboard-response,36,350241,0.0-13.0-2.1,52856,List2B,white,man,,,,null,,,,
9673,,,survey-text,37,359916,0.0-13.0-3.1,52856,List2B,white,man,,,,,"{""Q0"":""Luke is flirting with Jane""}","<img src=""stim_listB/flirt1.gif""style=""height:400px;""></stim_listB>",is flirting with,
null,"<div style=""font-size:60px;"">+</div>",,html-keyboard-response,38,360418,0.0-13.0-0.2,52856,List2B,white,man,,,,null,,,,
null,"<img src=""stim_listB/flirt3.gif""style=""height:400px;""></stim_listB>",,html-keyboard-response,39,362421,0.0-13.0-1.2,52856,List2B,white,man,,,,null,,,,
null,is flirting with,,html-keyboard-response,40,364423,0.0-13.0-2.2,52856,List2B,white,man,,,,null,,,,
6757,,,survey-text,41,371182,0.0-13.0-3.2,52856,List2B,white,man,,,,,"{""Q0"":""Fred is flirting with Kate""}","<img src=""stim_listB/flirt3.gif""style=""height:400px;""></stim_listB>",is flirting with,
null,"<div style=""font-size:60px;"">+</div>",,html-keyboard-response,42,371684,0.0-13.0-0.3,52856,List2B,white,man,,,,null,,,,
null,"<img src=""stim_listB/play1.gif""style=""height:400px;""></stim_listB>",,html-keyboard-response,43,373687,0.0-13.0-1.3,52856,List2B,white,man,,,,null,,,,
null,is playing with,,html-keyboard-response,44,375688,0.0-13.0-2.3,52856,List2B,white,man,,,,null,,,,
7930,,,survey-text,45,383620,0.0-13.0-3.3,52856,List2B,white,man,,,,,"{""Q0"":""Jane is playing with Dave""}","<img src=""stim_listB/play1.gif""style=""height:400px;""></stim_listB>",is playing with,
null,"<div style=""font-size:60px;"">+</div>",,html-keyboard-response,46,384122,0.0-13.0-0.4,52856,List2B,white,man,,,,null,,,,
null,"<img src=""stim_listB/shout8.gif""style=""height:400px;""></stim_listB>",,html-keyboard-response,47,386125,0.0-13.0-1.4,52856,List2B,white,man,,,,null,,,,
null,are shouting at each other,,html-keyboard-response,48,388126,0.0-13.0-2.4,52856,List2B,white,man,,,,null,,,,
8847,,,survey-text,49,396975,0.0-13.0-3.4,52856,List2B,white,man,,,,,"{""Q0"":""Kate and Jane are shouting at each other""}","<img src=""stim_listB/shout8.gif""style=""height:400px;""></stim_listB>",are shouting at each other,
null,"<div style=""font-size:60px;"">+</div>",,html-keyboard-response,50,397477,0.0-13.0-0.5,52856,List2B,white,man,,,,null,,,,
null,"<img src=""stim_listB/touch4.gif""style=""height:400px;""></stim_listB>",,html-keyboard-response,51,399479,0.0-13.0-1.5,52856,List2B,white,man,,,,null,,,,
null,are touching each other,,html-keyboard-response,52,401481,0.0-13.0-2.5,52856,List2B,white,man,,,,null,,,,
16642,,,survey-text,53,418125,0.0-13.0-3.5,52856,List2B,white,man,,,,,"{""Q0"":""Fred and Beth are touching each other.""}","<img src=""stim_listB/touch4.gif""style=""height:400px;""></stim_listB>",are touching each other,
null,"<div style=""font-size:60px;"">+</div>",,html-keyboard-response,54,418627,0.0-13.0-0.6,52856,List2B,white,man,,,,null,,,,
null,"<img src=""stim_listB/kiss6.gif""style=""height:400px;""></stim_listB>",,html-keyboard-response,55,420629,0.0-13.0-1.6,52856,List2B,white,man,,,,null,,,,
null,are kissing each other,,html-keyboard-response,56,422631,0.0-13.0-2.6,52856,List2B,white,man,,,,null,,,,
7772,,,survey-text,57,430405,0.0-13.0-3.6,52856,List2B,white,man,,,,,"{""Q0"":""Dave and Mike are kissing each other.""}","<img src=""stim_listB/kiss6.gif""style=""height:400px;""></stim_listB>",are kissing each other,
null,"<div style=""font-size:60px;"">+</div>",,html-keyboard-response,58,430907,0.0-13.0-0.7,52856,List2B,white,man,,,,null,,,,
null,"<img src=""stim_listB/argue3.gif""style=""height:400px;""></stim_listB>",,html-keyboard-response,59,432910,0.0-13.0-1.7,52856,List2B,white,man,,,,null,,,,
null,is arguing with,,html-keyboard-response,60,434911,0.0-13.0-2.7,52856,List2B,white,man,,,,null,,,,
6178,,,survey-text,61,441092,0.0-13.0-3.7,52856,List2B,white,man,,,,,"{""Q0"":""Beth is arguing with Mike""}","<img src=""stim_listB/argue3.gif""style=""height:400px;""></stim_listB>",is arguing with,
null,"<div style=""font-size:60px;"">+</div>",,html-keyboard-response,62,441594,0.0-13.0-0.8,52856,List2B,white,man,,,,null,,,,
null,"<img src=""stim_listB/play6.gif""style=""height:400px;""></stim_listB>",,html-keyboard-response,63,443597,0.0-13.0-1.8,52856,List2B,white,man,,,,null,,,,
null,are playing with each other,,html-keyboard-response,64,445598,0.0-13.0-2.8,52856,List2B,white,man,,,,null,,,,
7901,,,survey-text,65,453502,0.0-13.0-3.8,52856,List2B,white,man,,,,,"{""Q0"":""Luke and Fred are playing with each other.""}","<img src=""stim_listB/play6.gif""style=""height:400px;""></stim_listB>",are playing with each other,
null,"<div style=""font-size:60px;"">+</div>",,html-keyboard-response,66,454007,0.0-13.0-0.9,52856,List2B,white,man,,,,null,,,,
null,"<img src=""stim_listB/talk2.gif""style=""height:400px;""></stim_listB>",,html-keyboard-response,67,456010,0.0-13.0-1.9,52856,List2B,white,man,,,,null,,,,
null,are talking to each other,,html-keyboard-response,68,458012,0.0-13.0-2.9,52856,List2B,white,man,,,,null,,,,
8140,,,survey-text,69,466154,0.0-13.0-3.9,52856,List2B,white,man,,,,,"{""Q0"":""Dave and Ruth are talking to each other.""}","<img src=""stim_listB/talk2.gif""style=""height:400px;""></stim_listB>",are talking to each other,
null,"<div style=""font-size:60px;"">+</div>",,html-keyboard-response,70,466656,0.0-13.0-0.10,52856,List2B,white,man,,,,null,,,,
null,"<img src=""stim_listB/marry7.gif""style=""height:400px;""></stim_listB>",,html-keyboard-response,71,468658,0.0-13.0-1.10,52856,List2B,white,man,,,,null,,,,
null,is marrying,,html-keyboard-response,72,470660,0.0-13.0-2.10,52856,List2B,white,man,,,,null,,,,
7898,,,survey-text,73,478560,0.0-13.0-3.10,52856,List2B,white,man,,,,,"{""Q0"":""Jane is marrying Beth.""}","<img src=""stim_listB/marry7.gif""style=""height:400px;""></stim_listB>",is marrying,
null,"<div style=""font-size:60px;"">+</div>",,html-keyboard-response,74,479062,0.0-13.0-0.11,52856,List2B,white,man,,,,null,,,,
null,"<img src=""stim_listB/marry2.gif""style=""height:400px;""></stim_listB>",,html-keyboard-response,75,481065,0.0-13.0-1.11,52856,List2B,white,man,,,,null,,,,
null,are marrying each other,,html-keyboard-response,76,483066,0.0-13.0-2.11,52856,List2B,white,man,,,,null,,,,
7137,,,survey-text,77,490205,0.0-13.0-3.11,52856,List2B,white,man,,,,,"{""Q0"":""Luke and Jane are marrying each other.""}","<img src=""stim_listB/marry2.gif""style=""height:400px;""></stim_listB>",are marrying each other,
null,"<div style=""font-size:60px;"">+</div>",,html-keyboard-response,78,490707,0.0-13.0-0.12,52856,List2B,white,man,,,,null,,,,
null,"<img src=""stim_listB/shout3.gif""style=""height:400px;""></stim_listB>",,html-keyboard-response,79,492710,0.0-13.0-1.12,52856,List2B,white,man,,,,null,,,,
null,is shouting at,,html-keyboard-response,80,494711,0.0-13.0-2.12,52856,List2B,white,man,,,,null,,,,
6030,,,survey-text,81,500743,0.0-13.0-3.12,52856,List2B,white,man,,,,,"{""Q0"":""Beth is shouting at Fred.""}","<img src=""stim_listB/shout3.gif""style=""height:400px;""></stim_listB>",is shouting at,
null,"<div style=""font-size:60px;"">+</div>",,html-keyboard-response,82,501244,0.0-13.0-0.13,52856,List2B,white,man,,,,null,,,,
null,"<img src=""stim_listB/talk4.gif""style=""height:400px;""></stim_listB>",,html-keyboard-response,83,503247,0.0-13.0-1.13,52856,List2B,white,man,,,,null,,,,
null,are talking to each other,,html-keyboard-response,84,505249,0.0-13.0-2.13,52856,List2B,white,man,,,,null,,,,
7344,,,survey-text,85,512595,0.0-13.0-3.13,52856,List2B,white,man,,,,,"{""Q0"":""Mike and Beth are talking to each other.""}","<img src=""stim_listB/talk4.gif""style=""height:400px;""></stim_listB>",are talking to each other,
null,"<div style=""font-size:60px;"">+</div>",,html-keyboard-response,86,513096,0.0-13.0-0.14,52856,List2B,white,man,,,,null,,,,
null,"<img src=""stim_listB/fight2.gif""style=""height:400px;""></stim_listB>",,html-keyboard-response,87,515099,0.0-13.0-1.14,52856,List2B,white,man,,,,null,,,,
null,are fighting each other,,html-keyboard-response,88,517101,0.0-13.0-2.14,52856,List2B,white,man,,,,null,,,,
9104,,,survey-text,89,526207,0.0-13.0-3.14,52856,List2B,white,man,,,,,"{""Q0"":""Luke and Ruth are fighting each other.""}","<img src=""stim_listB/fight2.gif""style=""height:400px;""></stim_listB>",are fighting each other,
null,"<div style=""font-size:60px;"">+</div>",,html-keyboard-response,90,526709,0.0-13.0-0.15,52856,List2B,white,man,,,,null,,,,
null,"<img src=""stim_listB/fight3.gif""style=""height:400px;""></stim_listB>",,html-keyboard-response,91,528712,0.0-13.0-1.15,52856,List2B,white,man,,,,null,,,,
null,is fighting,,html-keyboard-response,92,530713,0.0-13.0-2.15,52856,List2B,white,man,,,,null,,,,
5301,,,survey-text,93,536016,0.0-13.0-3.15,52856,List2B,white,man,,,,,"{""Q0"":""Mike is fighting Kate.""}","<img src=""stim_listB/fight3.gif""style=""height:400px;""></stim_listB>",is fighting,
null,"<div style=""font-size:60px;"">+</div>",,html-keyboard-response,94,536518,0.0-13.0-0.16,52856,List2B,white,man,,,,null,,,,
null,"<img src=""stim_listB/flirt2.gif""style=""height:400px;""></stim_listB>",,html-keyboard-response,95,538521,0.0-13.0-1.16,52856,List2B,white,man,,,,null,,,,
null,are flirting with each other,,html-keyboard-response,96,540523,0.0-13.0-2.16,52856,List2B,white,man,,,,null,,,,
7951,,,survey-text,97,548476,0.0-13.0-3.16,52856,List2B,white,man,,,,,"{""Q0"":""Dave and Ruth are flirting with each other.""}","<img src=""stim_listB/flirt2.gif""style=""height:400px;""></stim_listB>",are flirting with each other,
null,"<div style=""font-size:60px;"">+</div>",,html-keyboard-response,98,548978,0.0-13.0-0.17,52856,List2B,white,man,,,,null,,,,
null,"<img src=""stim_listB/flirt4.gif""style=""height:400px;""></stim_listB>",,html-keyboard-response,99,550980,0.0-13.0-1.17,52856,List2B,white,man,,,,null,,,,
null,are flirting with each other,,html-keyboard-response,100,552982,0.0-13.0-2.17,52856,List2B,white,man,,,,null,,,,
7716,,,survey-text,101,560700,0.0-13.0-3.17,52856,List2B,white,man,,,,,"{""Q0"":""Mike and Beth are flirting with each other.""}","<img src=""stim_listB/flirt4.gif""style=""height:400px;""></stim_listB>",are flirting with each other,
null,"<div style=""font-size:60px;"">+</div>",,html-keyboard-response,102,561202,0.0-13.0-0.18,52856,List2B,white,man,,,,null,,,,
null,"<img src=""stim_listB/kiss2.gif""style=""height:400px;""></stim_listB>",,html-keyboard-response,103,563205,0.0-13.0-1.18,52856,List2B,white,man,,,,null,,,,
null,are kissing each other,,html-keyboard-response,104,565206,0.0-13.0-2.18,52856,List2B,white,man,,,,null,,,,
6782,,,survey-text,105,571989,0.0-13.0-3.18,52856,List2B,white,man,,,,,"{""Q0"":""Dave and Jane are kissing each other.""}","<img src=""stim_listB/kiss2.gif""style=""height:400px;""></stim_listB>",are kissing each other,
null,"<div style=""font-size:60px;"">+</div>",,html-keyboard-response,106,572490,0.0-13.0-0.19,52856,List2B,white,man,,,,null,,,,
null,"<img src=""stim_listB/dance1.gif""style=""height:400px;""></stim_listB>",,html-keyboard-response,107,574495,0.0-13.0-1.19,52856,List2B,white,man,,,,null,,,,
null,is dancing with,,html-keyboard-response,108,576497,0.0-13.0-2.19,52856,List2B,white,man,,,,null,,,,
7634,,,survey-text,109,584133,0.0-13.0-3.19,52856,List2B,white,man,,,,,"{""Q0"":""Jane is dancing with Luke.""}","<img src=""stim_listB/dance1.gif""style=""height:400px;""></stim_listB>",is dancing with,
22821,"<img src='img/portrait_matrix_list2.jpg' style='width:900px;height:500px;''></img><p>If you have memorised all the portraits and names and are ready to start, press Continue.</p><p><strong>Please note: Your memory of these faces will be tested 4 times during this experiment.</strong></p>",0,html-button-response,110,606956,0.0-14.0-0.0,52856,List2B,white,man,,,,,,,,
3021,"<img src=""portrait/WW2.jpg""style=""height:400px;""></img>",3,html-button-response,111,610980,0.0-14.0-1.0,52856,List2B,white,man,,TRUE,3,,,,,
null,CORRECT,,html-keyboard-response,112,612482,0.0-14.0-2.0-0.0,52856,List2B,white,man,,,,null,,,,
2527,"<img src=""portrait/BW1.jpg""style=""height:400px;""></img>",0,html-button-response,113,615013,0.0-14.0-4.0,52856,List2B,white,man,,TRUE,0,,,,,
null,CORRECT,,html-keyboard-response,114,616514,0.0-14.0-5.0-0.0,52856,List2B,white,man,,,,null,,,,
2531,"<img src=""portrait/BM2.jpg""style=""height:400px;""></img>",5,html-button-response,115,619049,0.0-14.0-7.0,52856,List2B,white,man,,TRUE,5,,,,,
null,CORRECT,,html-keyboard-response,116,620551,0.0-14.0-8.0-0.0,52856,List2B,white,man,,,,null,,,,
2503,"<img src=""portrait/WW1.jpg""style=""height:400px;""></img>",1,html-button-response,117,623057,0.0-14.0-10.0,52856,List2B,white,man,,TRUE,1,,,,,
null,CORRECT,,html-keyboard-response,118,624559,0.0-14.0-11.0-0.0,52856,List2B,white,man,,,,null,,,,
2328,"<img src=""portrait/WM1.jpg""style=""height:400px;""></img>",6,html-button-response,119,626891,0.0-14.0-13.0,52856,List2B,white,man,,TRUE,6,,,,,
null,CORRECT,,html-keyboard-response,120,628393,0.0-14.0-14.0-0.0,52856,List2B,white,man,,,,null,,,,
1924,"<img src=""portrait/BM1.jpg""style=""height:400px;""></img>",4,html-button-response,121,630320,0.0-14.0-16.0,52856,List2B,white,man,,TRUE,4,,,,,
null,CORRECT,,html-keyboard-response,122,631822,0.0-14.0-17.0-0.0,52856,List2B,white,man,,,,null,,,,
2414,"<img src=""portrait/BW2.jpg""style=""height:400px;""></img>",2,html-button-response,123,634238,0.0-14.0-19.0,52856,List2B,white,man,,TRUE,2,,,,,
null,CORRECT,,html-keyboard-response,124,635740,0.0-14.0-20.0-0.0,52856,List2B,white,man,,,,null,,,,
4374,"<img src=""portrait/WM2.jpg""style=""height:400px;""></img>",7,html-button-response,125,640118,0.0-14.0-22.0,52856,List2B,white,man,,TRUE,7,,,,,
null,CORRECT,,html-keyboard-response,126,641620,0.0-14.0-23.0-0.0,52856,List2B,white,man,,,,null,,,,
2014,<p>You got 8 out of 8 right first time. Press Continue.</p>,0,html-button-response,127,643637,0.0-14.0-25.0,52856,List2B,white,man,,,,,,,,
null,"<div style=""font-size:60px;"">+</div>",,html-keyboard-response,128,645140,0.0-15.0-0.0,52856,List2B,white,man,,,,null,,,,
null,"<img src=""stim_listB/dance2.gif""style=""height:400px;""></stim_listB>",,html-keyboard-response,129,647143,0.0-15.0-1.0,52856,List2B,white,man,,,,null,,,,
null,are dancing with each other,,html-keyboard-response,130,649144,0.0-15.0-2.0,52856,List2B,white,man,,,,null,,,,
8980,,,survey-text,131,658126,0.0-15.0-3.0,52856,List2B,white,man,,,,,"{""Q0"":""Ruth and Dave are dancing with each other.""}","<img src=""stim_listB/dance2.gif""style=""height:400px;""></stim_listB>",are dancing with each other,
null,"<div style=""font-size:60px;"">+</div>",,html-keyboard-response,132,658627,0.0-15.0-0.1,52856,List2B,white,man,,,,null,,,,
null,"<img src=""stim_listB/talk6.gif""style=""height:400px;""></stim_listB>",,html-keyboard-response,133,660630,0.0-15.0-1.1,52856,List2B,white,man,,,,null,,,,
null,are talking to each other,,html-keyboard-response,134,662632,0.0-15.0-2.1,52856,List2B,white,man,,,,null,,,,
7498,,,survey-text,135,670133,0.0-15.0-3.1,52856,List2B,white,man,,,,,"{""Q0"":""Fred and Dave are talking to each other""}","<img src=""stim_listB/talk6.gif""style=""height:400px;""></stim_listB>",are talking to each other,
null,"<div style=""font-size:60px;"">+</div>",,html-keyboard-response,136,670634,0.0-15.0-0.2,52856,List2B,white,man,,,,null,,,,
null,"<img src=""stim_listB/fight7.gif""style=""height:400px;""></stim_listB>",,html-keyboard-response,137,672637,0.0-15.0-1.2,52856,List2B,white,man,,,,null,,,,
null,is fighting,,html-keyboard-response,138,674639,0.0-15.0-2.2,52856,List2B,white,man,,,,null,,,,
7433,,,survey-text,139,682074,0.0-15.0-3.2,52856,List2B,white,man,,,,,"{""Q0"":""Kate is fighting Jane.""}","<img src=""stim_listB/fight7.gif""style=""height:400px;""></stim_listB>",is fighting,
null,"<div style=""font-size:60px;"">+</div>",,html-keyboard-response,140,682576,0.0-15.0-0.3,52856,List2B,white,man,,,,null,,,,
null,"<img src=""stim_listB/talk8.gif""style=""height:400px;""></stim_listB>",,html-keyboard-response,141,684578,0.0-15.0-1.3,52856,List2B,white,man,,,,null,,,,
null,are talking to each other,,html-keyboard-response,142,686580,0.0-15.0-2.3,52856,List2B,white,man,,,,null,,,,
27621,,,survey-text,143,714203,0.0-15.0-3.3,52856,List2B,white,man,,,,,"{""Q0"":""Kate and Beth are talking to each other.""}","<img src=""stim_listB/talk8.gif""style=""height:400px;""></stim_listB>",are talking to each other,
null,"<div style=""font-size:60px;"">+</div>",,html-keyboard-response,144,714704,0.0-15.0-0.4,52856,List2B,white,man,,,,null,,,,
null,"<img src=""stim_listB/play5.gif""style=""height:400px;""></stim_listB>",,html-keyboard-response,145,716707,0.0-15.0-1.4,52856,List2B,white,man,,,,null,,,,
null,is playing with,,html-keyboard-response,146,718709,0.0-15.0-2.4,52856,List2B,white,man,,,,null,,,,
5472,,,survey-text,147,724183,0.0-15.0-3.4,52856,List2B,white,man,,,,,"{""Q0"":""Mike is playing with Dave.""}","<img src=""stim_listB/play5.gif""style=""height:400px;""></stim_listB>",is playing with,
null,"<div style=""font-size:60px;"">+</div>",,html-keyboard-response,148,724685,0.0-15.0-0.5,52856,List2B,white,man,,,,null,,,,
null,"<img src=""stim_listB/kiss3.gif""style=""height:400px;""></stim_listB>",,html-keyboard-response,149,726688,0.0-15.0-1.5,52856,List2B,white,man,,,,null,,,,
null,is kissing,,html-keyboard-response,150,728690,0.0-15.0-2.5,52856,List2B,white,man,,,,null,,,,
5583,,,survey-text,151,734275,0.0-15.0-3.5,52856,List2B,white,man,,,,,"{""Q0"":""Beth is kissing Fred.""}","<img src=""stim_listB/kiss3.gif""style=""height:400px;""></stim_listB>",is kissing,
null,"<div style=""font-size:60px;"">+</div>",,html-keyboard-response,152,734777,0.0-15.0-0.6,52856,List2B,white,man,,,,null,,,,
null,"<img src=""stim_listB/argue4.gif""style=""height:400px;""></stim_listB>",,html-keyboard-response,153,736779,0.0-15.0-1.6,52856,List2B,white,man,,,,null,,,,
null,are arguing with each other,,html-keyboard-response,154,738781,0.0-15.0-2.6,52856,List2B,white,man,,,,null,,,,
7413,,,survey-text,155,746196,0.0-15.0-3.6,52856,List2B,white,man,,,,,"{""Q0"":""Fred and Kate are arguing with each other.""}","<img src=""stim_listB/argue4.gif""style=""height:400px;""></stim_listB>",are arguing with each other,
null,"<div style=""font-size:60px;"">+</div>",,html-keyboard-response,156,746698,0.0-15.0-0.7,52856,List2B,white,man,,,,null,,,,
null,"<img src=""stim_listB/fight1.gif""style=""height:400px;""></stim_listB>",,html-keyboard-response,157,748701,0.0-15.0-1.7,52856,List2B,white,man,,,,null,,,,
null,is fighting,,html-keyboard-response,158,750703,0.0-15.0-2.7,52856,List2B,white,man,,,,null,,,,
4853,,,survey-text,159,755558,0.0-15.0-3.7,52856,List2B,white,man,,,,,"{""Q0"":""Dave is fighting Jane.""}","<img src=""stim_listB/fight1.gif""style=""height:400px;""></stim_listB>",is fighting,
null,"<div style=""font-size:60px;"">+</div>",,html-keyboard-response,160,756060,0.0-15.0-0.8,52856,List2B,white,man,,,,null,,,,
null,"<img src=""stim_listB/marry1.gif""style=""height:400px;""></stim_listB>",,html-keyboard-response,161,758063,0.0-15.0-1.8,52856,List2B,white,man,,,,null,,,,
null,is marrying,,html-keyboard-response,162,760064,0.0-15.0-2.8,52856,List2B,white,man,,,,null,,,,
5669,,,survey-text,163,765735,0.0-15.0-3.8,52856,List2B,white,man,,,,,"{""Q0"":""Ruth is marrying Dave.""}","<img src=""stim_listB/marry1.gif""style=""height:400px;""></stim_listB>",is marrying,
null,"<div style=""font-size:60px;"">+</div>",,html-keyboard-response,164,766237,0.0-15.0-0.9,52856,List2B,white,man,,,,null,,,,
null,"<img src=""stim_listB/talk5.gif""style=""height:400px;""></stim_listB>",,html-keyboard-response,165,768240,0.0-15.0-1.9,52856,List2B,white,man,,,,null,,,,
null,is talking to,,html-keyboard-response,166,770242,0.0-15.0-2.9,52856,List2B,white,man,,,,null,,,,
5880,,,survey-text,167,776124,0.0-15.0-3.9,52856,List2B,white,man,,,,,"{""Q0"":""Mike is talking to Luke.""}","<img src=""stim_listB/talk5.gif""style=""height:400px;""></stim_listB>",is talking to,
null,"<div style=""font-size:60px;"">+</div>",,html-keyboard-response,168,776626,0.0-15.0-0.10,52856,List2B,white,man,,,,null,,,,
null,"<img src=""stim_listB/argue5.gif""style=""height:400px;""></stim_listB>",,html-keyboard-response,169,778629,0.0-15.0-1.10,52856,List2B,white,man,,,,null,,,,
null,is arguing with,,html-keyboard-response,170,780630,0.0-15.0-2.10,52856,List2B,white,man,,,,null,,,,
4933,,,survey-text,171,785566,0.0-15.0-3.10,52856,List2B,white,man,,,,,"{""Q0"":""Fred is arguing with Dave.""}","<img src=""stim_listB/argue5.gif""style=""height:400px;""></stim_listB>",is arguing with,
null,"<div style=""font-size:60px;"">+</div>",,html-keyboard-response,172,786068,0.0-15.0-0.11,52856,List2B,white,man,,,,null,,,,
null,"<img src=""stim_listB/talk7.gif""style=""height:400px;""></stim_listB>",,html-keyboard-response,173,788071,0.0-15.0-1.11,52856,List2B,white,man,,,,null,,,,
null,is talking to,,html-keyboard-response,174,790072,0.0-15.0-2.11,52856,List2B,white,man,,,,null,,,,
5097,,,survey-text,175,795171,0.0-15.0-3.11,52856,List2B,white,man,,,,,"{""Q0"":""Kate is talking to Ruth.""}","<img src=""stim_listB/talk7.gif""style=""height:400px;""></stim_listB>",is talking to,
null,"<div style=""font-size:60px;"">+</div>",,html-keyboard-response,176,795673,0.0-15.0-0.12,52856,List2B,white,man,,,,null,,,,
null,"<img src=""stim_listB/marry8.gif""style=""height:400px;""></stim_listB>",,html-keyboard-response,177,797675,0.0-15.0-1.12,52856,List2B,white,man,,,,null,,,,
null,are marrying each other,,html-keyboard-response,178,799677,0.0-15.0-2.12,52856,List2B,white,man,,,,null,,,,
7283,,,survey-text,179,806962,0.0-15.0-3.12,52856,List2B,white,man,,,,,"{""Q0"":""Kate and Ruth are marrying each other.""}","<img src=""stim_listB/marry8.gif""style=""height:400px;""></stim_listB>",are marrying each other,
null,"<div style=""font-size:60px;"">+</div>",,html-keyboard-response,180,807464,0.0-15.0-0.13,52856,List2B,white,man,,,,null,,,,
null,"<img src=""stim_listB/touch2.gif""style=""height:400px;""></stim_listB>",,html-keyboard-response,181,809467,0.0-15.0-1.13,52856,List2B,white,man,,,,null,,,,
null,are touching each other,,html-keyboard-response,182,811469,0.0-15.0-2.13,52856,List2B,white,man,,,,null,,,,
6707,,,survey-text,183,818178,0.0-15.0-3.13,52856,List2B,white,man,,,,,"{""Q0"":""Luke and Ruth are toughing each other.""}","<img src=""stim_listB/touch2.gif""style=""height:400px;""></stim_listB>",are touching each other,
null,"<div style=""font-size:60px;"">+</div>",,html-keyboard-response,184,818680,0.0-15.0-0.14,52856,List2B,white,man,,,,null,,,,
null,"<img src=""stim_listB/touch5.gif""style=""height:400px;""></stim_listB>",,html-keyboard-response,185,820682,0.0-15.0-1.14,52856,List2B,white,man,,,,null,,,,
null,is touching,,html-keyboard-response,186,822683,0.0-15.0-2.14,52856,List2B,white,man,,,,null,,,,
5637,,,survey-text,187,828322,0.0-15.0-3.14,52856,List2B,white,man,,,,,"{""Q0"":""Mike is touching Dave.""}","<img src=""stim_listB/touch5.gif""style=""height:400px;""></stim_listB>",is touching,
null,"<div style=""font-size:60px;"">+</div>",,html-keyboard-response,188,828823,0.0-15.0-0.15,52856,List2B,white,man,,,,null,,,,
null,"<img src=""stim_listB/fight6.gif""style=""height:400px;""></stim_listB>",,html-keyboard-response,189,830826,0.0-15.0-1.15,52856,List2B,white,man,,,,null,,,,
null,are fighting each other,,html-keyboard-response,190,832827,0.0-15.0-2.15,52856,List2B,white,man,,,,null,,,,
8230,,,survey-text,191,841060,0.0-15.0-3.15,52856,List2B,white,man,,,,,"{""Q0"":""Luke and Fred are fighting each other.""}","<img src=""stim_listB/fight6.gif""style=""height:400px;""></stim_listB>",are fighting each other,
null,"<div style=""font-size:60px;"">+</div>",,html-keyboard-response,192,841562,0.0-15.0-0.16,52856,List2B,white,man,,,,null,,,,
null,"<img src=""stim_listB/argue7.gif""style=""height:400px;""></stim_listB>",,html-keyboard-response,193,843565,0.0-15.0-1.16,52856,List2B,white,man,,,,null,,,,
null,is arguing with,,html-keyboard-response,194,845567,0.0-15.0-2.16,52856,List2B,white,man,,,,null,,,,
7623,,,survey-text,195,853192,0.0-15.0-3.16,52856,List2B,white,man,,,,,"{""Q0"":""Beth is arguing with Jane.""}","<img src=""stim_listB/argue7.gif""style=""height:400px;""></stim_listB>",is arguing with,
null,"<div style=""font-size:60px;"">+</div>",,html-keyboard-response,196,853694,0.0-15.0-0.17,52856,List2B,white,man,,,,null,,,,
null,"<img src=""stim_listB/kiss1.gif""style=""height:400px;""></stim_listB>",,html-keyboard-response,197,855697,0.0-15.0-1.17,52856,List2B,white,man,,,,null,,,,
null,is kissing,,html-keyboard-response,198,857699,0.0-15.0-2.17,52856,List2B,white,man,,,,null,,,,
4761,,,survey-text,199,862464,0.0-15.0-3.17,52856,List2B,white,man,,,,,"{""Q0"":""Ruth is kissing Luke""}","<img src=""stim_listB/kiss1.gif""style=""height:400px;""></stim_listB>",is kissing,
null,"<div style=""font-size:60px;"">+</div>",,html-keyboard-response,200,862967,0.0-15.0-0.18,52856,List2B,white,man,,,,null,,,,
null,"<img src=""stim_listB/kiss4.gif""style=""height:400px;""></stim_listB>",,html-keyboard-response,201,864970,0.0-15.0-1.18,52856,List2B,white,man,,,,null,,,,
null,are kissing each other,,html-keyboard-response,202,866972,0.0-15.0-2.18,52856,List2B,white,man,,,,null,,,,
9120,,,survey-text,203,876094,0.0-15.0-3.18,52856,List2B,white,man,,,,,"{""Q0"":""Mike and Kate are kissing each other.""}","<img src=""stim_listB/kiss4.gif""style=""height:400px;""></stim_listB>",are kissing each other,
null,"<div style=""font-size:60px;"">+</div>",,html-keyboard-response,204,876596,0.0-15.0-0.19,52856,List2B,white,man,,,,null,,,,
null,"<img src=""stim_listB/shout5.gif""style=""height:400px;""></stim_listB>",,html-keyboard-response,205,878599,0.0-15.0-1.19,52856,List2B,white,man,,,,null,,,,
null,is shouting at,,html-keyboard-response,206,880600,0.0-15.0-2.19,52856,List2B,white,man,,,,null,,,,
7213,,,survey-text,207,887815,0.0-15.0-3.19,52856,List2B,white,man,,,,,"{""Q0"":""Fred is shouting at Luke.""}","<img src=""stim_listB/shout5.gif""style=""height:400px;""></stim_listB>",is shouting at,
6298,"<img src='img/portrait_matrix_list2.jpg' style='width:900px;height:500px;''></img><p>If you have memorised all the portraits and names and are ready to start, press Continue.</p><p><strong>Please note: Your memory of these faces will be tested 4 times during this experiment.</strong></p>",0,html-button-response,208,894115,0.0-16.0-0.0,52856,List2B,white,man,,,,,,,,
1868,"<img src=""portrait/BM1.jpg""style=""height:400px;""></img>",4,html-button-response,209,896987,0.0-16.0-1.0,52856,List2B,white,man,,TRUE,4,,,,,
null,CORRECT,,html-keyboard-response,210,898489,0.0-16.0-2.0-0.0,52856,List2B,white,man,,,,null,,,,
2118,"<img src=""portrait/WM1.jpg""style=""height:400px;""></img>",6,html-button-response,211,900611,0.0-16.0-4.0,52856,List2B,white,man,,TRUE,6,,,,,
null,CORRECT,,html-keyboard-response,212,902113,0.0-16.0-5.0-0.0,52856,List2B,white,man,,,,null,,,,
2222,"<img src=""portrait/BM2.jpg""style=""height:400px;""></img>",5,html-button-response,213,904337,0.0-16.0-7.0,52856,List2B,white,man,,TRUE,5,,,,,
null,CORRECT,,html-keyboard-response,214,905839,0.0-16.0-8.0-0.0,52856,List2B,white,man,,,,null,,,,
1966,"<img src=""portrait/BW2.jpg""style=""height:400px;""></img>",2,html-button-response,215,907808,0.0-16.0-10.0,52856,List2B,white,man,,TRUE,2,,,,,
null,CORRECT,,html-keyboard-response,216,909309,0.0-16.0-11.0-0.0,52856,List2B,white,man,,,,null,,,,
1519,"<img src=""portrait/WW2.jpg""style=""height:400px;""></img>",3,html-button-response,217,910832,0.0-16.0-13.0,52856,List2B,white,man,,TRUE,3,,,,,
null,CORRECT,,html-keyboard-response,218,912334,0.0-16.0-14.0-0.0,52856,List2B,white,man,,,,null,,,,
3944,"<img src=""portrait/WM2.jpg""style=""height:400px;""></img>",7,html-button-response,219,916280,0.0-16.0-16.0,52856,List2B,white,man,,TRUE,7,,,,,
null,CORRECT,,html-keyboard-response,220,917782,0.0-16.0-17.0-0.0,52856,List2B,white,man,,,,null,,,,
2995,"<img src=""portrait/BW1.jpg""style=""height:400px;""></img>",0,html-button-response,221,920781,0.0-16.0-19.0,52856,List2B,white,man,,TRUE,0,,,,,
null,CORRECT,,html-keyboard-response,222,922283,0.0-16.0-20.0-0.0,52856,List2B,white,man,,,,null,,,,
2365,"<img src=""portrait/WW1.jpg""style=""height:400px;""></img>",1,html-button-response,223,924649,0.0-16.0-22.0,52856,List2B,white,man,,TRUE,1,,,,,
null,CORRECT,,html-keyboard-response,224,926151,0.0-16.0-23.0-0.0,52856,List2B,white,man,,,,null,,,,
2839,<p>You got 8 out of 8 right first time. Press Continue.</p>,0,html-button-response,225,928993,0.0-16.0-25.0,52856,List2B,white,man,,,,,,,,
null,"<div style=""font-size:60px;"">+</div>",,html-keyboard-response,226,930496,0.0-17.0-0.0,52856,List2B,white,man,,,,null,,,,
null,"<img src=""stim_listB/shout4.gif""style=""height:400px;""></stim_listB>",,html-keyboard-response,227,932499,0.0-17.0-1.0,52856,List2B,white,man,,,,null,,,,
null,are shouting at each other,,html-keyboard-response,228,934500,0.0-17.0-2.0,52856,List2B,white,man,,,,null,,,,
8252,,,survey-text,229,942754,0.0-17.0-3.0,52856,List2B,white,man,,,,,"{""Q0"":""Mike and Kate are shouting at each other.""}","<img src=""stim_listB/shout4.gif""style=""height:400px;""></stim_listB>",are shouting at each other,
null,"<div style=""font-size:60px;"">+</div>",,html-keyboard-response,230,943256,0.0-17.0-0.1,52856,List2B,white,man,,,,null,,,,
null,"<img src=""stim_listB/argue2.gif""style=""height:400px;""></stim_listB>",,html-keyboard-response,231,945259,0.0-17.0-1.1,52856,List2B,white,man,,,,null,,,,
null,are arguing with each other,,html-keyboard-response,232,947261,0.0-17.0-2.1,52856,List2B,white,man,,,,null,,,,
7374,,,survey-text,233,954637,0.0-17.0-3.1,52856,List2B,white,man,,,,,"{""Q0"":""Luke and Jane are arguing with each other.""}","<img src=""stim_listB/argue2.gif""style=""height:400px;""></stim_listB>",are arguing with each other,
null,"<div style=""font-size:60px;"">+</div>",,html-keyboard-response,234,955138,0.0-17.0-0.2,52856,List2B,white,man,,,,null,,,,
null,"<img src=""stim_listB/play7.gif""style=""height:400px;""></stim_listB>",,html-keyboard-response,235,957141,0.0-17.0-1.2,52856,List2B,white,man,,,,null,,,,
null,is playing with,,html-keyboard-response,236,959143,0.0-17.0-2.2,52856,List2B,white,man,,,,null,,,,
5408,,,survey-text,237,964553,0.0-17.0-3.2,52856,List2B,white,man,,,,,"{""Q0"":""Kate is playing with Jane""}","<img src=""stim_listB/play7.gif""style=""height:400px;""></stim_listB>",is playing with,
null,"<div style=""font-size:60px;"">+</div>",,html-keyboard-response,238,965055,0.0-17.0-0.3,52856,List2B,white,man,,,,null,,,,
null,"<img src=""stim_listB/talk3.gif""style=""height:400px;""></stim_listB>",,html-keyboard-response,239,967060,0.0-17.0-1.3,52856,List2B,white,man,,,,null,,,,
null,is talking to,,html-keyboard-response,240,969061,0.0-17.0-2.3,52856,List2B,white,man,,,,null,,,,
5053,,,survey-text,241,974116,0.0-17.0-3.3,52856,List2B,white,man,,,,,"{""Q0"":""Kate is talking to Fred.""}","<img src=""stim_listB/talk3.gif""style=""height:400px;""></stim_listB>",is talking to,
null,"<div style=""font-size:60px;"">+</div>",,html-keyboard-response,242,974618,0.0-17.0-0.4,52856,List2B,white,man,,,,null,,,,
null,"<img src=""stim_listB/flirt7.gif""style=""height:400px;""></stim_listB>",,html-keyboard-response,243,976621,0.0-17.0-1.4,52856,List2B,white,man,,,,null,,,,
null,is flirting with,,html-keyboard-response,244,978622,0.0-17.0-2.4,52856,List2B,white,man,,,,null,,,,
5982,,,survey-text,245,984606,0.0-17.0-3.4,52856,List2B,white,man,,,,,"{""Q0"":""Kate is flirting with Ruth.""}","<img src=""stim_listB/flirt7.gif""style=""height:400px;""></stim_listB>",is flirting with,
null,"<div style=""font-size:60px;"">+</div>",,html-keyboard-response,246,985108,0.0-17.0-0.5,52856,List2B,white,man,,,,null,,,,
null,"<img src=""stim_listB/marry5.gif""style=""height:400px;""></stim_listB>",,html-keyboard-response,247,987111,0.0-17.0-1.5,52856,List2B,white,man,,,,null,,,,
null,is marrying,,html-keyboard-response,248,989113,0.0-17.0-2.5,52856,List2B,white,man,,,,null,,,,
6401,,,survey-text,249,995515,0.0-17.0-3.5,52856,List2B,white,man,,,,,"{""Q0"":""Fred is marrying Dave.""}","<img src=""stim_listB/marry5.gif""style=""height:400px;""></stim_listB>",is marrying,
null,"<div style=""font-size:60px;"">+</div>",,html-keyboard-response,250,996018,0.0-17.0-0.6,52856,List2B,white,man,,,,null,,,,
null,"<img src=""stim_listB/fight5.gif""style=""height:400px;""></stim_listB>",,html-keyboard-response,251,998021,0.0-17.0-1.6,52856,List2B,white,man,,,,null,,,,
null,is fighting,,html-keyboard-response,252,1000022,0.0-17.0-2.6,52856,List2B,white,man,,,,null,,,,
4677,,,survey-text,253,1004701,0.0-17.0-3.6,52856,List2B,white,man,,,,,"{""Q0"":""Mike is fighting Dave.""}","<img src=""stim_listB/fight5.gif""style=""height:400px;""></stim_listB>",is fighting,
null,"<div style=""font-size:60px;"">+</div>",,html-keyboard-response,254,1005203,0.0-17.0-0.7,52856,List2B,white,man,,,,null,,,,
null,"<img src=""stim_listB/dance7.gif""style=""height:400px;""></stim_listB>",,html-keyboard-response,255,1007207,0.0-17.0-1.7,52856,List2B,white,man,,,,null,,,,
null,is dancing with,,html-keyboard-response,256,1009208,0.0-17.0-2.7,52856,List2B,white,man,,,,null,,,,
5271,,,survey-text,257,1014481,0.0-17.0-3.7,52856,List2B,white,man,,,,,"{""Q0"":""Kate is dancing with Ruth.""}","<img src=""stim_listB/dance7.gif""style=""height:400px;""></stim_listB>",is dancing with,
null,"<div style=""font-size:60px;"">+</div>",,html-keyboard-response,258,1014983,0.0-17.0-0.8,52856,List2B,white,man,,,,null,,,,
null,"<img src=""stim_listB/touch8.gif""style=""height:400px;""></stim_listB>",,html-keyboard-response,259,1016986,0.0-17.0-1.8,52856,List2B,white,man,,,,null,,,,
null,are touching each other,,html-keyboard-response,260,1018988,0.0-17.0-2.8,52856,List2B,white,man,,,,null,,,,
7235,,,survey-text,261,1026225,0.0-17.0-3.8,52856,List2B,white,man,,,,,"{""Q0"":""Ruth and Beth are touching each other.""}","<img src=""stim_listB/touch8.gif""style=""height:400px;""></stim_listB>",are touching each other,
null,"<div style=""font-size:60px;"">+</div>",,html-keyboard-response,262,1026727,0.0-17.0-0.9,52856,List2B,white,man,,,,null,,,,
null,"<img src=""stim_listB/kiss8.gif""style=""height:400px;""></stim_listB>",,html-keyboard-response,263,1028730,0.0-17.0-1.9,52856,List2B,white,man,,,,null,,,,
null,are kissing each other,,html-keyboard-response,264,1030731,0.0-17.0-2.9,52856,List2B,white,man,,,,null,,,,
7197,,,survey-text,265,1037931,0.0-17.0-3.9,52856,List2B,white,man,,,,,"{""Q0"":""Jane and Kate are kissing each other.""}","<img src=""stim_listB/kiss8.gif""style=""height:400px;""></stim_listB>",are kissing each other,
null,"<div style=""font-size:60px;"">+</div>",,html-keyboard-response,266,1038433,0.0-17.0-0.10,52856,List2B,white,man,,,,null,,,,
null,"<img src=""stim_listB/dance6.gif""style=""height:400px;""></stim_listB>",,html-keyboard-response,267,1040436,0.0-17.0-1.10,52856,List2B,white,man,,,,null,,,,
null,are dancing with each other,,html-keyboard-response,268,1042437,0.0-17.0-2.10,52856,List2B,white,man,,,,null,,,,
7446,,,survey-text,269,1049885,0.0-17.0-3.10,52856,List2B,white,man,,,,,"{""Q0"":""Dave and Fred are dancing with each other.""}","<img src=""stim_listB/dance6.gif""style=""height:400px;""></stim_listB>",are dancing with each other,
null,"<div style=""font-size:60px;"">+</div>",,html-keyboard-response,270,1050387,0.0-17.0-0.11,52856,List2B,white,man,,,,null,,,,
null,"<img src=""stim_listB/play3.gif""style=""height:400px;""></stim_listB>",,html-keyboard-response,271,1052390,0.0-17.0-1.11,52856,List2B,white,man,,,,null,,,,
null,is playing with,,html-keyboard-response,272,1054391,0.0-17.0-2.11,52856,List2B,white,man,,,,null,,,,
5557,,,survey-text,273,1059950,0.0-17.0-3.11,52856,List2B,white,man,,,,,"{""Q0"":""Kate is playing with Mike.""}","<img src=""stim_listB/play3.gif""style=""height:400px;""></stim_listB>",is playing with,
null,"<div style=""font-size:60px;"">+</div>",,html-keyboard-response,274,1060452,0.0-17.0-0.12,52856,List2B,white,man,,,,null,,,,
null,"<img src=""stim_listB/shout6.gif""style=""height:400px;""></stim_listB>",,html-keyboard-response,275,1062455,0.0-17.0-1.12,52856,List2B,white,man,,,,null,,,,
null,are shouting at each other,,html-keyboard-response,276,1064457,0.0-17.0-2.12,52856,List2B,white,man,,,,null,,,,
7030,,,survey-text,277,1071489,0.0-17.0-3.12,52856,List2B,white,man,,,,,"{""Q0"":""Dave and Mike are shouting at each other.""}","<img src=""stim_listB/shout6.gif""style=""height:400px;""></stim_listB>",are shouting at each other,
null,"<div style=""font-size:60px;"">+</div>",,html-keyboard-response,278,1071991,0.0-17.0-0.13,52856,List2B,white,man,,,,null,,,,
null,"<img src=""stim_listB/fight4.gif""style=""height:400px;""></stim_listB>",,html-keyboard-response,279,1073994,0.0-17.0-1.13,52856,List2B,white,man,,,,null,,,,
null,are fighting each other,,html-keyboard-response,280,1075995,0.0-17.0-2.13,52856,List2B,white,man,,,,null,,,,
6277,,,survey-text,281,1082274,0.0-17.0-3.13,52856,List2B,white,man,,,,,"{""Q0"":""Beth and Fred are fighting each other.""}","<img src=""stim_listB/fight4.gif""style=""height:400px;""></stim_listB>",are fighting each other,
null,"<div style=""font-size:60px;"">+</div>",,html-keyboard-response,282,1082776,0.0-17.0-0.14,52856,List2B,white,man,,,,null,,,,
null,"<img src=""stim_listB/fight8.gif""style=""height:400px;""></stim_listB>",,html-keyboard-response,283,1084779,0.0-17.0-1.14,52856,List2B,white,man,,,,null,,,,
null,are fighting each other,,html-keyboard-response,284,1086781,0.0-17.0-2.14,52856,List2B,white,man,,,,null,,,,
6525,,,survey-text,285,1093308,0.0-17.0-3.14,52856,List2B,white,man,,,,,"{""Q0"":""Ruth and Beth are fighting each other.""}","<img src=""stim_listB/fight8.gif""style=""height:400px;""></stim_listB>",are fighting each other,
null,"<div style=""font-size:60px;"">+</div>",,html-keyboard-response,286,1093810,0.0-17.0-0.15,52856,List2B,white,man,,,,null,,,,
null,"<img src=""stim_listB/kiss5.gif""style=""height:400px;""></stim_listB>",,html-keyboard-response,287,1095813,0.0-17.0-1.15,52856,List2B,white,man,,,,null,,,,
null,is kissing,,html-keyboard-response,288,1097816,0.0-17.0-2.15,52856,List2B,white,man,,,,null,,,,
4461,,,survey-text,289,1102279,0.0-17.0-3.15,52856,List2B,white,man,,,,,"{""Q0"":""Luke is kissing Fred.""}","<img src=""stim_listB/kiss5.gif""style=""height:400px;""></stim_listB>",is kissing,
null,"<div style=""font-size:60px;"">+</div>",,html-keyboard-response,290,1102781,0.0-17.0-0.16,52856,List2B,white,man,,,,null,,,,
null,"<img src=""stim_listB/dance5.gif""style=""height:400px;""></stim_listB>",,html-keyboard-response,291,1104784,0.0-17.0-1.16,52856,List2B,white,man,,,,null,,,,
null,is dancing with,,html-keyboard-response,292,1106785,0.0-17.0-2.16,52856,List2B,white,man,,,,null,,,,
6025,,,survey-text,293,1112812,0.0-17.0-3.16,52856,List2B,white,man,,,,,"{""Q0"":""Mike is dancing with Luke.""}","<img src=""stim_listB/dance5.gif""style=""height:400px;""></stim_listB>",is dancing with,
null,"<div style=""font-size:60px;"">+</div>",,html-keyboard-response,294,1113316,0.0-17.0-0.17,52856,List2B,white,man,,,,null,,,,
null,"<img src=""stim_listB/shout2.gif""style=""height:400px;""></stim_listB>",,html-keyboard-response,295,1115320,0.0-17.0-1.17,52856,List2B,white,man,,,,null,,,,
null,are shouting at each other,,html-keyboard-response,296,1117321,0.0-17.0-2.17,52856,List2B,white,man,,,,null,,,,
8041,,,survey-text,297,1125364,0.0-17.0-3.17,52856,List2B,white,man,,,,,"{""Q0"":""Dave and Jane are shouting at each other.""}","<img src=""stim_listB/shout2.gif""style=""height:400px;""></stim_listB>",are shouting at each other,
null,"<div style=""font-size:60px;"">+</div>",,html-keyboard-response,298,1125866,0.0-17.0-0.18,52856,List2B,white,man,,,,null,,,,
null,"<img src=""stim_listB/talk1.gif""style=""height:400px;""></stim_listB>",,html-keyboard-response,299,1127869,0.0-17.0-1.18,52856,List2B,white,man,,,,null,,,,
null,is talking to,,html-keyboard-response,300,1129871,0.0-17.0-2.18,52856,List2B,white,man,,,,null,,,,
5511,,,survey-text,301,1135384,0.0-17.0-3.18,52856,List2B,white,man,,,,,"{""Q0"":""Jane is talking to Luke""}","<img src=""stim_listB/talk1.gif""style=""height:400px;""></stim_listB>",is talking to,
null,"<div style=""font-size:60px;"">+</div>",,html-keyboard-response,302,1135885,0.0-17.0-0.19,52856,List2B,white,man,,,,null,,,,
null,"<img src=""stim_listB/argue8.gif""style=""height:400px;""></stim_listB>",,html-keyboard-response,303,1137889,0.0-17.0-1.19,52856,List2B,white,man,,,,null,,,,
null,are arguing with each other,,html-keyboard-response,304,1139890,0.0-17.0-2.19,52856,List2B,white,man,,,,null,,,,
8005,,,survey-text,305,1147897,0.0-17.0-3.19,52856,List2B,white,man,,,,,"{""Q0"":""Ruth and Kate are arguing with each other.""}","<img src=""stim_listB/argue8.gif""style=""height:400px;""></stim_listB>",are arguing with each other,
5952,"<img src='img/portrait_matrix_list2.jpg' style='width:900px;height:500px;''></img><p>If you have memorised all the portraits and names and are ready to start, press Continue.</p><p><strong>Please note: Your memory of these faces will be tested 4 times during this experiment.</strong></p>",0,html-button-response,306,1153852,0.0-18.0-0.0,52856,List2B,white,man,,,,,,,,
3388,"<img src=""portrait/WM1.jpg""style=""height:400px;""></img>",6,html-button-response,307,1158244,0.0-18.0-1.0,52856,List2B,white,man,,TRUE,6,,,,,
null,CORRECT,,html-keyboard-response,308,1159747,0.0-18.0-2.0-0.0,52856,List2B,white,man,,,,null,,,,
1832,"<img src=""portrait/WM2.jpg""style=""height:400px;""></img>",7,html-button-response,309,1161582,0.0-18.0-4.0,52856,List2B,white,man,,TRUE,7,,,,,
null,CORRECT,,html-keyboard-response,310,1163084,0.0-18.0-5.0-0.0,52856,List2B,white,man,,,,null,,,,
1475,"<img src=""portrait/WW2.jpg""style=""height:400px;""></img>",3,html-button-response,311,1164563,0.0-18.0-7.0,52856,List2B,white,man,,TRUE,3,,,,,
null,CORRECT,,html-keyboard-response,312,1166065,0.0-18.0-8.0-0.0,52856,List2B,white,man,,,,null,,,,
3137,"<img src=""portrait/BW2.jpg""style=""height:400px;""></img>",2,html-button-response,313,1169206,0.0-18.0-10.0,52856,List2B,white,man,,TRUE,2,,,,,
null,CORRECT,,html-keyboard-response,314,1170708,0.0-18.0-11.0-0.0,52856,List2B,white,man,,,,null,,,,
2893,"<img src=""portrait/BM1.jpg""style=""height:400px;""></img>",4,html-button-response,315,1173605,0.0-18.0-13.0,52856,List2B,white,man,,TRUE,4,,,,,
null,CORRECT,,html-keyboard-response,316,1175107,0.0-18.0-14.0-0.0,52856,List2B,white,man,,,,null,,,,
2198,"<img src=""portrait/BW1.jpg""style=""height:400px;""></img>",0,html-button-response,317,1177308,0.0-18.0-16.0,52856,List2B,white,man,,TRUE,0,,,,,
null,CORRECT,,html-keyboard-response,318,1178810,0.0-18.0-17.0-0.0,52856,List2B,white,man,,,,null,,,,
2394,"<img src=""portrait/WW1.jpg""style=""height:400px;""></img>",1,html-button-response,319,1181206,0.0-18.0-19.0,52856,List2B,white,man,,TRUE,1,,,,,
null,CORRECT,,html-keyboard-response,320,1182708,0.0-18.0-20.0-0.0,52856,List2B,white,man,,,,null,,,,
2527,"<img src=""portrait/BM2.jpg""style=""height:400px;""></img>",5,html-button-response,321,1185238,0.0-18.0-22.0,52856,List2B,white,man,,TRUE,5,,,,,
null,CORRECT,,html-keyboard-response,322,1186742,0.0-18.0-23.0-0.0,52856,List2B,white,man,,,,null,,,,
2121,<p>You got 8 out of 8 right first time. Press Continue.</p>,0,html-button-response,323,1188865,0.0-18.0-25.0,52856,List2B,white,man,,,,,,,,
null,"<div style=""font-size:60px;"">+</div>",,html-keyboard-response,324,1190367,0.0-19.0-0.0,52856,List2B,white,man,,,,null,,,,
null,"<img src=""stim_listB/dance3.gif""style=""height:400px;""></stim_listB>",,html-keyboard-response,325,1192368,0.0-19.0-1.0,52856,List2B,white,man,,,,null,,,,
null,is dancing with,,html-keyboard-response,326,1194370,0.0-19.0-2.0,52856,List2B,white,man,,,,null,,,,
5774,,,survey-text,327,1200146,0.0-19.0-3.0,52856,List2B,white,man,,,,,"{""Q0"":""Kate is dancing with Fred.""}","<img src=""stim_listB/dance3.gif""style=""height:400px;""></stim_listB>",is dancing with,
null,"<div style=""font-size:60px;"">+</div>",,html-keyboard-response,328,1200648,0.0-19.0-0.1,52856,List2B,white,man,,,,null,,,,
null,"<img src=""stim_listB/shout7.gif""style=""height:400px;""></stim_listB>",,html-keyboard-response,329,1202651,0.0-19.0-1.1,52856,List2B,white,man,,,,null,,,,
null,is shouting at,,html-keyboard-response,330,1204652,0.0-19.0-2.1,52856,List2B,white,man,,,,null,,,,
5196,,,survey-text,331,1209850,0.0-19.0-3.1,52856,List2B,white,man,,,,,"{""Q0"":""Beth is shouting at Ruth.""}","<img src=""stim_listB/shout7.gif""style=""height:400px;""></stim_listB>",is shouting at,
null,"<div style=""font-size:60px;"">+</div>",,html-keyboard-response,332,1210351,0.0-19.0-0.2,52856,List2B,white,man,,,,null,,,,
null,"<img src=""stim_listB/shout1.gif""style=""height:400px;""></stim_listB>",,html-keyboard-response,333,1212354,0.0-19.0-1.2,52856,List2B,white,man,,,,null,,,,
null,is shouting at,,html-keyboard-response,334,1214355,0.0-19.0-2.2,52856,List2B,white,man,,,,null,,,,
5095,,,survey-text,335,1219452,0.0-19.0-3.2,52856,List2B,white,man,,,,,"{""Q0"":""Ruth is shouting at Luke.""}","<img src=""stim_listB/shout1.gif""style=""height:400px;""></stim_listB>",is shouting at,
null,"<div style=""font-size:60px;"">+</div>",,html-keyboard-response,336,1219954,0.0-19.0-0.3,52856,List2B,white,man,,,,null,,,,
null,"<img src=""stim_listB/flirt5.gif""style=""height:400px;""></stim_listB>",,html-keyboard-response,337,1221957,0.0-19.0-1.3,52856,List2B,white,man,,,,null,,,,
null,is flirting with,,html-keyboard-response,338,1223959,0.0-19.0-2.3,52856,List2B,white,man,,,,null,,,,
5408,,,survey-text,339,1229369,0.0-19.0-3.3,52856,List2B,white,man,,,,,"{""Q0"":""Mike is flirting with Luke.""}","<img src=""stim_listB/flirt5.gif""style=""height:400px;""></stim_listB>",is flirting with,
null,"<div style=""font-size:60px;"">+</div>",,html-keyboard-response,340,1229871,0.0-19.0-0.4,52856,List2B,white,man,,,,null,,,,
null,"<img src=""stim_listB/play8.gif""style=""height:400px;""></stim_listB>",,html-keyboard-response,341,1231874,0.0-19.0-1.4,52856,List2B,white,man,,,,null,,,,
null,are playing with each other,,html-keyboard-response,342,1233876,0.0-19.0-2.4,52856,List2B,white,man,,,,null,,,,
8299,,,survey-text,343,1242177,0.0-19.0-3.4,52856,List2B,white,man,,,,,"{""Q0"":""Ruth and Beth are playing with each other.""}","<img src=""stim_listB/play8.gif""style=""height:400px;""></stim_listB>",are playing with each other,
null,"<div style=""font-size:60px;"">+</div>",,html-keyboard-response,344,1242679,0.0-19.0-0.5,52856,List2B,white,man,,,,null,,,,
null,"<img src=""stim_listB/touch1.gif""style=""height:400px;""></stim_listB>",,html-keyboard-response,345,1244682,0.0-19.0-1.5,52856,List2B,white,man,,,,null,,,,
null,is touching,,html-keyboard-response,346,1246684,0.0-19.0-2.5,52856,List2B,white,man,,,,null,,,,
7857,,,survey-text,347,1254543,0.0-19.0-3.5,52856,List2B,white,man,,,,,"{""Q0"":""Dave is touching Jane.""}","<img src=""stim_listB/touch1.gif""style=""height:400px;""></stim_listB>",is touching,
null,"<div style=""font-size:60px;"">+</div>",,html-keyboard-response,348,1255045,0.0-19.0-0.6,52856,List2B,white,man,,,,null,,,,
null,"<img src=""stim_listB/marry3.gif""style=""height:400px;""></stim_listB>",,html-keyboard-response,349,1257048,0.0-19.0-1.6,52856,List2B,white,man,,,,null,,,,
null,is marrying,,html-keyboard-response,350,1259049,0.0-19.0-2.6,52856,List2B,white,man,,,,null,,,,
5858,,,survey-text,351,1264909,0.0-19.0-3.6,52856,List2B,white,man,,,,,"{""Q0"":""Beth is marrying Mike.""}","<img src=""stim_listB/marry3.gif""style=""height:400px;""></stim_listB>",is marrying,
null,"<div style=""font-size:60px;"">+</div>",,html-keyboard-response,352,1265411,0.0-19.0-0.7,52856,List2B,white,man,,,,null,,,,
null,"<img src=""stim_listB/argue6.gif""style=""height:400px;""></stim_listB>",,html-keyboard-response,353,1267414,0.0-19.0-1.7,52856,List2B,white,man,,,,null,,,,
null,are arguing with each other,,html-keyboard-response,354,1269416,0.0-19.0-2.7,52856,List2B,white,man,,,,null,,,,
7499,,,survey-text,355,1276917,0.0-19.0-3.7,52856,List2B,white,man,,,,,"{""Q0"":""Luke and Mike are arguing with each other.""}","<img src=""stim_listB/argue6.gif""style=""height:400px;""></stim_listB>",are arguing with each other,
null,"<div style=""font-size:60px;"">+</div>",,html-keyboard-response,356,1277421,0.0-19.0-0.8,52856,List2B,white,man,,,,null,,,,
null,"<img src=""stim_listB/dance8.gif""style=""height:400px;""></stim_listB>",,html-keyboard-response,357,1279424,0.0-19.0-1.8,52856,List2B,white,man,,,,null,,,,
null,are dancing with each other,,html-keyboard-response,358,1281425,0.0-19.0-2.8,52856,List2B,white,man,,,,null,,,,
7832,,,survey-text,359,1289259,0.0-19.0-3.8,52856,List2B,white,man,,,,,"{""Q0"":""Jane and Beth are dancing with each other.""}","<img src=""stim_listB/dance8.gif""style=""height:400px;""></stim_listB>",are dancing with each other,
null,"<div style=""font-size:60px;"">+</div>",,html-keyboard-response,360,1289761,0.0-19.0-0.9,52856,List2B,white,man,,,,null,,,,
null,"<img src=""stim_listB/flirt8.gif""style=""height:400px;""></stim_listB>",,html-keyboard-response,361,1291764,0.0-19.0-1.9,52856,List2B,white,man,,,,null,,,,
null,are flirting with each other,,html-keyboard-response,362,1293765,0.0-19.0-2.9,52856,List2B,white,man,,,,null,,,,
7508,,,survey-text,363,1301275,0.0-19.0-3.9,52856,List2B,white,man,,,,,"{""Q0"":""Jane and beth are flirting with each other.""}","<img src=""stim_listB/flirt8.gif""style=""height:400px;""></stim_listB>",are flirting with each other,
null,"<div style=""font-size:60px;"">+</div>",,html-keyboard-response,364,1301777,0.0-19.0-0.10,52856,List2B,white,man,,,,null,,,,
null,"<img src=""stim_listB/play4.gif""style=""height:400px;""></stim_listB>",,html-keyboard-response,365,1303781,0.0-19.0-1.10,52856,List2B,white,man,,,,null,,,,
null,are playing with each other,,html-keyboard-response,366,1305782,0.0-19.0-2.10,52856,List2B,white,man,,,,null,,,,
7322,,,survey-text,367,1313106,0.0-19.0-3.10,52856,List2B,white,man,,,,,"{""Q0"":""Fred and Beth are playing with each other.""}","<img src=""stim_listB/play4.gif""style=""height:400px;""></stim_listB>",are playing with each other,
null,"<div style=""font-size:60px;"">+</div>",,html-keyboard-response,368,1313608,0.0-19.0-0.11,52856,List2B,white,man,,,,null,,,,
null,"<img src=""stim_listB/play2.gif""style=""height:400px;""></stim_listB>",,html-keyboard-response,369,1315610,0.0-19.0-1.11,52856,List2B,white,man,,,,null,,,,
null,are playing with each other,,html-keyboard-response,370,1317612,0.0-19.0-2.11,52856,List2B,white,man,,,,null,,,,
7277,,,survey-text,371,1324891,0.0-19.0-3.11,52856,List2B,white,man,,,,,"{""Q0"":""Luke and Ruth are playing with each other.""}","<img src=""stim_listB/play2.gif""style=""height:400px;""></stim_listB>",are playing with each other,
null,"<div style=""font-size:60px;"">+</div>",,html-keyboard-response,372,1325392,0.0-19.0-0.12,52856,List2B,white,man,,,,null,,,,
null,"<img src=""stim_listB/touch7.gif""style=""height:400px;""></stim_listB>",,html-keyboard-response,373,1327396,0.0-19.0-1.12,52856,List2B,white,man,,,,null,,,,
null,is touching,,html-keyboard-response,374,1329397,0.0-19.0-2.12,52856,List2B,white,man,,,,null,,,,
4943,,,survey-text,375,1334343,0.0-19.0-3.12,52856,List2B,white,man,,,,,"{""Q0"":""Kate is touching Jane.""}","<img src=""stim_listB/touch7.gif""style=""height:400px;""></stim_listB>",is touching,
null,"<div style=""font-size:60px;"">+</div>",,html-keyboard-response,376,1334845,0.0-19.0-0.13,52856,List2B,white,man,,,,null,,,,
null,"<img src=""stim_listB/touch3.gif""style=""height:400px;""></stim_listB>",,html-keyboard-response,377,1336848,0.0-19.0-1.13,52856,List2B,white,man,,,,null,,,,
null,is touching,,html-keyboard-response,378,1338850,0.0-19.0-2.13,52856,List2B,white,man,,,,null,,,,
6192,,,survey-text,379,1345044,0.0-19.0-3.13,52856,List2B,white,man,,,,,"{""Q0"":""Kate is touching Mike.""}","<img src=""stim_listB/touch3.gif""style=""height:400px;""></stim_listB>",is touching,
null,"<div style=""font-size:60px;"">+</div>",,html-keyboard-response,380,1345546,0.0-19.0-0.14,52856,List2B,white,man,,,,null,,,,
null,"<img src=""stim_listB/marry4.gif""style=""height:400px;""></stim_listB>",,html-keyboard-response,381,1347549,0.0-19.0-1.14,52856,List2B,white,man,,,,null,,,,
null,are marrying each other,,html-keyboard-response,382,1349551,0.0-19.0-2.14,52856,List2B,white,man,,,,null,,,,
7152,,,survey-text,383,1356705,0.0-19.0-3.14,52856,List2B,white,man,,,,,"{""Q0"":""Fred and Kate are marrying each other.""}","<img src=""stim_listB/marry4.gif""style=""height:400px;""></stim_listB>",are marrying each other,
null,"<div style=""font-size:60px;"">+</div>",,html-keyboard-response,384,1357207,0.0-19.0-0.15,52856,List2B,white,man,,,,null,,,,
null,"<img src=""stim_listB/dance4.gif""style=""height:400px;""></stim_listB>",,html-keyboard-response,385,1359210,0.0-19.0-1.15,52856,List2B,white,man,,,,null,,,,
null,are dancing with each other,,html-keyboard-response,386,1361211,0.0-19.0-2.15,52856,List2B,white,man,,,,null,,,,
7829,,,survey-text,387,1369043,0.0-19.0-3.15,52856,List2B,white,man,,,,,"{""Q0"":""Mike and Beth are dancing with each other.""}","<img src=""stim_listB/dance4.gif""style=""height:400px;""></stim_listB>",are dancing with each other,
null,"<div style=""font-size:60px;"">+</div>",,html-keyboard-response,388,1369546,0.0-19.0-0.16,52856,List2B,white,man,,,,null,,,,
null,"<img src=""stim_listB/marry6.gif""style=""height:400px;""></stim_listB>",,html-keyboard-response,389,1371549,0.0-19.0-1.16,52856,List2B,white,man,,,,null,,,,
null,are marrying each other,,html-keyboard-response,390,1373550,0.0-19.0-2.16,52856,List2B,white,man,,,,null,,,,
6372,,,survey-text,391,1379924,0.0-19.0-3.16,52856,List2B,white,man,,,,,"{""Q0"":""Luke and Mike are marrying each other.""}","<img src=""stim_listB/marry6.gif""style=""height:400px;""></stim_listB>",are marrying each other,
null,"<div style=""font-size:60px;"">+</div>",,html-keyboard-response,392,1380426,0.0-19.0-0.17,52856,List2B,white,man,,,,null,,,,
null,"<img src=""stim_listB/kiss7.gif""style=""height:400px;""></stim_listB>",,html-keyboard-response,393,1382429,0.0-19.0-1.17,52856,List2B,white,man,,,,null,,,,
null,is kissing,,html-keyboard-response,394,1384433,0.0-19.0-2.17,52856,List2B,white,man,,,,null,,,,
5595,,,survey-text,395,1390030,0.0-19.0-3.17,52856,List2B,white,man,,,,,"{""Q0"":""Beth is kissing Ruth.""}","<img src=""stim_listB/kiss7.gif""style=""height:400px;""></stim_listB>",is kissing,
null,"<div style=""font-size:60px;"">+</div>",,html-keyboard-response,396,1390532,0.0-19.0-0.18,52856,List2B,white,man,,,,null,,,,
null,"<img src=""stim_listB/flirt6.gif""style=""height:400px;""></stim_listB>",,html-keyboard-response,397,1392535,0.0-19.0-1.18,52856,List2B,white,man,,,,null,,,,
null,are flirting with each other,,html-keyboard-response,398,1394537,0.0-19.0-2.18,52856,List2B,white,man,,,,null,,,,
7004,,,survey-text,399,1401543,0.0-19.0-3.18,52856,List2B,white,man,,,,,"{""Q0"":""Dave and Fred are flirting with each other.""}","<img src=""stim_listB/flirt6.gif""style=""height:400px;""></stim_listB>",are flirting with each other,
null,"<div style=""font-size:60px;"">+</div>",,html-keyboard-response,400,1402045,0.0-19.0-0.19,52856,List2B,white,man,,,,null,,,,
null,"<img src=""stim_listB/touch6.gif""style=""height:400px;""></stim_listB>",,html-keyboard-response,401,1404048,0.0-19.0-1.19,52856,List2B,white,man,,,,null,,,,
null,are touching each other,,html-keyboard-response,402,1406049,0.0-19.0-2.19,52856,List2B,white,man,,,,null,,,,
6772,,,survey-text,403,1412824,0.0-19.0-3.19,52856,List2B,white,man,,,,,"{""Q0"":""Luke and Fred are touching each other.""}","<img src=""stim_listB/touch6.gif""style=""height:400px;""></stim_listB>",are touching each other,
3072,<p>Thank you for completing that task.</p><p>The final part of this session is a short questionnaire.</p><p>Press Continue.</p>,0,html-button-response,404,1415898,0.0-20.0,52856,List2B,white,man,,,,,,,,
24943,,,survey-text,405,1441844,0.0-21.0,52856,List2B,white,man,,,,,"{""Q0"":""26"",""Q1"":""English"",""Q2"":""English"",""Q3"":""England"",""Q4"":""White British"",""Q5"":""Male""}",,,demographics
13085,,,survey-likert,406,1454935,0.0-22.0,52856,List2B,white,man,,,,,"{""Q0"":4}",,,likert_ESS
12175,,,survey-likert,407,1467117,0.0-23.0,52856,List2B,white,man,,,,,"{""Q0"":3}",,,likert_NSSAL_Q1
6067,,,survey-likert,408,1473193,0.0-24.0,52856,List2B,white,man,,,,,"{""Q0"":3}",,,likert_NSSAL_Q2
6641,,,survey-likert,409,1479841,0.0-25.0,52856,List2B,white,man,,,,,"{""Q0"":4}",,,likert_CGRS_Q1
4193,,,survey-likert,410,1484041,0.0-26.0,52856,List2B,white,man,,,,,"{""Q0"":4}",,,likert_CGRS_Q2
3536,,,survey-likert,411,1487584,0.0-27.0,52856,List2B,white,man,,,,,"{""Q0"":4}",,,likert_CGRS_Q3
15976,,,survey-text,412,1503578,0.0-28.0,52856,List2B,white,man,,,,,"{""Q0"":""ccc""}",,,worker_id
31901,,,external-html,413,1535525,0.0-29.0,52856,List2B,white,man,debrief.html,,,,,,,
