rt,stimulus,button_pressed,trial_type,trial_index,time_elapsed,internal_node_id,subject,list,ppt_race,ppt_gender,url,first_guess,correct,key_press,responses,image_type,phrase_type,test_part
2702,Welcome to the experiment. Press Continue to begin.,0,html-button-response,0,2724,0.0-0.0,53397,List2A,white,man,,,,,,,,
23918,,,external-html,1,27801,0.0-1.0,53397,List2A,white,man,consent.html,,,,,,,
54656,"<p>On the next page, you will see portraits of 8 people and their names.</p><p>Your first task is to take a few minutes to memorise the names of these people.</p><p>You will have to recall their names during the rest of the experiment, so it is</p><p>essential that you try to memorise these people and their names as best as you can.</p><br><p><strong>You will then be tested on your memory of these names and portraits.</strong></p><br><p>The experiment will start after you have completed this memory test.</p><br><p>Ready?</p>",0,html-button-response,2,82480,0.0-2.0,53397,List2A,white,man,,,,,,,,
146658,"<img src='img/portrait_matrix_list2.jpg' style='width:900px;height:500px;''></img><p>If you have memorised all the portraits and names and are ready to start, press Continue.</p><p><strong>Please note: Your memory of these faces will be tested 4 times during this experiment.</strong></p>",0,html-button-response,3,230149,0.0-3.0-0.0,53397,List2A,white,man,,,,,,,,
11981,"<img src=""portrait/BM1.jpg""style=""height:400px;""></img>",4,html-button-response,4,243145,0.0-3.0-1.0,53397,List2A,white,man,,TRUE,4,,,,,
null,CORRECT,,html-keyboard-response,5,244664,0.0-3.0-2.0-0.0,53397,List2A,white,man,,,,null,,,,
2813,"<img src=""portrait/WW2.jpg""style=""height:400px;""></img>",1,html-button-response,6,247496,0.0-3.0-4.0,53397,List2A,white,man,,TRUE,3,,,,,
8012,"<img src=""portrait/WW2.jpg""style=""height:400px;""></img>",3,html-button-response,7,256520,0.0-3.0-6.0-0.0,53397,List2A,white,man,,FALSE,3,,,,,
null,CORRECT,,html-keyboard-response,8,258027,0.0-3.0-6.0-1.0-0.0,53397,List2A,white,man,,,,null,,,,
15580,"<img src=""portrait/BW2.jpg""style=""height:400px;""></img>",0,html-button-response,9,273615,0.0-3.0-7.0,53397,List2A,white,man,,TRUE,2,,,,,
2410,"<img src=""portrait/BW2.jpg""style=""height:400px;""></img>",2,html-button-response,10,277034,0.0-3.0-9.0-0.0,53397,List2A,white,man,,FALSE,2,,,,,
null,CORRECT,,html-keyboard-response,11,278555,0.0-3.0-9.0-1.0-0.0,53397,List2A,white,man,,,,null,,,,
5523,"<img src=""portrait/WW1.jpg""style=""height:400px;""></img>",1,html-button-response,12,284091,0.0-3.0-10.0,53397,List2A,white,man,,TRUE,1,,,,,
null,CORRECT,,html-keyboard-response,13,285604,0.0-3.0-11.0-0.0,53397,List2A,white,man,,,,null,,,,
14958,"<img src=""portrait/WM1.jpg""style=""height:400px;""></img>",6,html-button-response,14,300572,0.0-3.0-13.0,53397,List2A,white,man,,TRUE,6,,,,,
null,CORRECT,,html-keyboard-response,15,302078,0.0-3.0-14.0-0.0,53397,List2A,white,man,,,,null,,,,
8509,"<img src=""portrait/BM2.jpg""style=""height:400px;""></img>",5,html-button-response,16,310599,0.0-3.0-16.0,53397,List2A,white,man,,TRUE,5,,,,,
null,CORRECT,,html-keyboard-response,17,312104,0.0-3.0-17.0-0.0,53397,List2A,white,man,,,,null,,,,
9242,"<img src=""portrait/BW1.jpg""style=""height:400px;""></img>",2,html-button-response,18,321354,0.0-3.0-19.0,53397,List2A,white,man,,TRUE,0,,,,,
10820,"<img src=""portrait/BW1.jpg""style=""height:400px;""></img>",0,html-button-response,19,333182,0.0-3.0-21.0-0.0,53397,List2A,white,man,,FALSE,0,,,,,
null,CORRECT,,html-keyboard-response,20,334693,0.0-3.0-21.0-1.0-0.0,53397,List2A,white,man,,,,null,,,,
8627,"<img src=""portrait/WM2.jpg""style=""height:400px;""></img>",7,html-button-response,21,343331,0.0-3.0-22.0,53397,List2A,white,man,,TRUE,7,,,,,
null,CORRECT,,html-keyboard-response,22,344840,0.0-3.0-23.0-0.0,53397,List2A,white,man,,,,null,,,,
3181,<p>You got 5 out of 8 right first time. Press Continue.</p>,0,html-button-response,23,348037,0.0-3.0-25.0,53397,List2A,white,man,,,,,,,,
3070,"As you did not score 100%, the memory game will repeat. Press Continue.",0,html-button-response,24,352119,0.0-3.0-26.0-0.0,53397,List2A,white,man,,,,,,,,
96937,"<img src='img/portrait_matrix_list2.jpg' style='width:900px;height:500px;''></img><p>If you have memorised all the portraits and names and are ready to start, press Continue.</p><p><strong>Please note: Your memory of these faces will be tested 4 times during this experiment.</strong></p>",0,html-button-response,25,450067,0.0-3.1-0.1,53397,List2A,white,man,,,,,,,,
7670,"<img src=""portrait/BM1.jpg""style=""height:400px;""></img>",4,html-button-response,26,458749,0.0-3.1-1.1,53397,List2A,white,man,,TRUE,4,,,,,
null,CORRECT,,html-keyboard-response,27,460257,0.0-3.1-2.1-0.1,53397,List2A,white,man,,,,null,,,,
5897,"<img src=""portrait/WW2.jpg""style=""height:400px;""></img>",3,html-button-response,28,466164,0.0-3.1-4.1,53397,List2A,white,man,,TRUE,3,,,,,
null,CORRECT,,html-keyboard-response,29,467673,0.0-3.1-5.1-0.1,53397,List2A,white,man,,,,null,,,,
6679,"<img src=""portrait/BW2.jpg""style=""height:400px;""></img>",2,html-button-response,30,474371,0.0-3.1-7.1,53397,List2A,white,man,,TRUE,2,,,,,
null,CORRECT,,html-keyboard-response,31,475878,0.0-3.1-8.1-0.1,53397,List2A,white,man,,,,null,,,,
4231,"<img src=""portrait/WW1.jpg""style=""height:400px;""></img>",3,html-button-response,32,480123,0.0-3.1-10.1,53397,List2A,white,man,,TRUE,1,,,,,
7245,"<img src=""portrait/WW1.jpg""style=""height:400px;""></img>",1,html-button-response,33,488382,0.0-3.1-12.1-0.1,53397,List2A,white,man,,FALSE,1,,,,,
null,CORRECT,,html-keyboard-response,34,489887,0.0-3.1-12.1-1.1-0.1,53397,List2A,white,man,,,,null,,,,
4178,"<img src=""portrait/WM1.jpg""style=""height:400px;""></img>",6,html-button-response,35,494080,0.0-3.1-13.1,53397,List2A,white,man,,TRUE,6,,,,,
null,CORRECT,,html-keyboard-response,36,495591,0.0-3.1-14.1-0.1,53397,List2A,white,man,,,,null,,,,
7568,"<img src=""portrait/BM2.jpg""style=""height:400px;""></img>",5,html-button-response,37,503173,0.0-3.1-16.1,53397,List2A,white,man,,TRUE,5,,,,,
null,CORRECT,,html-keyboard-response,38,504685,0.0-3.1-17.1-0.1,53397,List2A,white,man,,,,null,,,,
4723,"<img src=""portrait/BW1.jpg""style=""height:400px;""></img>",0,html-button-response,39,509424,0.0-3.1-19.1,53397,List2A,white,man,,TRUE,0,,,,,
null,CORRECT,,html-keyboard-response,40,510933,0.0-3.1-20.1-0.1,53397,List2A,white,man,,,,null,,,,
4502,"<img src=""portrait/WM2.jpg""style=""height:400px;""></img>",7,html-button-response,41,515447,0.0-3.1-22.1,53397,List2A,white,man,,TRUE,7,,,,,
null,CORRECT,,html-keyboard-response,42,516952,0.0-3.1-23.1-0.1,53397,List2A,white,man,,,,null,,,,
2013,<p>You got 7 out of 8 right first time. Press Continue.</p>,0,html-button-response,43,518971,0.0-3.1-25.1,53397,List2A,white,man,,,,,,,,
2274,"As you did not score 100%, the memory game will repeat. Press Continue.",0,html-button-response,44,522250,0.0-3.1-26.1-0.1,53397,List2A,white,man,,,,,,,,
3115,"<img src='img/portrait_matrix_list2.jpg' style='width:900px;height:500px;''></img><p>If you have memorised all the portraits and names and are ready to start, press Continue.</p><p><strong>Please note: Your memory of these faces will be tested 4 times during this experiment.</strong></p>",0,html-button-response,45,526373,0.0-3.2-0.2,53397,List2A,white,man,,,,,,,,
6317,"<img src=""portrait/BM1.jpg""style=""height:400px;""></img>",4,html-button-response,46,533717,0.0-3.2-1.2,53397,List2A,white,man,,TRUE,4,,,,,
null,CORRECT,,html-keyboard-response,47,535224,0.0-3.2-2.2-0.2,53397,List2A,white,man,,,,null,,,,
4270,"<img src=""portrait/WW2.jpg""style=""height:400px;""></img>",3,html-button-response,48,539508,0.0-3.2-4.2,53397,List2A,white,man,,TRUE,3,,,,,
null,CORRECT,,html-keyboard-response,49,541015,0.0-3.2-5.2-0.2,53397,List2A,white,man,,,,null,,,,
7072,"<img src=""portrait/BW2.jpg""style=""height:400px;""></img>",2,html-button-response,50,548098,0.0-3.2-7.2,53397,List2A,white,man,,TRUE,2,,,,,
null,CORRECT,,html-keyboard-response,51,549607,0.0-3.2-8.2-0.2,53397,List2A,white,man,,,,null,,,,
5006,"<img src=""portrait/WW1.jpg""style=""height:400px;""></img>",1,html-button-response,52,554623,0.0-3.2-10.2,53397,List2A,white,man,,TRUE,1,,,,,
null,CORRECT,,html-keyboard-response,53,556128,0.0-3.2-11.2-0.2,53397,List2A,white,man,,,,null,,,,
4030,"<img src=""portrait/WM1.jpg""style=""height:400px;""></img>",6,html-button-response,54,560177,0.0-3.2-13.2,53397,List2A,white,man,,TRUE,6,,,,,
null,CORRECT,,html-keyboard-response,55,561689,0.0-3.2-14.2-0.2,53397,List2A,white,man,,,,null,,,,
7345,"<img src=""portrait/BM2.jpg""style=""height:400px;""></img>",5,html-button-response,56,569050,0.0-3.2-16.2,53397,List2A,white,man,,TRUE,5,,,,,
null,CORRECT,,html-keyboard-response,57,570556,0.0-3.2-17.2-0.2,53397,List2A,white,man,,,,null,,,,
7216,"<img src=""portrait/BW1.jpg""style=""height:400px;""></img>",0,html-button-response,58,577790,0.0-3.2-19.2,53397,List2A,white,man,,TRUE,0,,,,,
null,CORRECT,,html-keyboard-response,59,579297,0.0-3.2-20.2-0.2,53397,List2A,white,man,,,,null,,,,
4563,"<img src=""portrait/WM2.jpg""style=""height:400px;""></img>",7,html-button-response,60,583872,0.0-3.2-22.2,53397,List2A,white,man,,TRUE,7,,,,,
null,CORRECT,,html-keyboard-response,61,585380,0.0-3.2-23.2-0.2,53397,List2A,white,man,,,,null,,,,
2602,<p>You got 8 out of 8 right first time. Press Continue.</p>,0,html-button-response,62,587991,0.0-3.2-25.2,53397,List2A,white,man,,,,,,,,
32895,"<p>In this experiment, you will view photographs of the people from the memory game interacting.</p><p>By using the <strong>exact</strong> phrase given <i>after</i> the photograph appears and recalling the correct names of the people in the photographs, form a sentence describing the interaction. You do not need to capitalise names.</p><p>Type your answer in the space provided. Please complete every sentence before moving onto the next trial.</p><p>You will only have a few seconds to memorise each given photograph and phrase before you can respond, so try your best to focus.</p><p>An example is given below. Press 'Continue' when you are ready.</p><img src='img/speaking_example.jpg' style='width:800px;height:460px;''></img>",0,html-button-response,63,621895,0.0-4.0,53397,List2A,white,man,,,,,,,,
2823,"<p>Before the experiment starts, you will watch two example trials. Press 'Continue'.</p>",0,html-button-response,64,625729,0.0-5.0,53397,List2A,white,man,,,,,,,,
null,<img src='img/meet_eg.gif' style='height:400px;''></img>,,html-keyboard-response,65,628737,0.0-6.0,53397,List2A,white,man,,,,null,,,,
null,<p>is meeting</p>,,html-keyboard-response,66,630745,0.0-7.0,53397,List2A,white,man,,,,null,,,,
2480,<p><b>Answer:</b> jane is meeting ruth</p>,0,html-button-response,67,633233,0.0-8.0,53397,List2A,white,man,,,,,,,,
null,<img src='img/look_eg.gif' style='height:400px;''></img>,,html-keyboard-response,68,636239,0.0-9.0,53397,List2A,white,man,,,,null,,,,
null,<p>are looking at each other</p>,,html-keyboard-response,69,638244,0.0-10.0,53397,List2A,white,man,,,,null,,,,
5598,<p><b>Answer:</b> fred and mike are looking at each other</p>,0,html-button-response,70,643849,0.0-11.0,53397,List2A,white,man,,,,,,,,
12255,"<p>Ready to start the experiment?</p><br><p><strong>Remember to describe the picture using a full sentence,</strong></p><p><strong>that combines the names of the people with the <i>exact</i> phrase given.</strong></p><p><strong>To receive full payment you must do this correctly.</strong></p><p><strong> You do not need to capitalise names or use punctuation.</strong></p><br><p>Press 'Continue' to begin.</p>",0,html-button-response,71,657111,0.0-12.0,53397,List2A,white,man,,,,,,,,
null,"<div style=""font-size:60px;"">+</div>",,html-keyboard-response,72,658616,0.0-13.0-0.0,53397,List2A,white,man,,,,null,,,,
null,"<img src=""stim_listA/touch8.gif""style=""height:400px;""></stim_listA>",,html-keyboard-response,73,660633,0.0-13.0-1.0,53397,List2A,white,man,,,,null,,,,
null,are touching each other,,html-keyboard-response,74,662679,0.0-13.0-2.0,53397,List2A,white,man,,,,null,,,,
43003,,,survey-text,75,705710,0.0-13.0-3.0,53397,List2A,white,man,,,,,"{""Q0"":""Ruth and Kate meet and greet ""}","<img src=""stim_listA/touch8.gif""style=""height:400px;""></stim_listA>",are touching each other,
null,"<div style=""font-size:60px;"">+</div>",,html-keyboard-response,76,706223,0.0-13.0-0.1,53397,List2A,white,man,,,,null,,,,
null,"<img src=""stim_listA/marry4.gif""style=""height:400px;""></stim_listA>",,html-keyboard-response,77,708241,0.0-13.0-1.1,53397,List2A,white,man,,,,null,,,,
null,are marrying each other,,html-keyboard-response,78,710247,0.0-13.0-2.1,53397,List2A,white,man,,,,null,,,,
46952,,,survey-text,79,757223,0.0-13.0-3.1,53397,List2A,white,man,,,,,"{""Q0"":""Mike and Kate are getting married ""}","<img src=""stim_listA/marry4.gif""style=""height:400px;""></stim_listA>",are marrying each other,
null,"<div style=""font-size:60px;"">+</div>",,html-keyboard-response,80,757731,0.0-13.0-0.2,53397,List2A,white,man,,,,null,,,,
null,"<img src=""stim_listA/play5.gif""style=""height:400px;""></stim_listA>",,html-keyboard-response,81,759738,0.0-13.0-1.2,53397,List2A,white,man,,,,null,,,,
null,is playing with,,html-keyboard-response,82,761742,0.0-13.0-2.2,53397,List2A,white,man,,,,null,,,,
36530,,,survey-text,83,798278,0.0-13.0-3.2,53397,List2A,white,man,,,,,"{""Q0"":""Mike and Fred are dancing ""}","<img src=""stim_listA/play5.gif""style=""height:400px;""></stim_listA>",is playing with,
null,"<div style=""font-size:60px;"">+</div>",,html-keyboard-response,84,798782,0.0-13.0-0.3,53397,List2A,white,man,,,,null,,,,
null,"<img src=""stim_listA/argue6.gif""style=""height:400px;""></stim_listA>",,html-keyboard-response,85,800788,0.0-13.0-1.3,53397,List2A,white,man,,,,null,,,,
null,are arguing with each other,,html-keyboard-response,86,802792,0.0-13.0-2.3,53397,List2A,white,man,,,,null,,,,
35488,,,survey-text,87,838285,0.0-13.0-3.3,53397,List2A,white,man,,,,,"{""Q0"":""Luke and Mike are fighting ""}","<img src=""stim_listA/argue6.gif""style=""height:400px;""></stim_listA>",are arguing with each other,
null,"<div style=""font-size:60px;"">+</div>",,html-keyboard-response,88,838790,0.0-13.0-0.4,53397,List2A,white,man,,,,null,,,,
null,"<img src=""stim_listA/play4.gif""style=""height:400px;""></stim_listA>",,html-keyboard-response,89,840799,0.0-13.0-1.4,53397,List2A,white,man,,,,null,,,,
null,are playing with each other,,html-keyboard-response,90,842804,0.0-13.0-2.4,53397,List2A,white,man,,,,null,,,,
36139,,,survey-text,91,878957,0.0-13.0-3.4,53397,List2A,white,man,,,,,"{""Q0"":""Mike and Kate are arguing ""}","<img src=""stim_listA/play4.gif""style=""height:400px;""></stim_listA>",are playing with each other,
null,"<div style=""font-size:60px;"">+</div>",,html-keyboard-response,92,879464,0.0-13.0-0.5,53397,List2A,white,man,,,,null,,,,
null,"<img src=""stim_listA/argue5.gif""style=""height:400px;""></stim_listA>",,html-keyboard-response,93,881471,0.0-13.0-1.5,53397,List2A,white,man,,,,null,,,,
null,is arguing with,,html-keyboard-response,94,883481,0.0-13.0-2.5,53397,List2A,white,man,,,,null,,,,
30076,,,survey-text,95,913570,0.0-13.0-3.5,53397,List2A,white,man,,,,,"{""Q0"":""Fred and Mike are arguing ""}","<img src=""stim_listA/argue5.gif""style=""height:400px;""></stim_listA>",is arguing with,
null,"<div style=""font-size:60px;"">+</div>",,html-keyboard-response,96,914083,0.0-13.0-0.6,53397,List2A,white,man,,,,null,,,,
null,"<img src=""stim_listA/touch2.gif""style=""height:400px;""></stim_listA>",,html-keyboard-response,97,916091,0.0-13.0-1.6,53397,List2A,white,man,,,,null,,,,
null,are touching each other,,html-keyboard-response,98,918096,0.0-13.0-2.6,53397,List2A,white,man,,,,null,,,,
30983,,,survey-text,99,949091,0.0-13.0-3.6,53397,List2A,white,man,,,,,"{""Q0"":""Luke and Ruth are greeting""}","<img src=""stim_listA/touch2.gif""style=""height:400px;""></stim_listA>",are touching each other,
null,"<div style=""font-size:60px;"">+</div>",,html-keyboard-response,100,949600,0.0-13.0-0.7,53397,List2A,white,man,,,,null,,,,
null,"<img src=""stim_listA/marry8.gif""style=""height:400px;""></stim_listA>",,html-keyboard-response,101,951608,0.0-13.0-1.7,53397,List2A,white,man,,,,null,,,,
null,are marrying each other,,html-keyboard-response,102,953612,0.0-13.0-2.7,53397,List2A,white,man,,,,null,,,,
33129,,,survey-text,103,986746,0.0-13.0-3.7,53397,List2A,white,man,,,,,"{""Q0"":""Jane and Kate are marrying ""}","<img src=""stim_listA/marry8.gif""style=""height:400px;""></stim_listA>",are marrying each other,
null,"<div style=""font-size:60px;"">+</div>",,html-keyboard-response,104,987251,0.0-13.0-0.8,53397,List2A,white,man,,,,null,,,,
null,"<img src=""stim_listA/touch7.gif""style=""height:400px;""></stim_listA>",,html-keyboard-response,105,989259,0.0-13.0-1.8,53397,List2A,white,man,,,,null,,,,
null,is touching,,html-keyboard-response,106,991264,0.0-13.0-2.8,53397,List2A,white,man,,,,null,,,,
26175,,,survey-text,107,1017442,0.0-13.0-3.8,53397,List2A,white,man,,,,,"{""Q0"":""Jane and Kate are touching ""}","<img src=""stim_listA/touch7.gif""style=""height:400px;""></stim_listA>",is touching,
null,"<div style=""font-size:60px;"">+</div>",,html-keyboard-response,108,1017946,0.0-13.0-0.9,53397,List2A,white,man,,,,null,,,,
null,"<img src=""stim_listA/play2.gif""style=""height:400px;""></stim_listA>",,html-keyboard-response,109,1019951,0.0-13.0-1.9,53397,List2A,white,man,,,,null,,,,
null,are playing with each other,,html-keyboard-response,110,1021955,0.0-13.0-2.9,53397,List2A,white,man,,,,null,,,,
19857,,,survey-text,111,1041816,0.0-13.0-3.9,53397,List2A,white,man,,,,,"{""Q0"":""Ruth and luke are playing ""}","<img src=""stim_listA/play2.gif""style=""height:400px;""></stim_listA>",are playing with each other,
null,"<div style=""font-size:60px;"">+</div>",,html-keyboard-response,112,1042320,0.0-13.0-0.10,53397,List2A,white,man,,,,null,,,,
null,"<img src=""stim_listA/shout2.gif""style=""height:400px;""></stim_listA>",,html-keyboard-response,113,1044326,0.0-13.0-1.10,53397,List2A,white,man,,,,null,,,,
null,are shouting at each other,,html-keyboard-response,114,1046333,0.0-13.0-2.10,53397,List2A,white,man,,,,null,,,,
34753,,,survey-text,115,1081092,0.0-13.0-3.10,53397,List2A,white,man,,,,,"{""Q0"":""Jane and Dave are fighting ""}","<img src=""stim_listA/shout2.gif""style=""height:400px;""></stim_listA>",are shouting at each other,
null,"<div style=""font-size:60px;"">+</div>",,html-keyboard-response,116,1081596,0.0-13.0-0.11,53397,List2A,white,man,,,,null,,,,
null,"<img src=""stim_listA/shout5.gif""style=""height:400px;""></stim_listA>",,html-keyboard-response,117,1083604,0.0-13.0-1.11,53397,List2A,white,man,,,,null,,,,
null,is shouting at,,html-keyboard-response,118,1085619,0.0-13.0-2.11,53397,List2A,white,man,,,,null,,,,
41951,,,survey-text,119,1127578,0.0-13.0-3.11,53397,List2A,white,man,,,,,"{""Q0"":""Luke and Mike are shouting ""}","<img src=""stim_listA/shout5.gif""style=""height:400px;""></stim_listA>",is shouting at,
null,"<div style=""font-size:60px;"">+</div>",,html-keyboard-response,120,1128082,0.0-13.0-0.12,53397,List2A,white,man,,,,null,,,,
null,"<img src=""stim_listA/flirt6.gif""style=""height:400px;""></stim_listA>",,html-keyboard-response,121,1130088,0.0-13.0-1.12,53397,List2A,white,man,,,,null,,,,
null,are flirting with each other,,html-keyboard-response,122,1132091,0.0-13.0-2.12,53397,List2A,white,man,,,,null,,,,
26659,,,survey-text,123,1158756,0.0-13.0-3.12,53397,List2A,white,man,,,,,"{""Q0"":""Dave and Fred are flirting ""}","<img src=""stim_listA/flirt6.gif""style=""height:400px;""></stim_listA>",are flirting with each other,
null,"<div style=""font-size:60px;"">+</div>",,html-keyboard-response,124,1159261,0.0-13.0-0.13,53397,List2A,white,man,,,,null,,,,
null,"<img src=""stim_listA/argue4.gif""style=""height:400px;""></stim_listA>",,html-keyboard-response,125,1161267,0.0-13.0-1.13,53397,List2A,white,man,,,,null,,,,
null,are arguing with each other,,html-keyboard-response,126,1163269,0.0-13.0-2.13,53397,List2A,white,man,,,,null,,,,
16111,,,survey-text,127,1179385,0.0-13.0-3.13,53397,List2A,white,man,,,,,"{""Q0"":""Kate and Fred are dancing ""}","<img src=""stim_listA/argue4.gif""style=""height:400px;""></stim_listA>",are arguing with each other,
null,"<div style=""font-size:60px;"">+</div>",,html-keyboard-response,128,1179891,0.0-13.0-0.14,53397,List2A,white,man,,,,null,,,,
null,"<img src=""stim_listA/flirt8.gif""style=""height:400px;""></stim_listA>",,html-keyboard-response,129,1181900,0.0-13.0-1.14,53397,List2A,white,man,,,,null,,,,
null,are flirting with each other,,html-keyboard-response,130,1183909,0.0-13.0-2.14,53397,List2A,white,man,,,,null,,,,
19200,,,survey-text,131,1203119,0.0-13.0-3.14,53397,List2A,white,man,,,,,"{""Q0"":""Beth and Kate are flirting""}","<img src=""stim_listA/flirt8.gif""style=""height:400px;""></stim_listA>",are flirting with each other,
null,"<div style=""font-size:60px;"">+</div>",,html-keyboard-response,132,1203623,0.0-13.0-0.15,53397,List2A,white,man,,,,null,,,,
null,"<img src=""stim_listA/dance5.gif""style=""height:400px;""></stim_listA>",,html-keyboard-response,133,1205628,0.0-13.0-1.15,53397,List2A,white,man,,,,null,,,,
null,is dancing with,,html-keyboard-response,134,1207635,0.0-13.0-2.15,53397,List2A,white,man,,,,null,,,,
35458,,,survey-text,135,1243101,0.0-13.0-3.15,53397,List2A,white,man,,,,,"{""Q0"":""Luke and Mike are flirting ""}","<img src=""stim_listA/dance5.gif""style=""height:400px;""></stim_listA>",is dancing with,
null,"<div style=""font-size:60px;"">+</div>",,html-keyboard-response,136,1243605,0.0-13.0-0.16,53397,List2A,white,man,,,,null,,,,
null,"<img src=""stim_listA/dance7.gif""style=""height:400px;""></stim_listA>",,html-keyboard-response,137,1245612,0.0-13.0-1.16,53397,List2A,white,man,,,,null,,,,
null,is dancing with,,html-keyboard-response,138,1247622,0.0-13.0-2.16,53397,List2A,white,man,,,,null,,,,
14497,,,survey-text,139,1262126,0.0-13.0-3.16,53397,List2A,white,man,,,,,"{""Q0"":""Ruth and Kate are dancing ""}","<img src=""stim_listA/dance7.gif""style=""height:400px;""></stim_listA>",is dancing with,
null,"<div style=""font-size:60px;"">+</div>",,html-keyboard-response,140,1262631,0.0-13.0-0.17,53397,List2A,white,man,,,,null,,,,
null,"<img src=""stim_listA/fight5.gif""style=""height:400px;""></stim_listA>",,html-keyboard-response,141,1264644,0.0-13.0-1.17,53397,List2A,white,man,,,,null,,,,
null,is fighting,,html-keyboard-response,142,1266652,0.0-13.0-2.17,53397,List2A,white,man,,,,null,,,,
12988,,,survey-text,143,1279649,0.0-13.0-3.17,53397,List2A,white,man,,,,,"{""Q0"":""Dave and Mike are fighting ""}","<img src=""stim_listA/fight5.gif""style=""height:400px;""></stim_listA>",is fighting,
null,"<div style=""font-size:60px;"">+</div>",,html-keyboard-response,144,1280152,0.0-13.0-0.18,53397,List2A,white,man,,,,null,,,,
null,"<img src=""stim_listA/shout4.gif""style=""height:400px;""></stim_listA>",,html-keyboard-response,145,1282164,0.0-13.0-1.18,53397,List2A,white,man,,,,null,,,,
null,are shouting at each other,,html-keyboard-response,146,1284174,0.0-13.0-2.18,53397,List2A,white,man,,,,null,,,,
12503,,,survey-text,147,1296685,0.0-13.0-3.18,53397,List2A,white,man,,,,,"{""Q0"":""Kate and Mike are fighting ""}","<img src=""stim_listA/shout4.gif""style=""height:400px;""></stim_listA>",are shouting at each other,
null,"<div style=""font-size:60px;"">+</div>",,html-keyboard-response,148,1297188,0.0-13.0-0.19,53397,List2A,white,man,,,,null,,,,
null,"<img src=""stim_listA/play1.gif""style=""height:400px;""></stim_listA>",,html-keyboard-response,149,1299198,0.0-13.0-1.19,53397,List2A,white,man,,,,null,,,,
null,is playing with,,html-keyboard-response,150,1301208,0.0-13.0-2.19,53397,List2A,white,man,,,,null,,,,
38420,,,survey-text,151,1339634,0.0-13.0-3.19,53397,List2A,white,man,,,,,"{""Q0"":""Jane and Mike are shouting ""}","<img src=""stim_listA/play1.gif""style=""height:400px;""></stim_listA>",is playing with,
110879,"<img src='img/portrait_matrix_list2.jpg' style='width:900px;height:500px;''></img><p>If you have memorised all the portraits and names and are ready to start, press Continue.</p><p><strong>Please note: Your memory of these faces will be tested 4 times during this experiment.</strong></p>",0,html-button-response,152,1450530,0.0-14.0-0.0,53397,List2A,white,man,,,,,,,,
13268,"<img src=""portrait/WW2.jpg""style=""height:400px;""></img>",3,html-button-response,153,1464812,0.0-14.0-1.0,53397,List2A,white,man,,TRUE,3,,,,,
null,CORRECT,,html-keyboard-response,154,1466338,0.0-14.0-2.0-0.0,53397,List2A,white,man,,,,null,,,,
3920,"<img src=""portrait/BM2.jpg""style=""height:400px;""></img>",5,html-button-response,155,1470268,0.0-14.0-4.0,53397,List2A,white,man,,TRUE,5,,,,,
null,CORRECT,,html-keyboard-response,156,1471778,0.0-14.0-5.0-0.0,53397,List2A,white,man,,,,null,,,,
5261,"<img src=""portrait/BW1.jpg""style=""height:400px;""></img>",0,html-button-response,157,1477052,0.0-14.0-7.0,53397,List2A,white,man,,TRUE,0,,,,,
null,CORRECT,,html-keyboard-response,158,1478563,0.0-14.0-8.0-0.0,53397,List2A,white,man,,,,null,,,,
7815,"<img src=""portrait/WM2.jpg""style=""height:400px;""></img>",7,html-button-response,159,1486389,0.0-14.0-10.0,53397,List2A,white,man,,TRUE,7,,,,,
null,CORRECT,,html-keyboard-response,160,1487896,0.0-14.0-11.0-0.0,53397,List2A,white,man,,,,null,,,,
7012,"<img src=""portrait/BM1.jpg""style=""height:400px;""></img>",4,html-button-response,161,1494922,0.0-14.0-13.0,53397,List2A,white,man,,TRUE,4,,,,,
null,CORRECT,,html-keyboard-response,162,1496427,0.0-14.0-14.0-0.0,53397,List2A,white,man,,,,null,,,,
6670,"<img src=""portrait/BW2.jpg""style=""height:400px;""></img>",2,html-button-response,163,1503103,0.0-14.0-16.0,53397,List2A,white,man,,TRUE,2,,,,,
null,CORRECT,,html-keyboard-response,164,1504611,0.0-14.0-17.0-0.0,53397,List2A,white,man,,,,null,,,,
4916,"<img src=""portrait/WM1.jpg""style=""height:400px;""></img>",6,html-button-response,165,1509550,0.0-14.0-19.0,53397,List2A,white,man,,TRUE,6,,,,,
null,CORRECT,,html-keyboard-response,166,1511061,0.0-14.0-20.0-0.0,53397,List2A,white,man,,,,null,,,,
8227,"<img src=""portrait/WW1.jpg""style=""height:400px;""></img>",1,html-button-response,167,1519300,0.0-14.0-22.0,53397,List2A,white,man,,TRUE,1,,,,,
null,CORRECT,,html-keyboard-response,168,1520810,0.0-14.0-23.0-0.0,53397,List2A,white,man,,,,null,,,,
2190,<p>You got 8 out of 8 right first time. Press Continue.</p>,0,html-button-response,169,1523020,0.0-14.0-25.0,53397,List2A,white,man,,,,,,,,
null,"<div style=""font-size:60px;"">+</div>",,html-keyboard-response,170,1524533,0.0-15.0-0.0,53397,List2A,white,man,,,,null,,,,
null,"<img src=""stim_listA/argue7.gif""style=""height:400px;""></stim_listA>",,html-keyboard-response,171,1526540,0.0-15.0-1.0,53397,List2A,white,man,,,,null,,,,
null,is arguing with,,html-keyboard-response,172,1528549,0.0-15.0-2.0,53397,List2A,white,man,,,,null,,,,
29927,,,survey-text,173,1558482,0.0-15.0-3.0,53397,List2A,white,man,,,,,"{""Q0"":""Beth and Jane are fighting ""}","<img src=""stim_listA/argue7.gif""style=""height:400px;""></stim_listA>",is arguing with,
null,"<div style=""font-size:60px;"">+</div>",,html-keyboard-response,174,1558985,0.0-15.0-0.1,53397,List2A,white,man,,,,null,,,,
null,"<img src=""stim_listA/talk8.gif""style=""height:400px;""></stim_listA>",,html-keyboard-response,175,1560999,0.0-15.0-1.1,53397,List2A,white,man,,,,null,,,,
null,are talking to each other,,html-keyboard-response,176,1563008,0.0-15.0-2.1,53397,List2A,white,man,,,,null,,,,
18361,,,survey-text,177,1581378,0.0-15.0-3.1,53397,List2A,white,man,,,,,"{""Q0"":""Jane and Kate are talking ""}","<img src=""stim_listA/talk8.gif""style=""height:400px;""></stim_listA>",are talking to each other,
null,"<div style=""font-size:60px;"">+</div>",,html-keyboard-response,178,1581882,0.0-15.0-0.2,53397,List2A,white,man,,,,null,,,,
null,"<img src=""stim_listA/play6.gif""style=""height:400px;""></stim_listA>",,html-keyboard-response,179,1583887,0.0-15.0-1.2,53397,List2A,white,man,,,,null,,,,
null,are playing with each other,,html-keyboard-response,180,1585889,0.0-15.0-2.2,53397,List2A,white,man,,,,null,,,,
21175,,,survey-text,181,1607070,0.0-15.0-3.2,53397,List2A,white,man,,,,,"{""Q0"":""Luke and Fred are talking ""}","<img src=""stim_listA/play6.gif""style=""height:400px;""></stim_listA>",are playing with each other,
null,"<div style=""font-size:60px;"">+</div>",,html-keyboard-response,182,1607575,0.0-15.0-0.3,53397,List2A,white,man,,,,null,,,,
null,"<img src=""stim_listA/marry6.gif""style=""height:400px;""></stim_listA>",,html-keyboard-response,183,1609582,0.0-15.0-1.3,53397,List2A,white,man,,,,null,,,,
null,are marrying each other,,html-keyboard-response,184,1611587,0.0-15.0-2.3,53397,List2A,white,man,,,,null,,,,
19121,,,survey-text,185,1630719,0.0-15.0-3.3,53397,List2A,white,man,,,,,"{""Q0"":""Luke and Mike are marrying ""}","<img src=""stim_listA/marry6.gif""style=""height:400px;""></stim_listA>",are marrying each other,
null,"<div style=""font-size:60px;"">+</div>",,html-keyboard-response,186,1631223,0.0-15.0-0.4,53397,List2A,white,man,,,,null,,,,
null,"<img src=""stim_listA/kiss4.gif""style=""height:400px;""></stim_listA>",,html-keyboard-response,187,1633236,0.0-15.0-1.4,53397,List2A,white,man,,,,null,,,,
null,are kissing each other,,html-keyboard-response,188,1635245,0.0-15.0-2.4,53397,List2A,white,man,,,,null,,,,
24238,,,survey-text,189,1659492,0.0-15.0-3.4,53397,List2A,white,man,,,,,"{""Q0"":""Mike and Kate are kissing ""}","<img src=""stim_listA/kiss4.gif""style=""height:400px;""></stim_listA>",are kissing each other,
null,"<div style=""font-size:60px;"">+</div>",,html-keyboard-response,190,1659995,0.0-15.0-0.5,53397,List2A,white,man,,,,null,,,,
null,"<img src=""stim_listA/shout7.gif""style=""height:400px;""></stim_listA>",,html-keyboard-response,191,1662001,0.0-15.0-1.5,53397,List2A,white,man,,,,null,,,,
null,is shouting at,,html-keyboard-response,192,1664009,0.0-15.0-2.5,53397,List2A,white,man,,,,null,,,,
21052,,,survey-text,193,1685070,0.0-15.0-3.5,53397,List2A,white,man,,,,,"{""Q0"":""Beth and Ruth are fighting ""}","<img src=""stim_listA/shout7.gif""style=""height:400px;""></stim_listA>",is shouting at,
null,"<div style=""font-size:60px;"">+</div>",,html-keyboard-response,194,1685575,0.0-15.0-0.6,53397,List2A,white,man,,,,null,,,,
null,"<img src=""stim_listA/flirt7.gif""style=""height:400px;""></stim_listA>",,html-keyboard-response,195,1687582,0.0-15.0-1.6,53397,List2A,white,man,,,,null,,,,
null,is flirting with,,html-keyboard-response,196,1689593,0.0-15.0-2.6,53397,List2A,white,man,,,,null,,,,
15099,,,survey-text,197,1704701,0.0-15.0-3.6,53397,List2A,white,man,,,,,"{""Q0"":""Ruth and Kate are flirting ""}","<img src=""stim_listA/flirt7.gif""style=""height:400px;""></stim_listA>",is flirting with,
null,"<div style=""font-size:60px;"">+</div>",,html-keyboard-response,198,1705207,0.0-15.0-0.7,53397,List2A,white,man,,,,null,,,,
null,"<img src=""stim_listA/marry7.gif""style=""height:400px;""></stim_listA>",,html-keyboard-response,199,1707219,0.0-15.0-1.7,53397,List2A,white,man,,,,null,,,,
null,is marrying,,html-keyboard-response,200,1709232,0.0-15.0-2.7,53397,List2A,white,man,,,,null,,,,
19962,,,survey-text,201,1729202,0.0-15.0-3.7,53397,List2A,white,man,,,,,"{""Q0"":""Kate and Jane are marrying ""}","<img src=""stim_listA/marry7.gif""style=""height:400px;""></stim_listA>",is marrying,
null,"<div style=""font-size:60px;"">+</div>",,html-keyboard-response,202,1729708,0.0-15.0-0.8,53397,List2A,white,man,,,,null,,,,
null,"<img src=""stim_listA/argue8.gif""style=""height:400px;""></stim_listA>",,html-keyboard-response,203,1731721,0.0-15.0-1.8,53397,List2A,white,man,,,,null,,,,
null,are arguing with each other,,html-keyboard-response,204,1733732,0.0-15.0-2.8,53397,List2A,white,man,,,,null,,,,
13109,,,survey-text,205,1746847,0.0-15.0-3.8,53397,List2A,white,man,,,,,"{""Q0"":""Ruth and Kate are arguing ""}","<img src=""stim_listA/argue8.gif""style=""height:400px;""></stim_listA>",are arguing with each other,
null,"<div style=""font-size:60px;"">+</div>",,html-keyboard-response,206,1747352,0.0-15.0-0.9,53397,List2A,white,man,,,,null,,,,
null,"<img src=""stim_listA/kiss6.gif""style=""height:400px;""></stim_listA>",,html-keyboard-response,207,1749366,0.0-15.0-1.9,53397,List2A,white,man,,,,null,,,,
null,are kissing each other,,html-keyboard-response,208,1751370,0.0-15.0-2.9,53397,List2A,white,man,,,,null,,,,
18915,,,survey-text,209,1770289,0.0-15.0-3.9,53397,List2A,white,man,,,,,"{""Q0"":""Dave and Mike are marrying ""}","<img src=""stim_listA/kiss6.gif""style=""height:400px;""></stim_listA>",are kissing each other,
null,"<div style=""font-size:60px;"">+</div>",,html-keyboard-response,210,1770793,0.0-15.0-0.10,53397,List2A,white,man,,,,null,,,,
null,"<img src=""stim_listA/dance8.gif""style=""height:400px;""></stim_listA>",,html-keyboard-response,211,1772800,0.0-15.0-1.10,53397,List2A,white,man,,,,null,,,,
null,are dancing with each other,,html-keyboard-response,212,1774810,0.0-15.0-2.10,53397,List2A,white,man,,,,null,,,,
20781,,,survey-text,213,1795603,0.0-15.0-3.10,53397,List2A,white,man,,,,,"{""Q0"":""Jane and Kate are dancing ""}","<img src=""stim_listA/dance8.gif""style=""height:400px;""></stim_listA>",are dancing with each other,
null,"<div style=""font-size:60px;"">+</div>",,html-keyboard-response,214,1796107,0.0-15.0-0.11,53397,List2A,white,man,,,,null,,,,
null,"<img src=""stim_listA/talk2.gif""style=""height:400px;""></stim_listA>",,html-keyboard-response,215,1798113,0.0-15.0-1.11,53397,List2A,white,man,,,,null,,,,
null,are talking to each other,,html-keyboard-response,216,1800130,0.0-15.0-2.11,53397,List2A,white,man,,,,null,,,,
25580,,,survey-text,217,1825724,0.0-15.0-3.11,53397,List2A,white,man,,,,,"{""Q0"":""Dave and Ruth are talking ""}","<img src=""stim_listA/talk2.gif""style=""height:400px;""></stim_listA>",are talking to each other,
null,"<div style=""font-size:60px;"">+</div>",,html-keyboard-response,218,1826227,0.0-15.0-0.12,53397,List2A,white,man,,,,null,,,,
null,"<img src=""stim_listA/dance4.gif""style=""height:400px;""></stim_listA>",,html-keyboard-response,219,1828232,0.0-15.0-1.12,53397,List2A,white,man,,,,null,,,,
null,are dancing with each other,,html-keyboard-response,220,1830234,0.0-15.0-2.12,53397,List2A,white,man,,,,null,,,,
10356,,,survey-text,221,1840596,0.0-15.0-3.12,53397,List2A,white,man,,,,,"{""Q0"":""Mike and Kate are dancing ""}","<img src=""stim_listA/dance4.gif""style=""height:400px;""></stim_listA>",are dancing with each other,
null,"<div style=""font-size:60px;"">+</div>",,html-keyboard-response,222,1841103,0.0-15.0-0.13,53397,List2A,white,man,,,,null,,,,
null,"<img src=""stim_listA/play3.gif""style=""height:400px;""></stim_listA>",,html-keyboard-response,223,1843108,0.0-15.0-1.13,53397,List2A,white,man,,,,null,,,,
null,is playing with,,html-keyboard-response,224,1845114,0.0-15.0-2.13,53397,List2A,white,man,,,,null,,,,
26827,,,survey-text,225,1871953,0.0-15.0-3.13,53397,List2A,white,man,,,,,"{""Q0"":""Mike and Kate are talking ""}","<img src=""stim_listA/play3.gif""style=""height:400px;""></stim_listA>",is playing with,
null,"<div style=""font-size:60px;"">+</div>",,html-keyboard-response,226,1872457,0.0-15.0-0.14,53397,List2A,white,man,,,,null,,,,
null,"<img src=""stim_listA/kiss3.gif""style=""height:400px;""></stim_listA>",,html-keyboard-response,227,1874470,0.0-15.0-1.14,53397,List2A,white,man,,,,null,,,,
null,is kissing,,html-keyboard-response,228,1876479,0.0-15.0-2.14,53397,List2A,white,man,,,,null,,,,
20217,,,survey-text,229,1896706,0.0-15.0-3.14,53397,List2A,white,man,,,,,"{""Q0"":""Beth and Fred are talking ""}","<img src=""stim_listA/kiss3.gif""style=""height:400px;""></stim_listA>",is kissing,
null,"<div style=""font-size:60px;"">+</div>",,html-keyboard-response,230,1897212,0.0-15.0-0.15,53397,List2A,white,man,,,,null,,,,
null,"<img src=""stim_listA/dance6.gif""style=""height:400px;""></stim_listA>",,html-keyboard-response,231,1899218,0.0-15.0-1.15,53397,List2A,white,man,,,,null,,,,
null,are dancing with each other,,html-keyboard-response,232,1901224,0.0-15.0-2.15,53397,List2A,white,man,,,,null,,,,
16896,,,survey-text,233,1918129,0.0-15.0-3.15,53397,List2A,white,man,,,,,"{""Q0"":""Dave and Fred are dancing ""}","<img src=""stim_listA/dance6.gif""style=""height:400px;""></stim_listA>",are dancing with each other,
null,"<div style=""font-size:60px;"">+</div>",,html-keyboard-response,234,1918634,0.0-15.0-0.16,53397,List2A,white,man,,,,null,,,,
null,"<img src=""stim_listA/fight8.gif""style=""height:400px;""></stim_listA>",,html-keyboard-response,235,1920643,0.0-15.0-1.16,53397,List2A,white,man,,,,null,,,,
null,are fighting each other,,html-keyboard-response,236,1922653,0.0-15.0-2.16,53397,List2A,white,man,,,,null,,,,
17978,,,survey-text,237,1940638,0.0-15.0-3.16,53397,List2A,white,man,,,,,"{""Q0"":""Ruth and Beth are fighting ""}","<img src=""stim_listA/fight8.gif""style=""height:400px;""></stim_listA>",are fighting each other,
null,"<div style=""font-size:60px;"">+</div>",,html-keyboard-response,238,1941141,0.0-15.0-0.17,53397,List2A,white,man,,,,null,,,,
null,"<img src=""stim_listA/play7.gif""style=""height:400px;""></stim_listA>",,html-keyboard-response,239,1943149,0.0-15.0-1.17,53397,List2A,white,man,,,,null,,,,
null,is playing with,,html-keyboard-response,240,1945158,0.0-15.0-2.17,53397,List2A,white,man,,,,null,,,,
23394,,,survey-text,241,1968560,0.0-15.0-3.17,53397,List2A,white,man,,,,,"{""Q0"":""Jane and Beth are dancing ""}","<img src=""stim_listA/play7.gif""style=""height:400px;""></stim_listA>",is playing with,
null,"<div style=""font-size:60px;"">+</div>",,html-keyboard-response,242,1969063,0.0-15.0-0.18,53397,List2A,white,man,,,,null,,,,
null,"<img src=""stim_listA/dance1.gif""style=""height:400px;""></stim_listA>",,html-keyboard-response,243,1971073,0.0-15.0-1.18,53397,List2A,white,man,,,,null,,,,
null,is dancing with,,html-keyboard-response,244,1973082,0.0-15.0-2.18,53397,List2A,white,man,,,,null,,,,
21788,,,survey-text,245,1994876,0.0-15.0-3.18,53397,List2A,white,man,,,,,"{""Q0"":""Luke and Jane are dancing ""}","<img src=""stim_listA/dance1.gif""style=""height:400px;""></stim_listA>",is dancing with,
null,"<div style=""font-size:60px;"">+</div>",,html-keyboard-response,246,1995382,0.0-15.0-0.19,53397,List2A,white,man,,,,null,,,,
null,"<img src=""stim_listA/flirt4.gif""style=""height:400px;""></stim_listA>",,html-keyboard-response,247,1997396,0.0-15.0-1.19,53397,List2A,white,man,,,,null,,,,
null,are flirting with each other,,html-keyboard-response,248,1999410,0.0-15.0-2.19,53397,List2A,white,man,,,,null,,,,
20531,,,survey-text,249,2019953,0.0-15.0-3.19,53397,List2A,white,man,,,,,"{""Q0"":""Mike and Beth are flirting ""}","<img src=""stim_listA/flirt4.gif""style=""height:400px;""></stim_listA>",are flirting with each other,
4834,"<img src='img/portrait_matrix_list2.jpg' style='width:900px;height:500px;''></img><p>If you have memorised all the portraits and names and are ready to start, press Continue.</p><p><strong>Please note: Your memory of these faces will be tested 4 times during this experiment.</strong></p>",0,html-button-response,250,2024800,0.0-16.0-0.0,53397,List2A,white,man,,,,,,,,
4373,"<img src=""portrait/BM2.jpg""style=""height:400px;""></img>",5,html-button-response,251,2030184,0.0-16.0-1.0,53397,List2A,white,man,,TRUE,5,,,,,
null,CORRECT,,html-keyboard-response,252,2031695,0.0-16.0-2.0-0.0,53397,List2A,white,man,,,,null,,,,
4867,"<img src=""portrait/BM1.jpg""style=""height:400px;""></img>",4,html-button-response,253,2036571,0.0-16.0-4.0,53397,List2A,white,man,,TRUE,4,,,,,
null,CORRECT,,html-keyboard-response,254,2038080,0.0-16.0-5.0-0.0,53397,List2A,white,man,,,,null,,,,
3606,"<img src=""portrait/BW1.jpg""style=""height:400px;""></img>",0,html-button-response,255,2041699,0.0-16.0-7.0,53397,List2A,white,man,,TRUE,0,,,,,
null,CORRECT,,html-keyboard-response,256,2043205,0.0-16.0-8.0-0.0,53397,List2A,white,man,,,,null,,,,
2995,"<img src=""portrait/WM2.jpg""style=""height:400px;""></img>",7,html-button-response,257,2046209,0.0-16.0-10.0,53397,List2A,white,man,,TRUE,7,,,,,
null,CORRECT,,html-keyboard-response,258,2047716,0.0-16.0-11.0-0.0,53397,List2A,white,man,,,,null,,,,
4007,"<img src=""portrait/WW2.jpg""style=""height:400px;""></img>",3,html-button-response,259,2051733,0.0-16.0-13.0,53397,List2A,white,man,,TRUE,3,,,,,
null,CORRECT,,html-keyboard-response,260,2053243,0.0-16.0-14.0-0.0,53397,List2A,white,man,,,,null,,,,
3099,"<img src=""portrait/WM1.jpg""style=""height:400px;""></img>",6,html-button-response,261,2056359,0.0-16.0-16.0,53397,List2A,white,man,,TRUE,6,,,,,
null,CORRECT,,html-keyboard-response,262,2057873,0.0-16.0-17.0-0.0,53397,List2A,white,man,,,,null,,,,
4258,"<img src=""portrait/WW1.jpg""style=""height:400px;""></img>",1,html-button-response,263,2062156,0.0-16.0-19.0,53397,List2A,white,man,,TRUE,1,,,,,
null,CORRECT,,html-keyboard-response,264,2063664,0.0-16.0-20.0-0.0,53397,List2A,white,man,,,,null,,,,
4476,"<img src=""portrait/BW2.jpg""style=""height:400px;""></img>",2,html-button-response,265,2068156,0.0-16.0-22.0,53397,List2A,white,man,,TRUE,2,,,,,
null,CORRECT,,html-keyboard-response,266,2069664,0.0-16.0-23.0-0.0,53397,List2A,white,man,,,,null,,,,
1766,<p>You got 8 out of 8 right first time. Press Continue.</p>,0,html-button-response,267,2071449,0.0-16.0-25.0,53397,List2A,white,man,,,,,,,,
null,"<div style=""font-size:60px;"">+</div>",,html-keyboard-response,268,2072970,0.0-17.0-0.0,53397,List2A,white,man,,,,null,,,,
null,"<img src=""stim_listA/talk5.gif""style=""height:400px;""></stim_listA>",,html-keyboard-response,269,2074977,0.0-17.0-1.0,53397,List2A,white,man,,,,null,,,,
null,is talking to,,html-keyboard-response,270,2076983,0.0-17.0-2.0,53397,List2A,white,man,,,,null,,,,
17333,,,survey-text,271,2094327,0.0-17.0-3.0,53397,List2A,white,man,,,,,"{""Q0"":""Luke is talking to Mike ""}","<img src=""stim_listA/talk5.gif""style=""height:400px;""></stim_listA>",is talking to,
null,"<div style=""font-size:60px;"">+</div>",,html-keyboard-response,272,2094831,0.0-17.0-0.1,53397,List2A,white,man,,,,null,,,,
null,"<img src=""stim_listA/talk3.gif""style=""height:400px;""></stim_listA>",,html-keyboard-response,273,2096838,0.0-17.0-1.1,53397,List2A,white,man,,,,null,,,,
null,is talking to,,html-keyboard-response,274,2098853,0.0-17.0-2.1,53397,List2A,white,man,,,,null,,,,
15136,,,survey-text,275,2113995,0.0-17.0-3.1,53397,List2A,white,man,,,,,"{""Q0"":""Kate is talking to fred""}","<img src=""stim_listA/talk3.gif""style=""height:400px;""></stim_listA>",is talking to,
null,"<div style=""font-size:60px;"">+</div>",,html-keyboard-response,276,2114499,0.0-17.0-0.2,53397,List2A,white,man,,,,null,,,,
null,"<img src=""stim_listA/shout8.gif""style=""height:400px;""></stim_listA>",,html-keyboard-response,277,2116507,0.0-17.0-1.2,53397,List2A,white,man,,,,null,,,,
null,are shouting at each other,,html-keyboard-response,278,2118509,0.0-17.0-2.2,53397,List2A,white,man,,,,null,,,,
18748,,,survey-text,279,2137262,0.0-17.0-3.2,53397,List2A,white,man,,,,,"{""Q0"":""Jane and Kate are shouting at each other ""}","<img src=""stim_listA/shout8.gif""style=""height:400px;""></stim_listA>",are shouting at each other,
null,"<div style=""font-size:60px;"">+</div>",,html-keyboard-response,280,2137768,0.0-17.0-0.3,53397,List2A,white,man,,,,null,,,,
null,"<img src=""stim_listA/flirt2.gif""style=""height:400px;""></stim_listA>",,html-keyboard-response,281,2139775,0.0-17.0-1.3,53397,List2A,white,man,,,,null,,,,
null,are flirting with each other,,html-keyboard-response,282,2141784,0.0-17.0-2.3,53397,List2A,white,man,,,,null,,,,
25751,,,survey-text,283,2167542,0.0-17.0-3.3,53397,List2A,white,man,,,,,"{""Q0"":""Ruth and Dave are flirting with each other ""}","<img src=""stim_listA/flirt2.gif""style=""height:400px;""></stim_listA>",are flirting with each other,
null,"<div style=""font-size:60px;"">+</div>",,html-keyboard-response,284,2168045,0.0-17.0-0.4,53397,List2A,white,man,,,,null,,,,
null,"<img src=""stim_listA/talk4.gif""style=""height:400px;""></stim_listA>",,html-keyboard-response,285,2170059,0.0-17.0-1.4,53397,List2A,white,man,,,,null,,,,
null,are talking to each other,,html-keyboard-response,286,2172071,0.0-17.0-2.4,53397,List2A,white,man,,,,null,,,,
15607,,,survey-text,287,2187684,0.0-17.0-3.4,53397,List2A,white,man,,,,,"{""Q0"":""Mike and Kate are talking ""}","<img src=""stim_listA/talk4.gif""style=""height:400px;""></stim_listA>",are talking to each other,
null,"<div style=""font-size:60px;"">+</div>",,html-keyboard-response,288,2188188,0.0-17.0-0.5,53397,List2A,white,man,,,,null,,,,
null,"<img src=""stim_listA/touch3.gif""style=""height:400px;""></stim_listA>",,html-keyboard-response,289,2190196,0.0-17.0-1.5,53397,List2A,white,man,,,,null,,,,
null,is touching,,html-keyboard-response,290,2192208,0.0-17.0-2.5,53397,List2A,white,man,,,,null,,,,
11177,,,survey-text,291,2203392,0.0-17.0-3.5,53397,List2A,white,man,,,,,"{""Q0"":""Mike and Kate are touching ""}","<img src=""stim_listA/touch3.gif""style=""height:400px;""></stim_listA>",is touching,
null,"<div style=""font-size:60px;"">+</div>",,html-keyboard-response,292,2203914,0.0-17.0-0.6,53397,List2A,white,man,,,,null,,,,
null,"<img src=""stim_listA/touch5.gif""style=""height:400px;""></stim_listA>",,html-keyboard-response,293,2205923,0.0-17.0-1.6,53397,List2A,white,man,,,,null,,,,
null,is touching,,html-keyboard-response,294,2207930,0.0-17.0-2.6,53397,List2A,white,man,,,,null,,,,
16985,,,survey-text,295,2224919,0.0-17.0-3.6,53397,List2A,white,man,,,,,"{""Q0"":""Mike and Dave are touching ""}","<img src=""stim_listA/touch5.gif""style=""height:400px;""></stim_listA>",is touching,
null,"<div style=""font-size:60px;"">+</div>",,html-keyboard-response,296,2225423,0.0-17.0-0.7,53397,List2A,white,man,,,,null,,,,
null,"<img src=""stim_listA/talk1.gif""style=""height:400px;""></stim_listA>",,html-keyboard-response,297,2227429,0.0-17.0-1.7,53397,List2A,white,man,,,,null,,,,
null,is talking to,,html-keyboard-response,298,2229435,0.0-17.0-2.7,53397,List2A,white,man,,,,null,,,,
15913,,,survey-text,299,2245352,0.0-17.0-3.7,53397,List2A,white,man,,,,,"{""Q0"":""Luke is talking to jane""}","<img src=""stim_listA/talk1.gif""style=""height:400px;""></stim_listA>",is talking to,
null,"<div style=""font-size:60px;"">+</div>",,html-keyboard-response,300,2245855,0.0-17.0-0.8,53397,List2A,white,man,,,,null,,,,
null,"<img src=""stim_listA/play8.gif""style=""height:400px;""></stim_listA>",,html-keyboard-response,301,2247862,0.0-17.0-1.8,53397,List2A,white,man,,,,null,,,,
null,are playing with each other,,html-keyboard-response,302,2249871,0.0-17.0-2.8,53397,List2A,white,man,,,,null,,,,
17196,,,survey-text,303,2267082,0.0-17.0-3.8,53397,List2A,white,man,,,,,"{""Q0"":""Ruth and Kate are playing with each other ""}","<img src=""stim_listA/play8.gif""style=""height:400px;""></stim_listA>",are playing with each other,
null,"<div style=""font-size:60px;"">+</div>",,html-keyboard-response,304,2267588,0.0-17.0-0.9,53397,List2A,white,man,,,,null,,,,
null,"<img src=""stim_listA/fight1.gif""style=""height:400px;""></stim_listA>",,html-keyboard-response,305,2269595,0.0-17.0-1.9,53397,List2A,white,man,,,,null,,,,
null,is fighting,,html-keyboard-response,306,2271611,0.0-17.0-2.9,53397,List2A,white,man,,,,null,,,,
17288,,,survey-text,307,2288904,0.0-17.0-3.9,53397,List2A,white,man,,,,,"{""Q0"":""Dave and Jane are fighting ""}","<img src=""stim_listA/fight1.gif""style=""height:400px;""></stim_listA>",is fighting,
null,"<div style=""font-size:60px;"">+</div>",,html-keyboard-response,308,2289407,0.0-17.0-0.10,53397,List2A,white,man,,,,null,,,,
null,"<img src=""stim_listA/fight4.gif""style=""height:400px;""></stim_listA>",,html-keyboard-response,309,2291420,0.0-17.0-1.10,53397,List2A,white,man,,,,null,,,,
null,are fighting each other,,html-keyboard-response,310,2293431,0.0-17.0-2.10,53397,List2A,white,man,,,,null,,,,
18998,,,survey-text,311,2312436,0.0-17.0-3.10,53397,List2A,white,man,,,,,"{""Q0"":""Beth and Fred are fighting ""}","<img src=""stim_listA/fight4.gif""style=""height:400px;""></stim_listA>",are fighting each other,
null,"<div style=""font-size:60px;"">+</div>",,html-keyboard-response,312,2312939,0.0-17.0-0.11,53397,List2A,white,man,,,,null,,,,
null,"<img src=""stim_listA/shout1.gif""style=""height:400px;""></stim_listA>",,html-keyboard-response,313,2314949,0.0-17.0-1.11,53397,List2A,white,man,,,,null,,,,
null,is shouting at,,html-keyboard-response,314,2316959,0.0-17.0-2.11,53397,List2A,white,man,,,,null,,,,
14402,,,survey-text,315,2331369,0.0-17.0-3.11,53397,List2A,white,man,,,,,"{""Q0"":""Ruth and luke are shouting ""}","<img src=""stim_listA/shout1.gif""style=""height:400px;""></stim_listA>",is shouting at,
null,"<div style=""font-size:60px;"">+</div>",,html-keyboard-response,316,2331872,0.0-17.0-0.12,53397,List2A,white,man,,,,null,,,,
null,"<img src=""stim_listA/marry2.gif""style=""height:400px;""></stim_listA>",,html-keyboard-response,317,2333878,0.0-17.0-1.12,53397,List2A,white,man,,,,null,,,,
null,are marrying each other,,html-keyboard-response,318,2335888,0.0-17.0-2.12,53397,List2A,white,man,,,,null,,,,
13694,,,survey-text,319,2349588,0.0-17.0-3.12,53397,List2A,white,man,,,,,"{""Q0"":""Jane and luke are flirting ""}","<img src=""stim_listA/marry2.gif""style=""height:400px;""></stim_listA>",are marrying each other,
null,"<div style=""font-size:60px;"">+</div>",,html-keyboard-response,320,2350092,0.0-17.0-0.13,53397,List2A,white,man,,,,null,,,,
null,"<img src=""stim_listA/touch4.gif""style=""height:400px;""></stim_listA>",,html-keyboard-response,321,2352099,0.0-17.0-1.13,53397,List2A,white,man,,,,null,,,,
null,are touching each other,,html-keyboard-response,322,2354108,0.0-17.0-2.13,53397,List2A,white,man,,,,null,,,,
15253,,,survey-text,323,2369376,0.0-17.0-3.13,53397,List2A,white,man,,,,,"{""Q0"":""Beth and Fred are touching ""}","<img src=""stim_listA/touch4.gif""style=""height:400px;""></stim_listA>",are touching each other,
null,"<div style=""font-size:60px;"">+</div>",,html-keyboard-response,324,2369881,0.0-17.0-0.14,53397,List2A,white,man,,,,null,,,,
null,"<img src=""stim_listA/fight6.gif""style=""height:400px;""></stim_listA>",,html-keyboard-response,325,2371891,0.0-17.0-1.14,53397,List2A,white,man,,,,null,,,,
null,are fighting each other,,html-keyboard-response,326,2373901,0.0-17.0-2.14,53397,List2A,white,man,,,,null,,,,
24496,,,survey-text,327,2398404,0.0-17.0-3.14,53397,List2A,white,man,,,,,"{""Q0"":""Luke and Fred are fighting ""}","<img src=""stim_listA/fight6.gif""style=""height:400px;""></stim_listA>",are fighting each other,
null,"<div style=""font-size:60px;"">+</div>",,html-keyboard-response,328,2398907,0.0-17.0-0.15,53397,List2A,white,man,,,,null,,,,
null,"<img src=""stim_listA/talk6.gif""style=""height:400px;""></stim_listA>",,html-keyboard-response,329,2400917,0.0-17.0-1.15,53397,List2A,white,man,,,,null,,,,
null,are talking to each other,,html-keyboard-response,330,2402929,0.0-17.0-2.15,53397,List2A,white,man,,,,null,,,,
19073,,,survey-text,331,2422012,0.0-17.0-3.15,53397,List2A,white,man,,,,,"{""Q0"":""Fred and Dave are talking ""}","<img src=""stim_listA/talk6.gif""style=""height:400px;""></stim_listA>",are talking to each other,
null,"<div style=""font-size:60px;"">+</div>",,html-keyboard-response,332,2422517,0.0-17.0-0.16,53397,List2A,white,man,,,,null,,,,
null,"<img src=""stim_listA/shout3.gif""style=""height:400px;""></stim_listA>",,html-keyboard-response,333,2424528,0.0-17.0-1.16,53397,List2A,white,man,,,,null,,,,
null,is shouting at,,html-keyboard-response,334,2426551,0.0-17.0-2.16,53397,List2A,white,man,,,,null,,,,
12699,,,survey-text,335,2439255,0.0-17.0-3.16,53397,List2A,white,man,,,,,"{""Q0"":""Beth and Fred are shouting ""}","<img src=""stim_listA/shout3.gif""style=""height:400px;""></stim_listA>",is shouting at,
null,"<div style=""font-size:60px;"">+</div>",,html-keyboard-response,336,2439760,0.0-17.0-0.17,53397,List2A,white,man,,,,null,,,,
null,"<img src=""stim_listA/kiss5.gif""style=""height:400px;""></stim_listA>",,html-keyboard-response,337,2441771,0.0-17.0-1.17,53397,List2A,white,man,,,,null,,,,
null,is kissing,,html-keyboard-response,338,2443783,0.0-17.0-2.17,53397,List2A,white,man,,,,null,,,,
15217,,,survey-text,339,2459007,0.0-17.0-3.17,53397,List2A,white,man,,,,,"{""Q0"":""Luke and Fred are kissing ""}","<img src=""stim_listA/kiss5.gif""style=""height:400px;""></stim_listA>",is kissing,
null,"<div style=""font-size:60px;"">+</div>",,html-keyboard-response,340,2459512,0.0-17.0-0.18,53397,List2A,white,man,,,,null,,,,
null,"<img src=""stim_listA/kiss7.gif""style=""height:400px;""></stim_listA>",,html-keyboard-response,341,2461525,0.0-17.0-1.18,53397,List2A,white,man,,,,null,,,,
null,is kissing,,html-keyboard-response,342,2463531,0.0-17.0-2.18,53397,List2A,white,man,,,,null,,,,
20509,,,survey-text,343,2484049,0.0-17.0-3.18,53397,List2A,white,man,,,,,"{""Q0"":""Ruth and Kate are kissing ""}","<img src=""stim_listA/kiss7.gif""style=""height:400px;""></stim_listA>",is kissing,
null,"<div style=""font-size:60px;"">+</div>",,html-keyboard-response,344,2484555,0.0-17.0-0.19,53397,List2A,white,man,,,,null,,,,
null,"<img src=""stim_listA/argue2.gif""style=""height:400px;""></stim_listA>",,html-keyboard-response,345,2486569,0.0-17.0-1.19,53397,List2A,white,man,,,,null,,,,
null,are arguing with each other,,html-keyboard-response,346,2488572,0.0-17.0-2.19,53397,List2A,white,man,,,,null,,,,
24853,,,survey-text,347,2513433,0.0-17.0-3.19,53397,List2A,white,man,,,,,"{""Q0"":""Luke and Jane are fighting ""}","<img src=""stim_listA/argue2.gif""style=""height:400px;""></stim_listA>",are arguing with each other,
7512,"<img src='img/portrait_matrix_list2.jpg' style='width:900px;height:500px;''></img><p>If you have memorised all the portraits and names and are ready to start, press Continue.</p><p><strong>Please note: Your memory of these faces will be tested 4 times during this experiment.</strong></p>",0,html-button-response,348,2520966,0.0-18.0-0.0,53397,List2A,white,man,,,,,,,,
7180,"<img src=""portrait/BW1.jpg""style=""height:400px;""></img>",0,html-button-response,349,2529157,0.0-18.0-1.0,53397,List2A,white,man,,TRUE,0,,,,,
null,CORRECT,,html-keyboard-response,350,2530671,0.0-18.0-2.0-0.0,53397,List2A,white,man,,,,null,,,,
2635,"<img src=""portrait/WM2.jpg""style=""height:400px;""></img>",7,html-button-response,351,2533317,0.0-18.0-4.0,53397,List2A,white,man,,TRUE,7,,,,,
null,CORRECT,,html-keyboard-response,352,2534824,0.0-18.0-5.0-0.0,53397,List2A,white,man,,,,null,,,,
3789,"<img src=""portrait/BM1.jpg""style=""height:400px;""></img>",4,html-button-response,353,2538625,0.0-18.0-7.0,53397,List2A,white,man,,TRUE,4,,,,,
null,CORRECT,,html-keyboard-response,354,2540134,0.0-18.0-8.0-0.0,53397,List2A,white,man,,,,null,,,,
6768,"<img src=""portrait/BW2.jpg""style=""height:400px;""></img>",2,html-button-response,355,2546924,0.0-18.0-10.0,53397,List2A,white,man,,TRUE,2,,,,,
null,CORRECT,,html-keyboard-response,356,2548435,0.0-18.0-11.0-0.0,53397,List2A,white,man,,,,null,,,,
6959,"<img src=""portrait/BM2.jpg""style=""height:400px;""></img>",5,html-button-response,357,2555404,0.0-18.0-13.0,53397,List2A,white,man,,TRUE,5,,,,,
null,CORRECT,,html-keyboard-response,358,2556915,0.0-18.0-14.0-0.0,53397,List2A,white,man,,,,null,,,,
3701,"<img src=""portrait/WW2.jpg""style=""height:400px;""></img>",3,html-button-response,359,2560632,0.0-18.0-16.0,53397,List2A,white,man,,TRUE,3,,,,,
null,CORRECT,,html-keyboard-response,360,2562143,0.0-18.0-17.0-0.0,53397,List2A,white,man,,,,null,,,,
2980,"<img src=""portrait/WM1.jpg""style=""height:400px;""></img>",6,html-button-response,361,2565146,0.0-18.0-19.0,53397,List2A,white,man,,TRUE,6,,,,,
null,CORRECT,,html-keyboard-response,362,2566654,0.0-18.0-20.0-0.0,53397,List2A,white,man,,,,null,,,,
4454,"<img src=""portrait/WW1.jpg""style=""height:400px;""></img>",1,html-button-response,363,2571121,0.0-18.0-22.0,53397,List2A,white,man,,TRUE,1,,,,,
null,CORRECT,,html-keyboard-response,364,2572629,0.0-18.0-23.0-0.0,53397,List2A,white,man,,,,null,,,,
2256,<p>You got 8 out of 8 right first time. Press Continue.</p>,0,html-button-response,365,2574892,0.0-18.0-25.0,53397,List2A,white,man,,,,,,,,
null,"<div style=""font-size:60px;"">+</div>",,html-keyboard-response,366,2576405,0.0-19.0-0.0,53397,List2A,white,man,,,,null,,,,
null,"<img src=""stim_listA/dance3.gif""style=""height:400px;""></stim_listA>",,html-keyboard-response,367,2578416,0.0-19.0-1.0,53397,List2A,white,man,,,,null,,,,
null,is dancing with,,html-keyboard-response,368,2580423,0.0-19.0-2.0,53397,List2A,white,man,,,,null,,,,
18732,,,survey-text,369,2599166,0.0-19.0-3.0,53397,List2A,white,man,,,,,"{""Q0"":""Fred is dancing with kate""}","<img src=""stim_listA/dance3.gif""style=""height:400px;""></stim_listA>",is dancing with,
null,"<div style=""font-size:60px;"">+</div>",,html-keyboard-response,370,2599676,0.0-19.0-0.1,53397,List2A,white,man,,,,null,,,,
null,"<img src=""stim_listA/kiss2.gif""style=""height:400px;""></stim_listA>",,html-keyboard-response,371,2601683,0.0-19.0-1.1,53397,List2A,white,man,,,,null,,,,
null,are kissing each other,,html-keyboard-response,372,2603696,0.0-19.0-2.1,53397,List2A,white,man,,,,null,,,,
22061,,,survey-text,373,2625769,0.0-19.0-3.1,53397,List2A,white,man,,,,,"{""Q0"":""Jane and Dave are kissing each other ""}","<img src=""stim_listA/kiss2.gif""style=""height:400px;""></stim_listA>",are kissing each other,
null,"<div style=""font-size:60px;"">+</div>",,html-keyboard-response,374,2626273,0.0-19.0-0.2,53397,List2A,white,man,,,,null,,,,
null,"<img src=""stim_listA/flirt1.gif""style=""height:400px;""></stim_listA>",,html-keyboard-response,375,2628283,0.0-19.0-1.2,53397,List2A,white,man,,,,null,,,,
null,is flirting with,,html-keyboard-response,376,2630295,0.0-19.0-2.2,53397,List2A,white,man,,,,null,,,,
17631,,,survey-text,377,2647933,0.0-19.0-3.2,53397,List2A,white,man,,,,,"{""Q0"":""Luke and Jane are flirting ""}","<img src=""stim_listA/flirt1.gif""style=""height:400px;""></stim_listA>",is flirting with,
null,"<div style=""font-size:60px;"">+</div>",,html-keyboard-response,378,2648437,0.0-19.0-0.3,53397,List2A,white,man,,,,null,,,,
null,"<img src=""stim_listA/dance2.gif""style=""height:400px;""></stim_listA>",,html-keyboard-response,379,2650450,0.0-19.0-1.3,53397,List2A,white,man,,,,null,,,,
null,are dancing with each other,,html-keyboard-response,380,2652463,0.0-19.0-2.3,53397,List2A,white,man,,,,null,,,,
24718,,,survey-text,381,2677188,0.0-19.0-3.3,53397,List2A,white,man,,,,,"{""Q0"":""Ruth and Dave are dancing""}","<img src=""stim_listA/dance2.gif""style=""height:400px;""></stim_listA>",are dancing with each other,
null,"<div style=""font-size:60px;"">+</div>",,html-keyboard-response,382,2677692,0.0-19.0-0.4,53397,List2A,white,man,,,,null,,,,
null,"<img src=""stim_listA/flirt5.gif""style=""height:400px;""></stim_listA>",,html-keyboard-response,383,2679698,0.0-19.0-1.4,53397,List2A,white,man,,,,null,,,,
null,is flirting with,,html-keyboard-response,384,2681705,0.0-19.0-2.4,53397,List2A,white,man,,,,null,,,,
24453,,,survey-text,385,2706164,0.0-19.0-3.4,53397,List2A,white,man,,,,,"{""Q0"":""Luke is flirting with Mike ""}","<img src=""stim_listA/flirt5.gif""style=""height:400px;""></stim_listA>",is flirting with,
null,"<div style=""font-size:60px;"">+</div>",,html-keyboard-response,386,2706669,0.0-19.0-0.5,53397,List2A,white,man,,,,null,,,,
null,"<img src=""stim_listA/argue1.gif""style=""height:400px;""></stim_listA>",,html-keyboard-response,387,2708681,0.0-19.0-1.5,53397,List2A,white,man,,,,null,,,,
null,is arguing with,,html-keyboard-response,388,2710692,0.0-19.0-2.5,53397,List2A,white,man,,,,null,,,,
16328,,,survey-text,389,2727029,0.0-19.0-3.5,53397,List2A,white,man,,,,,"{""Q0"":""Ruth is flirting with dave""}","<img src=""stim_listA/argue1.gif""style=""height:400px;""></stim_listA>",is arguing with,
null,"<div style=""font-size:60px;"">+</div>",,html-keyboard-response,390,2727533,0.0-19.0-0.6,53397,List2A,white,man,,,,null,,,,
null,"<img src=""stim_listA/kiss8.gif""style=""height:400px;""></stim_listA>",,html-keyboard-response,391,2729549,0.0-19.0-1.6,53397,List2A,white,man,,,,null,,,,
null,are kissing each other,,html-keyboard-response,392,2731568,0.0-19.0-2.6,53397,List2A,white,man,,,,null,,,,
18357,,,survey-text,393,2749941,0.0-19.0-3.6,53397,List2A,white,man,,,,,"{""Q0"":""Kate and Jane are kissing each other ""}","<img src=""stim_listA/kiss8.gif""style=""height:400px;""></stim_listA>",are kissing each other,
null,"<div style=""font-size:60px;"">+</div>",,html-keyboard-response,394,2750447,0.0-19.0-0.7,53397,List2A,white,man,,,,null,,,,
null,"<img src=""stim_listA/fight3.gif""style=""height:400px;""></stim_listA>",,html-keyboard-response,395,2752458,0.0-19.0-1.7,53397,List2A,white,man,,,,null,,,,
null,is fighting,,html-keyboard-response,396,2754464,0.0-19.0-2.7,53397,List2A,white,man,,,,null,,,,
17710,,,survey-text,397,2772177,0.0-19.0-3.7,53397,List2A,white,man,,,,,"{""Q0"":""Mike and Kate are fighting ""}","<img src=""stim_listA/fight3.gif""style=""height:400px;""></stim_listA>",is fighting,
null,"<div style=""font-size:60px;"">+</div>",,html-keyboard-response,398,2772681,0.0-19.0-0.8,53397,List2A,white,man,,,,null,,,,
null,"<img src=""stim_listA/marry3.gif""style=""height:400px;""></stim_listA>",,html-keyboard-response,399,2774693,0.0-19.0-1.8,53397,List2A,white,man,,,,null,,,,
null,is marrying,,html-keyboard-response,400,2776703,0.0-19.0-2.8,53397,List2A,white,man,,,,null,,,,
16152,,,survey-text,401,2792869,0.0-19.0-3.8,53397,List2A,white,man,,,,,"{""Q0"":""Mike and Beth are marrying ""}","<img src=""stim_listA/marry3.gif""style=""height:400px;""></stim_listA>",is marrying,
null,"<div style=""font-size:60px;"">+</div>",,html-keyboard-response,402,2793372,0.0-19.0-0.9,53397,List2A,white,man,,,,null,,,,
null,"<img src=""stim_listA/flirt3.gif""style=""height:400px;""></stim_listA>",,html-keyboard-response,403,2795383,0.0-19.0-1.9,53397,List2A,white,man,,,,null,,,,
null,is flirting with,,html-keyboard-response,404,2797392,0.0-19.0-2.9,53397,List2A,white,man,,,,null,,,,
17460,,,survey-text,405,2814859,0.0-19.0-3.9,53397,List2A,white,man,,,,,"{""Q0"":""Fred is flirting with kate""}","<img src=""stim_listA/flirt3.gif""style=""height:400px;""></stim_listA>",is flirting with,
null,"<div style=""font-size:60px;"">+</div>",,html-keyboard-response,406,2815363,0.0-19.0-0.10,53397,List2A,white,man,,,,null,,,,
null,"<img src=""stim_listA/fight2.gif""style=""height:400px;""></stim_listA>",,html-keyboard-response,407,2817371,0.0-19.0-1.10,53397,List2A,white,man,,,,null,,,,
null,are fighting each other,,html-keyboard-response,408,2819392,0.0-19.0-2.10,53397,List2A,white,man,,,,null,,,,
12015,,,survey-text,409,2831418,0.0-19.0-3.10,53397,List2A,white,man,,,,,"{""Q0"":""Luke and Ruth are fighting ""}","<img src=""stim_listA/fight2.gif""style=""height:400px;""></stim_listA>",are fighting each other,
null,"<div style=""font-size:60px;"">+</div>",,html-keyboard-response,410,2831922,0.0-19.0-0.11,53397,List2A,white,man,,,,null,,,,
null,"<img src=""stim_listA/marry1.gif""style=""height:400px;""></stim_listA>",,html-keyboard-response,411,2833932,0.0-19.0-1.11,53397,List2A,white,man,,,,null,,,,
null,is marrying,,html-keyboard-response,412,2835945,0.0-19.0-2.11,53397,List2A,white,man,,,,null,,,,
13377,,,survey-text,413,2849332,0.0-19.0-3.11,53397,List2A,white,man,,,,,"{""Q0"":""Dave and Ruth are marrying ""}","<img src=""stim_listA/marry1.gif""style=""height:400px;""></stim_listA>",is marrying,
null,"<div style=""font-size:60px;"">+</div>",,html-keyboard-response,414,2849837,0.0-19.0-0.12,53397,List2A,white,man,,,,null,,,,
null,"<img src=""stim_listA/kiss1.gif""style=""height:400px;""></stim_listA>",,html-keyboard-response,415,2851850,0.0-19.0-1.12,53397,List2A,white,man,,,,null,,,,
null,is kissing,,html-keyboard-response,416,2853861,0.0-19.0-2.12,53397,List2A,white,man,,,,null,,,,
11890,,,survey-text,417,2865759,0.0-19.0-3.12,53397,List2A,white,man,,,,,"{""Q0"":""Dave and Ruth are kissing ""}","<img src=""stim_listA/kiss1.gif""style=""height:400px;""></stim_listA>",is kissing,
null,"<div style=""font-size:60px;"">+</div>",,html-keyboard-response,418,2866263,0.0-19.0-0.13,53397,List2A,white,man,,,,null,,,,
null,"<img src=""stim_listA/talk7.gif""style=""height:400px;""></stim_listA>",,html-keyboard-response,419,2868270,0.0-19.0-1.13,53397,List2A,white,man,,,,null,,,,
null,is talking to,,html-keyboard-response,420,2870277,0.0-19.0-2.13,53397,List2A,white,man,,,,null,,,,
15079,,,survey-text,421,2885362,0.0-19.0-3.13,53397,List2A,white,man,,,,,"{""Q0"":""Kate and Ruth are talking ""}","<img src=""stim_listA/talk7.gif""style=""height:400px;""></stim_listA>",is talking to,
null,"<div style=""font-size:60px;"">+</div>",,html-keyboard-response,422,2885871,0.0-19.0-0.14,53397,List2A,white,man,,,,null,,,,
null,"<img src=""stim_listA/touch1.gif""style=""height:400px;""></stim_listA>",,html-keyboard-response,423,2887879,0.0-19.0-1.14,53397,List2A,white,man,,,,null,,,,
null,is touching,,html-keyboard-response,424,2889892,0.0-19.0-2.14,53397,List2A,white,man,,,,null,,,,
15598,,,survey-text,425,2905510,0.0-19.0-3.14,53397,List2A,white,man,,,,,"{""Q0"":""Dave and Jane are touching ""}","<img src=""stim_listA/touch1.gif""style=""height:400px;""></stim_listA>",is touching,
null,"<div style=""font-size:60px;"">+</div>",,html-keyboard-response,426,2906013,0.0-19.0-0.15,53397,List2A,white,man,,,,null,,,,
null,"<img src=""stim_listA/shout6.gif""style=""height:400px;""></stim_listA>",,html-keyboard-response,427,2908020,0.0-19.0-1.15,53397,List2A,white,man,,,,null,,,,
null,are shouting at each other,,html-keyboard-response,428,2910026,0.0-19.0-2.15,53397,List2A,white,man,,,,null,,,,
16611,,,survey-text,429,2926645,0.0-19.0-3.15,53397,List2A,white,man,,,,,"{""Q0"":""Mike and Dave are shouting ""}","<img src=""stim_listA/shout6.gif""style=""height:400px;""></stim_listA>",are shouting at each other,
null,"<div style=""font-size:60px;"">+</div>",,html-keyboard-response,430,2927150,0.0-19.0-0.16,53397,List2A,white,man,,,,null,,,,
null,"<img src=""stim_listA/marry5.gif""style=""height:400px;""></stim_listA>",,html-keyboard-response,431,2929163,0.0-19.0-1.16,53397,List2A,white,man,,,,null,,,,
null,is marrying,,html-keyboard-response,432,2931176,0.0-19.0-2.16,53397,List2A,white,man,,,,null,,,,
14409,,,survey-text,433,2945593,0.0-19.0-3.16,53397,List2A,white,man,,,,,"{""Q0"":""Dave and Fred are marrying ""}","<img src=""stim_listA/marry5.gif""style=""height:400px;""></stim_listA>",is marrying,
null,"<div style=""font-size:60px;"">+</div>",,html-keyboard-response,434,2946099,0.0-19.0-0.17,53397,List2A,white,man,,,,null,,,,
null,"<img src=""stim_listA/fight7.gif""style=""height:400px;""></stim_listA>",,html-keyboard-response,435,2948108,0.0-19.0-1.17,53397,List2A,white,man,,,,null,,,,
null,is fighting,,html-keyboard-response,436,2950118,0.0-19.0-2.17,53397,List2A,white,man,,,,null,,,,
19645,,,survey-text,437,2969771,0.0-19.0-3.17,53397,List2A,white,man,,,,,"{""Q0"":""Kate and Jane are fighting ""}","<img src=""stim_listA/fight7.gif""style=""height:400px;""></stim_listA>",is fighting,
null,"<div style=""font-size:60px;"">+</div>",,html-keyboard-response,438,2970275,0.0-19.0-0.18,53397,List2A,white,man,,,,null,,,,
null,"<img src=""stim_listA/argue3.gif""style=""height:400px;""></stim_listA>",,html-keyboard-response,439,2972285,0.0-19.0-1.18,53397,List2A,white,man,,,,null,,,,
null,is arguing with,,html-keyboard-response,440,2974295,0.0-19.0-2.18,53397,List2A,white,man,,,,null,,,,
10700,,,survey-text,441,2985010,0.0-19.0-3.18,53397,List2A,white,man,,,,,"{""Q0"":""Mike and Kate are arguing ""}","<img src=""stim_listA/argue3.gif""style=""height:400px;""></stim_listA>",is arguing with,
null,"<div style=""font-size:60px;"">+</div>",,html-keyboard-response,442,2985520,0.0-19.0-0.19,53397,List2A,white,man,,,,null,,,,
null,"<img src=""stim_listA/touch6.gif""style=""height:400px;""></stim_listA>",,html-keyboard-response,443,2987529,0.0-19.0-1.19,53397,List2A,white,man,,,,null,,,,
null,are touching each other,,html-keyboard-response,444,2989543,0.0-19.0-2.19,53397,List2A,white,man,,,,null,,,,
16467,,,survey-text,445,3006020,0.0-19.0-3.19,53397,List2A,white,man,,,,,"{""Q0"":""Luke and Fred are touching each other ""}","<img src=""stim_listA/touch6.gif""style=""height:400px;""></stim_listA>",are touching each other,
9268,<p>Thank you for completing that task.</p><p>The final part of this session is a short questionnaire.</p><p>Press Continue.</p>,0,html-button-response,446,3015294,0.0-20.0,53397,List2A,white,man,,,,,,,,
42408,,,survey-text,447,3058712,0.0-21.0,53397,List2A,white,man,,,,,"{""Q0"":""43"",""Q1"":""English"",""Q2"":""English"",""Q3"":""Britain"",""Q4"":""White"",""Q5"":""Male""}",,,demographics
9194,,,survey-likert,448,3067933,0.0-22.0,53397,List2A,white,man,,,,,"{""Q0"":4}",,,likert_ESS
16825,,,survey-likert,449,3084769,0.0-23.0,53397,List2A,white,man,,,,,"{""Q0"":4}",,,likert_NSSAL_Q1
5289,,,survey-likert,450,3090068,0.0-24.0,53397,List2A,white,man,,,,,"{""Q0"":4}",,,likert_NSSAL_Q2
6629,,,survey-likert,451,3096706,0.0-25.0,53397,List2A,white,man,,,,,"{""Q0"":4}",,,likert_CGRS_Q1
4889,,,survey-likert,452,3101606,0.0-26.0,53397,List2A,white,man,,,,,"{""Q0"":4}",,,likert_CGRS_Q2
8253,,,survey-likert,453,3109873,0.0-27.0,53397,List2A,white,man,,,,,"{""Q0"":2}",,,likert_CGRS_Q3
32640,,,survey-text,454,3142529,0.0-28.0,53397,List2A,white,man,,,,,"{""Q0"":""""}",,,worker_id
4254,,,external-html,455,3146985,0.0-29.0,53397,List2A,white,man,debrief.html,,,,,,,
