rt,stimulus,button_pressed,trial_type,trial_index,time_elapsed,internal_node_id,subject,list,ppt_race,ppt_gender,url,first_guess,correct,key_press,responses,image_type,phrase_type,test_part
1571,Welcome to the experiment. Press Continue to begin.,0,html-button-response,0,1582,0.0-0.0,53460,List1B,black,man,,,,,,,,
33701,,,external-html,1,36417,0.0-1.0,53460,List1B,black,man,consent.html,,,,,,,
19179,"<p>On the next page, you will see portraits of 8 people and their names.</p><p>Your first task is to take a few minutes to memorise the names of these people.</p><p>You will have to recall their names during the rest of the experiment, so it is</p><p>essential that you try to memorise these people and their names as best as you can.</p><br><p><strong>You will then be tested on your memory of these names and portraits.</strong></p><br><p>The experiment will start after you have completed this memory test.</p><br><p>Ready?</p>",0,html-button-response,2,55604,0.0-2.0,53460,List1B,black,man,,,,,,,,
93401,"<img src='img/portrait_matrix_list1.jpg' style='width:900px;height:500px;''></img><p>If you have memorised all the portraits and names and are ready to start, press Continue.</p><p><strong>Please note: Your memory of these faces will be tested 4 times during this experiment.</strong></p>",0,html-button-response,3,150025,0.0-3.0-0.0,53460,List1B,black,man,,,,,,,,
8072,"<img src=""portrait/BW1.jpg""style=""height:400px;""></img>",1,html-button-response,4,159122,0.0-3.0-1.0,53460,List1B,black,man,,TRUE,0,,,,,
9669,"<img src=""portrait/BW1.jpg""style=""height:400px;""></img>",0,html-button-response,5,169805,0.0-3.0-3.0-0.0,53460,List1B,black,man,,FALSE,0,,,,,
null,CORRECT,,html-keyboard-response,6,171327,0.0-3.0-3.0-1.0-0.0,53460,List1B,black,man,,,,null,,,,
5212,"<img src=""portrait/BW2.jpg""style=""height:400px;""></img>",3,html-button-response,7,176560,0.0-3.0-4.0,53460,List1B,black,man,,TRUE,2,,,,,
3337,"<img src=""portrait/BW2.jpg""style=""height:400px;""></img>",2,html-button-response,8,181007,0.0-3.0-6.0-0.0,53460,List1B,black,man,,FALSE,2,,,,,
null,CORRECT,,html-keyboard-response,9,182516,0.0-3.0-6.0-1.0-0.0,53460,List1B,black,man,,,,null,,,,
4819,"<img src=""portrait/BM2.jpg""style=""height:400px;""></img>",4,html-button-response,10,187343,0.0-3.0-7.0,53460,List1B,black,man,,TRUE,5,,,,,
2190,"<img src=""portrait/BM2.jpg""style=""height:400px;""></img>",5,html-button-response,11,190549,0.0-3.0-9.0-0.0,53460,List1B,black,man,,FALSE,5,,,,,
null,CORRECT,,html-keyboard-response,12,192058,0.0-3.0-9.0-1.0-0.0,53460,List1B,black,man,,,,null,,,,
8527,"<img src=""portrait/WM2.jpg""style=""height:400px;""></img>",4,html-button-response,13,200597,0.0-3.0-10.0,53460,List1B,black,man,,TRUE,7,,,,,
6060,"<img src=""portrait/WM2.jpg""style=""height:400px;""></img>",7,html-button-response,14,207675,0.0-3.0-12.0-0.0,53460,List1B,black,man,,FALSE,7,,,,,
null,CORRECT,,html-keyboard-response,15,209183,0.0-3.0-12.0-1.0-0.0,53460,List1B,black,man,,,,null,,,,
12052,"<img src=""portrait/WW1.jpg""style=""height:400px;""></img>",3,html-button-response,16,221247,0.0-3.0-13.0,53460,List1B,black,man,,TRUE,1,,,,,
5794,"<img src=""portrait/WW1.jpg""style=""height:400px;""></img>",1,html-button-response,17,228058,0.0-3.0-15.0-0.0,53460,List1B,black,man,,FALSE,1,,,,,
null,CORRECT,,html-keyboard-response,18,229567,0.0-3.0-15.0-1.0-0.0,53460,List1B,black,man,,,,null,,,,
4773,"<img src=""portrait/WW2.jpg""style=""height:400px;""></img>",3,html-button-response,19,234348,0.0-3.0-16.0,53460,List1B,black,man,,TRUE,3,,,,,
null,CORRECT,,html-keyboard-response,20,235856,0.0-3.0-17.0-0.0,53460,List1B,black,man,,,,null,,,,
34281,"<img src=""portrait/WM1.jpg""style=""height:400px;""></img>",6,html-button-response,21,270150,0.0-3.0-19.0,53460,List1B,black,man,,TRUE,6,,,,,
null,CORRECT,,html-keyboard-response,22,271660,0.0-3.0-20.0-0.0,53460,List1B,black,man,,,,null,,,,
6416,"<img src=""portrait/BM1.jpg""style=""height:400px;""></img>",5,html-button-response,23,278090,0.0-3.0-22.0,53460,List1B,black,man,,TRUE,4,,,,,
4378,"<img src=""portrait/BM1.jpg""style=""height:400px;""></img>",4,html-button-response,24,283484,0.0-3.0-24.0-0.0,53460,List1B,black,man,,FALSE,4,,,,,
null,CORRECT,,html-keyboard-response,25,284998,0.0-3.0-24.0-1.0-0.0,53460,List1B,black,man,,,,null,,,,
5589,<p>You got 2 out of 8 right first time. Press Continue.</p>,0,html-button-response,26,290602,0.0-3.0-25.0,53460,List1B,black,man,,,,,,,,
67222,"As you did not score 100%, the memory game will repeat. Press Continue.",0,html-button-response,27,358838,0.0-3.0-26.0-0.0,53460,List1B,black,man,,,,,,,,
530885,"<img src='img/portrait_matrix_list1.jpg' style='width:900px;height:500px;''></img><p>If you have memorised all the portraits and names and are ready to start, press Continue.</p><p><strong>Please note: Your memory of these faces will be tested 4 times during this experiment.</strong></p>",0,html-button-response,28,890770,0.0-3.1-0.1,53460,List1B,black,man,,,,,,,,
4722,"<img src=""portrait/BW1.jpg""style=""height:400px;""></img>",0,html-button-response,29,896543,0.0-3.1-1.1,53460,List1B,black,man,,TRUE,0,,,,,
null,CORRECT,,html-keyboard-response,30,898065,0.0-3.1-2.1-0.1,53460,List1B,black,man,,,,null,,,,
4026,"<img src=""portrait/BW2.jpg""style=""height:400px;""></img>",1,html-button-response,31,902106,0.0-3.1-4.1,53460,List1B,black,man,,TRUE,2,,,,,
4296,"<img src=""portrait/BW2.jpg""style=""height:400px;""></img>",2,html-button-response,32,907415,0.0-3.1-6.1-0.1,53460,List1B,black,man,,FALSE,2,,,,,
null,CORRECT,,html-keyboard-response,33,908924,0.0-3.1-6.1-1.1-0.1,53460,List1B,black,man,,,,null,,,,
4001,"<img src=""portrait/BM2.jpg""style=""height:400px;""></img>",5,html-button-response,34,912939,0.0-3.1-7.1,53460,List1B,black,man,,TRUE,5,,,,,
null,CORRECT,,html-keyboard-response,35,914448,0.0-3.1-8.1-0.1,53460,List1B,black,man,,,,null,,,,
3632,"<img src=""portrait/WM2.jpg""style=""height:400px;""></img>",6,html-button-response,36,918096,0.0-3.1-10.1,53460,List1B,black,man,,TRUE,7,,,,,
2495,"<img src=""portrait/WM2.jpg""style=""height:400px;""></img>",7,html-button-response,37,921611,0.0-3.1-12.1-0.1,53460,List1B,black,man,,FALSE,7,,,,,
null,CORRECT,,html-keyboard-response,38,923120,0.0-3.1-12.1-1.1-0.1,53460,List1B,black,man,,,,null,,,,
10408,"<img src=""portrait/WW1.jpg""style=""height:400px;""></img>",1,html-button-response,39,933541,0.0-3.1-13.1,53460,List1B,black,man,,TRUE,1,,,,,
null,CORRECT,,html-keyboard-response,40,935049,0.0-3.1-14.1-0.1,53460,List1B,black,man,,,,null,,,,
4877,"<img src=""portrait/WW2.jpg""style=""height:400px;""></img>",2,html-button-response,41,939941,0.0-3.1-16.1,53460,List1B,black,man,,TRUE,3,,,,,
2056,"<img src=""portrait/WW2.jpg""style=""height:400px;""></img>",3,html-button-response,42,943013,0.0-3.1-18.1-0.1,53460,List1B,black,man,,FALSE,3,,,,,
null,CORRECT,,html-keyboard-response,43,944524,0.0-3.1-18.1-1.1-0.1,53460,List1B,black,man,,,,null,,,,
2995,"<img src=""portrait/WM1.jpg""style=""height:400px;""></img>",7,html-button-response,44,947529,0.0-3.1-19.1,53460,List1B,black,man,,TRUE,6,,,,,
7338,"<img src=""portrait/WM1.jpg""style=""height:400px;""></img>",6,html-button-response,45,955891,0.0-3.1-21.1-0.1,53460,List1B,black,man,,FALSE,6,,,,,
null,CORRECT,,html-keyboard-response,46,957405,0.0-3.1-21.1-1.1-0.1,53460,List1B,black,man,,,,null,,,,
22253,"<img src=""portrait/BM1.jpg""style=""height:400px;""></img>",5,html-button-response,47,979677,0.0-3.1-22.1,53460,List1B,black,man,,TRUE,4,,,,,
2779,"<img src=""portrait/BM1.jpg""style=""height:400px;""></img>",4,html-button-response,48,983473,0.0-3.1-24.1-0.1,53460,List1B,black,man,,FALSE,4,,,,,
null,CORRECT,,html-keyboard-response,49,984978,0.0-3.1-24.1-1.1-0.1,53460,List1B,black,man,,,,null,,,,
3230,<p>You got 3 out of 8 right first time. Press Continue.</p>,0,html-button-response,50,988219,0.0-3.1-25.1,53460,List1B,black,man,,,,,,,,
10084,"As you did not score 100%, the memory game will repeat. Press Continue.",0,html-button-response,51,999309,0.0-3.1-26.1-0.1,53460,List1B,black,man,,,,,,,,
38300,"<img src='img/portrait_matrix_list1.jpg' style='width:900px;height:500px;''></img><p>If you have memorised all the portraits and names and are ready to start, press Continue.</p><p><strong>Please note: Your memory of these faces will be tested 4 times during this experiment.</strong></p>",0,html-button-response,52,1038654,0.0-3.2-0.2,53460,List1B,black,man,,,,,,,,
22292,"<img src=""portrait/BW1.jpg""style=""height:400px;""></img>",0,html-button-response,53,1061977,0.0-3.2-1.2,53460,List1B,black,man,,TRUE,0,,,,,
null,CORRECT,,html-keyboard-response,54,1063488,0.0-3.2-2.2-0.2,53460,List1B,black,man,,,,null,,,,
4069,"<img src=""portrait/BW2.jpg""style=""height:400px;""></img>",2,html-button-response,55,1067578,0.0-3.2-4.2,53460,List1B,black,man,,TRUE,2,,,,,
null,CORRECT,,html-keyboard-response,56,1069088,0.0-3.2-5.2-0.2,53460,List1B,black,man,,,,null,,,,
3913,"<img src=""portrait/BM2.jpg""style=""height:400px;""></img>",5,html-button-response,57,1073013,0.0-3.2-7.2,53460,List1B,black,man,,TRUE,5,,,,,
null,CORRECT,,html-keyboard-response,58,1074527,0.0-3.2-8.2-0.2,53460,List1B,black,man,,,,null,,,,
3329,"<img src=""portrait/WM2.jpg""style=""height:400px;""></img>",7,html-button-response,59,1077924,0.0-3.2-10.2,53460,List1B,black,man,,TRUE,7,,,,,
null,CORRECT,,html-keyboard-response,60,1079433,0.0-3.2-11.2-0.2,53460,List1B,black,man,,,,null,,,,
5943,"<img src=""portrait/WW1.jpg""style=""height:400px;""></img>",1,html-button-response,61,1085388,0.0-3.2-13.2,53460,List1B,black,man,,TRUE,1,,,,,
null,CORRECT,,html-keyboard-response,62,1086896,0.0-3.2-14.2-0.2,53460,List1B,black,man,,,,null,,,,
3458,"<img src=""portrait/WW2.jpg""style=""height:400px;""></img>",3,html-button-response,63,1090375,0.0-3.2-16.2,53460,List1B,black,man,,TRUE,3,,,,,
null,CORRECT,,html-keyboard-response,64,1091886,0.0-3.2-17.2-0.2,53460,List1B,black,man,,,,null,,,,
4883,"<img src=""portrait/WM1.jpg""style=""height:400px;""></img>",6,html-button-response,65,1096795,0.0-3.2-19.2,53460,List1B,black,man,,TRUE,6,,,,,
null,CORRECT,,html-keyboard-response,66,1098305,0.0-3.2-20.2-0.2,53460,List1B,black,man,,,,null,,,,
5134,"<img src=""portrait/BM1.jpg""style=""height:400px;""></img>",4,html-button-response,67,1103457,0.0-3.2-22.2,53460,List1B,black,man,,TRUE,4,,,,,
null,CORRECT,,html-keyboard-response,68,1104967,0.0-3.2-23.2-0.2,53460,List1B,black,man,,,,null,,,,
1374,<p>You got 8 out of 8 right first time. Press Continue.</p>,0,html-button-response,69,1106358,0.0-3.2-25.2,53460,List1B,black,man,,,,,,,,
43145,"<p>In this experiment, you will view photographs of the people from the memory game interacting.</p><p>By using the <strong>exact</strong> phrase given <i>after</i> the photograph appears and recalling the correct names of the people in the photographs, form a sentence describing the interaction. You do not need to capitalise names.</p><p>Type your answer in the space provided. Please complete every sentence before moving onto the next trial.</p><p>You will only have a few seconds to memorise each given photograph and phrase before you can respond, so try your best to focus.</p><p>An example is given below. Press 'Continue' when you are ready.</p><img src='img/speaking_example.jpg' style='width:800px;height:460px;''></img>",0,html-button-response,70,1150525,0.0-4.0,53460,List1B,black,man,,,,,,,,
12558,"<p>Before the experiment starts, you will watch two example trials. Press 'Continue'.</p>",0,html-button-response,71,1164092,0.0-5.0,53460,List1B,black,man,,,,,,,,
null,<img src='img/meet_eg.gif' style='height:400px;''></img>,,html-keyboard-response,72,1167109,0.0-6.0,53460,List1B,black,man,,,,null,,,,
null,<p>is meeting</p>,,html-keyboard-response,73,1169112,0.0-7.0,53460,List1B,black,man,,,,null,,,,
27022,<p><b>Answer:</b> kate is meeting beth</p>,0,html-button-response,74,1196140,0.0-8.0,53460,List1B,black,man,,,,,,,,
null,<img src='img/look_eg.gif' style='height:400px;''></img>,,html-keyboard-response,75,1199156,0.0-9.0,53460,List1B,black,man,,,,null,,,,
null,<p>are looking at each other</p>,,html-keyboard-response,76,1201166,0.0-10.0,53460,List1B,black,man,,,,null,,,,
5463,<p><b>Answer:</b> luke and dave are looking at each other</p>,0,html-button-response,77,1206638,0.0-11.0,53460,List1B,black,man,,,,,,,,
2802,"<p>Ready to start the experiment?</p><br><p><strong>Remember to describe the picture using a full sentence,</strong></p><p><strong>that combines the names of the people with the <i>exact</i> phrase given.</strong></p><p><strong>To receive full payment you must do this correctly.</strong></p><p><strong> You do not need to capitalise names or use punctuation.</strong></p><br><p>Press 'Continue' to begin.</p>",0,html-button-response,78,1210457,0.0-12.0,53460,List1B,black,man,,,,,,,,
null,"<div style=""font-size:60px;"">+</div>",,html-keyboard-response,79,1211968,0.0-13.0-0.0,53460,List1B,black,man,,,,null,,,,
null,"<img src=""stim_listB/shout4.gif""style=""height:400px;""></stim_listB>",,html-keyboard-response,80,1213997,0.0-13.0-1.0,53460,List1B,black,man,,,,null,,,,
null,are shouting at each other,,html-keyboard-response,81,1216006,0.0-13.0-2.0,53460,List1B,black,man,,,,null,,,,
30770,,,survey-text,82,1246806,0.0-13.0-3.0,53460,List1B,black,man,,,,,"{""Q0"":""Dave and Beth are arguing""}","<img src=""stim_listB/shout4.gif""style=""height:400px;""></stim_listB>",are shouting at each other,
null,"<div style=""font-size:60px;"">+</div>",,html-keyboard-response,83,1247317,0.0-13.0-0.1,53460,List1B,black,man,,,,null,,,,
null,"<img src=""stim_listB/talk6.gif""style=""height:400px;""></stim_listB>",,html-keyboard-response,84,1249333,0.0-13.0-1.1,53460,List1B,black,man,,,,null,,,,
null,are talking to each other,,html-keyboard-response,85,1251342,0.0-13.0-2.1,53460,List1B,black,man,,,,null,,,,
16673,,,survey-text,86,1268025,0.0-13.0-3.1,53460,List1B,black,man,,,,,"{""Q0"":""Mike and Luke are talking""}","<img src=""stim_listB/talk6.gif""style=""height:400px;""></stim_listB>",are talking to each other,
null,"<div style=""font-size:60px;"">+</div>",,html-keyboard-response,87,1268533,0.0-13.0-0.2,53460,List1B,black,man,,,,null,,,,
null,"<img src=""stim_listB/flirt4.gif""style=""height:400px;""></stim_listB>",,html-keyboard-response,88,1270549,0.0-13.0-1.2,53460,List1B,black,man,,,,null,,,,
null,are flirting with each other,,html-keyboard-response,89,1272556,0.0-13.0-2.2,53460,List1B,black,man,,,,null,,,,
9322,,,survey-text,90,1281885,0.0-13.0-3.2,53460,List1B,black,man,,,,,"{""Q0"":""Dave and ruth""}","<img src=""stim_listB/flirt4.gif""style=""height:400px;""></stim_listB>",are flirting with each other,
null,"<div style=""font-size:60px;"">+</div>",,html-keyboard-response,91,1282395,0.0-13.0-0.3,53460,List1B,black,man,,,,null,,,,
null,"<img src=""stim_listB/flirt8.gif""style=""height:400px;""></stim_listB>",,html-keyboard-response,92,1284412,0.0-13.0-1.3,53460,List1B,black,man,,,,null,,,,
null,are flirting with each other,,html-keyboard-response,93,1286421,0.0-13.0-2.3,53460,List1B,black,man,,,,null,,,,
9561,,,survey-text,94,1295991,0.0-13.0-3.3,53460,List1B,black,man,,,,,"{""Q0"":""Kate and ruth""}","<img src=""stim_listB/flirt8.gif""style=""height:400px;""></stim_listB>",are flirting with each other,
null,"<div style=""font-size:60px;"">+</div>",,html-keyboard-response,95,1296498,0.0-13.0-0.4,53460,List1B,black,man,,,,null,,,,
null,"<img src=""stim_listB/touch1.gif""style=""height:400px;""></stim_listB>",,html-keyboard-response,96,1298512,0.0-13.0-1.4,53460,List1B,black,man,,,,null,,,,
null,is touching,,html-keyboard-response,97,1300521,0.0-13.0-2.4,53460,List1B,black,man,,,,null,,,,
7709,,,survey-text,98,1308241,0.0-13.0-3.4,53460,List1B,black,man,,,,,"{""Q0"":""Mike and beth""}","<img src=""stim_listB/touch1.gif""style=""height:400px;""></stim_listB>",is touching,
null,"<div style=""font-size:60px;"">+</div>",,html-keyboard-response,99,1308749,0.0-13.0-0.5,53460,List1B,black,man,,,,null,,,,
null,"<img src=""stim_listB/flirt3.gif""style=""height:400px;""></stim_listB>",,html-keyboard-response,100,1310764,0.0-13.0-1.5,53460,List1B,black,man,,,,null,,,,
null,is flirting with,,html-keyboard-response,101,1312772,0.0-13.0-2.5,53460,List1B,black,man,,,,null,,,,
7563,,,survey-text,102,1320347,0.0-13.0-3.5,53460,List1B,black,man,,,,,"{""Q0"":""Luke and jane""}","<img src=""stim_listB/flirt3.gif""style=""height:400px;""></stim_listB>",is flirting with,
null,"<div style=""font-size:60px;"">+</div>",,html-keyboard-response,103,1320854,0.0-13.0-0.6,53460,List1B,black,man,,,,null,,,,
null,"<img src=""stim_listB/kiss3.gif""style=""height:400px;""></stim_listB>",,html-keyboard-response,104,1322870,0.0-13.0-1.6,53460,List1B,black,man,,,,null,,,,
null,is kissing,,html-keyboard-response,105,1324878,0.0-13.0-2.6,53460,List1B,black,man,,,,null,,,,
6851,,,survey-text,106,1331748,0.0-13.0-3.6,53460,List1B,black,man,,,,,"{""Q0"":""Luke and ruth""}","<img src=""stim_listB/kiss3.gif""style=""height:400px;""></stim_listB>",is kissing,
null,"<div style=""font-size:60px;"">+</div>",,html-keyboard-response,107,1332255,0.0-13.0-0.7,53460,List1B,black,man,,,,null,,,,
null,"<img src=""stim_listB/touch8.gif""style=""height:400px;""></stim_listB>",,html-keyboard-response,108,1334269,0.0-13.0-1.7,53460,List1B,black,man,,,,null,,,,
null,are touching each other,,html-keyboard-response,109,1336279,0.0-13.0-2.7,53460,List1B,black,man,,,,null,,,,
9414,,,survey-text,110,1345700,0.0-13.0-3.7,53460,List1B,black,man,,,,,"{""Q0"":""Ruth and Beth ""}","<img src=""stim_listB/touch8.gif""style=""height:400px;""></stim_listB>",are touching each other,
null,"<div style=""font-size:60px;"">+</div>",,html-keyboard-response,111,1346206,0.0-13.0-0.8,53460,List1B,black,man,,,,null,,,,
null,"<img src=""stim_listB/touch4.gif""style=""height:400px;""></stim_listB>",,html-keyboard-response,112,1348215,0.0-13.0-1.8,53460,List1B,black,man,,,,null,,,,
null,are touching each other,,html-keyboard-response,113,1350221,0.0-13.0-2.8,53460,List1B,black,man,,,,null,,,,
6379,,,survey-text,114,1356612,0.0-13.0-3.8,53460,List1B,black,man,,,,,"{""Q0"":""Ruth and luke""}","<img src=""stim_listB/touch4.gif""style=""height:400px;""></stim_listB>",are touching each other,
null,"<div style=""font-size:60px;"">+</div>",,html-keyboard-response,115,1357119,0.0-13.0-0.9,53460,List1B,black,man,,,,null,,,,
null,"<img src=""stim_listB/touch2.gif""style=""height:400px;""></stim_listB>",,html-keyboard-response,116,1359134,0.0-13.0-1.9,53460,List1B,black,man,,,,null,,,,
null,are touching each other,,html-keyboard-response,117,1361145,0.0-13.0-2.9,53460,List1B,black,man,,,,null,,,,
7656,,,survey-text,118,1368807,0.0-13.0-3.9,53460,List1B,black,man,,,,,"{""Q0"":""Mike and bety""}","<img src=""stim_listB/touch2.gif""style=""height:400px;""></stim_listB>",are touching each other,
null,"<div style=""font-size:60px;"">+</div>",,html-keyboard-response,119,1369315,0.0-13.0-0.10,53460,List1B,black,man,,,,null,,,,
null,"<img src=""stim_listB/play6.gif""style=""height:400px;""></stim_listB>",,html-keyboard-response,120,1371327,0.0-13.0-1.10,53460,List1B,black,man,,,,null,,,,
null,are playing with each other,,html-keyboard-response,121,1373332,0.0-13.0-2.10,53460,List1B,black,man,,,,null,,,,
6202,,,survey-text,122,1379544,0.0-13.0-3.10,53460,List1B,black,man,,,,,"{""Q0"":""Fred and luke""}","<img src=""stim_listB/play6.gif""style=""height:400px;""></stim_listB>",are playing with each other,
null,"<div style=""font-size:60px;"">+</div>",,html-keyboard-response,123,1380050,0.0-13.0-0.11,53460,List1B,black,man,,,,null,,,,
null,"<img src=""stim_listB/shout1.gif""style=""height:400px;""></stim_listB>",,html-keyboard-response,124,1382059,0.0-13.0-1.11,53460,List1B,black,man,,,,null,,,,
null,is shouting at,,html-keyboard-response,125,1384065,0.0-13.0-2.11,53460,List1B,black,man,,,,null,,,,
5499,,,survey-text,126,1389570,0.0-13.0-3.11,53460,List1B,black,man,,,,,"{""Q0"":""Fred and beth""}","<img src=""stim_listB/shout1.gif""style=""height:400px;""></stim_listB>",is shouting at,
null,"<div style=""font-size:60px;"">+</div>",,html-keyboard-response,127,1390078,0.0-13.0-0.12,53460,List1B,black,man,,,,null,,,,
null,"<img src=""stim_listB/flirt5.gif""style=""height:400px;""></stim_listB>",,html-keyboard-response,128,1392091,0.0-13.0-1.12,53460,List1B,black,man,,,,null,,,,
null,is flirting with,,html-keyboard-response,129,1394097,0.0-13.0-2.12,53460,List1B,black,man,,,,null,,,,
5677,,,survey-text,130,1399785,0.0-13.0-3.12,53460,List1B,black,man,,,,,"{""Q0"":""Fred and dave""}","<img src=""stim_listB/flirt5.gif""style=""height:400px;""></stim_listB>",is flirting with,
null,"<div style=""font-size:60px;"">+</div>",,html-keyboard-response,131,1400293,0.0-13.0-0.13,53460,List1B,black,man,,,,null,,,,
null,"<img src=""stim_listB/flirt2.gif""style=""height:400px;""></stim_listB>",,html-keyboard-response,132,1402307,0.0-13.0-1.13,53460,List1B,black,man,,,,null,,,,
null,are flirting with each other,,html-keyboard-response,133,1404316,0.0-13.0-2.13,53460,List1B,black,man,,,,null,,,,
8136,,,survey-text,134,1412466,0.0-13.0-3.13,53460,List1B,black,man,,,,,"{""Q0"":""Mike and beth""}","<img src=""stim_listB/flirt2.gif""style=""height:400px;""></stim_listB>",are flirting with each other,
null,"<div style=""font-size:60px;"">+</div>",,html-keyboard-response,135,1412974,0.0-13.0-0.14,53460,List1B,black,man,,,,null,,,,
null,"<img src=""stim_listB/kiss1.gif""style=""height:400px;""></stim_listB>",,html-keyboard-response,136,1414988,0.0-13.0-1.14,53460,List1B,black,man,,,,null,,,,
null,is kissing,,html-keyboard-response,137,1416996,0.0-13.0-2.14,53460,List1B,black,man,,,,null,,,,
6305,,,survey-text,138,1423312,0.0-13.0-3.14,53460,List1B,black,man,,,,,"{""Q0"":""Fred and beth""}","<img src=""stim_listB/kiss1.gif""style=""height:400px;""></stim_listB>",is kissing,
null,"<div style=""font-size:60px;"">+</div>",,html-keyboard-response,139,1423819,0.0-13.0-0.15,53460,List1B,black,man,,,,null,,,,
null,"<img src=""stim_listB/play8.gif""style=""height:400px;""></stim_listB>",,html-keyboard-response,140,1425832,0.0-13.0-1.15,53460,List1B,black,man,,,,null,,,,
null,are playing with each other,,html-keyboard-response,141,1427841,0.0-13.0-2.15,53460,List1B,black,man,,,,null,,,,
7066,,,survey-text,142,1434917,0.0-13.0-3.15,53460,List1B,black,man,,,,,"{""Q0"":""Beth and ruth""}","<img src=""stim_listB/play8.gif""style=""height:400px;""></stim_listB>",are playing with each other,
null,"<div style=""font-size:60px;"">+</div>",,html-keyboard-response,143,1435425,0.0-13.0-0.16,53460,List1B,black,man,,,,null,,,,
null,"<img src=""stim_listB/marry4.gif""style=""height:400px;""></stim_listB>",,html-keyboard-response,144,1437441,0.0-13.0-1.16,53460,List1B,black,man,,,,null,,,,
null,are marrying each other,,html-keyboard-response,145,1439449,0.0-13.0-2.16,53460,List1B,black,man,,,,null,,,,
5177,,,survey-text,146,1444635,0.0-13.0-3.16,53460,List1B,black,man,,,,,"{""Q0"":""Jane and luke""}","<img src=""stim_listB/marry4.gif""style=""height:400px;""></stim_listB>",are marrying each other,
null,"<div style=""font-size:60px;"">+</div>",,html-keyboard-response,147,1445142,0.0-13.0-0.17,53460,List1B,black,man,,,,null,,,,
null,"<img src=""stim_listB/argue4.gif""style=""height:400px;""></stim_listB>",,html-keyboard-response,148,1447158,0.0-13.0-1.17,53460,List1B,black,man,,,,null,,,,
null,are arguing with each other,,html-keyboard-response,149,1449167,0.0-13.0-2.17,53460,List1B,black,man,,,,null,,,,
7740,,,survey-text,150,1456918,0.0-13.0-3.17,53460,List1B,black,man,,,,,"{""Q0"":""Jane luke""}","<img src=""stim_listB/argue4.gif""style=""height:400px;""></stim_listB>",are arguing with each other,
null,"<div style=""font-size:60px;"">+</div>",,html-keyboard-response,151,1457425,0.0-13.0-0.18,53460,List1B,black,man,,,,null,,,,
null,"<img src=""stim_listB/fight1.gif""style=""height:400px;""></stim_listB>",,html-keyboard-response,152,1459439,0.0-13.0-1.18,53460,List1B,black,man,,,,null,,,,
null,is fighting,,html-keyboard-response,153,1461448,0.0-13.0-2.18,53460,List1B,black,man,,,,null,,,,
8065,,,survey-text,154,1469524,0.0-13.0-3.18,53460,List1B,black,man,,,,,"{""Q0"":""Luke and kate""}","<img src=""stim_listB/fight1.gif""style=""height:400px;""></stim_listB>",is fighting,
null,"<div style=""font-size:60px;"">+</div>",,html-keyboard-response,155,1470034,0.0-13.0-0.19,53460,List1B,black,man,,,,null,,,,
null,"<img src=""stim_listB/marry5.gif""style=""height:400px;""></stim_listB>",,html-keyboard-response,156,1472048,0.0-13.0-1.19,53460,List1B,black,man,,,,null,,,,
null,is marrying,,html-keyboard-response,157,1474058,0.0-13.0-2.19,53460,List1B,black,man,,,,null,,,,
7562,,,survey-text,158,1481630,0.0-13.0-3.19,53460,List1B,black,man,,,,,"{""Q0"":""Luke and Mike ""}","<img src=""stim_listB/marry5.gif""style=""height:400px;""></stim_listB>",is marrying,
7608,"<img src='img/portrait_matrix_list1.jpg' style='width:900px;height:500px;''></img><p>If you have memorised all the portraits and names and are ready to start, press Continue.</p><p><strong>Please note: Your memory of these faces will be tested 4 times during this experiment.</strong></p>",0,html-button-response,159,1489247,0.0-14.0-0.0,53460,List1B,black,man,,,,,,,,
5624,"<img src=""portrait/WW1.jpg""style=""height:400px;""></img>",1,html-button-response,160,1495898,0.0-14.0-1.0,53460,List1B,black,man,,TRUE,1,,,,,
null,CORRECT,,html-keyboard-response,161,1497409,0.0-14.0-2.0-0.0,53460,List1B,black,man,,,,null,,,,
6342,"<img src=""portrait/BM1.jpg""style=""height:400px;""></img>",4,html-button-response,162,1503770,0.0-14.0-4.0,53460,List1B,black,man,,TRUE,4,,,,,
null,CORRECT,,html-keyboard-response,163,1505281,0.0-14.0-5.0-0.0,53460,List1B,black,man,,,,null,,,,
3273,"<img src=""portrait/WM1.jpg""style=""height:400px;""></img>",6,html-button-response,164,1508572,0.0-14.0-7.0,53460,List1B,black,man,,TRUE,6,,,,,
null,CORRECT,,html-keyboard-response,165,1510080,0.0-14.0-8.0-0.0,53460,List1B,black,man,,,,null,,,,
5972,"<img src=""portrait/BW1.jpg""style=""height:400px;""></img>",0,html-button-response,166,1516070,0.0-14.0-10.0,53460,List1B,black,man,,TRUE,0,,,,,
null,CORRECT,,html-keyboard-response,167,1517610,0.0-14.0-11.0-0.0,53460,List1B,black,man,,,,null,,,,
2384,"<img src=""portrait/BM2.jpg""style=""height:400px;""></img>",5,html-button-response,168,1520015,0.0-14.0-13.0,53460,List1B,black,man,,TRUE,5,,,,,
null,CORRECT,,html-keyboard-response,169,1521525,0.0-14.0-14.0-0.0,53460,List1B,black,man,,,,null,,,,
3760,"<img src=""portrait/WW2.jpg""style=""height:400px;""></img>",3,html-button-response,170,1525304,0.0-14.0-16.0,53460,List1B,black,man,,TRUE,3,,,,,
null,CORRECT,,html-keyboard-response,171,1526816,0.0-14.0-17.0-0.0,53460,List1B,black,man,,,,null,,,,
3092,"<img src=""portrait/BW2.jpg""style=""height:400px;""></img>",2,html-button-response,172,1529927,0.0-14.0-19.0,53460,List1B,black,man,,TRUE,2,,,,,
null,CORRECT,,html-keyboard-response,173,1531438,0.0-14.0-20.0-0.0,53460,List1B,black,man,,,,null,,,,
2399,"<img src=""portrait/WM2.jpg""style=""height:400px;""></img>",7,html-button-response,174,1533855,0.0-14.0-22.0,53460,List1B,black,man,,TRUE,7,,,,,
null,CORRECT,,html-keyboard-response,175,1535366,0.0-14.0-23.0-0.0,53460,List1B,black,man,,,,null,,,,
1534,<p>You got 8 out of 8 right first time. Press Continue.</p>,0,html-button-response,176,1536912,0.0-14.0-25.0,53460,List1B,black,man,,,,,,,,
null,"<div style=""font-size:60px;"">+</div>",,html-keyboard-response,177,1538427,0.0-15.0-0.0,53460,List1B,black,man,,,,null,,,,
null,"<img src=""stim_listB/marry6.gif""style=""height:400px;""></stim_listB>",,html-keyboard-response,178,1540440,0.0-15.0-1.0,53460,List1B,black,man,,,,null,,,,
null,are marrying each other,,html-keyboard-response,179,1542448,0.0-15.0-2.0,53460,List1B,black,man,,,,null,,,,
8550,,,survey-text,180,1551009,0.0-15.0-3.0,53460,List1B,black,man,,,,,"{""Q0"":""Dave and fred""}","<img src=""stim_listB/marry6.gif""style=""height:400px;""></stim_listB>",are marrying each other,
null,"<div style=""font-size:60px;"">+</div>",,html-keyboard-response,181,1551515,0.0-15.0-0.1,53460,List1B,black,man,,,,null,,,,
null,"<img src=""stim_listB/shout7.gif""style=""height:400px;""></stim_listB>",,html-keyboard-response,182,1553528,0.0-15.0-1.1,53460,List1B,black,man,,,,null,,,,
null,is shouting at,,html-keyboard-response,183,1555537,0.0-15.0-2.1,53460,List1B,black,man,,,,null,,,,
12185,,,survey-text,184,1567740,0.0-15.0-3.1,53460,List1B,black,man,,,,,"{""Q0"":""Beth and ruth ""}","<img src=""stim_listB/shout7.gif""style=""height:400px;""></stim_listB>",is shouting at,
null,"<div style=""font-size:60px;"">+</div>",,html-keyboard-response,185,1568251,0.0-15.0-0.2,53460,List1B,black,man,,,,null,,,,
null,"<img src=""stim_listB/shout8.gif""style=""height:400px;""></stim_listB>",,html-keyboard-response,186,1570260,0.0-15.0-1.2,53460,List1B,black,man,,,,null,,,,
null,are shouting at each other,,html-keyboard-response,187,1572269,0.0-15.0-2.2,53460,List1B,black,man,,,,null,,,,
5542,,,survey-text,188,1577822,0.0-15.0-3.2,53460,List1B,black,man,,,,,"{""Q0"":""Kate and jane""}","<img src=""stim_listB/shout8.gif""style=""height:400px;""></stim_listB>",are shouting at each other,
null,"<div style=""font-size:60px;"">+</div>",,html-keyboard-response,189,1578330,0.0-15.0-0.3,53460,List1B,black,man,,,,null,,,,
null,"<img src=""stim_listB/marry7.gif""style=""height:400px;""></stim_listB>",,html-keyboard-response,190,1580344,0.0-15.0-1.3,53460,List1B,black,man,,,,null,,,,
null,is marrying,,html-keyboard-response,191,1582353,0.0-15.0-2.3,53460,List1B,black,man,,,,null,,,,
5481,,,survey-text,192,1587844,0.0-15.0-3.3,53460,List1B,black,man,,,,,"{""Q0"":""Jane and Kate ""}","<img src=""stim_listB/marry7.gif""style=""height:400px;""></stim_listB>",is marrying,
null,"<div style=""font-size:60px;"">+</div>",,html-keyboard-response,193,1588353,0.0-15.0-0.4,53460,List1B,black,man,,,,null,,,,
null,"<img src=""stim_listB/fight6.gif""style=""height:400px;""></stim_listB>",,html-keyboard-response,194,1590369,0.0-15.0-1.4,53460,List1B,black,man,,,,null,,,,
null,are fighting each other,,html-keyboard-response,195,1592380,0.0-15.0-2.4,53460,List1B,black,man,,,,null,,,,
4950,,,survey-text,196,1597340,0.0-15.0-3.4,53460,List1B,black,man,,,,,"{""Q0"":""Fred and luke""}","<img src=""stim_listB/fight6.gif""style=""height:400px;""></stim_listB>",are fighting each other,
null,"<div style=""font-size:60px;"">+</div>",,html-keyboard-response,197,1597848,0.0-15.0-0.5,53460,List1B,black,man,,,,null,,,,
null,"<img src=""stim_listB/shout5.gif""style=""height:400px;""></stim_listB>",,html-keyboard-response,198,1599863,0.0-15.0-1.5,53460,List1B,black,man,,,,null,,,,
null,is shouting at,,html-keyboard-response,199,1601872,0.0-15.0-2.5,53460,List1B,black,man,,,,null,,,,
5375,,,survey-text,200,1607256,0.0-15.0-3.5,53460,List1B,black,man,,,,,"{""Q0"":""Fred and luke""}","<img src=""stim_listB/shout5.gif""style=""height:400px;""></stim_listB>",is shouting at,
null,"<div style=""font-size:60px;"">+</div>",,html-keyboard-response,201,1607763,0.0-15.0-0.6,53460,List1B,black,man,,,,null,,,,
null,"<img src=""stim_listB/marry2.gif""style=""height:400px;""></stim_listB>",,html-keyboard-response,202,1609778,0.0-15.0-1.6,53460,List1B,black,man,,,,null,,,,
null,are marrying each other,,html-keyboard-response,203,1611786,0.0-15.0-2.6,53460,List1B,black,man,,,,null,,,,
5069,,,survey-text,204,1616867,0.0-15.0-3.6,53460,List1B,black,man,,,,,"{""Q0"":""Fred and kate""}","<img src=""stim_listB/marry2.gif""style=""height:400px;""></stim_listB>",are marrying each other,
null,"<div style=""font-size:60px;"">+</div>",,html-keyboard-response,205,1617378,0.0-15.0-0.7,53460,List1B,black,man,,,,null,,,,
null,"<img src=""stim_listB/dance8.gif""style=""height:400px;""></stim_listB>",,html-keyboard-response,206,1619392,0.0-15.0-1.7,53460,List1B,black,man,,,,null,,,,
null,are dancing with each other,,html-keyboard-response,207,1621401,0.0-15.0-2.7,53460,List1B,black,man,,,,null,,,,
9269,,,survey-text,208,1630681,0.0-15.0-3.7,53460,List1B,black,man,,,,,"{""Q0"":""Ruth and kate""}","<img src=""stim_listB/dance8.gif""style=""height:400px;""></stim_listB>",are dancing with each other,
null,"<div style=""font-size:60px;"">+</div>",,html-keyboard-response,209,1631189,0.0-15.0-0.8,53460,List1B,black,man,,,,null,,,,
null,"<img src=""stim_listB/kiss4.gif""style=""height:400px;""></stim_listB>",,html-keyboard-response,210,1633204,0.0-15.0-1.8,53460,List1B,black,man,,,,null,,,,
null,are kissing each other,,html-keyboard-response,211,1635213,0.0-15.0-2.8,53460,List1B,black,man,,,,null,,,,
5365,,,survey-text,212,1640589,0.0-15.0-3.8,53460,List1B,black,man,,,,,"{""Q0"":""Dave and jane""}","<img src=""stim_listB/kiss4.gif""style=""height:400px;""></stim_listB>",are kissing each other,
null,"<div style=""font-size:60px;"">+</div>",,html-keyboard-response,213,1641097,0.0-15.0-0.9,53460,List1B,black,man,,,,null,,,,
null,"<img src=""stim_listB/marry3.gif""style=""height:400px;""></stim_listB>",,html-keyboard-response,214,1643112,0.0-15.0-1.9,53460,List1B,black,man,,,,null,,,,
null,is marrying,,html-keyboard-response,215,1645120,0.0-15.0-2.9,53460,List1B,black,man,,,,null,,,,
6076,,,survey-text,216,1651203,0.0-15.0-3.9,53460,List1B,black,man,,,,,"{""Q0"":""Dave and ruth ""}","<img src=""stim_listB/marry3.gif""style=""height:400px;""></stim_listB>",is marrying,
null,"<div style=""font-size:60px;"">+</div>",,html-keyboard-response,217,1651711,0.0-15.0-0.10,53460,List1B,black,man,,,,null,,,,
null,"<img src=""stim_listB/dance7.gif""style=""height:400px;""></stim_listB>",,html-keyboard-response,218,1653728,0.0-15.0-1.10,53460,List1B,black,man,,,,null,,,,
null,is dancing with,,html-keyboard-response,219,1655737,0.0-15.0-2.10,53460,List1B,black,man,,,,null,,,,
5240,,,survey-text,220,1660988,0.0-15.0-3.10,53460,List1B,black,man,,,,,"{""Q0"":""Beth and jane""}","<img src=""stim_listB/dance7.gif""style=""height:400px;""></stim_listB>",is dancing with,
null,"<div style=""font-size:60px;"">+</div>",,html-keyboard-response,221,1661494,0.0-15.0-0.11,53460,List1B,black,man,,,,null,,,,
null,"<img src=""stim_listB/touch6.gif""style=""height:400px;""></stim_listB>",,html-keyboard-response,222,1663501,0.0-15.0-1.11,53460,List1B,black,man,,,,null,,,,
null,are touching each other,,html-keyboard-response,223,1665510,0.0-15.0-2.11,53460,List1B,black,man,,,,null,,,,
6236,,,survey-text,224,1671756,0.0-15.0-3.11,53460,List1B,black,man,,,,,"{""Q0"":""Fred and luke""}","<img src=""stim_listB/touch6.gif""style=""height:400px;""></stim_listB>",are touching each other,
null,"<div style=""font-size:60px;"">+</div>",,html-keyboard-response,225,1672264,0.0-15.0-0.12,53460,List1B,black,man,,,,null,,,,
null,"<img src=""stim_listB/fight4.gif""style=""height:400px;""></stim_listB>",,html-keyboard-response,226,1674278,0.0-15.0-1.12,53460,List1B,black,man,,,,null,,,,
null,are fighting each other,,html-keyboard-response,227,1676287,0.0-15.0-2.12,53460,List1B,black,man,,,,null,,,,
7740,,,survey-text,228,1684039,0.0-15.0-3.12,53460,List1B,black,man,,,,,"{""Q0"":""Luke and ruth""}","<img src=""stim_listB/fight4.gif""style=""height:400px;""></stim_listB>",are fighting each other,
null,"<div style=""font-size:60px;"">+</div>",,html-keyboard-response,229,1684559,0.0-15.0-0.13,53460,List1B,black,man,,,,null,,,,
null,"<img src=""stim_listB/dance3.gif""style=""height:400px;""></stim_listB>",,html-keyboard-response,230,1686574,0.0-15.0-1.13,53460,List1B,black,man,,,,null,,,,
null,is dancing with,,html-keyboard-response,231,1688584,0.0-15.0-2.13,53460,List1B,black,man,,,,null,,,,
4147,,,survey-text,232,1692745,0.0-15.0-3.13,53460,List1B,black,man,,,,,"{""Q0"":""Luke and jane""}","<img src=""stim_listB/dance3.gif""style=""height:400px;""></stim_listB>",is dancing with,
null,"<div style=""font-size:60px;"">+</div>",,html-keyboard-response,233,1693254,0.0-15.0-0.14,53460,List1B,black,man,,,,null,,,,
null,"<img src=""stim_listB/touch3.gif""style=""height:400px;""></stim_listB>",,html-keyboard-response,234,1695268,0.0-15.0-1.14,53460,List1B,black,man,,,,null,,,,
null,is touching,,html-keyboard-response,235,1697274,0.0-15.0-2.14,53460,List1B,black,man,,,,null,,,,
6540,,,survey-text,236,1703822,0.0-15.0-3.14,53460,List1B,black,man,,,,,"{""Q0"":""Dave and jane""}","<img src=""stim_listB/touch3.gif""style=""height:400px;""></stim_listB>",is touching,
null,"<div style=""font-size:60px;"">+</div>",,html-keyboard-response,237,1704331,0.0-15.0-0.15,53460,List1B,black,man,,,,null,,,,
null,"<img src=""stim_listB/touch5.gif""style=""height:400px;""></stim_listB>",,html-keyboard-response,238,1706346,0.0-15.0-1.15,53460,List1B,black,man,,,,null,,,,
null,is touching,,html-keyboard-response,239,1708355,0.0-15.0-2.15,53460,List1B,black,man,,,,null,,,,
5477,,,survey-text,240,1713841,0.0-15.0-3.15,53460,List1B,black,man,,,,,"{""Q0"":""Mike and dave""}","<img src=""stim_listB/touch5.gif""style=""height:400px;""></stim_listB>",is touching,
null,"<div style=""font-size:60px;"">+</div>",,html-keyboard-response,241,1714348,0.0-15.0-0.16,53460,List1B,black,man,,,,null,,,,
null,"<img src=""stim_listB/dance6.gif""style=""height:400px;""></stim_listB>",,html-keyboard-response,242,1716362,0.0-15.0-1.16,53460,List1B,black,man,,,,null,,,,
null,are dancing with each other,,html-keyboard-response,243,1718371,0.0-15.0-2.16,53460,List1B,black,man,,,,null,,,,
13549,,,survey-text,244,1731931,0.0-15.0-3.16,53460,List1B,black,man,,,,,"{""Q0"":""Mike and kate""}","<img src=""stim_listB/dance6.gif""style=""height:400px;""></stim_listB>",are dancing with each other,
null,"<div style=""font-size:60px;"">+</div>",,html-keyboard-response,245,1732438,0.0-15.0-0.17,53460,List1B,black,man,,,,null,,,,
null,"<img src=""stim_listB/dance2.gif""style=""height:400px;""></stim_listB>",,html-keyboard-response,246,1734453,0.0-15.0-1.17,53460,List1B,black,man,,,,null,,,,
null,are dancing with each other,,html-keyboard-response,247,1736460,0.0-15.0-2.17,53460,List1B,black,man,,,,null,,,,
5615,,,survey-text,248,1742083,0.0-15.0-3.17,53460,List1B,black,man,,,,,"{""Q0"":""Mike and beth""}","<img src=""stim_listB/dance2.gif""style=""height:400px;""></stim_listB>",are dancing with each other,
null,"<div style=""font-size:60px;"">+</div>",,html-keyboard-response,249,1742591,0.0-15.0-0.18,53460,List1B,black,man,,,,null,,,,
null,"<img src=""stim_listB/kiss5.gif""style=""height:400px;""></stim_listB>",,html-keyboard-response,250,1744603,0.0-15.0-1.18,53460,List1B,black,man,,,,null,,,,
null,is kissing,,html-keyboard-response,251,1746611,0.0-15.0-2.18,53460,List1B,black,man,,,,null,,,,
6763,,,survey-text,252,1753386,0.0-15.0-3.18,53460,List1B,black,man,,,,,"{""Q0"":""Fred and Luke ""}","<img src=""stim_listB/kiss5.gif""style=""height:400px;""></stim_listB>",is kissing,
null,"<div style=""font-size:60px;"">+</div>",,html-keyboard-response,253,1753894,0.0-15.0-0.19,53460,List1B,black,man,,,,null,,,,
null,"<img src=""stim_listB/fight2.gif""style=""height:400px;""></stim_listB>",,html-keyboard-response,254,1755909,0.0-15.0-1.19,53460,List1B,black,man,,,,null,,,,
null,are fighting each other,,html-keyboard-response,255,1757917,0.0-15.0-2.19,53460,List1B,black,man,,,,null,,,,
7191,,,survey-text,256,1765124,0.0-15.0-3.19,53460,List1B,black,man,,,,,"{""Q0"":""Beth and fred""}","<img src=""stim_listB/fight2.gif""style=""height:400px;""></stim_listB>",are fighting each other,
5738,"<img src='img/portrait_matrix_list1.jpg' style='width:900px;height:500px;''></img><p>If you have memorised all the portraits and names and are ready to start, press Continue.</p><p><strong>Please note: Your memory of these faces will be tested 4 times during this experiment.</strong></p>",0,html-button-response,257,1770870,0.0-16.0-0.0,53460,List1B,black,man,,,,,,,,
2876,"<img src=""portrait/WM2.jpg""style=""height:400px;""></img>",7,html-button-response,258,1774769,0.0-16.0-1.0,53460,List1B,black,man,,TRUE,7,,,,,
null,CORRECT,,html-keyboard-response,259,1776280,0.0-16.0-2.0-0.0,53460,List1B,black,man,,,,null,,,,
2321,"<img src=""portrait/BM1.jpg""style=""height:400px;""></img>",4,html-button-response,260,1778619,0.0-16.0-4.0,53460,List1B,black,man,,TRUE,4,,,,,
null,CORRECT,,html-keyboard-response,261,1780130,0.0-16.0-5.0-0.0,53460,List1B,black,man,,,,null,,,,
6154,"<img src=""portrait/WW2.jpg""style=""height:400px;""></img>",3,html-button-response,262,1786302,0.0-16.0-7.0,53460,List1B,black,man,,TRUE,3,,,,,
null,CORRECT,,html-keyboard-response,263,1787813,0.0-16.0-8.0-0.0,53460,List1B,black,man,,,,null,,,,
3657,"<img src=""portrait/BM2.jpg""style=""height:400px;""></img>",5,html-button-response,264,1791482,0.0-16.0-10.0,53460,List1B,black,man,,TRUE,5,,,,,
null,CORRECT,,html-keyboard-response,265,1792995,0.0-16.0-11.0-0.0,53460,List1B,black,man,,,,null,,,,
4268,"<img src=""portrait/BW1.jpg""style=""height:400px;""></img>",0,html-button-response,266,1797278,0.0-16.0-13.0,53460,List1B,black,man,,TRUE,0,,,,,
null,CORRECT,,html-keyboard-response,267,1798785,0.0-16.0-14.0-0.0,53460,List1B,black,man,,,,null,,,,
5081,"<img src=""portrait/WW1.jpg""style=""height:400px;""></img>",1,html-button-response,268,1803882,0.0-16.0-16.0,53460,List1B,black,man,,TRUE,1,,,,,
null,CORRECT,,html-keyboard-response,269,1805396,0.0-16.0-17.0-0.0,53460,List1B,black,man,,,,null,,,,
3651,"<img src=""portrait/BW2.jpg""style=""height:400px;""></img>",2,html-button-response,270,1809063,0.0-16.0-19.0,53460,List1B,black,man,,TRUE,2,,,,,
null,CORRECT,,html-keyboard-response,271,1810578,0.0-16.0-20.0-0.0,53460,List1B,black,man,,,,null,,,,
3238,"<img src=""portrait/WM1.jpg""style=""height:400px;""></img>",6,html-button-response,272,1813833,0.0-16.0-22.0,53460,List1B,black,man,,TRUE,6,,,,,
null,CORRECT,,html-keyboard-response,273,1815344,0.0-16.0-23.0-0.0,53460,List1B,black,man,,,,null,,,,
1708,<p>You got 8 out of 8 right first time. Press Continue.</p>,0,html-button-response,274,1817064,0.0-16.0-25.0,53460,List1B,black,man,,,,,,,,
null,"<div style=""font-size:60px;"">+</div>",,html-keyboard-response,275,1818575,0.0-17.0-0.0,53460,List1B,black,man,,,,null,,,,
null,"<img src=""stim_listB/flirt1.gif""style=""height:400px;""></stim_listB>",,html-keyboard-response,276,1820590,0.0-17.0-1.0,53460,List1B,black,man,,,,null,,,,
null,is flirting with,,html-keyboard-response,277,1822600,0.0-17.0-2.0,53460,List1B,black,man,,,,null,,,,
9711,,,survey-text,278,1832323,0.0-17.0-3.0,53460,List1B,black,man,,,,,"{""Q0"":""Fred and Beth ""}","<img src=""stim_listB/flirt1.gif""style=""height:400px;""></stim_listB>",is flirting with,
null,"<div style=""font-size:60px;"">+</div>",,html-keyboard-response,279,1832831,0.0-17.0-0.1,53460,List1B,black,man,,,,null,,,,
null,"<img src=""stim_listB/argue2.gif""style=""height:400px;""></stim_listB>",,html-keyboard-response,280,1834836,0.0-17.0-1.1,53460,List1B,black,man,,,,null,,,,
null,are arguing with each other,,html-keyboard-response,281,1836843,0.0-17.0-2.1,53460,List1B,black,man,,,,null,,,,
5856,,,survey-text,282,1842710,0.0-17.0-3.1,53460,List1B,black,man,,,,,"{""Q0"":""Fred and kate""}","<img src=""stim_listB/argue2.gif""style=""height:400px;""></stim_listB>",are arguing with each other,
null,"<div style=""font-size:60px;"">+</div>",,html-keyboard-response,283,1843215,0.0-17.0-0.2,53460,List1B,black,man,,,,null,,,,
null,"<img src=""stim_listB/play4.gif""style=""height:400px;""></stim_listB>",,html-keyboard-response,284,1845223,0.0-17.0-1.2,53460,List1B,black,man,,,,null,,,,
null,are playing with each other,,html-keyboard-response,285,1847234,0.0-17.0-2.2,53460,List1B,black,man,,,,null,,,,
6589,,,survey-text,286,1853837,0.0-17.0-3.2,53460,List1B,black,man,,,,,"{""Q0"":""Luke and ruth ""}","<img src=""stim_listB/play4.gif""style=""height:400px;""></stim_listB>",are playing with each other,
null,"<div style=""font-size:60px;"">+</div>",,html-keyboard-response,287,1854348,0.0-17.0-0.3,53460,List1B,black,man,,,,null,,,,
null,"<img src=""stim_listB/talk1.gif""style=""height:400px;""></stim_listB>",,html-keyboard-response,288,1856367,0.0-17.0-1.3,53460,List1B,black,man,,,,null,,,,
null,is talking to,,html-keyboard-response,289,1858376,0.0-17.0-2.3,53460,List1B,black,man,,,,null,,,,
6151,,,survey-text,290,1864539,0.0-17.0-3.3,53460,List1B,black,man,,,,,"{""Q0"":""Fred and kate""}","<img src=""stim_listB/talk1.gif""style=""height:400px;""></stim_listB>",is talking to,
null,"<div style=""font-size:60px;"">+</div>",,html-keyboard-response,291,1865047,0.0-17.0-0.4,53460,List1B,black,man,,,,null,,,,
null,"<img src=""stim_listB/argue5.gif""style=""height:400px;""></stim_listB>",,html-keyboard-response,292,1867061,0.0-17.0-1.4,53460,List1B,black,man,,,,null,,,,
null,is arguing with,,html-keyboard-response,293,1869068,0.0-17.0-2.4,53460,List1B,black,man,,,,null,,,,
11263,,,survey-text,294,1880339,0.0-17.0-3.4,53460,List1B,black,man,,,,,"{""Q0"":""Mike and Luke ""}","<img src=""stim_listB/argue5.gif""style=""height:400px;""></stim_listB>",is arguing with,
null,"<div style=""font-size:60px;"">+</div>",,html-keyboard-response,295,1880848,0.0-17.0-0.5,53460,List1B,black,man,,,,null,,,,
null,"<img src=""stim_listB/fight3.gif""style=""height:400px;""></stim_listB>",,html-keyboard-response,296,1882863,0.0-17.0-1.5,53460,List1B,black,man,,,,null,,,,
null,is fighting,,html-keyboard-response,297,1884870,0.0-17.0-2.5,53460,List1B,black,man,,,,null,,,,
7137,,,survey-text,298,1892014,0.0-17.0-3.5,53460,List1B,black,man,,,,,"{""Q0"":""Dave and ruth""}","<img src=""stim_listB/fight3.gif""style=""height:400px;""></stim_listB>",is fighting,
null,"<div style=""font-size:60px;"">+</div>",,html-keyboard-response,299,1892521,0.0-17.0-0.6,53460,List1B,black,man,,,,null,,,,
null,"<img src=""stim_listB/talk8.gif""style=""height:400px;""></stim_listB>",,html-keyboard-response,300,1894528,0.0-17.0-1.6,53460,List1B,black,man,,,,null,,,,
null,are talking to each other,,html-keyboard-response,301,1896535,0.0-17.0-2.6,53460,List1B,black,man,,,,null,,,,
5148,,,survey-text,302,1901688,0.0-17.0-3.6,53460,List1B,black,man,,,,,"{""Q0"":""Ruth and kate""}","<img src=""stim_listB/talk8.gif""style=""height:400px;""></stim_listB>",are talking to each other,
null,"<div style=""font-size:60px;"">+</div>",,html-keyboard-response,303,1902196,0.0-17.0-0.7,53460,List1B,black,man,,,,null,,,,
null,"<img src=""stim_listB/play5.gif""style=""height:400px;""></stim_listB>",,html-keyboard-response,304,1904210,0.0-17.0-1.7,53460,List1B,black,man,,,,null,,,,
null,is playing with,,html-keyboard-response,305,1906221,0.0-17.0-2.7,53460,List1B,black,man,,,,null,,,,
4413,,,survey-text,306,1910645,0.0-17.0-3.7,53460,List1B,black,man,,,,,"{""Q0"":""Dave and mike""}","<img src=""stim_listB/play5.gif""style=""height:400px;""></stim_listB>",is playing with,
null,"<div style=""font-size:60px;"">+</div>",,html-keyboard-response,307,1911153,0.0-17.0-0.8,53460,List1B,black,man,,,,null,,,,
null,"<img src=""stim_listB/argue1.gif""style=""height:400px;""></stim_listB>",,html-keyboard-response,308,1913168,0.0-17.0-1.8,53460,List1B,black,man,,,,null,,,,
null,is arguing with,,html-keyboard-response,309,1915175,0.0-17.0-2.8,53460,List1B,black,man,,,,null,,,,
7207,,,survey-text,310,1922388,0.0-17.0-3.8,53460,List1B,black,man,,,,,"{""Q0"":""Mike and Beth ""}","<img src=""stim_listB/argue1.gif""style=""height:400px;""></stim_listB>",is arguing with,
null,"<div style=""font-size:60px;"">+</div>",,html-keyboard-response,311,1922898,0.0-17.0-0.9,53460,List1B,black,man,,,,null,,,,
null,"<img src=""stim_listB/argue8.gif""style=""height:400px;""></stim_listB>",,html-keyboard-response,312,1924913,0.0-17.0-1.9,53460,List1B,black,man,,,,null,,,,
null,are arguing with each other,,html-keyboard-response,313,1926922,0.0-17.0-2.9,53460,List1B,black,man,,,,null,,,,
5516,,,survey-text,314,1932450,0.0-17.0-3.9,53460,List1B,black,man,,,,,"{""Q0"":""Beth and Jane""}","<img src=""stim_listB/argue8.gif""style=""height:400px;""></stim_listB>",are arguing with each other,
null,"<div style=""font-size:60px;"">+</div>",,html-keyboard-response,315,1932958,0.0-17.0-0.10,53460,List1B,black,man,,,,null,,,,
null,"<img src=""stim_listB/dance1.gif""style=""height:400px;""></stim_listB>",,html-keyboard-response,316,1934970,0.0-17.0-1.10,53460,List1B,black,man,,,,null,,,,
null,is dancing with,,html-keyboard-response,317,1936976,0.0-17.0-2.10,53460,List1B,black,man,,,,null,,,,
6133,,,survey-text,318,1943121,0.0-17.0-3.10,53460,List1B,black,man,,,,,"{""Q0"":""Fred and kate""}","<img src=""stim_listB/dance1.gif""style=""height:400px;""></stim_listB>",is dancing with,
null,"<div style=""font-size:60px;"">+</div>",,html-keyboard-response,319,1943630,0.0-17.0-0.11,53460,List1B,black,man,,,,null,,,,
null,"<img src=""stim_listB/argue7.gif""style=""height:400px;""></stim_listB>",,html-keyboard-response,320,1945644,0.0-17.0-1.11,53460,List1B,black,man,,,,null,,,,
null,is arguing with,,html-keyboard-response,321,1947654,0.0-17.0-2.11,53460,List1B,black,man,,,,null,,,,
5593,,,survey-text,322,1953258,0.0-17.0-3.11,53460,List1B,black,man,,,,,"{""Q0"":""Kate and ruth""}","<img src=""stim_listB/argue7.gif""style=""height:400px;""></stim_listB>",is arguing with,
null,"<div style=""font-size:60px;"">+</div>",,html-keyboard-response,323,1953766,0.0-17.0-0.12,53460,List1B,black,man,,,,null,,,,
null,"<img src=""stim_listB/talk7.gif""style=""height:400px;""></stim_listB>",,html-keyboard-response,324,1955781,0.0-17.0-1.12,53460,List1B,black,man,,,,null,,,,
null,is talking to,,html-keyboard-response,325,1957789,0.0-17.0-2.12,53460,List1B,black,man,,,,null,,,,
7089,,,survey-text,326,1964883,0.0-17.0-3.12,53460,List1B,black,man,,,,,"{""Q0"":""Beth and jane""}","<img src=""stim_listB/talk7.gif""style=""height:400px;""></stim_listB>",is talking to,
null,"<div style=""font-size:60px;"">+</div>",,html-keyboard-response,327,1965390,0.0-17.0-0.13,53460,List1B,black,man,,,,null,,,,
null,"<img src=""stim_listB/kiss8.gif""style=""height:400px;""></stim_listB>",,html-keyboard-response,328,1967405,0.0-17.0-1.13,53460,List1B,black,man,,,,null,,,,
null,are kissing each other,,html-keyboard-response,329,1969414,0.0-17.0-2.13,53460,List1B,black,man,,,,null,,,,
4530,,,survey-text,330,1973957,0.0-17.0-3.13,53460,List1B,black,man,,,,,"{""Q0"":""Jane and kate""}","<img src=""stim_listB/kiss8.gif""style=""height:400px;""></stim_listB>",are kissing each other,
null,"<div style=""font-size:60px;"">+</div>",,html-keyboard-response,331,1974465,0.0-17.0-0.14,53460,List1B,black,man,,,,null,,,,
null,"<img src=""stim_listB/touch7.gif""style=""height:400px;""></stim_listB>",,html-keyboard-response,332,1976480,0.0-17.0-1.14,53460,List1B,black,man,,,,null,,,,
null,is touching,,html-keyboard-response,333,1978490,0.0-17.0-2.14,53460,List1B,black,man,,,,null,,,,
4916,,,survey-text,334,1983418,0.0-17.0-3.14,53460,List1B,black,man,,,,,"{""Q0"":""Jane and kate""}","<img src=""stim_listB/touch7.gif""style=""height:400px;""></stim_listB>",is touching,
null,"<div style=""font-size:60px;"">+</div>",,html-keyboard-response,335,1983926,0.0-17.0-0.15,53460,List1B,black,man,,,,null,,,,
null,"<img src=""stim_listB/fight8.gif""style=""height:400px;""></stim_listB>",,html-keyboard-response,336,1985937,0.0-17.0-1.15,53460,List1B,black,man,,,,null,,,,
null,are fighting each other,,html-keyboard-response,337,1987943,0.0-17.0-2.15,53460,List1B,black,man,,,,null,,,,
6445,,,survey-text,338,1994397,0.0-17.0-3.15,53460,List1B,black,man,,,,,"{""Q0"":""Beth and ruth""}","<img src=""stim_listB/fight8.gif""style=""height:400px;""></stim_listB>",are fighting each other,
null,"<div style=""font-size:60px;"">+</div>",,html-keyboard-response,339,1994906,0.0-17.0-0.16,53460,List1B,black,man,,,,null,,,,
null,"<img src=""stim_listB/fight5.gif""style=""height:400px;""></stim_listB>",,html-keyboard-response,340,1996917,0.0-17.0-1.16,53460,List1B,black,man,,,,null,,,,
null,is fighting,,html-keyboard-response,341,1998926,0.0-17.0-2.16,53460,List1B,black,man,,,,null,,,,
5711,,,survey-text,342,2004647,0.0-17.0-3.16,53460,List1B,black,man,,,,,"{""Q0"":""Dave and mike""}","<img src=""stim_listB/fight5.gif""style=""height:400px;""></stim_listB>",is fighting,
null,"<div style=""font-size:60px;"">+</div>",,html-keyboard-response,343,2005154,0.0-17.0-0.17,53460,List1B,black,man,,,,null,,,,
null,"<img src=""stim_listB/play7.gif""style=""height:400px;""></stim_listB>",,html-keyboard-response,344,2007170,0.0-17.0-1.17,53460,List1B,black,man,,,,null,,,,
null,is playing with,,html-keyboard-response,345,2009177,0.0-17.0-2.17,53460,List1B,black,man,,,,null,,,,
7869,,,survey-text,346,2017054,0.0-17.0-3.17,53460,List1B,black,man,,,,,"{""Q0"":""Kate and jane""}","<img src=""stim_listB/play7.gif""style=""height:400px;""></stim_listB>",is playing with,
null,"<div style=""font-size:60px;"">+</div>",,html-keyboard-response,347,2017562,0.0-17.0-0.18,53460,List1B,black,man,,,,null,,,,
null,"<img src=""stim_listB/dance5.gif""style=""height:400px;""></stim_listB>",,html-keyboard-response,348,2019576,0.0-17.0-1.18,53460,List1B,black,man,,,,null,,,,
null,is dancing with,,html-keyboard-response,349,2021580,0.0-17.0-2.18,53460,List1B,black,man,,,,null,,,,
7135,,,survey-text,350,2028720,0.0-17.0-3.18,53460,List1B,black,man,,,,,"{""Q0"":""Dave and fred ""}","<img src=""stim_listB/dance5.gif""style=""height:400px;""></stim_listB>",is dancing with,
null,"<div style=""font-size:60px;"">+</div>",,html-keyboard-response,351,2029228,0.0-17.0-0.19,53460,List1B,black,man,,,,null,,,,
null,"<img src=""stim_listB/talk4.gif""style=""height:400px;""></stim_listB>",,html-keyboard-response,352,2031241,0.0-17.0-1.19,53460,List1B,black,man,,,,null,,,,
null,are talking to each other,,html-keyboard-response,353,2033246,0.0-17.0-2.19,53460,List1B,black,man,,,,null,,,,
6620,,,survey-text,354,2039878,0.0-17.0-3.19,53460,List1B,black,man,,,,,"{""Q0"":""Ruth and dave""}","<img src=""stim_listB/talk4.gif""style=""height:400px;""></stim_listB>",are talking to each other,
40527,"<img src='img/portrait_matrix_list1.jpg' style='width:900px;height:500px;''></img><p>If you have memorised all the portraits and names and are ready to start, press Continue.</p><p><strong>Please note: Your memory of these faces will be tested 4 times during this experiment.</strong></p>",0,html-button-response,355,2080413,0.0-18.0-0.0,53460,List1B,black,man,,,,,,,,
5833,"<img src=""portrait/WW2.jpg""style=""height:400px;""></img>",3,html-button-response,356,2087266,0.0-18.0-1.0,53460,List1B,black,man,,TRUE,3,,,,,
null,CORRECT,,html-keyboard-response,357,2088778,0.0-18.0-2.0-0.0,53460,List1B,black,man,,,,null,,,,
2890,"<img src=""portrait/BW2.jpg""style=""height:400px;""></img>",2,html-button-response,358,2091695,0.0-18.0-4.0,53460,List1B,black,man,,TRUE,2,,,,,
null,CORRECT,,html-keyboard-response,359,2093209,0.0-18.0-5.0-0.0,53460,List1B,black,man,,,,null,,,,
3972,"<img src=""portrait/WM1.jpg""style=""height:400px;""></img>",6,html-button-response,360,2097199,0.0-18.0-7.0,53460,List1B,black,man,,TRUE,6,,,,,
null,CORRECT,,html-keyboard-response,361,2098711,0.0-18.0-8.0-0.0,53460,List1B,black,man,,,,null,,,,
2472,"<img src=""portrait/BM1.jpg""style=""height:400px;""></img>",4,html-button-response,362,2101203,0.0-18.0-10.0,53460,List1B,black,man,,TRUE,4,,,,,
null,CORRECT,,html-keyboard-response,363,2102718,0.0-18.0-11.0-0.0,53460,List1B,black,man,,,,null,,,,
2981,"<img src=""portrait/WM2.jpg""style=""height:400px;""></img>",7,html-button-response,364,2105719,0.0-18.0-13.0,53460,List1B,black,man,,TRUE,7,,,,,
null,CORRECT,,html-keyboard-response,365,2107232,0.0-18.0-14.0-0.0,53460,List1B,black,man,,,,null,,,,
3891,"<img src=""portrait/BM2.jpg""style=""height:400px;""></img>",5,html-button-response,366,2111142,0.0-18.0-16.0,53460,List1B,black,man,,TRUE,5,,,,,
null,CORRECT,,html-keyboard-response,367,2112654,0.0-18.0-17.0-0.0,53460,List1B,black,man,,,,null,,,,
3655,"<img src=""portrait/WW1.jpg""style=""height:400px;""></img>",1,html-button-response,368,2116326,0.0-18.0-19.0,53460,List1B,black,man,,TRUE,1,,,,,
null,CORRECT,,html-keyboard-response,369,2117837,0.0-18.0-20.0-0.0,53460,List1B,black,man,,,,null,,,,
3784,"<img src=""portrait/BW1.jpg""style=""height:400px;""></img>",0,html-button-response,370,2121639,0.0-18.0-22.0,53460,List1B,black,man,,TRUE,0,,,,,
null,CORRECT,,html-keyboard-response,371,2123150,0.0-18.0-23.0-0.0,53460,List1B,black,man,,,,null,,,,
1323,<p>You got 8 out of 8 right first time. Press Continue.</p>,0,html-button-response,372,2124487,0.0-18.0-25.0,53460,List1B,black,man,,,,,,,,
null,"<div style=""font-size:60px;"">+</div>",,html-keyboard-response,373,2126001,0.0-19.0-0.0,53460,List1B,black,man,,,,null,,,,
null,"<img src=""stim_listB/play1.gif""style=""height:400px;""></stim_listB>",,html-keyboard-response,374,2128008,0.0-19.0-1.0,53460,List1B,black,man,,,,null,,,,
null,is playing with,,html-keyboard-response,375,2130016,0.0-19.0-2.0,53460,List1B,black,man,,,,null,,,,
11208,,,survey-text,376,2141236,0.0-19.0-3.0,53460,List1B,black,man,,,,,"{""Q0"":""Mike and beth""}","<img src=""stim_listB/play1.gif""style=""height:400px;""></stim_listB>",is playing with,
null,"<div style=""font-size:60px;"">+</div>",,html-keyboard-response,377,2141744,0.0-19.0-0.1,53460,List1B,black,man,,,,null,,,,
null,"<img src=""stim_listB/kiss7.gif""style=""height:400px;""></stim_listB>",,html-keyboard-response,378,2143762,0.0-19.0-1.1,53460,List1B,black,man,,,,null,,,,
null,is kissing,,html-keyboard-response,379,2145773,0.0-19.0-2.1,53460,List1B,black,man,,,,null,,,,
6478,,,survey-text,380,2152262,0.0-19.0-3.1,53460,List1B,black,man,,,,,"{""Q0"":""Beth and ruth""}","<img src=""stim_listB/kiss7.gif""style=""height:400px;""></stim_listB>",is kissing,
null,"<div style=""font-size:60px;"">+</div>",,html-keyboard-response,381,2152773,0.0-19.0-0.2,53460,List1B,black,man,,,,null,,,,
null,"<img src=""stim_listB/talk3.gif""style=""height:400px;""></stim_listB>",,html-keyboard-response,382,2154789,0.0-19.0-1.2,53460,List1B,black,man,,,,null,,,,
null,is talking to,,html-keyboard-response,383,2156798,0.0-19.0-2.2,53460,List1B,black,man,,,,null,,,,
7117,,,survey-text,384,2163928,0.0-19.0-3.2,53460,List1B,black,man,,,,,"{""Q0"":""Jane and luke""}","<img src=""stim_listB/talk3.gif""style=""height:400px;""></stim_listB>",is talking to,
null,"<div style=""font-size:60px;"">+</div>",,html-keyboard-response,385,2164437,0.0-19.0-0.3,53460,List1B,black,man,,,,null,,,,
null,"<img src=""stim_listB/marry1.gif""style=""height:400px;""></stim_listB>",,html-keyboard-response,386,2166450,0.0-19.0-1.3,53460,List1B,black,man,,,,null,,,,
null,is marrying,,html-keyboard-response,387,2168457,0.0-19.0-2.3,53460,List1B,black,man,,,,null,,,,
6380,,,survey-text,388,2174847,0.0-19.0-3.3,53460,List1B,black,man,,,,,"{""Q0"":""Beth and mike""}","<img src=""stim_listB/marry1.gif""style=""height:400px;""></stim_listB>",is marrying,
null,"<div style=""font-size:60px;"">+</div>",,html-keyboard-response,389,2175354,0.0-19.0-0.4,53460,List1B,black,man,,,,null,,,,
null,"<img src=""stim_listB/flirt6.gif""style=""height:400px;""></stim_listB>",,html-keyboard-response,390,2177368,0.0-19.0-1.4,53460,List1B,black,man,,,,null,,,,
null,are flirting with each other,,html-keyboard-response,391,2179378,0.0-19.0-2.4,53460,List1B,black,man,,,,null,,,,
10113,,,survey-text,392,2189506,0.0-19.0-3.4,53460,List1B,black,man,,,,,"{""Q0"":""Mike and Jane ""}","<img src=""stim_listB/flirt6.gif""style=""height:400px;""></stim_listB>",are flirting with each other,
null,"<div style=""font-size:60px;"">+</div>",,html-keyboard-response,393,2190018,0.0-19.0-0.5,53460,List1B,black,man,,,,null,,,,
null,"<img src=""stim_listB/argue3.gif""style=""height:400px;""></stim_listB>",,html-keyboard-response,394,2192031,0.0-19.0-1.5,53460,List1B,black,man,,,,null,,,,
null,is arguing with,,html-keyboard-response,395,2194037,0.0-19.0-2.5,53460,List1B,black,man,,,,null,,,,
7107,,,survey-text,396,2201155,0.0-19.0-3.5,53460,List1B,black,man,,,,,"{""Q0"":""Dave and ruth""}","<img src=""stim_listB/argue3.gif""style=""height:400px;""></stim_listB>",is arguing with,
null,"<div style=""font-size:60px;"">+</div>",,html-keyboard-response,397,2201664,0.0-19.0-0.6,53460,List1B,black,man,,,,null,,,,
null,"<img src=""stim_listB/kiss6.gif""style=""height:400px;""></stim_listB>",,html-keyboard-response,398,2203680,0.0-19.0-1.6,53460,List1B,black,man,,,,null,,,,
null,are kissing each other,,html-keyboard-response,399,2205690,0.0-19.0-2.6,53460,List1B,black,man,,,,null,,,,
11054,,,survey-text,400,2216755,0.0-19.0-3.6,53460,List1B,black,man,,,,,"{""Q0"":""Mike and dave""}","<img src=""stim_listB/kiss6.gif""style=""height:400px;""></stim_listB>",are kissing each other,
null,"<div style=""font-size:60px;"">+</div>",,html-keyboard-response,401,2217264,0.0-19.0-0.7,53460,List1B,black,man,,,,null,,,,
null,"<img src=""stim_listB/kiss2.gif""style=""height:400px;""></stim_listB>",,html-keyboard-response,402,2219280,0.0-19.0-1.7,53460,List1B,black,man,,,,null,,,,
null,are kissing each other,,html-keyboard-response,403,2221287,0.0-19.0-2.7,53460,List1B,black,man,,,,null,,,,
6490,,,survey-text,404,2227790,0.0-19.0-3.7,53460,List1B,black,man,,,,,"{""Q0"":""Mike and kate""}","<img src=""stim_listB/kiss2.gif""style=""height:400px;""></stim_listB>",are kissing each other,
null,"<div style=""font-size:60px;"">+</div>",,html-keyboard-response,405,2228298,0.0-19.0-0.8,53460,List1B,black,man,,,,null,,,,
null,"<img src=""stim_listB/fight7.gif""style=""height:400px;""></stim_listB>",,html-keyboard-response,406,2230314,0.0-19.0-1.8,53460,List1B,black,man,,,,null,,,,
null,is fighting,,html-keyboard-response,407,2232324,0.0-19.0-2.8,53460,List1B,black,man,,,,null,,,,
6799,,,survey-text,408,2239135,0.0-19.0-3.8,53460,List1B,black,man,,,,,"{""Q0"":""Jane and kate""}","<img src=""stim_listB/fight7.gif""style=""height:400px;""></stim_listB>",is fighting,
null,"<div style=""font-size:60px;"">+</div>",,html-keyboard-response,409,2239642,0.0-19.0-0.9,53460,List1B,black,man,,,,null,,,,
null,"<img src=""stim_listB/talk2.gif""style=""height:400px;""></stim_listB>",,html-keyboard-response,410,2241654,0.0-19.0-1.9,53460,List1B,black,man,,,,null,,,,
null,are talking to each other,,html-keyboard-response,411,2243661,0.0-19.0-2.9,53460,List1B,black,man,,,,null,,,,
6192,,,survey-text,412,2249865,0.0-19.0-3.9,53460,List1B,black,man,,,,,"{""Q0"":""Beth and mike""}","<img src=""stim_listB/talk2.gif""style=""height:400px;""></stim_listB>",are talking to each other,
null,"<div style=""font-size:60px;"">+</div>",,html-keyboard-response,413,2250373,0.0-19.0-0.10,53460,List1B,black,man,,,,null,,,,
null,"<img src=""stim_listB/play3.gif""style=""height:400px;""></stim_listB>",,html-keyboard-response,414,2252388,0.0-19.0-1.10,53460,List1B,black,man,,,,null,,,,
null,is playing with,,html-keyboard-response,415,2254395,0.0-19.0-2.10,53460,List1B,black,man,,,,null,,,,
6612,,,survey-text,416,2261017,0.0-19.0-3.10,53460,List1B,black,man,,,,,"{""Q0"":""Dave and kate""}","<img src=""stim_listB/play3.gif""style=""height:400px;""></stim_listB>",is playing with,
null,"<div style=""font-size:60px;"">+</div>",,html-keyboard-response,417,2261541,0.0-19.0-0.11,53460,List1B,black,man,,,,null,,,,
null,"<img src=""stim_listB/shout6.gif""style=""height:400px;""></stim_listB>",,html-keyboard-response,418,2263557,0.0-19.0-1.11,53460,List1B,black,man,,,,null,,,,
null,are shouting at each other,,html-keyboard-response,419,2265566,0.0-19.0-2.11,53460,List1B,black,man,,,,null,,,,
6226,,,survey-text,420,2271802,0.0-19.0-3.11,53460,List1B,black,man,,,,,"{""Q0"":""Dave and mike""}","<img src=""stim_listB/shout6.gif""style=""height:400px;""></stim_listB>",are shouting at each other,
null,"<div style=""font-size:60px;"">+</div>",,html-keyboard-response,421,2272309,0.0-19.0-0.12,53460,List1B,black,man,,,,null,,,,
null,"<img src=""stim_listB/play2.gif""style=""height:400px;""></stim_listB>",,html-keyboard-response,422,2274324,0.0-19.0-1.12,53460,List1B,black,man,,,,null,,,,
null,are playing with each other,,html-keyboard-response,423,2276333,0.0-19.0-2.12,53460,List1B,black,man,,,,null,,,,
5885,,,survey-text,424,2282235,0.0-19.0-3.12,53460,List1B,black,man,,,,,"{""Q0"":""Fred and beth""}","<img src=""stim_listB/play2.gif""style=""height:400px;""></stim_listB>",are playing with each other,
null,"<div style=""font-size:60px;"">+</div>",,html-keyboard-response,425,2282743,0.0-19.0-0.13,53460,List1B,black,man,,,,null,,,,
null,"<img src=""stim_listB/argue6.gif""style=""height:400px;""></stim_listB>",,html-keyboard-response,426,2284758,0.0-19.0-1.13,53460,List1B,black,man,,,,null,,,,
null,are arguing with each other,,html-keyboard-response,427,2286768,0.0-19.0-2.13,53460,List1B,black,man,,,,null,,,,
5832,,,survey-text,428,2292613,0.0-19.0-3.13,53460,List1B,black,man,,,,,"{""Q0"":""Dave and fred""}","<img src=""stim_listB/argue6.gif""style=""height:400px;""></stim_listB>",are arguing with each other,
null,"<div style=""font-size:60px;"">+</div>",,html-keyboard-response,429,2293121,0.0-19.0-0.14,53460,List1B,black,man,,,,null,,,,
null,"<img src=""stim_listB/flirt7.gif""style=""height:400px;""></stim_listB>",,html-keyboard-response,430,2295137,0.0-19.0-1.14,53460,List1B,black,man,,,,null,,,,
null,is flirting with,,html-keyboard-response,431,2297147,0.0-19.0-2.14,53460,List1B,black,man,,,,null,,,,
14222,,,survey-text,432,2311380,0.0-19.0-3.14,53460,List1B,black,man,,,,,"{""Q0"":""Beth and janr""}","<img src=""stim_listB/flirt7.gif""style=""height:400px;""></stim_listB>",is flirting with,
null,"<div style=""font-size:60px;"">+</div>",,html-keyboard-response,433,2311891,0.0-19.0-0.15,53460,List1B,black,man,,,,null,,,,
null,"<img src=""stim_listB/dance4.gif""style=""height:400px;""></stim_listB>",,html-keyboard-response,434,2313903,0.0-19.0-1.15,53460,List1B,black,man,,,,null,,,,
null,are dancing with each other,,html-keyboard-response,435,2315907,0.0-19.0-2.15,53460,List1B,black,man,,,,null,,,,
8461,,,survey-text,436,2324377,0.0-19.0-3.15,53460,List1B,black,man,,,,,"{""Q0"":""Ruth and dave""}","<img src=""stim_listB/dance4.gif""style=""height:400px;""></stim_listB>",are dancing with each other,
null,"<div style=""font-size:60px;"">+</div>",,html-keyboard-response,437,2324887,0.0-19.0-0.16,53460,List1B,black,man,,,,null,,,,
null,"<img src=""stim_listB/talk5.gif""style=""height:400px;""></stim_listB>",,html-keyboard-response,438,2326899,0.0-19.0-1.16,53460,List1B,black,man,,,,null,,,,
null,is talking to,,html-keyboard-response,439,2328905,0.0-19.0-2.16,53460,List1B,black,man,,,,null,,,,
7804,,,survey-text,440,2336721,0.0-19.0-3.16,53460,List1B,black,man,,,,,"{""Q0"":""Dave and fred""}","<img src=""stim_listB/talk5.gif""style=""height:400px;""></stim_listB>",is talking to,
null,"<div style=""font-size:60px;"">+</div>",,html-keyboard-response,441,2337227,0.0-19.0-0.17,53460,List1B,black,man,,,,null,,,,
null,"<img src=""stim_listB/marry8.gif""style=""height:400px;""></stim_listB>",,html-keyboard-response,442,2339236,0.0-19.0-1.17,53460,List1B,black,man,,,,null,,,,
null,are marrying each other,,html-keyboard-response,443,2341246,0.0-19.0-2.17,53460,List1B,black,man,,,,null,,,,
10071,,,survey-text,444,2351332,0.0-19.0-3.17,53460,List1B,black,man,,,,,"{""Q0"":""Beth and jane""}","<img src=""stim_listB/marry8.gif""style=""height:400px;""></stim_listB>",are marrying each other,
null,"<div style=""font-size:60px;"">+</div>",,html-keyboard-response,445,2351844,0.0-19.0-0.18,53460,List1B,black,man,,,,null,,,,
null,"<img src=""stim_listB/shout3.gif""style=""height:400px;""></stim_listB>",,html-keyboard-response,446,2353861,0.0-19.0-1.18,53460,List1B,black,man,,,,null,,,,
null,is shouting at,,html-keyboard-response,447,2355868,0.0-19.0-2.18,53460,List1B,black,man,,,,null,,,,
7781,,,survey-text,448,2363656,0.0-19.0-3.18,53460,List1B,black,man,,,,,"{""Q0"":""Luke and ruth""}","<img src=""stim_listB/shout3.gif""style=""height:400px;""></stim_listB>",is shouting at,
null,"<div style=""font-size:60px;"">+</div>",,html-keyboard-response,449,2364164,0.0-19.0-0.19,53460,List1B,black,man,,,,null,,,,
null,"<img src=""stim_listB/shout2.gif""style=""height:400px;""></stim_listB>",,html-keyboard-response,450,2366179,0.0-19.0-1.19,53460,List1B,black,man,,,,null,,,,
null,are shouting at each other,,html-keyboard-response,451,2368187,0.0-19.0-2.19,53460,List1B,black,man,,,,null,,,,
9221,,,survey-text,452,2377416,0.0-19.0-3.19,53460,List1B,black,man,,,,,"{""Q0"":""Luke and Kate ""}","<img src=""stim_listB/shout2.gif""style=""height:400px;""></stim_listB>",are shouting at each other,
3213,<p>Thank you for completing that task.</p><p>The final part of this session is a short questionnaire.</p><p>Press Continue.</p>,0,html-button-response,453,2380639,0.0-20.0,53460,List1B,black,man,,,,,,,,
34890,,,survey-text,454,2416542,0.0-21.0,53460,List1B,black,man,,,,,"{""Q0"":""29"",""Q1"":""English "",""Q2"":""English"",""Q3"":""United Kingdom"",""Q4"":""Black"",""Q5"":""Male ""}",,,demographics
8901,,,survey-likert,455,2425467,0.0-22.0,53460,List1B,black,man,,,,,"{""Q0"":3}",,,likert_ESS
8566,,,survey-likert,456,2434046,0.0-23.0,53460,List1B,black,man,,,,,"{""Q0"":4}",,,likert_NSSAL_Q1
6315,,,survey-likert,457,2440373,0.0-24.0,53460,List1B,black,man,,,,,"{""Q0"":4}",,,likert_NSSAL_Q2
4678,,,survey-likert,458,2445061,0.0-25.0,53460,List1B,black,man,,,,,"{""Q0"":4}",,,likert_CGRS_Q1
4424,,,survey-likert,459,2449497,0.0-26.0,53460,List1B,black,man,,,,,"{""Q0"":4}",,,likert_CGRS_Q2
3374,,,survey-likert,460,2452882,0.0-27.0,53460,List1B,black,man,,,,,"{""Q0"":4}",,,likert_CGRS_Q3
5498,,,survey-text,461,2458387,0.0-28.0,53460,List1B,black,man,,,,,"{""Q0"":""ccc""}",,,worker_id
16356,,,external-html,462,2474830,0.0-29.0,53460,List1B,black,man,debrief.html,,,,,,,
