rt,stimulus,button_pressed,trial_type,trial_index,time_elapsed,internal_node_id,subject,list,ppt_race,ppt_gender,url,first_guess,correct,key_press,responses,image_type,phrase_type,test_part
13913,Welcome to the experiment. Press Continue to begin.,0,html-button-response,0,13926,0.0-0.0,53904,List1B,white,woman,,,,,,,,
21105,,,external-html,1,36148,0.0-1.0,53904,List1B,white,woman,consent.html,,,,,,,
25988,"<p>On the next page, you will see portraits of 8 people and their names.</p><p>Your first task is to take a few minutes to memorise the names of these people.</p><p>You will have to recall their names during the rest of the experiment, so it is</p><p>essential that you try to memorise these people and their names as best as you can.</p><br><p><strong>You will then be tested on your memory of these names and portraits.</strong></p><br><p>The experiment will start after you have completed this memory test.</p><br><p>Ready?</p>",0,html-button-response,2,62140,0.0-2.0,53904,List1B,white,woman,,,,,,,,
73264,"<img src='img/portrait_matrix_list1.jpg' style='width:900px;height:500px;''></img><p>If you have memorised all the portraits and names and are ready to start, press Continue.</p><p><strong>Please note: Your memory of these faces will be tested 4 times during this experiment.</strong></p>",0,html-button-response,3,136428,0.0-3.0-0.0,53904,List1B,white,woman,,,,,,,,
6737,"<img src=""portrait/WW2.jpg""style=""height:400px;""></img>",3,html-button-response,4,144191,0.0-3.0-1.0,53904,List1B,white,woman,,TRUE,3,,,,,
null,CORRECT,,html-keyboard-response,5,145703,0.0-3.0-2.0-0.0,53904,List1B,white,woman,,,,null,,,,
6215,"<img src=""portrait/WW1.jpg""style=""height:400px;""></img>",1,html-button-response,6,151924,0.0-3.0-4.0,53904,List1B,white,woman,,TRUE,1,,,,,
null,CORRECT,,html-keyboard-response,7,153463,0.0-3.0-5.0-0.0,53904,List1B,white,woman,,,,null,,,,
5969,"<img src=""portrait/BW2.jpg""style=""height:400px;""></img>",2,html-button-response,8,159437,0.0-3.0-7.0,53904,List1B,white,woman,,TRUE,2,,,,,
null,CORRECT,,html-keyboard-response,9,160973,0.0-3.0-8.0-0.0,53904,List1B,white,woman,,,,null,,,,
5188,"<img src=""portrait/BM1.jpg""style=""height:400px;""></img>",4,html-button-response,10,166164,0.0-3.0-10.0,53904,List1B,white,woman,,TRUE,4,,,,,
null,CORRECT,,html-keyboard-response,11,167695,0.0-3.0-11.0-0.0,53904,List1B,white,woman,,,,null,,,,
5729,"<img src=""portrait/BM2.jpg""style=""height:400px;""></img>",5,html-button-response,12,173431,0.0-3.0-13.0,53904,List1B,white,woman,,TRUE,5,,,,,
null,CORRECT,,html-keyboard-response,13,174945,0.0-3.0-14.0-0.0,53904,List1B,white,woman,,,,null,,,,
11190,"<img src=""portrait/BW1.jpg""style=""height:400px;""></img>",0,html-button-response,14,186140,0.0-3.0-16.0,53904,List1B,white,woman,,TRUE,0,,,,,
null,CORRECT,,html-keyboard-response,15,187675,0.0-3.0-17.0-0.0,53904,List1B,white,woman,,,,null,,,,
3478,"<img src=""portrait/WM2.jpg""style=""height:400px;""></img>",7,html-button-response,16,191157,0.0-3.0-19.0,53904,List1B,white,woman,,TRUE,7,,,,,
null,CORRECT,,html-keyboard-response,17,192685,0.0-3.0-20.0-0.0,53904,List1B,white,woman,,,,null,,,,
4011,"<img src=""portrait/WM1.jpg""style=""height:400px;""></img>",6,html-button-response,18,196701,0.0-3.0-22.0,53904,List1B,white,woman,,TRUE,6,,,,,
null,CORRECT,,html-keyboard-response,19,198210,0.0-3.0-23.0-0.0,53904,List1B,white,woman,,,,null,,,,
2662,<p>You got 8 out of 8 right first time. Press Continue.</p>,0,html-button-response,20,200877,0.0-3.0-25.0,53904,List1B,white,woman,,,,,,,,
34044,"<p>In this experiment, you will view photographs of the people from the memory game interacting.</p><p>By using the <strong>exact</strong> phrase given <i>after</i> the photograph appears and recalling the correct names of the people in the photographs, form a sentence describing the interaction. You do not need to capitalise names.</p><p>Type your answer in the space provided. Please complete every sentence before moving onto the next trial.</p><p>You will only have a few seconds to memorise each given photograph and phrase before you can respond, so try your best to focus.</p><p>An example is given below. Press 'Continue' when you are ready.</p><img src='img/speaking_example.jpg' style='width:800px;height:460px;''></img>",0,html-button-response,21,235924,0.0-4.0,53904,List1B,white,woman,,,,,,,,
2614,"<p>Before the experiment starts, you will watch two example trials. Press 'Continue'.</p>",0,html-button-response,22,239550,0.0-5.0,53904,List1B,white,woman,,,,,,,,
null,<img src='img/meet_eg.gif' style='height:400px;''></img>,,html-keyboard-response,23,242566,0.0-6.0,53904,List1B,white,woman,,,,null,,,,
null,<p>is meeting</p>,,html-keyboard-response,24,244573,0.0-7.0,53904,List1B,white,woman,,,,null,,,,
2879,<p><b>Answer:</b> kate is meeting beth</p>,0,html-button-response,25,247455,0.0-8.0,53904,List1B,white,woman,,,,,,,,
null,<img src='img/look_eg.gif' style='height:400px;''></img>,,html-keyboard-response,26,250483,0.0-9.0,53904,List1B,white,woman,,,,null,,,,
null,<p>are looking at each other</p>,,html-keyboard-response,27,252486,0.0-10.0,53904,List1B,white,woman,,,,null,,,,
4004,<p><b>Answer:</b> luke and dave are looking at each other</p>,0,html-button-response,28,256494,0.0-11.0,53904,List1B,white,woman,,,,,,,,
9531,"<p>Ready to start the experiment?</p><br><p><strong>Remember to describe the picture using a full sentence,</strong></p><p><strong>that combines the names of the people with the <i>exact</i> phrase given.</strong></p><p><strong>To receive full payment you must do this correctly.</strong></p><p><strong> You do not need to capitalise names or use punctuation.</strong></p><br><p>Press 'Continue' to begin.</p>",0,html-button-response,29,267044,0.0-12.0,53904,List1B,white,woman,,,,,,,,
null,"<div style=""font-size:60px;"">+</div>",,html-keyboard-response,30,268605,0.0-13.0-0.0,53904,List1B,white,woman,,,,null,,,,
null,"<img src=""stim_listB/play6.gif""style=""height:400px;""></stim_listB>",,html-keyboard-response,31,270624,0.0-13.0-1.0,53904,List1B,white,woman,,,,null,,,,
null,are playing with each other,,html-keyboard-response,32,272633,0.0-13.0-2.0,53904,List1B,white,woman,,,,null,,,,
21473,,,survey-text,33,294111,0.0-13.0-3.0,53904,List1B,white,woman,,,,,"{""Q0"":""Fred and Luke are playing with each other""}","<img src=""stim_listB/play6.gif""style=""height:400px;""></stim_listB>",are playing with each other,
null,"<div style=""font-size:60px;"">+</div>",,html-keyboard-response,34,294623,0.0-13.0-0.1,53904,List1B,white,woman,,,,null,,,,
null,"<img src=""stim_listB/kiss1.gif""style=""height:400px;""></stim_listB>",,html-keyboard-response,35,296642,0.0-13.0-1.1,53904,List1B,white,woman,,,,null,,,,
null,is kissing,,html-keyboard-response,36,298635,0.0-13.0-2.1,53904,List1B,white,woman,,,,null,,,,
15939,,,survey-text,37,314577,0.0-13.0-3.1,53904,List1B,white,woman,,,,,"{""Q0"":""Fred is kissing Beth""}","<img src=""stim_listB/kiss1.gif""style=""height:400px;""></stim_listB>",is kissing,
null,"<div style=""font-size:60px;"">+</div>",,html-keyboard-response,38,315090,0.0-13.0-0.2,53904,List1B,white,woman,,,,null,,,,
null,"<img src=""stim_listB/kiss3.gif""style=""height:400px;""></stim_listB>",,html-keyboard-response,39,317115,0.0-13.0-1.2,53904,List1B,white,woman,,,,null,,,,
null,is kissing,,html-keyboard-response,40,319094,0.0-13.0-2.2,53904,List1B,white,woman,,,,null,,,,
19033,,,survey-text,41,338131,0.0-13.0-3.2,53904,List1B,white,woman,,,,,"{""Q0"":""Luke is kissing Jane""}","<img src=""stim_listB/kiss3.gif""style=""height:400px;""></stim_listB>",is kissing,
null,"<div style=""font-size:60px;"">+</div>",,html-keyboard-response,42,338659,0.0-13.0-0.3,53904,List1B,white,woman,,,,null,,,,
null,"<img src=""stim_listB/talk5.gif""style=""height:400px;""></stim_listB>",,html-keyboard-response,43,340668,0.0-13.0-1.3,53904,List1B,white,woman,,,,null,,,,
null,is talking to,,html-keyboard-response,44,342687,0.0-13.0-2.3,53904,List1B,white,woman,,,,null,,,,
13967,,,survey-text,45,356658,0.0-13.0-3.3,53904,List1B,white,woman,,,,,"{""Q0"":""Fred is talking to Dave""}","<img src=""stim_listB/talk5.gif""style=""height:400px;""></stim_listB>",is talking to,
null,"<div style=""font-size:60px;"">+</div>",,html-keyboard-response,46,357184,0.0-13.0-0.4,53904,List1B,white,woman,,,,null,,,,
null,"<img src=""stim_listB/shout1.gif""style=""height:400px;""></stim_listB>",,html-keyboard-response,47,359206,0.0-13.0-1.4,53904,List1B,white,woman,,,,null,,,,
null,is shouting at,,html-keyboard-response,48,361200,0.0-13.0-2.4,53904,List1B,white,woman,,,,null,,,,
15647,,,survey-text,49,376850,0.0-13.0-3.4,53904,List1B,white,woman,,,,,"{""Q0"":""Fred is shouting at Beth""}","<img src=""stim_listB/shout1.gif""style=""height:400px;""></stim_listB>",is shouting at,
null,"<div style=""font-size:60px;"">+</div>",,html-keyboard-response,50,377378,0.0-13.0-0.5,53904,List1B,white,woman,,,,null,,,,
null,"<img src=""stim_listB/flirt6.gif""style=""height:400px;""></stim_listB>",,html-keyboard-response,51,379404,0.0-13.0-1.5,53904,List1B,white,woman,,,,null,,,,
null,are flirting with each other,,html-keyboard-response,52,381397,0.0-13.0-2.5,53904,List1B,white,woman,,,,null,,,,
43777,,,survey-text,53,425177,0.0-13.0-3.5,53904,List1B,white,woman,,,,,"{""Q0"":""Luke and Mike are flirting with each other""}","<img src=""stim_listB/flirt6.gif""style=""height:400px;""></stim_listB>",are flirting with each other,
null,"<div style=""font-size:60px;"">+</div>",,html-keyboard-response,54,425698,0.0-13.0-0.6,53904,List1B,white,woman,,,,null,,,,
null,"<img src=""stim_listB/argue2.gif""style=""height:400px;""></stim_listB>",,html-keyboard-response,55,427721,0.0-13.0-1.6,53904,List1B,white,woman,,,,null,,,,
null,are arguing with each other,,html-keyboard-response,56,429706,0.0-13.0-2.6,53904,List1B,white,woman,,,,null,,,,
24899,,,survey-text,57,454610,0.0-13.0-3.6,53904,List1B,white,woman,,,,,"{""Q0"":""Fred and Kate are arguing with each other""}","<img src=""stim_listB/argue2.gif""style=""height:400px;""></stim_listB>",are arguing with each other,
null,"<div style=""font-size:60px;"">+</div>",,html-keyboard-response,58,455141,0.0-13.0-0.7,53904,List1B,white,woman,,,,null,,,,
null,"<img src=""stim_listB/argue6.gif""style=""height:400px;""></stim_listB>",,html-keyboard-response,59,457147,0.0-13.0-1.7,53904,List1B,white,woman,,,,null,,,,
null,are arguing with each other,,html-keyboard-response,60,459148,0.0-13.0-2.7,53904,List1B,white,woman,,,,null,,,,
16746,,,survey-text,61,475898,0.0-13.0-3.7,53904,List1B,white,woman,,,,,"{""Q0"":""Fred and Dave are aguing with each other""}","<img src=""stim_listB/argue6.gif""style=""height:400px;""></stim_listB>",are arguing with each other,
null,"<div style=""font-size:60px;"">+</div>",,html-keyboard-response,62,476402,0.0-13.0-0.8,53904,List1B,white,woman,,,,null,,,,
null,"<img src=""stim_listB/flirt8.gif""style=""height:400px;""></stim_listB>",,html-keyboard-response,63,478410,0.0-13.0-1.8,53904,List1B,white,woman,,,,null,,,,
null,are flirting with each other,,html-keyboard-response,64,480418,0.0-13.0-2.8,53904,List1B,white,woman,,,,null,,,,
16875,,,survey-text,65,497297,0.0-13.0-3.8,53904,List1B,white,woman,,,,,"{""Q0"":""Kate and Jane are flirting with each other""}","<img src=""stim_listB/flirt8.gif""style=""height:400px;""></stim_listB>",are flirting with each other,
null,"<div style=""font-size:60px;"">+</div>",,html-keyboard-response,66,497844,0.0-13.0-0.9,53904,List1B,white,woman,,,,null,,,,
null,"<img src=""stim_listB/talk3.gif""style=""height:400px;""></stim_listB>",,html-keyboard-response,67,499850,0.0-13.0-1.9,53904,List1B,white,woman,,,,null,,,,
null,is talking to,,html-keyboard-response,68,501854,0.0-13.0-2.9,53904,List1B,white,woman,,,,null,,,,
21226,,,survey-text,69,523083,0.0-13.0-3.9,53904,List1B,white,woman,,,,,"{""Q0"":""Jane is talking to Luke ""}","<img src=""stim_listB/talk3.gif""style=""height:400px;""></stim_listB>",is talking to,
null,"<div style=""font-size:60px;"">+</div>",,html-keyboard-response,70,523591,0.0-13.0-0.10,53904,List1B,white,woman,,,,null,,,,
null,"<img src=""stim_listB/flirt2.gif""style=""height:400px;""></stim_listB>",,html-keyboard-response,71,525595,0.0-13.0-1.10,53904,List1B,white,woman,,,,null,,,,
null,are flirting with each other,,html-keyboard-response,72,527596,0.0-13.0-2.10,53904,List1B,white,woman,,,,null,,,,
20881,,,survey-text,73,548482,0.0-13.0-3.10,53904,List1B,white,woman,,,,,"{""Q0"":""Beth and Mike are flirting with each other""}","<img src=""stim_listB/flirt2.gif""style=""height:400px;""></stim_listB>",are flirting with each other,
null,"<div style=""font-size:60px;"">+</div>",,html-keyboard-response,74,548996,0.0-13.0-0.11,53904,List1B,white,woman,,,,null,,,,
null,"<img src=""stim_listB/kiss6.gif""style=""height:400px;""></stim_listB>",,html-keyboard-response,75,551006,0.0-13.0-1.11,53904,List1B,white,woman,,,,null,,,,
null,are kissing each other,,html-keyboard-response,76,553013,0.0-13.0-2.11,53904,List1B,white,woman,,,,null,,,,
15001,,,survey-text,77,568018,0.0-13.0-3.11,53904,List1B,white,woman,,,,,"{""Q0"":""Dave and Mike are kissing each other""}","<img src=""stim_listB/kiss6.gif""style=""height:400px;""></stim_listB>",are kissing each other,
null,"<div style=""font-size:60px;"">+</div>",,html-keyboard-response,78,568531,0.0-13.0-0.12,53904,List1B,white,woman,,,,null,,,,
null,"<img src=""stim_listB/flirt4.gif""style=""height:400px;""></stim_listB>",,html-keyboard-response,79,570542,0.0-13.0-1.12,53904,List1B,white,woman,,,,null,,,,
null,are flirting with each other,,html-keyboard-response,80,572535,0.0-13.0-2.12,53904,List1B,white,woman,,,,null,,,,
25584,,,survey-text,81,598123,0.0-13.0-3.12,53904,List1B,white,woman,,,,,"{""Q0"":""Dave and Ruth are flirting with each other""}","<img src=""stim_listB/flirt4.gif""style=""height:400px;""></stim_listB>",are flirting with each other,
null,"<div style=""font-size:60px;"">+</div>",,html-keyboard-response,82,598636,0.0-13.0-0.13,53904,List1B,white,woman,,,,null,,,,
null,"<img src=""stim_listB/flirt7.gif""style=""height:400px;""></stim_listB>",,html-keyboard-response,83,600656,0.0-13.0-1.13,53904,List1B,white,woman,,,,null,,,,
null,is flirting with,,html-keyboard-response,84,602644,0.0-13.0-2.13,53904,List1B,white,woman,,,,null,,,,
15514,,,survey-text,85,618162,0.0-13.0-3.13,53904,List1B,white,woman,,,,,"{""Q0"":""Beth is flirting with Jane""}","<img src=""stim_listB/flirt7.gif""style=""height:400px;""></stim_listB>",is flirting with,
null,"<div style=""font-size:60px;"">+</div>",,html-keyboard-response,86,618673,0.0-13.0-0.14,53904,List1B,white,woman,,,,null,,,,
null,"<img src=""stim_listB/dance5.gif""style=""height:400px;""></stim_listB>",,html-keyboard-response,87,620676,0.0-13.0-1.14,53904,List1B,white,woman,,,,null,,,,
null,is dancing with,,html-keyboard-response,88,622688,0.0-13.0-2.14,53904,List1B,white,woman,,,,null,,,,
7278,,,survey-text,89,629970,0.0-13.0-3.14,53904,List1B,white,woman,,,,,"{""Q0"":""Fred is dancing with Dave""}","<img src=""stim_listB/dance5.gif""style=""height:400px;""></stim_listB>",is dancing with,
null,"<div style=""font-size:60px;"">+</div>",,html-keyboard-response,90,630485,0.0-13.0-0.15,53904,List1B,white,woman,,,,null,,,,
null,"<img src=""stim_listB/dance7.gif""style=""height:400px;""></stim_listB>",,html-keyboard-response,91,632506,0.0-13.0-1.15,53904,List1B,white,woman,,,,null,,,,
null,is dancing with,,html-keyboard-response,92,634484,0.0-13.0-2.15,53904,List1B,white,woman,,,,null,,,,
10345,,,survey-text,93,644834,0.0-13.0-3.15,53904,List1B,white,woman,,,,,"{""Q0"":""Beth is dancing with Jane""}","<img src=""stim_listB/dance7.gif""style=""height:400px;""></stim_listB>",is dancing with,
null,"<div style=""font-size:60px;"">+</div>",,html-keyboard-response,94,645346,0.0-13.0-0.16,53904,List1B,white,woman,,,,null,,,,
null,"<img src=""stim_listB/dance8.gif""style=""height:400px;""></stim_listB>",,html-keyboard-response,95,647359,0.0-13.0-1.16,53904,List1B,white,woman,,,,null,,,,
null,are dancing with each other,,html-keyboard-response,96,649348,0.0-13.0-2.16,53904,List1B,white,woman,,,,null,,,,
14522,,,survey-text,97,663875,0.0-13.0-3.16,53904,List1B,white,woman,,,,,"{""Q0"":""Jane and Kate are dancing with each other""}","<img src=""stim_listB/dance8.gif""style=""height:400px;""></stim_listB>",are dancing with each other,
null,"<div style=""font-size:60px;"">+</div>",,html-keyboard-response,98,664390,0.0-13.0-0.17,53904,List1B,white,woman,,,,null,,,,
null,"<img src=""stim_listB/marry8.gif""style=""height:400px;""></stim_listB>",,html-keyboard-response,99,666462,0.0-13.0-1.17,53904,List1B,white,woman,,,,null,,,,
null,are marrying each other,,html-keyboard-response,100,668444,0.0-13.0-2.17,53904,List1B,white,woman,,,,null,,,,
9066,,,survey-text,101,677514,0.0-13.0-3.17,53904,List1B,white,woman,,,,,"{""Q0"":""Jane and Kate are marrying each other""}","<img src=""stim_listB/marry8.gif""style=""height:400px;""></stim_listB>",are marrying each other,
null,"<div style=""font-size:60px;"">+</div>",,html-keyboard-response,102,678030,0.0-13.0-0.18,53904,List1B,white,woman,,,,null,,,,
null,"<img src=""stim_listB/shout5.gif""style=""height:400px;""></stim_listB>",,html-keyboard-response,103,680035,0.0-13.0-1.18,53904,List1B,white,woman,,,,null,,,,
null,is shouting at,,html-keyboard-response,104,682045,0.0-13.0-2.18,53904,List1B,white,woman,,,,null,,,,
13465,,,survey-text,105,695514,0.0-13.0-3.18,53904,List1B,white,woman,,,,,"{""Q0"":""Fred is shouting at Luke""}","<img src=""stim_listB/shout5.gif""style=""height:400px;""></stim_listB>",is shouting at,
null,"<div style=""font-size:60px;"">+</div>",,html-keyboard-response,106,696025,0.0-13.0-0.19,53904,List1B,white,woman,,,,null,,,,
null,"<img src=""stim_listB/play2.gif""style=""height:400px;""></stim_listB>",,html-keyboard-response,107,698036,0.0-13.0-1.19,53904,List1B,white,woman,,,,null,,,,
null,are playing with each other,,html-keyboard-response,108,700037,0.0-13.0-2.19,53904,List1B,white,woman,,,,null,,,,
12505,,,survey-text,109,712547,0.0-13.0-3.19,53904,List1B,white,woman,,,,,"{""Q0"":""Fred and Beth are playing with each other""}","<img src=""stim_listB/play2.gif""style=""height:400px;""></stim_listB>",are playing with each other,
14841,"<img src='img/portrait_matrix_list1.jpg' style='width:900px;height:500px;''></img><p>If you have memorised all the portraits and names and are ready to start, press Continue.</p><p><strong>Please note: Your memory of these faces will be tested 4 times during this experiment.</strong></p>",0,html-button-response,110,727395,0.0-14.0-0.0,53904,List1B,white,woman,,,,,,,,
3979,"<img src=""portrait/BM2.jpg""style=""height:400px;""></img>",5,html-button-response,111,732379,0.0-14.0-1.0,53904,List1B,white,woman,,TRUE,5,,,,,
null,CORRECT,,html-keyboard-response,112,733909,0.0-14.0-2.0-0.0,53904,List1B,white,woman,,,,null,,,,
2876,"<img src=""portrait/WM1.jpg""style=""height:400px;""></img>",6,html-button-response,113,736795,0.0-14.0-4.0,53904,List1B,white,woman,,TRUE,6,,,,,
null,CORRECT,,html-keyboard-response,114,738346,0.0-14.0-5.0-0.0,53904,List1B,white,woman,,,,null,,,,
3081,"<img src=""portrait/WM2.jpg""style=""height:400px;""></img>",7,html-button-response,115,741435,0.0-14.0-7.0,53904,List1B,white,woman,,TRUE,7,,,,,
null,CORRECT,,html-keyboard-response,116,742974,0.0-14.0-8.0-0.0,53904,List1B,white,woman,,,,null,,,,
3279,"<img src=""portrait/BW2.jpg""style=""height:400px;""></img>",2,html-button-response,117,746259,0.0-14.0-10.0,53904,List1B,white,woman,,TRUE,2,,,,,
null,CORRECT,,html-keyboard-response,118,747788,0.0-14.0-11.0-0.0,53904,List1B,white,woman,,,,null,,,,
7784,"<img src=""portrait/BW1.jpg""style=""height:400px;""></img>",0,html-button-response,119,755578,0.0-14.0-13.0,53904,List1B,white,woman,,TRUE,0,,,,,
null,CORRECT,,html-keyboard-response,120,757100,0.0-14.0-14.0-0.0,53904,List1B,white,woman,,,,null,,,,
3184,"<img src=""portrait/BM1.jpg""style=""height:400px;""></img>",4,html-button-response,121,760291,0.0-14.0-16.0,53904,List1B,white,woman,,TRUE,4,,,,,
null,CORRECT,,html-keyboard-response,122,761824,0.0-14.0-17.0-0.0,53904,List1B,white,woman,,,,null,,,,
3704,"<img src=""portrait/WW2.jpg""style=""height:400px;""></img>",3,html-button-response,123,765546,0.0-14.0-19.0,53904,List1B,white,woman,,TRUE,3,,,,,
null,CORRECT,,html-keyboard-response,124,767069,0.0-14.0-20.0-0.0,53904,List1B,white,woman,,,,null,,,,
3336,"<img src=""portrait/WW1.jpg""style=""height:400px;""></img>",1,html-button-response,125,770411,0.0-14.0-22.0,53904,List1B,white,woman,,TRUE,1,,,,,
null,CORRECT,,html-keyboard-response,126,771946,0.0-14.0-23.0-0.0,53904,List1B,white,woman,,,,null,,,,
3104,<p>You got 8 out of 8 right first time. Press Continue.</p>,0,html-button-response,127,775057,0.0-14.0-25.0,53904,List1B,white,woman,,,,,,,,
null,"<div style=""font-size:60px;"">+</div>",,html-keyboard-response,128,776591,0.0-15.0-0.0,53904,List1B,white,woman,,,,null,,,,
null,"<img src=""stim_listB/kiss5.gif""style=""height:400px;""></stim_listB>",,html-keyboard-response,129,778617,0.0-15.0-1.0,53904,List1B,white,woman,,,,null,,,,
null,is kissing,,html-keyboard-response,130,780599,0.0-15.0-2.0,53904,List1B,white,woman,,,,null,,,,
7847,,,survey-text,131,788450,0.0-15.0-3.0,53904,List1B,white,woman,,,,,"{""Q0"":""Fred is kissing luke""}","<img src=""stim_listB/kiss5.gif""style=""height:400px;""></stim_listB>",is kissing,
null,"<div style=""font-size:60px;"">+</div>",,html-keyboard-response,132,788955,0.0-15.0-0.1,53904,List1B,white,woman,,,,null,,,,
null,"<img src=""stim_listB/argue7.gif""style=""height:400px;""></stim_listB>",,html-keyboard-response,133,790967,0.0-15.0-1.1,53904,List1B,white,woman,,,,null,,,,
null,is arguing with,,html-keyboard-response,134,792961,0.0-15.0-2.1,53904,List1B,white,woman,,,,null,,,,
11234,,,survey-text,135,804201,0.0-15.0-3.1,53904,List1B,white,woman,,,,,"{""Q0"":""Kate is arguing with Jane""}","<img src=""stim_listB/argue7.gif""style=""height:400px;""></stim_listB>",is arguing with,
null,"<div style=""font-size:60px;"">+</div>",,html-keyboard-response,136,804705,0.0-15.0-0.2,53904,List1B,white,woman,,,,null,,,,
null,"<img src=""stim_listB/touch1.gif""style=""height:400px;""></stim_listB>",,html-keyboard-response,137,806712,0.0-15.0-1.2,53904,List1B,white,woman,,,,null,,,,
null,is touching,,html-keyboard-response,138,808707,0.0-15.0-2.2,53904,List1B,white,woman,,,,null,,,,
7363,,,survey-text,139,816073,0.0-15.0-3.2,53904,List1B,white,woman,,,,,"{""Q0"":""Mike is touching Kate""}","<img src=""stim_listB/touch1.gif""style=""height:400px;""></stim_listB>",is touching,
null,"<div style=""font-size:60px;"">+</div>",,html-keyboard-response,140,816579,0.0-15.0-0.3,53904,List1B,white,woman,,,,null,,,,
null,"<img src=""stim_listB/fight7.gif""style=""height:400px;""></stim_listB>",,html-keyboard-response,141,818602,0.0-15.0-1.3,53904,List1B,white,woman,,,,null,,,,
null,is fighting,,html-keyboard-response,142,820596,0.0-15.0-2.3,53904,List1B,white,woman,,,,null,,,,
10033,,,survey-text,143,830635,0.0-15.0-3.3,53904,List1B,white,woman,,,,,"{""Q0"":""Kate is fighting Jane""}","<img src=""stim_listB/fight7.gif""style=""height:400px;""></stim_listB>",is fighting,
null,"<div style=""font-size:60px;"">+</div>",,html-keyboard-response,144,831149,0.0-15.0-0.4,53904,List1B,white,woman,,,,null,,,,
null,"<img src=""stim_listB/fight6.gif""style=""height:400px;""></stim_listB>",,html-keyboard-response,145,833158,0.0-15.0-1.4,53904,List1B,white,woman,,,,null,,,,
null,are fighting each other,,html-keyboard-response,146,835157,0.0-15.0-2.4,53904,List1B,white,woman,,,,null,,,,
12571,,,survey-text,147,847731,0.0-15.0-3.4,53904,List1B,white,woman,,,,,"{""Q0"":""Fred and Luke are fighting each other""}","<img src=""stim_listB/fight6.gif""style=""height:400px;""></stim_listB>",are fighting each other,
null,"<div style=""font-size:60px;"">+</div>",,html-keyboard-response,148,848239,0.0-15.0-0.5,53904,List1B,white,woman,,,,null,,,,
null,"<img src=""stim_listB/marry1.gif""style=""height:400px;""></stim_listB>",,html-keyboard-response,149,850266,0.0-15.0-1.5,53904,List1B,white,woman,,,,null,,,,
null,is marrying,,html-keyboard-response,150,852247,0.0-15.0-2.5,53904,List1B,white,woman,,,,null,,,,
9645,,,survey-text,151,861898,0.0-15.0-3.5,53904,List1B,white,woman,,,,,"{""Q0"":""Mike is marrying Beth""}","<img src=""stim_listB/marry1.gif""style=""height:400px;""></stim_listB>",is marrying,
null,"<div style=""font-size:60px;"">+</div>",,html-keyboard-response,152,862403,0.0-15.0-0.6,53904,List1B,white,woman,,,,null,,,,
null,"<img src=""stim_listB/shout3.gif""style=""height:400px;""></stim_listB>",,html-keyboard-response,153,864423,0.0-15.0-1.6,53904,List1B,white,woman,,,,null,,,,
null,is shouting at,,html-keyboard-response,154,866421,0.0-15.0-2.6,53904,List1B,white,woman,,,,null,,,,
7856,,,survey-text,155,874282,0.0-15.0-3.6,53904,List1B,white,woman,,,,,"{""Q0"":""luke is shouting at Jane""}","<img src=""stim_listB/shout3.gif""style=""height:400px;""></stim_listB>",is shouting at,
null,"<div style=""font-size:60px;"">+</div>",,html-keyboard-response,156,874815,0.0-15.0-0.7,53904,List1B,white,woman,,,,null,,,,
null,"<img src=""stim_listB/play5.gif""style=""height:400px;""></stim_listB>",,html-keyboard-response,157,876821,0.0-15.0-1.7,53904,List1B,white,woman,,,,null,,,,
null,is playing with,,html-keyboard-response,158,878832,0.0-15.0-2.7,53904,List1B,white,woman,,,,null,,,,
6822,,,survey-text,159,885658,0.0-15.0-3.7,53904,List1B,white,woman,,,,,"{""Q0"":""mike is playing with dave""}","<img src=""stim_listB/play5.gif""style=""height:400px;""></stim_listB>",is playing with,
null,"<div style=""font-size:60px;"">+</div>",,html-keyboard-response,160,886165,0.0-15.0-0.8,53904,List1B,white,woman,,,,null,,,,
null,"<img src=""stim_listB/talk1.gif""style=""height:400px;""></stim_listB>",,html-keyboard-response,161,888191,0.0-15.0-1.8,53904,List1B,white,woman,,,,null,,,,
null,is talking to,,html-keyboard-response,162,890168,0.0-15.0-2.8,53904,List1B,white,woman,,,,null,,,,
7078,,,survey-text,163,897251,0.0-15.0-3.8,53904,List1B,white,woman,,,,,"{""Q0"":""fred is talking to kate""}","<img src=""stim_listB/talk1.gif""style=""height:400px;""></stim_listB>",is talking to,
null,"<div style=""font-size:60px;"">+</div>",,html-keyboard-response,164,897765,0.0-15.0-0.9,53904,List1B,white,woman,,,,null,,,,
null,"<img src=""stim_listB/shout8.gif""style=""height:400px;""></stim_listB>",,html-keyboard-response,165,899773,0.0-15.0-1.9,53904,List1B,white,woman,,,,null,,,,
null,are shouting at each other,,html-keyboard-response,166,901786,0.0-15.0-2.9,53904,List1B,white,woman,,,,null,,,,
9493,,,survey-text,167,911283,0.0-15.0-3.9,53904,List1B,white,woman,,,,,"{""Q0"":""kate and jane are shouting at each other""}","<img src=""stim_listB/shout8.gif""style=""height:400px;""></stim_listB>",are shouting at each other,
null,"<div style=""font-size:60px;"">+</div>",,html-keyboard-response,168,911808,0.0-15.0-0.10,53904,List1B,white,woman,,,,null,,,,
null,"<img src=""stim_listB/touch5.gif""style=""height:400px;""></stim_listB>",,html-keyboard-response,169,913833,0.0-15.0-1.10,53904,List1B,white,woman,,,,null,,,,
null,is touching,,html-keyboard-response,170,915828,0.0-15.0-2.10,53904,List1B,white,woman,,,,null,,,,
7690,,,survey-text,171,923522,0.0-15.0-3.10,53904,List1B,white,woman,,,,,"{""Q0"":""mike is touching dave""}","<img src=""stim_listB/touch5.gif""style=""height:400px;""></stim_listB>",is touching,
null,"<div style=""font-size:60px;"">+</div>",,html-keyboard-response,172,924042,0.0-15.0-0.11,53904,List1B,white,woman,,,,null,,,,
null,"<img src=""stim_listB/dance6.gif""style=""height:400px;""></stim_listB>",,html-keyboard-response,173,926053,0.0-15.0-1.11,53904,List1B,white,woman,,,,null,,,,
null,are dancing with each other,,html-keyboard-response,174,928063,0.0-15.0-2.11,53904,List1B,white,woman,,,,null,,,,
12769,,,survey-text,175,940834,0.0-15.0-3.11,53904,List1B,white,woman,,,,,"{""Q0"":""mike and luke are dancing with each other""}","<img src=""stim_listB/dance6.gif""style=""height:400px;""></stim_listB>",are dancing with each other,
null,"<div style=""font-size:60px;"">+</div>",,html-keyboard-response,176,941338,0.0-15.0-0.12,53904,List1B,white,woman,,,,null,,,,
null,"<img src=""stim_listB/fight3.gif""style=""height:400px;""></stim_listB>",,html-keyboard-response,177,943353,0.0-15.0-1.12,53904,List1B,white,woman,,,,null,,,,
null,is fighting,,html-keyboard-response,178,945358,0.0-15.0-2.12,53904,List1B,white,woman,,,,null,,,,
7751,,,survey-text,179,953115,0.0-15.0-3.12,53904,List1B,white,woman,,,,,"{""Q0"":""dave is fighting jane""}","<img src=""stim_listB/fight3.gif""style=""height:400px;""></stim_listB>",is fighting,
null,"<div style=""font-size:60px;"">+</div>",,html-keyboard-response,180,953630,0.0-15.0-0.13,53904,List1B,white,woman,,,,null,,,,
null,"<img src=""stim_listB/shout6.gif""style=""height:400px;""></stim_listB>",,html-keyboard-response,181,955641,0.0-15.0-1.13,53904,List1B,white,woman,,,,null,,,,
null,are shouting at each other,,html-keyboard-response,182,957646,0.0-15.0-2.13,53904,List1B,white,woman,,,,null,,,,
9831,,,survey-text,183,967481,0.0-15.0-3.13,53904,List1B,white,woman,,,,,"{""Q0"":""mike and dave are shouting at each other""}","<img src=""stim_listB/shout6.gif""style=""height:400px;""></stim_listB>",are shouting at each other,
null,"<div style=""font-size:60px;"">+</div>",,html-keyboard-response,184,967989,0.0-15.0-0.14,53904,List1B,white,woman,,,,null,,,,
null,"<img src=""stim_listB/argue5.gif""style=""height:400px;""></stim_listB>",,html-keyboard-response,185,969997,0.0-15.0-1.14,53904,List1B,white,woman,,,,null,,,,
null,is arguing with,,html-keyboard-response,186,971999,0.0-15.0-2.14,53904,List1B,white,woman,,,,null,,,,
8256,,,survey-text,187,980258,0.0-15.0-3.14,53904,List1B,white,woman,,,,,"{""Q0"":""mike is arguing with luke""}","<img src=""stim_listB/argue5.gif""style=""height:400px;""></stim_listB>",is arguing with,
null,"<div style=""font-size:60px;"">+</div>",,html-keyboard-response,188,980786,0.0-15.0-0.15,53904,List1B,white,woman,,,,null,,,,
null,"<img src=""stim_listB/touch8.gif""style=""height:400px;""></stim_listB>",,html-keyboard-response,189,982795,0.0-15.0-1.15,53904,List1B,white,woman,,,,null,,,,
null,are touching each other,,html-keyboard-response,190,984790,0.0-15.0-2.15,53904,List1B,white,woman,,,,null,,,,
18291,,,survey-text,191,1003090,0.0-15.0-3.15,53904,List1B,white,woman,,,,,"{""Q0"":""jane and beth are touching each other""}","<img src=""stim_listB/touch8.gif""style=""height:400px;""></stim_listB>",are touching each other,
null,"<div style=""font-size:60px;"">+</div>",,html-keyboard-response,192,1003613,0.0-15.0-0.16,53904,List1B,white,woman,,,,null,,,,
null,"<img src=""stim_listB/play4.gif""style=""height:400px;""></stim_listB>",,html-keyboard-response,193,1005624,0.0-15.0-1.16,53904,List1B,white,woman,,,,null,,,,
null,are playing with each other,,html-keyboard-response,194,1007620,0.0-15.0-2.16,53904,List1B,white,woman,,,,null,,,,
13948,,,survey-text,195,1021570,0.0-15.0-3.16,53904,List1B,white,woman,,,,,"{""Q0"":""jane and luke are playing with each other""}","<img src=""stim_listB/play4.gif""style=""height:400px;""></stim_listB>",are playing with each other,
null,"<div style=""font-size:60px;"">+</div>",,html-keyboard-response,196,1022088,0.0-15.0-0.17,53904,List1B,white,woman,,,,null,,,,
null,"<img src=""stim_listB/marry2.gif""style=""height:400px;""></stim_listB>",,html-keyboard-response,197,1024098,0.0-15.0-1.17,53904,List1B,white,woman,,,,null,,,,
null,are marrying each other,,html-keyboard-response,198,1026107,0.0-15.0-2.17,53904,List1B,white,woman,,,,null,,,,
11529,,,survey-text,199,1037642,0.0-15.0-3.17,53904,List1B,white,woman,,,,,"{""Q0"":""fred and kate are marrying each other""}","<img src=""stim_listB/marry2.gif""style=""height:400px;""></stim_listB>",are marrying each other,
null,"<div style=""font-size:60px;"">+</div>",,html-keyboard-response,200,1038149,0.0-15.0-0.18,53904,List1B,white,woman,,,,null,,,,
null,"<img src=""stim_listB/play1.gif""style=""height:400px;""></stim_listB>",,html-keyboard-response,201,1040156,0.0-15.0-1.18,53904,List1B,white,woman,,,,null,,,,
null,is playing with,,html-keyboard-response,202,1042156,0.0-15.0-2.18,53904,List1B,white,woman,,,,null,,,,
7914,,,survey-text,203,1050073,0.0-15.0-3.18,53904,List1B,white,woman,,,,,"{""Q0"":""mike is playing with kate""}","<img src=""stim_listB/play1.gif""style=""height:400px;""></stim_listB>",is playing with,
null,"<div style=""font-size:60px;"">+</div>",,html-keyboard-response,204,1050591,0.0-15.0-0.19,53904,List1B,white,woman,,,,null,,,,
null,"<img src=""stim_listB/play8.gif""style=""height:400px;""></stim_listB>",,html-keyboard-response,205,1052611,0.0-15.0-1.19,53904,List1B,white,woman,,,,null,,,,
null,are playing with each other,,html-keyboard-response,206,1054594,0.0-15.0-2.19,53904,List1B,white,woman,,,,null,,,,
11813,,,survey-text,207,1066410,0.0-15.0-3.19,53904,List1B,white,woman,,,,,"{""Q0"":""beth are jane are playing with each other""}","<img src=""stim_listB/play8.gif""style=""height:400px;""></stim_listB>",are playing with each other,
8979,"<img src='img/portrait_matrix_list1.jpg' style='width:900px;height:500px;''></img><p>If you have memorised all the portraits and names and are ready to start, press Continue.</p><p><strong>Please note: Your memory of these faces will be tested 4 times during this experiment.</strong></p>",0,html-button-response,208,1075395,0.0-16.0-0.0,53904,List1B,white,woman,,,,,,,,
3635,"<img src=""portrait/BM2.jpg""style=""height:400px;""></img>",5,html-button-response,209,1080043,0.0-16.0-1.0,53904,List1B,white,woman,,TRUE,5,,,,,
null,CORRECT,,html-keyboard-response,210,1081552,0.0-16.0-2.0-0.0,53904,List1B,white,woman,,,,null,,,,
4475,"<img src=""portrait/BW2.jpg""style=""height:400px;""></img>",2,html-button-response,211,1086035,0.0-16.0-4.0,53904,List1B,white,woman,,TRUE,2,,,,,
null,CORRECT,,html-keyboard-response,212,1087564,0.0-16.0-5.0-0.0,53904,List1B,white,woman,,,,null,,,,
2873,"<img src=""portrait/BM1.jpg""style=""height:400px;""></img>",4,html-button-response,213,1090442,0.0-16.0-7.0,53904,List1B,white,woman,,TRUE,4,,,,,
null,CORRECT,,html-keyboard-response,214,1091970,0.0-16.0-8.0-0.0,53904,List1B,white,woman,,,,null,,,,
4690,"<img src=""portrait/BW1.jpg""style=""height:400px;""></img>",2,html-button-response,215,1096668,0.0-16.0-10.0,53904,List1B,white,woman,,TRUE,0,,,,,
7952,"<img src=""portrait/BW1.jpg""style=""height:400px;""></img>",0,html-button-response,216,1105651,0.0-16.0-12.0-0.0,53904,List1B,white,woman,,FALSE,0,,,,,
null,CORRECT,,html-keyboard-response,217,1107192,0.0-16.0-12.0-1.0-0.0,53904,List1B,white,woman,,,,null,,,,
4253,"<img src=""portrait/WW1.jpg""style=""height:400px;""></img>",1,html-button-response,218,1111450,0.0-16.0-13.0,53904,List1B,white,woman,,TRUE,1,,,,,
null,CORRECT,,html-keyboard-response,219,1112993,0.0-16.0-14.0-0.0,53904,List1B,white,woman,,,,null,,,,
4373,"<img src=""portrait/WM2.jpg""style=""height:400px;""></img>",7,html-button-response,220,1117371,0.0-16.0-16.0,53904,List1B,white,woman,,TRUE,7,,,,,
null,CORRECT,,html-keyboard-response,221,1118897,0.0-16.0-17.0-0.0,53904,List1B,white,woman,,,,null,,,,
2877,"<img src=""portrait/WM1.jpg""style=""height:400px;""></img>",6,html-button-response,222,1121779,0.0-16.0-19.0,53904,List1B,white,woman,,TRUE,6,,,,,
null,CORRECT,,html-keyboard-response,223,1123308,0.0-16.0-20.0-0.0,53904,List1B,white,woman,,,,null,,,,
5232,"<img src=""portrait/WW2.jpg""style=""height:400px;""></img>",3,html-button-response,224,1128556,0.0-16.0-22.0,53904,List1B,white,woman,,TRUE,3,,,,,
null,CORRECT,,html-keyboard-response,225,1130066,0.0-16.0-23.0-0.0,53904,List1B,white,woman,,,,null,,,,
2249,<p>You got 7 out of 8 right first time. Press Continue.</p>,0,html-button-response,226,1132322,0.0-16.0-25.0,53904,List1B,white,woman,,,,,,,,
7317,"As you did not score 100%, the memory game will repeat. Press Continue.",0,html-button-response,227,1140658,0.0-16.0-26.0-0.0,53904,List1B,white,woman,,,,,,,,
3715,"<img src='img/portrait_matrix_list1.jpg' style='width:900px;height:500px;''></img><p>If you have memorised all the portraits and names and are ready to start, press Continue.</p><p><strong>Please note: Your memory of these faces will be tested 4 times during this experiment.</strong></p>",0,html-button-response,228,1145395,0.0-16.1-0.1,53904,List1B,white,woman,,,,,,,,
3539,"<img src=""portrait/BM2.jpg""style=""height:400px;""></img>",5,html-button-response,229,1149948,0.0-16.1-1.1,53904,List1B,white,woman,,TRUE,5,,,,,
null,CORRECT,,html-keyboard-response,230,1151502,0.0-16.1-2.1-0.1,53904,List1B,white,woman,,,,null,,,,
2992,"<img src=""portrait/BW2.jpg""style=""height:400px;""></img>",2,html-button-response,231,1154555,0.0-16.1-4.1,53904,List1B,white,woman,,TRUE,2,,,,,
null,CORRECT,,html-keyboard-response,232,1156068,0.0-16.1-5.1-0.1,53904,List1B,white,woman,,,,null,,,,
2313,"<img src=""portrait/BM1.jpg""style=""height:400px;""></img>",4,html-button-response,233,1158387,0.0-16.1-7.1,53904,List1B,white,woman,,TRUE,4,,,,,
null,CORRECT,,html-keyboard-response,234,1159934,0.0-16.1-8.1-0.1,53904,List1B,white,woman,,,,null,,,,
3728,"<img src=""portrait/BW1.jpg""style=""height:400px;""></img>",0,html-button-response,235,1163668,0.0-16.1-10.1,53904,List1B,white,woman,,TRUE,0,,,,,
null,CORRECT,,html-keyboard-response,236,1165182,0.0-16.1-11.1-0.1,53904,List1B,white,woman,,,,null,,,,
3119,"<img src=""portrait/WW1.jpg""style=""height:400px;""></img>",1,html-button-response,237,1168307,0.0-16.1-13.1,53904,List1B,white,woman,,TRUE,1,,,,,
null,CORRECT,,html-keyboard-response,238,1169825,0.0-16.1-14.1-0.1,53904,List1B,white,woman,,,,null,,,,
2309,"<img src=""portrait/WM2.jpg""style=""height:400px;""></img>",7,html-button-response,239,1172139,0.0-16.1-16.1,53904,List1B,white,woman,,TRUE,7,,,,,
null,CORRECT,,html-keyboard-response,240,1173659,0.0-16.1-17.1-0.1,53904,List1B,white,woman,,,,null,,,,
1795,"<img src=""portrait/WM1.jpg""style=""height:400px;""></img>",6,html-button-response,241,1175458,0.0-16.1-19.1,53904,List1B,white,woman,,TRUE,6,,,,,
null,CORRECT,,html-keyboard-response,242,1176978,0.0-16.1-20.1-0.1,53904,List1B,white,woman,,,,null,,,,
3443,"<img src=""portrait/WW2.jpg""style=""height:400px;""></img>",3,html-button-response,243,1180428,0.0-16.1-22.1,53904,List1B,white,woman,,TRUE,3,,,,,
null,CORRECT,,html-keyboard-response,244,1181942,0.0-16.1-23.1-0.1,53904,List1B,white,woman,,,,null,,,,
1839,<p>You got 8 out of 8 right first time. Press Continue.</p>,0,html-button-response,245,1183787,0.0-16.1-25.1,53904,List1B,white,woman,,,,,,,,
null,"<div style=""font-size:60px;"">+</div>",,html-keyboard-response,246,1185326,0.0-17.0-0.0,53904,List1B,white,woman,,,,null,,,,
null,"<img src=""stim_listB/talk4.gif""style=""height:400px;""></stim_listB>",,html-keyboard-response,247,1187331,0.0-17.0-1.0,53904,List1B,white,woman,,,,null,,,,
null,are talking to each other,,html-keyboard-response,248,1189344,0.0-17.0-2.0,53904,List1B,white,woman,,,,null,,,,
21273,,,survey-text,249,1210620,0.0-17.0-3.0,53904,List1B,white,woman,,,,,"{""Q0"":""dave and jane are talking to each other""}","<img src=""stim_listB/talk4.gif""style=""height:400px;""></stim_listB>",are talking to each other,
null,"<div style=""font-size:60px;"">+</div>",,html-keyboard-response,250,1211139,0.0-17.0-0.1,53904,List1B,white,woman,,,,null,,,,
null,"<img src=""stim_listB/kiss7.gif""style=""height:400px;""></stim_listB>",,html-keyboard-response,251,1213157,0.0-17.0-1.1,53904,List1B,white,woman,,,,null,,,,
null,is kissing,,html-keyboard-response,252,1215155,0.0-17.0-2.1,53904,List1B,white,woman,,,,null,,,,
10238,,,survey-text,253,1225403,0.0-17.0-3.1,53904,List1B,white,woman,,,,,"{""Q0"":""beth is kissing jane""}","<img src=""stim_listB/kiss7.gif""style=""height:400px;""></stim_listB>",is kissing,
null,"<div style=""font-size:60px;"">+</div>",,html-keyboard-response,254,1225915,0.0-17.0-0.2,53904,List1B,white,woman,,,,null,,,,
null,"<img src=""stim_listB/fight8.gif""style=""height:400px;""></stim_listB>",,html-keyboard-response,255,1227916,0.0-17.0-1.2,53904,List1B,white,woman,,,,null,,,,
null,are fighting each other,,html-keyboard-response,256,1229932,0.0-17.0-2.2,53904,List1B,white,woman,,,,null,,,,
8735,,,survey-text,257,1238675,0.0-17.0-3.2,53904,List1B,white,woman,,,,,"{""Q0"":""beth and jane are fighting each other""}","<img src=""stim_listB/fight8.gif""style=""height:400px;""></stim_listB>",are fighting each other,
null,"<div style=""font-size:60px;"">+</div>",,html-keyboard-response,258,1239197,0.0-17.0-0.3,53904,List1B,white,woman,,,,null,,,,
null,"<img src=""stim_listB/kiss4.gif""style=""height:400px;""></stim_listB>",,html-keyboard-response,259,1241209,0.0-17.0-1.3,53904,List1B,white,woman,,,,null,,,,
null,are kissing each other,,html-keyboard-response,260,1243213,0.0-17.0-2.3,53904,List1B,white,woman,,,,null,,,,
11130,,,survey-text,261,1254346,0.0-17.0-3.3,53904,List1B,white,woman,,,,,"{""Q0"":""jane and dave are kissing each other""}","<img src=""stim_listB/kiss4.gif""style=""height:400px;""></stim_listB>",are kissing each other,
null,"<div style=""font-size:60px;"">+</div>",,html-keyboard-response,262,1254855,0.0-17.0-0.4,53904,List1B,white,woman,,,,null,,,,
null,"<img src=""stim_listB/marry5.gif""style=""height:400px;""></stim_listB>",,html-keyboard-response,263,1256876,0.0-17.0-1.4,53904,List1B,white,woman,,,,null,,,,
null,is marrying,,html-keyboard-response,264,1258873,0.0-17.0-2.4,53904,List1B,white,woman,,,,null,,,,
6086,,,survey-text,265,1264962,0.0-17.0-3.4,53904,List1B,white,woman,,,,,"{""Q0"":""mike is marrying luke""}","<img src=""stim_listB/marry5.gif""style=""height:400px;""></stim_listB>",is marrying,
null,"<div style=""font-size:60px;"">+</div>",,html-keyboard-response,266,1265493,0.0-17.0-0.5,53904,List1B,white,woman,,,,null,,,,
null,"<img src=""stim_listB/touch2.gif""style=""height:400px;""></stim_listB>",,html-keyboard-response,267,1267516,0.0-17.0-1.5,53904,List1B,white,woman,,,,null,,,,
null,are touching each other,,html-keyboard-response,268,1269526,0.0-17.0-2.5,53904,List1B,white,woman,,,,null,,,,
20644,,,survey-text,269,1290177,0.0-17.0-3.5,53904,List1B,white,woman,,,,,"{""Q0"":""fred and beth are touching each other""}","<img src=""stim_listB/touch2.gif""style=""height:400px;""></stim_listB>",are touching each other,
null,"<div style=""font-size:60px;"">+</div>",,html-keyboard-response,270,1290688,0.0-17.0-0.6,53904,List1B,white,woman,,,,null,,,,
null,"<img src=""stim_listB/shout7.gif""style=""height:400px;""></stim_listB>",,html-keyboard-response,271,1292717,0.0-17.0-1.6,53904,List1B,white,woman,,,,null,,,,
null,is shouting at,,html-keyboard-response,272,1294695,0.0-17.0-2.6,53904,List1B,white,woman,,,,null,,,,
10888,,,survey-text,273,1305585,0.0-17.0-3.6,53904,List1B,white,woman,,,,,"{""Q0"":""beth is shouting at jane""}","<img src=""stim_listB/shout7.gif""style=""height:400px;""></stim_listB>",is shouting at,
null,"<div style=""font-size:60px;"">+</div>",,html-keyboard-response,274,1306109,0.0-17.0-0.7,53904,List1B,white,woman,,,,null,,,,
null,"<img src=""stim_listB/talk8.gif""style=""height:400px;""></stim_listB>",,html-keyboard-response,275,1308121,0.0-17.0-1.7,53904,List1B,white,woman,,,,null,,,,
null,are talking to each other,,html-keyboard-response,276,1310126,0.0-17.0-2.7,53904,List1B,white,woman,,,,null,,,,
10344,,,survey-text,277,1320474,0.0-17.0-3.7,53904,List1B,white,woman,,,,,"{""Q0"":""kate and jane are talking to each other""}","<img src=""stim_listB/talk8.gif""style=""height:400px;""></stim_listB>",are talking to each other,
null,"<div style=""font-size:60px;"">+</div>",,html-keyboard-response,278,1321003,0.0-17.0-0.8,53904,List1B,white,woman,,,,null,,,,
null,"<img src=""stim_listB/touch6.gif""style=""height:400px;""></stim_listB>",,html-keyboard-response,279,1323023,0.0-17.0-1.8,53904,List1B,white,woman,,,,null,,,,
null,are touching each other,,html-keyboard-response,280,1325006,0.0-17.0-2.8,53904,List1B,white,woman,,,,null,,,,
11439,,,survey-text,281,1336450,0.0-17.0-3.8,53904,List1B,white,woman,,,,,"{""Q0"":""fred and luke are touching each other""}","<img src=""stim_listB/touch6.gif""style=""height:400px;""></stim_listB>",are touching each other,
null,"<div style=""font-size:60px;"">+</div>",,html-keyboard-response,282,1336968,0.0-17.0-0.9,53904,List1B,white,woman,,,,null,,,,
null,"<img src=""stim_listB/fight5.gif""style=""height:400px;""></stim_listB>",,html-keyboard-response,283,1338979,0.0-17.0-1.9,53904,List1B,white,woman,,,,null,,,,
null,is fighting,,html-keyboard-response,284,1340970,0.0-17.0-2.9,53904,List1B,white,woman,,,,null,,,,
7405,,,survey-text,285,1348379,0.0-17.0-3.9,53904,List1B,white,woman,,,,,"{""Q0"":""mike is fighting dave""}","<img src=""stim_listB/fight5.gif""style=""height:400px;""></stim_listB>",is fighting,
null,"<div style=""font-size:60px;"">+</div>",,html-keyboard-response,286,1348884,0.0-17.0-0.10,53904,List1B,white,woman,,,,null,,,,
null,"<img src=""stim_listB/kiss2.gif""style=""height:400px;""></stim_listB>",,html-keyboard-response,287,1350912,0.0-17.0-1.10,53904,List1B,white,woman,,,,null,,,,
null,are kissing each other,,html-keyboard-response,288,1352899,0.0-17.0-2.10,53904,List1B,white,woman,,,,null,,,,
10076,,,survey-text,289,1362978,0.0-17.0-3.10,53904,List1B,white,woman,,,,,"{""Q0"":""mike and kate are kissing each other""}","<img src=""stim_listB/kiss2.gif""style=""height:400px;""></stim_listB>",are kissing each other,
null,"<div style=""font-size:60px;"">+</div>",,html-keyboard-response,290,1363496,0.0-17.0-0.11,53904,List1B,white,woman,,,,null,,,,
null,"<img src=""stim_listB/dance1.gif""style=""height:400px;""></stim_listB>",,html-keyboard-response,291,1365513,0.0-17.0-1.11,53904,List1B,white,woman,,,,null,,,,
null,is dancing with,,html-keyboard-response,292,1367501,0.0-17.0-2.11,53904,List1B,white,woman,,,,null,,,,
9641,,,survey-text,293,1377147,0.0-17.0-3.11,53904,List1B,white,woman,,,,,"{""Q0"":""fred is dancing with kate""}","<img src=""stim_listB/dance1.gif""style=""height:400px;""></stim_listB>",is dancing with,
null,"<div style=""font-size:60px;"">+</div>",,html-keyboard-response,294,1377660,0.0-17.0-0.12,53904,List1B,white,woman,,,,null,,,,
null,"<img src=""stim_listB/fight1.gif""style=""height:400px;""></stim_listB>",,html-keyboard-response,295,1379668,0.0-17.0-1.12,53904,List1B,white,woman,,,,null,,,,
null,is fighting,,html-keyboard-response,296,1381662,0.0-17.0-2.12,53904,List1B,white,woman,,,,null,,,,
13128,,,survey-text,297,1394795,0.0-17.0-3.12,53904,List1B,white,woman,,,,,"{""Q0"":""kate is fighting mike""}","<img src=""stim_listB/fight1.gif""style=""height:400px;""></stim_listB>",is fighting,
null,"<div style=""font-size:60px;"">+</div>",,html-keyboard-response,298,1395305,0.0-17.0-0.13,53904,List1B,white,woman,,,,null,,,,
null,"<img src=""stim_listB/dance3.gif""style=""height:400px;""></stim_listB>",,html-keyboard-response,299,1397328,0.0-17.0-1.13,53904,List1B,white,woman,,,,null,,,,
null,is dancing with,,html-keyboard-response,300,1399337,0.0-17.0-2.13,53904,List1B,white,woman,,,,null,,,,
7134,,,survey-text,301,1406474,0.0-17.0-3.13,53904,List1B,white,woman,,,,,"{""Q0"":""jane is dancing with luke""}","<img src=""stim_listB/dance3.gif""style=""height:400px;""></stim_listB>",is dancing with,
null,"<div style=""font-size:60px;"">+</div>",,html-keyboard-response,302,1406986,0.0-17.0-0.14,53904,List1B,white,woman,,,,null,,,,
null,"<img src=""stim_listB/argue3.gif""style=""height:400px;""></stim_listB>",,html-keyboard-response,303,1408997,0.0-17.0-1.14,53904,List1B,white,woman,,,,null,,,,
null,is arguing with,,html-keyboard-response,304,1411035,0.0-17.0-2.14,53904,List1B,white,woman,,,,null,,,,
43189,,,survey-text,305,1454226,0.0-17.0-3.14,53904,List1B,white,woman,,,,,"{""Q0"":""dave is arguing with jane""}","<img src=""stim_listB/argue3.gif""style=""height:400px;""></stim_listB>",is arguing with,
null,"<div style=""font-size:60px;"">+</div>",,html-keyboard-response,306,1454739,0.0-17.0-0.15,53904,List1B,white,woman,,,,null,,,,
null,"<img src=""stim_listB/talk6.gif""style=""height:400px;""></stim_listB>",,html-keyboard-response,307,1456740,0.0-17.0-1.15,53904,List1B,white,woman,,,,null,,,,
null,are talking to each other,,html-keyboard-response,308,1458755,0.0-17.0-2.15,53904,List1B,white,woman,,,,null,,,,
10651,,,survey-text,309,1469411,0.0-17.0-3.15,53904,List1B,white,woman,,,,,"{""Q0"":""mike and luke are talking to each other""}","<img src=""stim_listB/talk6.gif""style=""height:400px;""></stim_listB>",are talking to each other,
null,"<div style=""font-size:60px;"">+</div>",,html-keyboard-response,310,1469941,0.0-17.0-0.16,53904,List1B,white,woman,,,,null,,,,
null,"<img src=""stim_listB/flirt3.gif""style=""height:400px;""></stim_listB>",,html-keyboard-response,311,1471963,0.0-17.0-1.16,53904,List1B,white,woman,,,,null,,,,
null,is flirting with,,html-keyboard-response,312,1473959,0.0-17.0-2.16,53904,List1B,white,woman,,,,null,,,,
8959,,,survey-text,313,1482922,0.0-17.0-3.16,53904,List1B,white,woman,,,,,"{""Q0"":""luke is flirting with jane""}","<img src=""stim_listB/flirt3.gif""style=""height:400px;""></stim_listB>",is flirting with,
null,"<div style=""font-size:60px;"">+</div>",,html-keyboard-response,314,1483432,0.0-17.0-0.17,53904,List1B,white,woman,,,,null,,,,
null,"<img src=""stim_listB/shout4.gif""style=""height:400px;""></stim_listB>",,html-keyboard-response,315,1485432,0.0-17.0-1.17,53904,List1B,white,woman,,,,null,,,,
null,are shouting at each other,,html-keyboard-response,316,1487449,0.0-17.0-2.17,53904,List1B,white,woman,,,,null,,,,
10007,,,survey-text,317,1497458,0.0-17.0-3.17,53904,List1B,white,woman,,,,,"{""Q0"":""dave and jane are shouting at each other""}","<img src=""stim_listB/shout4.gif""style=""height:400px;""></stim_listB>",are shouting at each other,
null,"<div style=""font-size:60px;"">+</div>",,html-keyboard-response,318,1497968,0.0-17.0-0.18,53904,List1B,white,woman,,,,null,,,,
null,"<img src=""stim_listB/marry6.gif""style=""height:400px;""></stim_listB>",,html-keyboard-response,319,1499982,0.0-17.0-1.18,53904,List1B,white,woman,,,,null,,,,
null,are marrying each other,,html-keyboard-response,320,1501991,0.0-17.0-2.18,53904,List1B,white,woman,,,,null,,,,
13840,,,survey-text,321,1515833,0.0-17.0-3.18,53904,List1B,white,woman,,,,,"{""Q0"":""fred and dave are marrying each other""}","<img src=""stim_listB/marry6.gif""style=""height:400px;""></stim_listB>",are marrying each other,
null,"<div style=""font-size:60px;"">+</div>",,html-keyboard-response,322,1516339,0.0-17.0-0.19,53904,List1B,white,woman,,,,null,,,,
null,"<img src=""stim_listB/marry7.gif""style=""height:400px;""></stim_listB>",,html-keyboard-response,323,1518365,0.0-17.0-1.19,53904,List1B,white,woman,,,,null,,,,
null,is marrying,,html-keyboard-response,324,1520345,0.0-17.0-2.19,53904,List1B,white,woman,,,,null,,,,
47614,,,survey-text,325,1567962,0.0-17.0-3.19,53904,List1B,white,woman,,,,,"{""Q0"":""kate is marrying jane""}","<img src=""stim_listB/marry7.gif""style=""height:400px;""></stim_listB>",is marrying,
6841,"<img src='img/portrait_matrix_list1.jpg' style='width:900px;height:500px;''></img><p>If you have memorised all the portraits and names and are ready to start, press Continue.</p><p><strong>Please note: Your memory of these faces will be tested 4 times during this experiment.</strong></p>",0,html-button-response,326,1574812,0.0-18.0-0.0,53904,List1B,white,woman,,,,,,,,
5260,"<img src=""portrait/WW1.jpg""style=""height:400px;""></img>",1,html-button-response,327,1581099,0.0-18.0-1.0,53904,List1B,white,woman,,TRUE,1,,,,,
null,CORRECT,,html-keyboard-response,328,1582642,0.0-18.0-2.0-0.0,53904,List1B,white,woman,,,,null,,,,
3068,"<img src=""portrait/BM1.jpg""style=""height:400px;""></img>",4,html-button-response,329,1585724,0.0-18.0-4.0,53904,List1B,white,woman,,TRUE,4,,,,,
null,CORRECT,,html-keyboard-response,330,1587268,0.0-18.0-5.0-0.0,53904,List1B,white,woman,,,,null,,,,
15527,"<img src=""portrait/BW2.jpg""style=""height:400px;""></img>",2,html-button-response,331,1602812,0.0-18.0-7.0,53904,List1B,white,woman,,TRUE,2,,,,,
null,CORRECT,,html-keyboard-response,332,1604336,0.0-18.0-8.0-0.0,53904,List1B,white,woman,,,,null,,,,
2733,"<img src=""portrait/WM1.jpg""style=""height:400px;""></img>",6,html-button-response,333,1607083,0.0-18.0-10.0,53904,List1B,white,woman,,TRUE,6,,,,,
null,CORRECT,,html-keyboard-response,334,1608634,0.0-18.0-11.0-0.0,53904,List1B,white,woman,,,,null,,,,
2473,"<img src=""portrait/WM2.jpg""style=""height:400px;""></img>",7,html-button-response,335,1611115,0.0-18.0-13.0,53904,List1B,white,woman,,TRUE,7,,,,,
null,CORRECT,,html-keyboard-response,336,1612635,0.0-18.0-14.0-0.0,53904,List1B,white,woman,,,,null,,,,
6641,"<img src=""portrait/WW2.jpg""style=""height:400px;""></img>",3,html-button-response,337,1619292,0.0-18.0-16.0,53904,List1B,white,woman,,TRUE,3,,,,,
null,CORRECT,,html-keyboard-response,338,1620843,0.0-18.0-17.0-0.0,53904,List1B,white,woman,,,,null,,,,
3383,"<img src=""portrait/BM2.jpg""style=""height:400px;""></img>",5,html-button-response,339,1624242,0.0-18.0-19.0,53904,List1B,white,woman,,TRUE,5,,,,,
null,CORRECT,,html-keyboard-response,340,1625787,0.0-18.0-20.0-0.0,53904,List1B,white,woman,,,,null,,,,
4331,"<img src=""portrait/BW1.jpg""style=""height:400px;""></img>",2,html-button-response,341,1630132,0.0-18.0-22.0,53904,List1B,white,woman,,TRUE,0,,,,,
6820,"<img src=""portrait/BW1.jpg""style=""height:400px;""></img>",0,html-button-response,342,1637979,0.0-18.0-24.0-0.0,53904,List1B,white,woman,,FALSE,0,,,,,
null,CORRECT,,html-keyboard-response,343,1639543,0.0-18.0-24.0-1.0-0.0,53904,List1B,white,woman,,,,null,,,,
3217,<p>You got 7 out of 8 right first time. Press Continue.</p>,0,html-button-response,344,1642780,0.0-18.0-25.0,53904,List1B,white,woman,,,,,,,,
1585,"As you did not score 100%, the memory game will repeat. Press Continue.",0,html-button-response,345,1645395,0.0-18.0-26.0-0.0,53904,List1B,white,woman,,,,,,,,
2728,"<img src='img/portrait_matrix_list1.jpg' style='width:900px;height:500px;''></img><p>If you have memorised all the portraits and names and are ready to start, press Continue.</p><p><strong>Please note: Your memory of these faces will be tested 4 times during this experiment.</strong></p>",0,html-button-response,346,1649163,0.0-18.1-0.1,53904,List1B,white,woman,,,,,,,,
3840,"<img src=""portrait/WW1.jpg""style=""height:400px;""></img>",1,html-button-response,347,1654027,0.0-18.1-1.1,53904,List1B,white,woman,,TRUE,1,,,,,
null,CORRECT,,html-keyboard-response,348,1655568,0.0-18.1-2.1-0.1,53904,List1B,white,woman,,,,null,,,,
4988,"<img src=""portrait/BM1.jpg""style=""height:400px;""></img>",4,html-button-response,349,1660620,0.0-18.1-4.1,53904,List1B,white,woman,,TRUE,4,,,,,
null,CORRECT,,html-keyboard-response,350,1662159,0.0-18.1-5.1-0.1,53904,List1B,white,woman,,,,null,,,,
2907,"<img src=""portrait/BW2.jpg""style=""height:400px;""></img>",2,html-button-response,351,1665082,0.0-18.1-7.1,53904,List1B,white,woman,,TRUE,2,,,,,
null,CORRECT,,html-keyboard-response,352,1666645,0.0-18.1-8.1-0.1,53904,List1B,white,woman,,,,null,,,,
3285,"<img src=""portrait/WM1.jpg""style=""height:400px;""></img>",6,html-button-response,353,1669948,0.0-18.1-10.1,53904,List1B,white,woman,,TRUE,6,,,,,
null,CORRECT,,html-keyboard-response,354,1671490,0.0-18.1-11.1-0.1,53904,List1B,white,woman,,,,null,,,,
2451,"<img src=""portrait/WM2.jpg""style=""height:400px;""></img>",7,html-button-response,355,1673955,0.0-18.1-13.1,53904,List1B,white,woman,,TRUE,7,,,,,
null,CORRECT,,html-keyboard-response,356,1675490,0.0-18.1-14.1-0.1,53904,List1B,white,woman,,,,null,,,,
2933,"<img src=""portrait/WW2.jpg""style=""height:400px;""></img>",3,html-button-response,357,1678428,0.0-18.1-16.1,53904,List1B,white,woman,,TRUE,3,,,,,
null,CORRECT,,html-keyboard-response,358,1679991,0.0-18.1-17.1-0.1,53904,List1B,white,woman,,,,null,,,,
3509,"<img src=""portrait/BM2.jpg""style=""height:400px;""></img>",5,html-button-response,359,1683516,0.0-18.1-19.1,53904,List1B,white,woman,,TRUE,5,,,,,
null,CORRECT,,html-keyboard-response,360,1685072,0.0-18.1-20.1-0.1,53904,List1B,white,woman,,,,null,,,,
6868,"<img src=""portrait/BW1.jpg""style=""height:400px;""></img>",0,html-button-response,361,1691954,0.0-18.1-22.1,53904,List1B,white,woman,,TRUE,0,,,,,
null,CORRECT,,html-keyboard-response,362,1693506,0.0-18.1-23.1-0.1,53904,List1B,white,woman,,,,null,,,,
1443,<p>You got 8 out of 8 right first time. Press Continue.</p>,0,html-button-response,363,1694955,0.0-18.1-25.1,53904,List1B,white,woman,,,,,,,,
null,"<div style=""font-size:60px;"">+</div>",,html-keyboard-response,364,1696496,0.0-19.0-0.0,53904,List1B,white,woman,,,,null,,,,
null,"<img src=""stim_listB/talk7.gif""style=""height:400px;""></stim_listB>",,html-keyboard-response,365,1698515,0.0-19.0-1.0,53904,List1B,white,woman,,,,null,,,,
null,is talking to,,html-keyboard-response,366,1700515,0.0-19.0-2.0,53904,List1B,white,woman,,,,null,,,,
9885,,,survey-text,367,1710403,0.0-19.0-3.0,53904,List1B,white,woman,,,,,"{""Q0"":""beth is talking to jane""}","<img src=""stim_listB/talk7.gif""style=""height:400px;""></stim_listB>",is talking to,
null,"<div style=""font-size:60px;"">+</div>",,html-keyboard-response,368,1710935,0.0-19.0-0.1,53904,List1B,white,woman,,,,null,,,,
null,"<img src=""stim_listB/fight4.gif""style=""height:400px;""></stim_listB>",,html-keyboard-response,369,1712961,0.0-19.0-1.1,53904,List1B,white,woman,,,,null,,,,
null,are fighting each other,,html-keyboard-response,370,1714965,0.0-19.0-2.1,53904,List1B,white,woman,,,,null,,,,
10767,,,survey-text,371,1725739,0.0-19.0-3.1,53904,List1B,white,woman,,,,,"{""Q0"":""jane and luke are fighting each other""}","<img src=""stim_listB/fight4.gif""style=""height:400px;""></stim_listB>",are fighting each other,
null,"<div style=""font-size:60px;"">+</div>",,html-keyboard-response,372,1726269,0.0-19.0-0.2,53904,List1B,white,woman,,,,null,,,,
null,"<img src=""stim_listB/flirt1.gif""style=""height:400px;""></stim_listB>",,html-keyboard-response,373,1728304,0.0-19.0-1.2,53904,List1B,white,woman,,,,null,,,,
null,is flirting with,,html-keyboard-response,374,1730295,0.0-19.0-2.2,53904,List1B,white,woman,,,,null,,,,
9140,,,survey-text,375,1739444,0.0-19.0-3.2,53904,List1B,white,woman,,,,,"{""Q0"":""kate is flriting with fred""}","<img src=""stim_listB/flirt1.gif""style=""height:400px;""></stim_listB>",is flirting with,
null,"<div style=""font-size:60px;"">+</div>",,html-keyboard-response,376,1739967,0.0-19.0-0.3,53904,List1B,white,woman,,,,null,,,,
null,"<img src=""stim_listB/dance4.gif""style=""height:400px;""></stim_listB>",,html-keyboard-response,377,1741978,0.0-19.0-1.3,53904,List1B,white,woman,,,,null,,,,
null,are dancing with each other,,html-keyboard-response,378,1743996,0.0-19.0-2.3,53904,List1B,white,woman,,,,null,,,,
17118,,,survey-text,379,1761124,0.0-19.0-3.3,53904,List1B,white,woman,,,,,"{""Q0"":""dave and jane are dancing with each other""}","<img src=""stim_listB/dance4.gif""style=""height:400px;""></stim_listB>",are dancing with each other,
null,"<div style=""font-size:60px;"">+</div>",,html-keyboard-response,380,1761658,0.0-19.0-0.4,53904,List1B,white,woman,,,,null,,,,
null,"<img src=""stim_listB/argue8.gif""style=""height:400px;""></stim_listB>",,html-keyboard-response,381,1763662,0.0-19.0-1.4,53904,List1B,white,woman,,,,null,,,,
null,are arguing with each other,,html-keyboard-response,382,1765686,0.0-19.0-2.4,53904,List1B,white,woman,,,,null,,,,
12402,,,survey-text,383,1778099,0.0-19.0-3.4,53904,List1B,white,woman,,,,,"{""Q0"":""beth and jane are arguing with each other""}","<img src=""stim_listB/argue8.gif""style=""height:400px;""></stim_listB>",are arguing with each other,
null,"<div style=""font-size:60px;"">+</div>",,html-keyboard-response,384,1778642,0.0-19.0-0.5,53904,List1B,white,woman,,,,null,,,,
null,"<img src=""stim_listB/play7.gif""style=""height:400px;""></stim_listB>",,html-keyboard-response,385,1780672,0.0-19.0-1.5,53904,List1B,white,woman,,,,null,,,,
null,is playing with,,html-keyboard-response,386,1782666,0.0-19.0-2.5,53904,List1B,white,woman,,,,null,,,,
8665,,,survey-text,387,1791339,0.0-19.0-3.5,53904,List1B,white,woman,,,,,"{""Q0"":""kate is playing with jane""}","<img src=""stim_listB/play7.gif""style=""height:400px;""></stim_listB>",is playing with,
null,"<div style=""font-size:60px;"">+</div>",,html-keyboard-response,388,1791865,0.0-19.0-0.6,53904,List1B,white,woman,,,,null,,,,
null,"<img src=""stim_listB/touch7.gif""style=""height:400px;""></stim_listB>",,html-keyboard-response,389,1793884,0.0-19.0-1.6,53904,List1B,white,woman,,,,null,,,,
null,is touching,,html-keyboard-response,390,1795885,0.0-19.0-2.6,53904,List1B,white,woman,,,,null,,,,
5860,,,survey-text,391,1801755,0.0-19.0-3.6,53904,List1B,white,woman,,,,,"{""Q0"":""kate is touching jane""}","<img src=""stim_listB/touch7.gif""style=""height:400px;""></stim_listB>",is touching,
null,"<div style=""font-size:60px;"">+</div>",,html-keyboard-response,392,1802275,0.0-19.0-0.7,53904,List1B,white,woman,,,,null,,,,
null,"<img src=""stim_listB/touch4.gif""style=""height:400px;""></stim_listB>",,html-keyboard-response,393,1804303,0.0-19.0-1.7,53904,List1B,white,woman,,,,null,,,,
null,are touching each other,,html-keyboard-response,394,1806290,0.0-19.0-2.7,53904,List1B,white,woman,,,,null,,,,
8756,,,survey-text,395,1815051,0.0-19.0-3.7,53904,List1B,white,woman,,,,,"{""Q0"":""jane and luke are touching each other""}","<img src=""stim_listB/touch4.gif""style=""height:400px;""></stim_listB>",are touching each other,
null,"<div style=""font-size:60px;"">+</div>",,html-keyboard-response,396,1815584,0.0-19.0-0.8,53904,List1B,white,woman,,,,null,,,,
null,"<img src=""stim_listB/marry4.gif""style=""height:400px;""></stim_listB>",,html-keyboard-response,397,1817611,0.0-19.0-1.8,53904,List1B,white,woman,,,,null,,,,
null,are marrying each other,,html-keyboard-response,398,1819591,0.0-19.0-2.8,53904,List1B,white,woman,,,,null,,,,
8691,,,survey-text,399,1828291,0.0-19.0-3.8,53904,List1B,white,woman,,,,,"{""Q0"":""jane and luke are marrying each other""}","<img src=""stim_listB/marry4.gif""style=""height:400px;""></stim_listB>",are marrying each other,
null,"<div style=""font-size:60px;"">+</div>",,html-keyboard-response,400,1828818,0.0-19.0-0.9,53904,List1B,white,woman,,,,null,,,,
null,"<img src=""stim_listB/argue1.gif""style=""height:400px;""></stim_listB>",,html-keyboard-response,401,1830823,0.0-19.0-1.9,53904,List1B,white,woman,,,,null,,,,
null,is arguing with,,html-keyboard-response,402,1832825,0.0-19.0-2.9,53904,List1B,white,woman,,,,null,,,,
8208,,,survey-text,403,1841036,0.0-19.0-3.9,53904,List1B,white,woman,,,,,"{""Q0"":""mike is arguing with beth""}","<img src=""stim_listB/argue1.gif""style=""height:400px;""></stim_listB>",is arguing with,
null,"<div style=""font-size:60px;"">+</div>",,html-keyboard-response,404,1841549,0.0-19.0-0.10,53904,List1B,white,woman,,,,null,,,,
null,"<img src=""stim_listB/flirt5.gif""style=""height:400px;""></stim_listB>",,html-keyboard-response,405,1843579,0.0-19.0-1.10,53904,List1B,white,woman,,,,null,,,,
null,is flirting with,,html-keyboard-response,406,1845574,0.0-19.0-2.10,53904,List1B,white,woman,,,,null,,,,
6872,,,survey-text,407,1852452,0.0-19.0-3.10,53904,List1B,white,woman,,,,,"{""Q0"":""fred is flirting with dave""}","<img src=""stim_listB/flirt5.gif""style=""height:400px;""></stim_listB>",is flirting with,
null,"<div style=""font-size:60px;"">+</div>",,html-keyboard-response,408,1852978,0.0-19.0-0.11,53904,List1B,white,woman,,,,null,,,,
null,"<img src=""stim_listB/play3.gif""style=""height:400px;""></stim_listB>",,html-keyboard-response,409,1854987,0.0-19.0-1.11,53904,List1B,white,woman,,,,null,,,,
null,is playing with,,html-keyboard-response,410,1856985,0.0-19.0-2.11,53904,List1B,white,woman,,,,null,,,,
8262,,,survey-text,411,1865252,0.0-19.0-3.11,53904,List1B,white,woman,,,,,"{""Q0"":""dave is playing with jane""}","<img src=""stim_listB/play3.gif""style=""height:400px;""></stim_listB>",is playing with,
null,"<div style=""font-size:60px;"">+</div>",,html-keyboard-response,412,1865770,0.0-19.0-0.12,53904,List1B,white,woman,,,,null,,,,
null,"<img src=""stim_listB/talk2.gif""style=""height:400px;""></stim_listB>",,html-keyboard-response,413,1867828,0.0-19.0-1.12,53904,List1B,white,woman,,,,null,,,,
null,are talking to each other,,html-keyboard-response,414,1869834,0.0-19.0-2.12,53904,List1B,white,woman,,,,null,,,,
9758,,,survey-text,415,1879603,0.0-19.0-3.12,53904,List1B,white,woman,,,,,"{""Q0"":""beth and mike are arguing with each other""}","<img src=""stim_listB/talk2.gif""style=""height:400px;""></stim_listB>",are talking to each other,
null,"<div style=""font-size:60px;"">+</div>",,html-keyboard-response,416,1880137,0.0-19.0-0.13,53904,List1B,white,woman,,,,null,,,,
null,"<img src=""stim_listB/kiss8.gif""style=""height:400px;""></stim_listB>",,html-keyboard-response,417,1882163,0.0-19.0-1.13,53904,List1B,white,woman,,,,null,,,,
null,are kissing each other,,html-keyboard-response,418,1884165,0.0-19.0-2.13,53904,List1B,white,woman,,,,null,,,,
11730,,,survey-text,419,1895900,0.0-19.0-3.13,53904,List1B,white,woman,,,,,"{""Q0"":""jane and kate are kissing each other""}","<img src=""stim_listB/kiss8.gif""style=""height:400px;""></stim_listB>",are kissing each other,
null,"<div style=""font-size:60px;"">+</div>",,html-keyboard-response,420,1896431,0.0-19.0-0.14,53904,List1B,white,woman,,,,null,,,,
null,"<img src=""stim_listB/fight2.gif""style=""height:400px;""></stim_listB>",,html-keyboard-response,421,1898458,0.0-19.0-1.14,53904,List1B,white,woman,,,,null,,,,
null,are fighting each other,,html-keyboard-response,422,1900452,0.0-19.0-2.14,53904,List1B,white,woman,,,,null,,,,
9541,,,survey-text,423,1910004,0.0-19.0-3.14,53904,List1B,white,woman,,,,,"{""Q0"":""fred and beth are fighting each other""}","<img src=""stim_listB/fight2.gif""style=""height:400px;""></stim_listB>",are fighting each other,
null,"<div style=""font-size:60px;"">+</div>",,html-keyboard-response,424,1910527,0.0-19.0-0.15,53904,List1B,white,woman,,,,null,,,,
null,"<img src=""stim_listB/touch3.gif""style=""height:400px;""></stim_listB>",,html-keyboard-response,425,1912543,0.0-19.0-1.15,53904,List1B,white,woman,,,,null,,,,
null,is touching,,html-keyboard-response,426,1914564,0.0-19.0-2.15,53904,List1B,white,woman,,,,null,,,,
6460,,,survey-text,427,1921035,0.0-19.0-3.15,53904,List1B,white,woman,,,,,"{""Q0"":""dave is touching jane""}","<img src=""stim_listB/touch3.gif""style=""height:400px;""></stim_listB>",is touching,
null,"<div style=""font-size:60px;"">+</div>",,html-keyboard-response,428,1921557,0.0-19.0-0.16,53904,List1B,white,woman,,,,null,,,,
null,"<img src=""stim_listB/argue4.gif""style=""height:400px;""></stim_listB>",,html-keyboard-response,429,1923581,0.0-19.0-1.16,53904,List1B,white,woman,,,,null,,,,
null,are arguing with each other,,html-keyboard-response,430,1925575,0.0-19.0-2.16,53904,List1B,white,woman,,,,null,,,,
10387,,,survey-text,431,1935971,0.0-19.0-3.16,53904,List1B,white,woman,,,,,"{""Q0"":""dave and luke are arguing with each other""}","<img src=""stim_listB/argue4.gif""style=""height:400px;""></stim_listB>",are arguing with each other,
null,"<div style=""font-size:60px;"">+</div>",,html-keyboard-response,432,1936491,0.0-19.0-0.17,53904,List1B,white,woman,,,,null,,,,
null,"<img src=""stim_listB/shout2.gif""style=""height:400px;""></stim_listB>",,html-keyboard-response,433,1938522,0.0-19.0-1.17,53904,List1B,white,woman,,,,null,,,,
null,are shouting at each other,,html-keyboard-response,434,1940505,0.0-19.0-2.17,53904,List1B,white,woman,,,,null,,,,
11496,,,survey-text,435,1952012,0.0-19.0-3.17,53904,List1B,white,woman,,,,,"{""Q0"":""mike and kate are shouting at each other""}","<img src=""stim_listB/shout2.gif""style=""height:400px;""></stim_listB>",are shouting at each other,
null,"<div style=""font-size:60px;"">+</div>",,html-keyboard-response,436,1952534,0.0-19.0-0.18,53904,List1B,white,woman,,,,null,,,,
null,"<img src=""stim_listB/dance2.gif""style=""height:400px;""></stim_listB>",,html-keyboard-response,437,1954547,0.0-19.0-1.18,53904,List1B,white,woman,,,,null,,,,
null,are dancing with each other,,html-keyboard-response,438,1956557,0.0-19.0-2.18,53904,List1B,white,woman,,,,null,,,,
12049,,,survey-text,439,1968611,0.0-19.0-3.18,53904,List1B,white,woman,,,,,"{""Q0"":""mike and beth are dancing with each other""}","<img src=""stim_listB/dance2.gif""style=""height:400px;""></stim_listB>",are dancing with each other,
null,"<div style=""font-size:60px;"">+</div>",,html-keyboard-response,440,1969128,0.0-19.0-0.19,53904,List1B,white,woman,,,,null,,,,
null,"<img src=""stim_listB/marry3.gif""style=""height:400px;""></stim_listB>",,html-keyboard-response,441,1971149,0.0-19.0-1.19,53904,List1B,white,woman,,,,null,,,,
null,is marrying,,html-keyboard-response,442,1973158,0.0-19.0-2.19,53904,List1B,white,woman,,,,null,,,,
6059,,,survey-text,443,1979227,0.0-19.0-3.19,53904,List1B,white,woman,,,,,"{""Q0"":""dave is marrying jane""}","<img src=""stim_listB/marry3.gif""style=""height:400px;""></stim_listB>",is marrying,
2892,<p>Thank you for completing that task.</p><p>The final part of this session is a short questionnaire.</p><p>Press Continue.</p>,0,html-button-response,444,1982123,0.0-20.0,53904,List1B,white,woman,,,,,,,,
29128,,,survey-text,445,2012269,0.0-21.0,53904,List1B,white,woman,,,,,"{""Q0"":""29"",""Q1"":""english"",""Q2"":""english"",""Q3"":""UK"",""Q4"":""white british"",""Q5"":""female""}",,,demographics
8538,,,survey-likert,446,2020815,0.0-22.0,53904,List1B,white,woman,,,,,"{""Q0"":4}",,,likert_ESS
8729,,,survey-likert,447,2029550,0.0-23.0,53904,List1B,white,woman,,,,,"{""Q0"":4}",,,likert_NSSAL_Q1
2883,,,survey-likert,448,2032439,0.0-24.0,53904,List1B,white,woman,,,,,"{""Q0"":4}",,,likert_NSSAL_Q2
4927,,,survey-likert,449,2037375,0.0-25.0,53904,List1B,white,woman,,,,,"{""Q0"":4}",,,likert_CGRS_Q1
3089,,,survey-likert,450,2040470,0.0-26.0,53904,List1B,white,woman,,,,,"{""Q0"":4}",,,likert_CGRS_Q2
3392,,,survey-likert,451,2043868,0.0-27.0,53904,List1B,white,woman,,,,,"{""Q0"":4}",,,likert_CGRS_Q3
6776,,,survey-text,452,2050651,0.0-28.0,53904,List1B,white,woman,,,,,"{""Q0"":""ccc""}",,,worker_id
7629,,,external-html,453,2058402,0.0-29.0,53904,List1B,white,woman,debrief.html,,,,,,,
