rt,stimulus,button_pressed,trial_type,trial_index,time_elapsed,internal_node_id,subject,list,ppt_race,ppt_gender,url,first_guess,correct,key_press,responses,image_type,phrase_type,test_part
2435,Welcome to the experiment. Press Continue to begin.,0,html-button-response,0,2440,0.0-0.0,55328,List1B,white,man,,,,,,,,
49206,,,external-html,1,53153,0.0-1.0,55328,List1B,white,man,consent.html,,,,,,,
12782,"<p>On the next page, you will see portraits of 8 people and their names.</p><p>Your first task is to take a few minutes to memorise the names of these people.</p><p>You will have to recall their names during the rest of the experiment, so it is</p><p>essential that you try to memorise these people and their names as best as you can.</p><br><p><strong>You will then be tested on your memory of these names and portraits.</strong></p><br><p>The experiment will start after you have completed this memory test.</p><br><p>Ready?</p>",0,html-button-response,2,65938,0.0-2.0,55328,List1B,white,man,,,,,,,,
144840,"<img src='img/portrait_matrix_list1.jpg' style='width:900px;height:500px;''></img><p>If you have memorised all the portraits and names and are ready to start, press Continue.</p><p><strong>Please note: Your memory of these faces will be tested 4 times during this experiment.</strong></p>",0,html-button-response,3,211787,0.0-3.0-0.0,55328,List1B,white,man,,,,,,,,
4350,"<img src=""portrait/WW2.jpg""style=""height:400px;""></img>",3,html-button-response,4,217141,0.0-3.0-1.0,55328,List1B,white,man,,TRUE,3,,,,,
null,CORRECT,,html-keyboard-response,5,218652,0.0-3.0-2.0-0.0,55328,List1B,white,man,,,,null,,,,
9777,"<img src=""portrait/BW1.jpg""style=""height:400px;""></img>",0,html-button-response,6,228431,0.0-3.0-4.0,55328,List1B,white,man,,TRUE,0,,,,,
null,CORRECT,,html-keyboard-response,7,229946,0.0-3.0-5.0-0.0,55328,List1B,white,man,,,,null,,,,
4182,"<img src=""portrait/BM2.jpg""style=""height:400px;""></img>",5,html-button-response,8,234130,0.0-3.0-7.0,55328,List1B,white,man,,TRUE,5,,,,,
null,CORRECT,,html-keyboard-response,9,235638,0.0-3.0-8.0-0.0,55328,List1B,white,man,,,,null,,,,
7662,"<img src=""portrait/WW1.jpg""style=""height:400px;""></img>",1,html-button-response,10,243302,0.0-3.0-10.0,55328,List1B,white,man,,TRUE,1,,,,,
null,CORRECT,,html-keyboard-response,11,244809,0.0-3.0-11.0-0.0,55328,List1B,white,man,,,,null,,,,
4643,"<img src=""portrait/BM1.jpg""style=""height:400px;""></img>",4,html-button-response,12,249454,0.0-3.0-13.0,55328,List1B,white,man,,TRUE,4,,,,,
null,CORRECT,,html-keyboard-response,13,250963,0.0-3.0-14.0-0.0,55328,List1B,white,man,,,,null,,,,
2954,"<img src=""portrait/WM2.jpg""style=""height:400px;""></img>",7,html-button-response,14,253919,0.0-3.0-16.0,55328,List1B,white,man,,TRUE,7,,,,,
null,CORRECT,,html-keyboard-response,15,255430,0.0-3.0-17.0-0.0,55328,List1B,white,man,,,,null,,,,
5329,"<img src=""portrait/WM1.jpg""style=""height:400px;""></img>",6,html-button-response,16,260761,0.0-3.0-19.0,55328,List1B,white,man,,TRUE,6,,,,,
null,CORRECT,,html-keyboard-response,17,262264,0.0-3.0-20.0-0.0,55328,List1B,white,man,,,,null,,,,
6561,"<img src=""portrait/BW2.jpg""style=""height:400px;""></img>",2,html-button-response,18,268827,0.0-3.0-22.0,55328,List1B,white,man,,TRUE,2,,,,,
null,CORRECT,,html-keyboard-response,19,270336,0.0-3.0-23.0-0.0,55328,List1B,white,man,,,,null,,,,
2109,<p>You got 8 out of 8 right first time. Press Continue.</p>,0,html-button-response,20,272447,0.0-3.0-25.0,55328,List1B,white,man,,,,,,,,
35240,"<p>In this experiment, you will view photographs of the people from the memory game interacting.</p><p>By using the <strong>exact</strong> phrase given <i>after</i> the photograph appears and recalling the correct names of the people in the photographs, form a sentence describing the interaction. You do not need to capitalise names.</p><p>Type your answer in the space provided. Please complete every sentence before moving onto the next trial.</p><p>You will only have a few seconds to memorise each given photograph and phrase before you can respond, so try your best to focus.</p><p>An example is given below. Press 'Continue' when you are ready.</p><img src='img/speaking_example.jpg' style='width:800px;height:460px;''></img>",0,html-button-response,21,308697,0.0-4.0,55328,List1B,white,man,,,,,,,,
2676,"<p>Before the experiment starts, you will watch two example trials. Press 'Continue'.</p>",0,html-button-response,22,312375,0.0-5.0,55328,List1B,white,man,,,,,,,,
null,<img src='img/meet_eg.gif' style='height:400px;''></img>,,html-keyboard-response,23,315384,0.0-6.0,55328,List1B,white,man,,,,null,,,,
null,<p>is meeting</p>,,html-keyboard-response,24,317388,0.0-7.0,55328,List1B,white,man,,,,null,,,,
8080,<p><b>Answer:</b> kate is meeting beth</p>,0,html-button-response,25,325469,0.0-8.0,55328,List1B,white,man,,,,,,,,
null,<img src='img/look_eg.gif' style='height:400px;''></img>,,html-keyboard-response,26,328472,0.0-9.0,55328,List1B,white,man,,,,null,,,,
null,<p>are looking at each other</p>,,html-keyboard-response,27,330473,0.0-10.0,55328,List1B,white,man,,,,null,,,,
5051,<p><b>Answer:</b> luke and dave are looking at each other</p>,0,html-button-response,28,335526,0.0-11.0,55328,List1B,white,man,,,,,,,,
11649,"<p>Ready to start the experiment?</p><br><p><strong>Remember to describe the picture using a full sentence,</strong></p><p><strong>that combines the names of the people with the <i>exact</i> phrase given.</strong></p><p><strong>To receive full payment you must do this correctly.</strong></p><p><strong> You do not need to capitalise names or use punctuation.</strong></p><br><p>Press 'Continue' to begin.</p>",0,html-button-response,29,348181,0.0-12.0,55328,List1B,white,man,,,,,,,,
null,"<div style=""font-size:60px;"">+</div>",,html-keyboard-response,30,349689,0.0-13.0-0.0,55328,List1B,white,man,,,,null,,,,
null,"<img src=""stim_listB/play8.gif""style=""height:400px;""></stim_listB>",,html-keyboard-response,31,351694,0.0-13.0-1.0,55328,List1B,white,man,,,,null,,,,
null,are playing with each other,,html-keyboard-response,32,353697,0.0-13.0-2.0,55328,List1B,white,man,,,,null,,,,
20960,,,survey-text,33,374660,0.0-13.0-3.0,55328,List1B,white,man,,,,,"{""Q0"":""Ruth and Beth are looking at each other""}","<img src=""stim_listB/play8.gif""style=""height:400px;""></stim_listB>",are playing with each other,
null,"<div style=""font-size:60px;"">+</div>",,html-keyboard-response,34,375163,0.0-13.0-0.1,55328,List1B,white,man,,,,null,,,,
null,"<img src=""stim_listB/dance4.gif""style=""height:400px;""></stim_listB>",,html-keyboard-response,35,378667,0.0-13.0-1.1,55328,List1B,white,man,,,,null,,,,
null,are dancing with each other,,html-keyboard-response,36,380669,0.0-13.0-2.1,55328,List1B,white,man,,,,null,,,,
30423,,,survey-text,37,411095,0.0-13.0-3.1,55328,List1B,white,man,,,,,"{""Q0"":""Dave is dancing with Ruth""}","<img src=""stim_listB/dance4.gif""style=""height:400px;""></stim_listB>",are dancing with each other,
null,"<div style=""font-size:60px;"">+</div>",,html-keyboard-response,38,411598,0.0-13.0-0.2,55328,List1B,white,man,,,,null,,,,
null,"<img src=""stim_listB/argue7.gif""style=""height:400px;""></stim_listB>",,html-keyboard-response,39,413601,0.0-13.0-1.2,55328,List1B,white,man,,,,null,,,,
null,is arguing with,,html-keyboard-response,40,415604,0.0-13.0-2.2,55328,List1B,white,man,,,,null,,,,
10602,,,survey-text,41,426208,0.0-13.0-3.2,55328,List1B,white,man,,,,,"{""Q0"":""Ruth is arguing with Kate""}","<img src=""stim_listB/argue7.gif""style=""height:400px;""></stim_listB>",is arguing with,
null,"<div style=""font-size:60px;"">+</div>",,html-keyboard-response,42,426710,0.0-13.0-0.3,55328,List1B,white,man,,,,null,,,,
null,"<img src=""stim_listB/dance8.gif""style=""height:400px;""></stim_listB>",,html-keyboard-response,43,428716,0.0-13.0-1.3,55328,List1B,white,man,,,,null,,,,
null,are dancing with each other,,html-keyboard-response,44,430721,0.0-13.0-2.3,55328,List1B,white,man,,,,null,,,,
13174,,,survey-text,45,443897,0.0-13.0-3.3,55328,List1B,white,man,,,,,"{""Q0"":""Kate and Ruth are dancing with each other""}","<img src=""stim_listB/dance8.gif""style=""height:400px;""></stim_listB>",are dancing with each other,
null,"<div style=""font-size:60px;"">+</div>",,html-keyboard-response,46,444401,0.0-13.0-0.4,55328,List1B,white,man,,,,null,,,,
null,"<img src=""stim_listB/shout1.gif""style=""height:400px;""></stim_listB>",,html-keyboard-response,47,446403,0.0-13.0-1.4,55328,List1B,white,man,,,,null,,,,
null,is shouting at,,html-keyboard-response,48,448407,0.0-13.0-2.4,55328,List1B,white,man,,,,null,,,,
12029,,,survey-text,49,460438,0.0-13.0-3.4,55328,List1B,white,man,,,,,"{""Q0"":""Fred is shouting at Beth""}","<img src=""stim_listB/shout1.gif""style=""height:400px;""></stim_listB>",is shouting at,
null,"<div style=""font-size:60px;"">+</div>",,html-keyboard-response,50,460940,0.0-13.0-0.5,55328,List1B,white,man,,,,null,,,,
null,"<img src=""stim_listB/talk2.gif""style=""height:400px;""></stim_listB>",,html-keyboard-response,51,462947,0.0-13.0-1.5,55328,List1B,white,man,,,,null,,,,
null,are talking to each other,,html-keyboard-response,52,464950,0.0-13.0-2.5,55328,List1B,white,man,,,,null,,,,
13117,,,survey-text,53,478069,0.0-13.0-3.5,55328,List1B,white,man,,,,,"{""Q0"":""Mike and Beth are talking to each other""}","<img src=""stim_listB/talk2.gif""style=""height:400px;""></stim_listB>",are talking to each other,
null,"<div style=""font-size:60px;"">+</div>",,html-keyboard-response,54,478571,0.0-13.0-0.6,55328,List1B,white,man,,,,null,,,,
null,"<img src=""stim_listB/kiss2.gif""style=""height:400px;""></stim_listB>",,html-keyboard-response,55,480573,0.0-13.0-1.6,55328,List1B,white,man,,,,null,,,,
null,are kissing each other,,html-keyboard-response,56,482574,0.0-13.0-2.6,55328,List1B,white,man,,,,null,,,,
12352,,,survey-text,57,494927,0.0-13.0-3.6,55328,List1B,white,man,,,,,"{""Q0"":""Mike and Kate are kissing each other""}","<img src=""stim_listB/kiss2.gif""style=""height:400px;""></stim_listB>",are kissing each other,
null,"<div style=""font-size:60px;"">+</div>",,html-keyboard-response,58,495429,0.0-13.0-0.7,55328,List1B,white,man,,,,null,,,,
null,"<img src=""stim_listB/shout2.gif""style=""height:400px;""></stim_listB>",,html-keyboard-response,59,497436,0.0-13.0-1.7,55328,List1B,white,man,,,,null,,,,
null,are shouting at each other,,html-keyboard-response,60,499437,0.0-13.0-2.7,55328,List1B,white,man,,,,null,,,,
10654,,,survey-text,61,510093,0.0-13.0-3.7,55328,List1B,white,man,,,,,"{""Q0"":""Mike and Kate are shouting at each other""}","<img src=""stim_listB/shout2.gif""style=""height:400px;""></stim_listB>",are shouting at each other,
null,"<div style=""font-size:60px;"">+</div>",,html-keyboard-response,62,510594,0.0-13.0-0.8,55328,List1B,white,man,,,,null,,,,
null,"<img src=""stim_listB/kiss5.gif""style=""height:400px;""></stim_listB>",,html-keyboard-response,63,512600,0.0-13.0-1.8,55328,List1B,white,man,,,,null,,,,
null,is kissing,,html-keyboard-response,64,514605,0.0-13.0-2.8,55328,List1B,white,man,,,,null,,,,
7360,,,survey-text,65,521967,0.0-13.0-3.8,55328,List1B,white,man,,,,,"{""Q0"":""Fred is kissing Luke""}","<img src=""stim_listB/kiss5.gif""style=""height:400px;""></stim_listB>",is kissing,
null,"<div style=""font-size:60px;"">+</div>",,html-keyboard-response,66,522472,0.0-13.0-0.9,55328,List1B,white,man,,,,null,,,,
null,"<img src=""stim_listB/touch1.gif""style=""height:400px;""></stim_listB>",,html-keyboard-response,67,524477,0.0-13.0-1.9,55328,List1B,white,man,,,,null,,,,
null,is touching,,html-keyboard-response,68,526478,0.0-13.0-2.9,55328,List1B,white,man,,,,null,,,,
11385,,,survey-text,69,537864,0.0-13.0-3.9,55328,List1B,white,man,,,,,"{""Q0"":""Kate is touching mike""}","<img src=""stim_listB/touch1.gif""style=""height:400px;""></stim_listB>",is touching,
null,"<div style=""font-size:60px;"">+</div>",,html-keyboard-response,70,538366,0.0-13.0-0.10,55328,List1B,white,man,,,,null,,,,
null,"<img src=""stim_listB/shout8.gif""style=""height:400px;""></stim_listB>",,html-keyboard-response,71,540368,0.0-13.0-1.10,55328,List1B,white,man,,,,null,,,,
null,are shouting at each other,,html-keyboard-response,72,542370,0.0-13.0-2.10,55328,List1B,white,man,,,,null,,,,
13199,,,survey-text,73,555571,0.0-13.0-3.10,55328,List1B,white,man,,,,,"{""Q0"":""Kate and jane are shouting at each other""}","<img src=""stim_listB/shout8.gif""style=""height:400px;""></stim_listB>",are shouting at each other,
null,"<div style=""font-size:60px;"">+</div>",,html-keyboard-response,74,556075,0.0-13.0-0.11,55328,List1B,white,man,,,,null,,,,
null,"<img src=""stim_listB/touch8.gif""style=""height:400px;""></stim_listB>",,html-keyboard-response,75,558080,0.0-13.0-1.11,55328,List1B,white,man,,,,null,,,,
null,are touching each other,,html-keyboard-response,76,560082,0.0-13.0-2.11,55328,List1B,white,man,,,,null,,,,
12158,,,survey-text,77,572242,0.0-13.0-3.11,55328,List1B,white,man,,,,,"{""Q0"":""Ruth and Beth are touching each other""}","<img src=""stim_listB/touch8.gif""style=""height:400px;""></stim_listB>",are touching each other,
null,"<div style=""font-size:60px;"">+</div>",,html-keyboard-response,78,572743,0.0-13.0-0.12,55328,List1B,white,man,,,,null,,,,
null,"<img src=""stim_listB/fight3.gif""style=""height:400px;""></stim_listB>",,html-keyboard-response,79,574745,0.0-13.0-1.12,55328,List1B,white,man,,,,null,,,,
null,is fighting,,html-keyboard-response,80,576749,0.0-13.0-2.12,55328,List1B,white,man,,,,null,,,,
20222,,,survey-text,81,596973,0.0-13.0-3.12,55328,List1B,white,man,,,,,"{""Q0"":""Dave is fighting with jane""}","<img src=""stim_listB/fight3.gif""style=""height:400px;""></stim_listB>",is fighting,
null,"<div style=""font-size:60px;"">+</div>",,html-keyboard-response,82,597474,0.0-13.0-0.13,55328,List1B,white,man,,,,null,,,,
null,"<img src=""stim_listB/talk7.gif""style=""height:400px;""></stim_listB>",,html-keyboard-response,83,599477,0.0-13.0-1.13,55328,List1B,white,man,,,,null,,,,
null,is talking to,,html-keyboard-response,84,601481,0.0-13.0-2.13,55328,List1B,white,man,,,,null,,,,
13626,,,survey-text,85,615109,0.0-13.0-3.13,55328,List1B,white,man,,,,,"{""Q0"":""beth is talking to jane""}","<img src=""stim_listB/talk7.gif""style=""height:400px;""></stim_listB>",is talking to,
null,"<div style=""font-size:60px;"">+</div>",,html-keyboard-response,86,615610,0.0-13.0-0.14,55328,List1B,white,man,,,,null,,,,
null,"<img src=""stim_listB/argue1.gif""style=""height:400px;""></stim_listB>",,html-keyboard-response,87,617617,0.0-13.0-1.14,55328,List1B,white,man,,,,null,,,,
null,is arguing with,,html-keyboard-response,88,619619,0.0-13.0-2.14,55328,List1B,white,man,,,,null,,,,
9428,,,survey-text,89,629049,0.0-13.0-3.14,55328,List1B,white,man,,,,,"{""Q0"":""ruth is arguing with mike""}","<img src=""stim_listB/argue1.gif""style=""height:400px;""></stim_listB>",is arguing with,
null,"<div style=""font-size:60px;"">+</div>",,html-keyboard-response,90,629552,0.0-13.0-0.15,55328,List1B,white,man,,,,null,,,,
null,"<img src=""stim_listB/fight6.gif""style=""height:400px;""></stim_listB>",,html-keyboard-response,91,631555,0.0-13.0-1.15,55328,List1B,white,man,,,,null,,,,
null,are fighting each other,,html-keyboard-response,92,633557,0.0-13.0-2.15,55328,List1B,white,man,,,,null,,,,
20157,,,survey-text,93,653716,0.0-13.0-3.15,55328,List1B,white,man,,,,,"{""Q0"":""fred and luke are fighting each other""}","<img src=""stim_listB/fight6.gif""style=""height:400px;""></stim_listB>",are fighting each other,
null,"<div style=""font-size:60px;"">+</div>",,html-keyboard-response,94,654219,0.0-13.0-0.16,55328,List1B,white,man,,,,null,,,,
null,"<img src=""stim_listB/play6.gif""style=""height:400px;""></stim_listB>",,html-keyboard-response,95,656221,0.0-13.0-1.16,55328,List1B,white,man,,,,null,,,,
null,are playing with each other,,html-keyboard-response,96,658222,0.0-13.0-2.16,55328,List1B,white,man,,,,null,,,,
12357,,,survey-text,97,670581,0.0-13.0-3.16,55328,List1B,white,man,,,,,"{""Q0"":""luke and fred are playing with each other""}","<img src=""stim_listB/play6.gif""style=""height:400px;""></stim_listB>",are playing with each other,
null,"<div style=""font-size:60px;"">+</div>",,html-keyboard-response,98,671082,0.0-13.0-0.17,55328,List1B,white,man,,,,null,,,,
null,"<img src=""stim_listB/talk4.gif""style=""height:400px;""></stim_listB>",,html-keyboard-response,99,673084,0.0-13.0-1.17,55328,List1B,white,man,,,,null,,,,
null,are talking to each other,,html-keyboard-response,100,675085,0.0-13.0-2.17,55328,List1B,white,man,,,,null,,,,
15017,,,survey-text,101,690103,0.0-13.0-3.17,55328,List1B,white,man,,,,,"{""Q0"":""Dave and ruth are talking with each other""}","<img src=""stim_listB/talk4.gif""style=""height:400px;""></stim_listB>",are talking to each other,
null,"<div style=""font-size:60px;"">+</div>",,html-keyboard-response,102,690607,0.0-13.0-0.18,55328,List1B,white,man,,,,null,,,,
null,"<img src=""stim_listB/kiss4.gif""style=""height:400px;""></stim_listB>",,html-keyboard-response,103,692614,0.0-13.0-1.18,55328,List1B,white,man,,,,null,,,,
null,are kissing each other,,html-keyboard-response,104,694615,0.0-13.0-2.18,55328,List1B,white,man,,,,null,,,,
10318,,,survey-text,105,704934,0.0-13.0-3.18,55328,List1B,white,man,,,,,"{""Q0"":""dave and jane are kissing each other""}","<img src=""stim_listB/kiss4.gif""style=""height:400px;""></stim_listB>",are kissing each other,
null,"<div style=""font-size:60px;"">+</div>",,html-keyboard-response,106,705437,0.0-13.0-0.19,55328,List1B,white,man,,,,null,,,,
null,"<img src=""stim_listB/flirt6.gif""style=""height:400px;""></stim_listB>",,html-keyboard-response,107,707443,0.0-13.0-1.19,55328,List1B,white,man,,,,null,,,,
null,are flirting with each other,,html-keyboard-response,108,709444,0.0-13.0-2.19,55328,List1B,white,man,,,,null,,,,
14905,,,survey-text,109,724349,0.0-13.0-3.19,55328,List1B,white,man,,,,,"{""Q0"":""luke and mike are flirting with each other""}","<img src=""stim_listB/flirt6.gif""style=""height:400px;""></stim_listB>",are flirting with each other,
18134,"<img src='img/portrait_matrix_list1.jpg' style='width:900px;height:500px;''></img><p>If you have memorised all the portraits and names and are ready to start, press Continue.</p><p><strong>Please note: Your memory of these faces will be tested 4 times during this experiment.</strong></p>",0,html-button-response,110,742486,0.0-14.0-0.0,55328,List1B,white,man,,,,,,,,
3995,"<img src=""portrait/WM1.jpg""style=""height:400px;""></img>",6,html-button-response,111,747484,0.0-14.0-1.0,55328,List1B,white,man,,TRUE,6,,,,,
null,CORRECT,,html-keyboard-response,112,748994,0.0-14.0-2.0-0.0,55328,List1B,white,man,,,,null,,,,
1964,"<img src=""portrait/WM2.jpg""style=""height:400px;""></img>",7,html-button-response,113,750960,0.0-14.0-4.0,55328,List1B,white,man,,TRUE,7,,,,,
null,CORRECT,,html-keyboard-response,114,752470,0.0-14.0-5.0-0.0,55328,List1B,white,man,,,,null,,,,
8934,"<img src=""portrait/WW1.jpg""style=""height:400px;""></img>",1,html-button-response,115,761406,0.0-14.0-7.0,55328,List1B,white,man,,TRUE,1,,,,,
null,CORRECT,,html-keyboard-response,116,762915,0.0-14.0-8.0-0.0,55328,List1B,white,man,,,,null,,,,
2156,"<img src=""portrait/WW2.jpg""style=""height:400px;""></img>",3,html-button-response,117,765072,0.0-14.0-10.0,55328,List1B,white,man,,TRUE,3,,,,,
null,CORRECT,,html-keyboard-response,118,766577,0.0-14.0-11.0-0.0,55328,List1B,white,man,,,,null,,,,
2231,"<img src=""portrait/BM2.jpg""style=""height:400px;""></img>",5,html-button-response,119,768810,0.0-14.0-13.0,55328,List1B,white,man,,TRUE,5,,,,,
null,CORRECT,,html-keyboard-response,120,770316,0.0-14.0-14.0-0.0,55328,List1B,white,man,,,,null,,,,
3518,"<img src=""portrait/BM1.jpg""style=""height:400px;""></img>",4,html-button-response,121,773836,0.0-14.0-16.0,55328,List1B,white,man,,TRUE,4,,,,,
null,CORRECT,,html-keyboard-response,122,775348,0.0-14.0-17.0-0.0,55328,List1B,white,man,,,,null,,,,
3094,"<img src=""portrait/BW1.jpg""style=""height:400px;""></img>",0,html-button-response,123,778445,0.0-14.0-19.0,55328,List1B,white,man,,TRUE,0,,,,,
null,CORRECT,,html-keyboard-response,124,779957,0.0-14.0-20.0-0.0,55328,List1B,white,man,,,,null,,,,
2136,"<img src=""portrait/BW2.jpg""style=""height:400px;""></img>",2,html-button-response,125,782096,0.0-14.0-22.0,55328,List1B,white,man,,TRUE,2,,,,,
null,CORRECT,,html-keyboard-response,126,783604,0.0-14.0-23.0-0.0,55328,List1B,white,man,,,,null,,,,
1873,<p>You got 8 out of 8 right first time. Press Continue.</p>,0,html-button-response,127,785478,0.0-14.0-25.0,55328,List1B,white,man,,,,,,,,
null,"<div style=""font-size:60px;"">+</div>",,html-keyboard-response,128,786985,0.0-15.0-0.0,55328,List1B,white,man,,,,null,,,,
null,"<img src=""stim_listB/kiss7.gif""style=""height:400px;""></stim_listB>",,html-keyboard-response,129,788991,0.0-15.0-1.0,55328,List1B,white,man,,,,null,,,,
null,is kissing,,html-keyboard-response,130,790997,0.0-15.0-2.0,55328,List1B,white,man,,,,null,,,,
9126,,,survey-text,131,800124,0.0-15.0-3.0,55328,List1B,white,man,,,,,"{""Q0"":""ruth is kissing beth""}","<img src=""stim_listB/kiss7.gif""style=""height:400px;""></stim_listB>",is kissing,
null,"<div style=""font-size:60px;"">+</div>",,html-keyboard-response,132,800625,0.0-15.0-0.1,55328,List1B,white,man,,,,null,,,,
null,"<img src=""stim_listB/play4.gif""style=""height:400px;""></stim_listB>",,html-keyboard-response,133,802627,0.0-15.0-1.1,55328,List1B,white,man,,,,null,,,,
null,are playing with each other,,html-keyboard-response,134,804629,0.0-15.0-2.1,55328,List1B,white,man,,,,null,,,,
13539,,,survey-text,135,818170,0.0-15.0-3.1,55328,List1B,white,man,,,,,"{""Q0"":""luke and ruth are playing with each other""}","<img src=""stim_listB/play4.gif""style=""height:400px;""></stim_listB>",are playing with each other,
null,"<div style=""font-size:60px;"">+</div>",,html-keyboard-response,136,818672,0.0-15.0-0.2,55328,List1B,white,man,,,,null,,,,
null,"<img src=""stim_listB/talk3.gif""style=""height:400px;""></stim_listB>",,html-keyboard-response,137,820675,0.0-15.0-1.2,55328,List1B,white,man,,,,null,,,,
null,is talking to,,html-keyboard-response,138,822677,0.0-15.0-2.2,55328,List1B,white,man,,,,null,,,,
7550,,,survey-text,139,830227,0.0-15.0-3.2,55328,List1B,white,man,,,,,"{""Q0"":""luke is talking to jane""}","<img src=""stim_listB/talk3.gif""style=""height:400px;""></stim_listB>",is talking to,
null,"<div style=""font-size:60px;"">+</div>",,html-keyboard-response,140,830730,0.0-15.0-0.3,55328,List1B,white,man,,,,null,,,,
null,"<img src=""stim_listB/dance2.gif""style=""height:400px;""></stim_listB>",,html-keyboard-response,141,832732,0.0-15.0-1.3,55328,List1B,white,man,,,,null,,,,
null,are dancing with each other,,html-keyboard-response,142,834737,0.0-15.0-2.3,55328,List1B,white,man,,,,null,,,,
10899,,,survey-text,143,845638,0.0-15.0-3.3,55328,List1B,white,man,,,,,"{""Q0"":""mike and beth are dancing with each other""}","<img src=""stim_listB/dance2.gif""style=""height:400px;""></stim_listB>",are dancing with each other,
null,"<div style=""font-size:60px;"">+</div>",,html-keyboard-response,144,846141,0.0-15.0-0.4,55328,List1B,white,man,,,,null,,,,
null,"<img src=""stim_listB/touch6.gif""style=""height:400px;""></stim_listB>",,html-keyboard-response,145,848143,0.0-15.0-1.4,55328,List1B,white,man,,,,null,,,,
null,are touching each other,,html-keyboard-response,146,850145,0.0-15.0-2.4,55328,List1B,white,man,,,,null,,,,
10448,,,survey-text,147,860593,0.0-15.0-3.4,55328,List1B,white,man,,,,,"{""Q0"":""fred and luke are touching each other""}","<img src=""stim_listB/touch6.gif""style=""height:400px;""></stim_listB>",are touching each other,
null,"<div style=""font-size:60px;"">+</div>",,html-keyboard-response,148,861095,0.0-15.0-0.5,55328,List1B,white,man,,,,null,,,,
null,"<img src=""stim_listB/flirt4.gif""style=""height:400px;""></stim_listB>",,html-keyboard-response,149,863101,0.0-15.0-1.5,55328,List1B,white,man,,,,null,,,,
null,are flirting with each other,,html-keyboard-response,150,865106,0.0-15.0-2.5,55328,List1B,white,man,,,,null,,,,
11274,,,survey-text,151,876381,0.0-15.0-3.5,55328,List1B,white,man,,,,,"{""Q0"":""dave and ruth are flirting with each other""}","<img src=""stim_listB/flirt4.gif""style=""height:400px;""></stim_listB>",are flirting with each other,
null,"<div style=""font-size:60px;"">+</div>",,html-keyboard-response,152,876884,0.0-15.0-0.6,55328,List1B,white,man,,,,null,,,,
null,"<img src=""stim_listB/dance6.gif""style=""height:400px;""></stim_listB>",,html-keyboard-response,153,878887,0.0-15.0-1.6,55328,List1B,white,man,,,,null,,,,
null,are dancing with each other,,html-keyboard-response,154,880889,0.0-15.0-2.6,55328,List1B,white,man,,,,null,,,,
11198,,,survey-text,155,892088,0.0-15.0-3.6,55328,List1B,white,man,,,,,"{""Q0"":""mike and luke are dancing with each other""}","<img src=""stim_listB/dance6.gif""style=""height:400px;""></stim_listB>",are dancing with each other,
null,"<div style=""font-size:60px;"">+</div>",,html-keyboard-response,156,892590,0.0-15.0-0.7,55328,List1B,white,man,,,,null,,,,
null,"<img src=""stim_listB/dance5.gif""style=""height:400px;""></stim_listB>",,html-keyboard-response,157,894595,0.0-15.0-1.7,55328,List1B,white,man,,,,null,,,,
null,is dancing with,,html-keyboard-response,158,896596,0.0-15.0-2.7,55328,List1B,white,man,,,,null,,,,
7462,,,survey-text,159,904058,0.0-15.0-3.7,55328,List1B,white,man,,,,,"{""Q0"":""dave is dancing with fred""}","<img src=""stim_listB/dance5.gif""style=""height:400px;""></stim_listB>",is dancing with,
null,"<div style=""font-size:60px;"">+</div>",,html-keyboard-response,160,904561,0.0-15.0-0.8,55328,List1B,white,man,,,,null,,,,
null,"<img src=""stim_listB/argue4.gif""style=""height:400px;""></stim_listB>",,html-keyboard-response,161,906568,0.0-15.0-1.8,55328,List1B,white,man,,,,null,,,,
null,are arguing with each other,,html-keyboard-response,162,908570,0.0-15.0-2.8,55328,List1B,white,man,,,,null,,,,
11064,,,survey-text,163,919636,0.0-15.0-3.8,55328,List1B,white,man,,,,,"{""Q0"":""luke and jane are arguing with each other""}","<img src=""stim_listB/argue4.gif""style=""height:400px;""></stim_listB>",are arguing with each other,
null,"<div style=""font-size:60px;"">+</div>",,html-keyboard-response,164,920139,0.0-15.0-0.9,55328,List1B,white,man,,,,null,,,,
null,"<img src=""stim_listB/marry4.gif""style=""height:400px;""></stim_listB>",,html-keyboard-response,165,922142,0.0-15.0-1.9,55328,List1B,white,man,,,,null,,,,
null,are marrying each other,,html-keyboard-response,166,924145,0.0-15.0-2.9,55328,List1B,white,man,,,,null,,,,
11910,,,survey-text,167,936056,0.0-15.0-3.9,55328,List1B,white,man,,,,,"{""Q0"":""luke and jane are marrying each other""}","<img src=""stim_listB/marry4.gif""style=""height:400px;""></stim_listB>",are marrying each other,
null,"<div style=""font-size:60px;"">+</div>",,html-keyboard-response,168,936559,0.0-15.0-0.10,55328,List1B,white,man,,,,null,,,,
null,"<img src=""stim_listB/marry5.gif""style=""height:400px;""></stim_listB>",,html-keyboard-response,169,938566,0.0-15.0-1.10,55328,List1B,white,man,,,,null,,,,
null,is marrying,,html-keyboard-response,170,940569,0.0-15.0-2.10,55328,List1B,white,man,,,,null,,,,
6594,,,survey-text,171,947163,0.0-15.0-3.10,55328,List1B,white,man,,,,,"{""Q0"":""luke is marrying mike""}","<img src=""stim_listB/marry5.gif""style=""height:400px;""></stim_listB>",is marrying,
null,"<div style=""font-size:60px;"">+</div>",,html-keyboard-response,172,947665,0.0-15.0-0.11,55328,List1B,white,man,,,,null,,,,
null,"<img src=""stim_listB/talk1.gif""style=""height:400px;""></stim_listB>",,html-keyboard-response,173,949671,0.0-15.0-1.11,55328,List1B,white,man,,,,null,,,,
null,is talking to,,html-keyboard-response,174,951672,0.0-15.0-2.11,55328,List1B,white,man,,,,null,,,,
7379,,,survey-text,175,959053,0.0-15.0-3.11,55328,List1B,white,man,,,,,"{""Q0"":""kate is talking to fred""}","<img src=""stim_listB/talk1.gif""style=""height:400px;""></stim_listB>",is talking to,
null,"<div style=""font-size:60px;"">+</div>",,html-keyboard-response,176,959558,0.0-15.0-0.12,55328,List1B,white,man,,,,null,,,,
null,"<img src=""stim_listB/shout7.gif""style=""height:400px;""></stim_listB>",,html-keyboard-response,177,961565,0.0-15.0-1.12,55328,List1B,white,man,,,,null,,,,
null,is shouting at,,html-keyboard-response,178,963570,0.0-15.0-2.12,55328,List1B,white,man,,,,null,,,,
8156,,,survey-text,179,971728,0.0-15.0-3.12,55328,List1B,white,man,,,,,"{""Q0"":""ruth is shouting at beth""}","<img src=""stim_listB/shout7.gif""style=""height:400px;""></stim_listB>",is shouting at,
null,"<div style=""font-size:60px;"">+</div>",,html-keyboard-response,180,972231,0.0-15.0-0.13,55328,List1B,white,man,,,,null,,,,
null,"<img src=""stim_listB/touch2.gif""style=""height:400px;""></stim_listB>",,html-keyboard-response,181,974233,0.0-15.0-1.13,55328,List1B,white,man,,,,null,,,,
null,are touching each other,,html-keyboard-response,182,976239,0.0-15.0-2.13,55328,List1B,white,man,,,,null,,,,
11976,,,survey-text,183,988217,0.0-15.0-3.13,55328,List1B,white,man,,,,,"{""Q0"":""fred and beth are touching each other""}","<img src=""stim_listB/touch2.gif""style=""height:400px;""></stim_listB>",are touching each other,
null,"<div style=""font-size:60px;"">+</div>",,html-keyboard-response,184,988718,0.0-15.0-0.14,55328,List1B,white,man,,,,null,,,,
null,"<img src=""stim_listB/argue5.gif""style=""height:400px;""></stim_listB>",,html-keyboard-response,185,990721,0.0-15.0-1.14,55328,List1B,white,man,,,,null,,,,
null,is arguing with,,html-keyboard-response,186,992726,0.0-15.0-2.14,55328,List1B,white,man,,,,null,,,,
7888,,,survey-text,187,1000617,0.0-15.0-3.14,55328,List1B,white,man,,,,,"{""Q0"":""mike is arguing with luke""}","<img src=""stim_listB/argue5.gif""style=""height:400px;""></stim_listB>",is arguing with,
null,"<div style=""font-size:60px;"">+</div>",,html-keyboard-response,188,1001119,0.0-15.0-0.15,55328,List1B,white,man,,,,null,,,,
null,"<img src=""stim_listB/flirt7.gif""style=""height:400px;""></stim_listB>",,html-keyboard-response,189,1003126,0.0-15.0-1.15,55328,List1B,white,man,,,,null,,,,
null,is flirting with,,html-keyboard-response,190,1005128,0.0-15.0-2.15,55328,List1B,white,man,,,,null,,,,
9216,,,survey-text,191,1014344,0.0-15.0-3.15,55328,List1B,white,man,,,,,"{""Q0"":""beth is flirting with jane""}","<img src=""stim_listB/flirt7.gif""style=""height:400px;""></stim_listB>",is flirting with,
null,"<div style=""font-size:60px;"">+</div>",,html-keyboard-response,192,1014846,0.0-15.0-0.16,55328,List1B,white,man,,,,null,,,,
null,"<img src=""stim_listB/fight8.gif""style=""height:400px;""></stim_listB>",,html-keyboard-response,193,1016851,0.0-15.0-1.16,55328,List1B,white,man,,,,null,,,,
null,are fighting each other,,html-keyboard-response,194,1018853,0.0-15.0-2.16,55328,List1B,white,man,,,,null,,,,
12700,,,survey-text,195,1031555,0.0-15.0-3.16,55328,List1B,white,man,,,,,"{""Q0"":""ruth and jane are fighting with each other""}","<img src=""stim_listB/fight8.gif""style=""height:400px;""></stim_listB>",are fighting each other,
null,"<div style=""font-size:60px;"">+</div>",,html-keyboard-response,196,1032058,0.0-15.0-0.17,55328,List1B,white,man,,,,null,,,,
null,"<img src=""stim_listB/marry1.gif""style=""height:400px;""></stim_listB>",,html-keyboard-response,197,1034061,0.0-15.0-1.17,55328,List1B,white,man,,,,null,,,,
null,is marrying,,html-keyboard-response,198,1036064,0.0-15.0-2.17,55328,List1B,white,man,,,,null,,,,
6483,,,survey-text,199,1042547,0.0-15.0-3.17,55328,List1B,white,man,,,,,"{""Q0"":""ruth is marrying mike""}","<img src=""stim_listB/marry1.gif""style=""height:400px;""></stim_listB>",is marrying,
null,"<div style=""font-size:60px;"">+</div>",,html-keyboard-response,200,1043050,0.0-15.0-0.18,55328,List1B,white,man,,,,null,,,,
null,"<img src=""stim_listB/argue3.gif""style=""height:400px;""></stim_listB>",,html-keyboard-response,201,1045057,0.0-15.0-1.18,55328,List1B,white,man,,,,null,,,,
null,is arguing with,,html-keyboard-response,202,1047062,0.0-15.0-2.18,55328,List1B,white,man,,,,null,,,,
26653,,,survey-text,203,1073717,0.0-15.0-3.18,55328,List1B,white,man,,,,,"{""Q0"":""Ruth is fighting with Luke""}","<img src=""stim_listB/argue3.gif""style=""height:400px;""></stim_listB>",is arguing with,
null,"<div style=""font-size:60px;"">+</div>",,html-keyboard-response,204,1074219,0.0-15.0-0.19,55328,List1B,white,man,,,,null,,,,
null,"<img src=""stim_listB/play7.gif""style=""height:400px;""></stim_listB>",,html-keyboard-response,205,1076220,0.0-15.0-1.19,55328,List1B,white,man,,,,null,,,,
null,is playing with,,html-keyboard-response,206,1078222,0.0-15.0-2.19,55328,List1B,white,man,,,,null,,,,
7919,,,survey-text,207,1086143,0.0-15.0-3.19,55328,List1B,white,man,,,,,"{""Q0"":""jane is playing with kate""}","<img src=""stim_listB/play7.gif""style=""height:400px;""></stim_listB>",is playing with,
3765,"<img src='img/portrait_matrix_list1.jpg' style='width:900px;height:500px;''></img><p>If you have memorised all the portraits and names and are ready to start, press Continue.</p><p><strong>Please note: Your memory of these faces will be tested 4 times during this experiment.</strong></p>",0,html-button-response,208,1089910,0.0-16.0-0.0,55328,List1B,white,man,,,,,,,,
2006,"<img src=""portrait/WM1.jpg""style=""height:400px;""></img>",6,html-button-response,209,1092920,0.0-16.0-1.0,55328,List1B,white,man,,TRUE,6,,,,,
null,CORRECT,,html-keyboard-response,210,1094427,0.0-16.0-2.0-0.0,55328,List1B,white,man,,,,null,,,,
1838,"<img src=""portrait/WM2.jpg""style=""height:400px;""></img>",7,html-button-response,211,1096268,0.0-16.0-4.0,55328,List1B,white,man,,TRUE,7,,,,,
null,CORRECT,,html-keyboard-response,212,1097775,0.0-16.0-5.0-0.0,55328,List1B,white,man,,,,null,,,,
2979,"<img src=""portrait/BW1.jpg""style=""height:400px;""></img>",0,html-button-response,213,1100756,0.0-16.0-7.0,55328,List1B,white,man,,TRUE,0,,,,,
null,CORRECT,,html-keyboard-response,214,1102268,0.0-16.0-8.0-0.0,55328,List1B,white,man,,,,null,,,,
2093,"<img src=""portrait/WW2.jpg""style=""height:400px;""></img>",3,html-button-response,215,1104364,0.0-16.0-10.0,55328,List1B,white,man,,TRUE,3,,,,,
null,CORRECT,,html-keyboard-response,216,1105871,0.0-16.0-11.0-0.0,55328,List1B,white,man,,,,null,,,,
2805,"<img src=""portrait/BM2.jpg""style=""height:400px;""></img>",5,html-button-response,217,1108679,0.0-16.0-13.0,55328,List1B,white,man,,TRUE,5,,,,,
null,CORRECT,,html-keyboard-response,218,1110188,0.0-16.0-14.0-0.0,55328,List1B,white,man,,,,null,,,,
2394,"<img src=""portrait/BM1.jpg""style=""height:400px;""></img>",4,html-button-response,219,1112585,0.0-16.0-16.0,55328,List1B,white,man,,TRUE,4,,,,,
null,CORRECT,,html-keyboard-response,220,1114096,0.0-16.0-17.0-0.0,55328,List1B,white,man,,,,null,,,,
2372,"<img src=""portrait/WW1.jpg""style=""height:400px;""></img>",0,html-button-response,221,1116470,0.0-16.0-19.0,55328,List1B,white,man,,TRUE,1,,,,,
6004,"<img src=""portrait/WW1.jpg""style=""height:400px;""></img>",1,html-button-response,222,1123483,0.0-16.0-21.0-0.0,55328,List1B,white,man,,FALSE,1,,,,,
null,CORRECT,,html-keyboard-response,223,1124995,0.0-16.0-21.0-1.0-0.0,55328,List1B,white,man,,,,null,,,,
2061,"<img src=""portrait/BW2.jpg""style=""height:400px;""></img>",2,html-button-response,224,1127059,0.0-16.0-22.0,55328,List1B,white,man,,TRUE,2,,,,,
null,CORRECT,,html-keyboard-response,225,1128570,0.0-16.0-23.0-0.0,55328,List1B,white,man,,,,null,,,,
1847,<p>You got 7 out of 8 right first time. Press Continue.</p>,0,html-button-response,226,1130419,0.0-16.0-25.0,55328,List1B,white,man,,,,,,,,
4671,"As you did not score 100%, the memory game will repeat. Press Continue.",0,html-button-response,227,1136097,0.0-16.0-26.0-0.0,55328,List1B,white,man,,,,,,,,
4438,"<img src='img/portrait_matrix_list1.jpg' style='width:900px;height:500px;''></img><p>If you have memorised all the portraits and names and are ready to start, press Continue.</p><p><strong>Please note: Your memory of these faces will be tested 4 times during this experiment.</strong></p>",0,html-button-response,228,1141541,0.0-16.1-0.1,55328,List1B,white,man,,,,,,,,
2999,"<img src=""portrait/WM1.jpg""style=""height:400px;""></img>",6,html-button-response,229,1145543,0.0-16.1-1.1,55328,List1B,white,man,,TRUE,6,,,,,
null,CORRECT,,html-keyboard-response,230,1147047,0.0-16.1-2.1-0.1,55328,List1B,white,man,,,,null,,,,
1508,"<img src=""portrait/WM2.jpg""style=""height:400px;""></img>",7,html-button-response,231,1148558,0.0-16.1-4.1,55328,List1B,white,man,,TRUE,7,,,,,
null,CORRECT,,html-keyboard-response,232,1150062,0.0-16.1-5.1-0.1,55328,List1B,white,man,,,,null,,,,
1454,"<img src=""portrait/BW1.jpg""style=""height:400px;""></img>",0,html-button-response,233,1151519,0.0-16.1-7.1,55328,List1B,white,man,,TRUE,0,,,,,
null,CORRECT,,html-keyboard-response,234,1153024,0.0-16.1-8.1-0.1,55328,List1B,white,man,,,,null,,,,
1438,"<img src=""portrait/WW2.jpg""style=""height:400px;""></img>",3,html-button-response,235,1154465,0.0-16.1-10.1,55328,List1B,white,man,,TRUE,3,,,,,
null,CORRECT,,html-keyboard-response,236,1155975,0.0-16.1-11.1-0.1,55328,List1B,white,man,,,,null,,,,
1983,"<img src=""portrait/BM2.jpg""style=""height:400px;""></img>",5,html-button-response,237,1157961,0.0-16.1-13.1,55328,List1B,white,man,,TRUE,5,,,,,
null,CORRECT,,html-keyboard-response,238,1159474,0.0-16.1-14.1-0.1,55328,List1B,white,man,,,,null,,,,
1152,"<img src=""portrait/BM1.jpg""style=""height:400px;""></img>",4,html-button-response,239,1160629,0.0-16.1-16.1,55328,List1B,white,man,,TRUE,4,,,,,
null,CORRECT,,html-keyboard-response,240,1162140,0.0-16.1-17.1-0.1,55328,List1B,white,man,,,,null,,,,
2191,"<img src=""portrait/WW1.jpg""style=""height:400px;""></img>",1,html-button-response,241,1164333,0.0-16.1-19.1,55328,List1B,white,man,,TRUE,1,,,,,
null,CORRECT,,html-keyboard-response,242,1165843,0.0-16.1-20.1-0.1,55328,List1B,white,man,,,,null,,,,
1272,"<img src=""portrait/BW2.jpg""style=""height:400px;""></img>",2,html-button-response,243,1167117,0.0-16.1-22.1,55328,List1B,white,man,,TRUE,2,,,,,
null,CORRECT,,html-keyboard-response,244,1168624,0.0-16.1-23.1-0.1,55328,List1B,white,man,,,,null,,,,
1709,<p>You got 8 out of 8 right first time. Press Continue.</p>,0,html-button-response,245,1170335,0.0-16.1-25.1,55328,List1B,white,man,,,,,,,,
null,"<div style=""font-size:60px;"">+</div>",,html-keyboard-response,246,1171840,0.0-17.0-0.0,55328,List1B,white,man,,,,null,,,,
null,"<img src=""stim_listB/talk6.gif""style=""height:400px;""></stim_listB>",,html-keyboard-response,247,1173847,0.0-17.0-1.0,55328,List1B,white,man,,,,null,,,,
null,are talking to each other,,html-keyboard-response,248,1175852,0.0-17.0-2.0,55328,List1B,white,man,,,,null,,,,
10793,,,survey-text,249,1186647,0.0-17.0-3.0,55328,List1B,white,man,,,,,"{""Q0"":""luke and mike are talking to each other""}","<img src=""stim_listB/talk6.gif""style=""height:400px;""></stim_listB>",are talking to each other,
null,"<div style=""font-size:60px;"">+</div>",,html-keyboard-response,250,1187150,0.0-17.0-0.1,55328,List1B,white,man,,,,null,,,,
null,"<img src=""stim_listB/fight7.gif""style=""height:400px;""></stim_listB>",,html-keyboard-response,251,1189153,0.0-17.0-1.1,55328,List1B,white,man,,,,null,,,,
null,is fighting,,html-keyboard-response,252,1191154,0.0-17.0-2.1,55328,List1B,white,man,,,,null,,,,
16058,,,survey-text,253,1207214,0.0-17.0-3.1,55328,List1B,white,man,,,,,"{""Q0"":""kate is fighting jane""}","<img src=""stim_listB/fight7.gif""style=""height:400px;""></stim_listB>",is fighting,
null,"<div style=""font-size:60px;"">+</div>",,html-keyboard-response,254,1207717,0.0-17.0-0.2,55328,List1B,white,man,,,,null,,,,
null,"<img src=""stim_listB/play1.gif""style=""height:400px;""></stim_listB>",,html-keyboard-response,255,1209720,0.0-17.0-1.2,55328,List1B,white,man,,,,null,,,,
null,is playing with,,html-keyboard-response,256,1211722,0.0-17.0-2.2,55328,List1B,white,man,,,,null,,,,
7259,,,survey-text,257,1218982,0.0-17.0-3.2,55328,List1B,white,man,,,,,"{""Q0"":""kate is playing with mike""}","<img src=""stim_listB/play1.gif""style=""height:400px;""></stim_listB>",is playing with,
null,"<div style=""font-size:60px;"">+</div>",,html-keyboard-response,258,1219484,0.0-17.0-0.3,55328,List1B,white,man,,,,null,,,,
null,"<img src=""stim_listB/marry8.gif""style=""height:400px;""></stim_listB>",,html-keyboard-response,259,1221491,0.0-17.0-1.3,55328,List1B,white,man,,,,null,,,,
null,are marrying each other,,html-keyboard-response,260,1223493,0.0-17.0-2.3,55328,List1B,white,man,,,,null,,,,
8643,,,survey-text,261,1232138,0.0-17.0-3.3,55328,List1B,white,man,,,,,"{""Q0"":""beth is marrying jane""}","<img src=""stim_listB/marry8.gif""style=""height:400px;""></stim_listB>",are marrying each other,
null,"<div style=""font-size:60px;"">+</div>",,html-keyboard-response,262,1232640,0.0-17.0-0.4,55328,List1B,white,man,,,,null,,,,
null,"<img src=""stim_listB/dance7.gif""style=""height:400px;""></stim_listB>",,html-keyboard-response,263,1234643,0.0-17.0-1.4,55328,List1B,white,man,,,,null,,,,
null,is dancing with,,html-keyboard-response,264,1236648,0.0-17.0-2.4,55328,List1B,white,man,,,,null,,,,
8124,,,survey-text,265,1244774,0.0-17.0-3.4,55328,List1B,white,man,,,,,"{""Q0"":""beth is dancing with jane""}","<img src=""stim_listB/dance7.gif""style=""height:400px;""></stim_listB>",is dancing with,
null,"<div style=""font-size:60px;"">+</div>",,html-keyboard-response,266,1245276,0.0-17.0-0.5,55328,List1B,white,man,,,,null,,,,
null,"<img src=""stim_listB/dance1.gif""style=""height:400px;""></stim_listB>",,html-keyboard-response,267,1247278,0.0-17.0-1.5,55328,List1B,white,man,,,,null,,,,
null,is dancing with,,html-keyboard-response,268,1249279,0.0-17.0-2.5,55328,List1B,white,man,,,,null,,,,
9239,,,survey-text,269,1258520,0.0-17.0-3.5,55328,List1B,white,man,,,,,"{""Q0"":""kate is dancing with fred""}","<img src=""stim_listB/dance1.gif""style=""height:400px;""></stim_listB>",is dancing with,
null,"<div style=""font-size:60px;"">+</div>",,html-keyboard-response,270,1259022,0.0-17.0-0.6,55328,List1B,white,man,,,,null,,,,
null,"<img src=""stim_listB/flirt1.gif""style=""height:400px;""></stim_listB>",,html-keyboard-response,271,1261027,0.0-17.0-1.6,55328,List1B,white,man,,,,null,,,,
null,is flirting with,,html-keyboard-response,272,1263029,0.0-17.0-2.6,55328,List1B,white,man,,,,null,,,,
8216,,,survey-text,273,1271246,0.0-17.0-3.6,55328,List1B,white,man,,,,,"{""Q0"":""kate is flirting with fred""}","<img src=""stim_listB/flirt1.gif""style=""height:400px;""></stim_listB>",is flirting with,
null,"<div style=""font-size:60px;"">+</div>",,html-keyboard-response,274,1271749,0.0-17.0-0.7,55328,List1B,white,man,,,,null,,,,
null,"<img src=""stim_listB/dance3.gif""style=""height:400px;""></stim_listB>",,html-keyboard-response,275,1273755,0.0-17.0-1.7,55328,List1B,white,man,,,,null,,,,
null,is dancing with,,html-keyboard-response,276,1275757,0.0-17.0-2.7,55328,List1B,white,man,,,,null,,,,
7338,,,survey-text,277,1283097,0.0-17.0-3.7,55328,List1B,white,man,,,,,"{""Q0"":""jane is dancing with luke""}","<img src=""stim_listB/dance3.gif""style=""height:400px;""></stim_listB>",is dancing with,
null,"<div style=""font-size:60px;"">+</div>",,html-keyboard-response,278,1283600,0.0-17.0-0.8,55328,List1B,white,man,,,,null,,,,
null,"<img src=""stim_listB/touch7.gif""style=""height:400px;""></stim_listB>",,html-keyboard-response,279,1285603,0.0-17.0-1.8,55328,List1B,white,man,,,,null,,,,
null,is touching,,html-keyboard-response,280,1287605,0.0-17.0-2.8,55328,List1B,white,man,,,,null,,,,
6955,,,survey-text,281,1294562,0.0-17.0-3.8,55328,List1B,white,man,,,,,"{""Q0"":""jane is touching kate""}","<img src=""stim_listB/touch7.gif""style=""height:400px;""></stim_listB>",is touching,
null,"<div style=""font-size:60px;"">+</div>",,html-keyboard-response,282,1295065,0.0-17.0-0.9,55328,List1B,white,man,,,,null,,,,
null,"<img src=""stim_listB/marry7.gif""style=""height:400px;""></stim_listB>",,html-keyboard-response,283,1297068,0.0-17.0-1.9,55328,List1B,white,man,,,,null,,,,
null,is marrying,,html-keyboard-response,284,1299069,0.0-17.0-2.9,55328,List1B,white,man,,,,null,,,,
6738,,,survey-text,285,1305809,0.0-17.0-3.9,55328,List1B,white,man,,,,,"{""Q0"":""ruth is marrying kate""}","<img src=""stim_listB/marry7.gif""style=""height:400px;""></stim_listB>",is marrying,
null,"<div style=""font-size:60px;"">+</div>",,html-keyboard-response,286,1306311,0.0-17.0-0.10,55328,List1B,white,man,,,,null,,,,
null,"<img src=""stim_listB/marry6.gif""style=""height:400px;""></stim_listB>",,html-keyboard-response,287,1308313,0.0-17.0-1.10,55328,List1B,white,man,,,,null,,,,
null,are marrying each other,,html-keyboard-response,288,1310318,0.0-17.0-2.10,55328,List1B,white,man,,,,null,,,,
10958,,,survey-text,289,1321278,0.0-17.0-3.10,55328,List1B,white,man,,,,,"{""Q0"":""fred and dave are marrying each other""}","<img src=""stim_listB/marry6.gif""style=""height:400px;""></stim_listB>",are marrying each other,
null,"<div style=""font-size:60px;"">+</div>",,html-keyboard-response,290,1321779,0.0-17.0-0.11,55328,List1B,white,man,,,,null,,,,
null,"<img src=""stim_listB/argue6.gif""style=""height:400px;""></stim_listB>",,html-keyboard-response,291,1323781,0.0-17.0-1.11,55328,List1B,white,man,,,,null,,,,
null,are arguing with each other,,html-keyboard-response,292,1325786,0.0-17.0-2.11,55328,List1B,white,man,,,,null,,,,
10720,,,survey-text,293,1336508,0.0-17.0-3.11,55328,List1B,white,man,,,,,"{""Q0"":""fred and dave are arguing with each other""}","<img src=""stim_listB/argue6.gif""style=""height:400px;""></stim_listB>",are arguing with each other,
null,"<div style=""font-size:60px;"">+</div>",,html-keyboard-response,294,1337011,0.0-17.0-0.12,55328,List1B,white,man,,,,null,,,,
null,"<img src=""stim_listB/shout3.gif""style=""height:400px;""></stim_listB>",,html-keyboard-response,295,1339018,0.0-17.0-1.12,55328,List1B,white,man,,,,null,,,,
null,is shouting at,,html-keyboard-response,296,1341019,0.0-17.0-2.12,55328,List1B,white,man,,,,null,,,,
7316,,,survey-text,297,1348338,0.0-17.0-3.12,55328,List1B,white,man,,,,,"{""Q0"":""ruth is shouting at luke""}","<img src=""stim_listB/shout3.gif""style=""height:400px;""></stim_listB>",is shouting at,
null,"<div style=""font-size:60px;"">+</div>",,html-keyboard-response,298,1348841,0.0-17.0-0.13,55328,List1B,white,man,,,,null,,,,
null,"<img src=""stim_listB/shout4.gif""style=""height:400px;""></stim_listB>",,html-keyboard-response,299,1350847,0.0-17.0-1.13,55328,List1B,white,man,,,,null,,,,
null,are shouting at each other,,html-keyboard-response,300,1352851,0.0-17.0-2.13,55328,List1B,white,man,,,,null,,,,
11357,,,survey-text,301,1364210,0.0-17.0-3.13,55328,List1B,white,man,,,,,"{""Q0"":""dave and jane are shouting at each other""}","<img src=""stim_listB/shout4.gif""style=""height:400px;""></stim_listB>",are shouting at each other,
null,"<div style=""font-size:60px;"">+</div>",,html-keyboard-response,302,1364713,0.0-17.0-0.14,55328,List1B,white,man,,,,null,,,,
null,"<img src=""stim_listB/argue8.gif""style=""height:400px;""></stim_listB>",,html-keyboard-response,303,1366716,0.0-17.0-1.14,55328,List1B,white,man,,,,null,,,,
null,are arguing with each other,,html-keyboard-response,304,1368717,0.0-17.0-2.14,55328,List1B,white,man,,,,null,,,,
14641,,,survey-text,305,1383359,0.0-17.0-3.14,55328,List1B,white,man,,,,,"{""Q0"":""beth and jane are arguing with each other""}","<img src=""stim_listB/argue8.gif""style=""height:400px;""></stim_listB>",are arguing with each other,
null,"<div style=""font-size:60px;"">+</div>",,html-keyboard-response,306,1383861,0.0-17.0-0.15,55328,List1B,white,man,,,,null,,,,
null,"<img src=""stim_listB/flirt8.gif""style=""height:400px;""></stim_listB>",,html-keyboard-response,307,1385863,0.0-17.0-1.15,55328,List1B,white,man,,,,null,,,,
null,are flirting with each other,,html-keyboard-response,308,1387864,0.0-17.0-2.15,55328,List1B,white,man,,,,null,,,,
11452,,,survey-text,309,1399318,0.0-17.0-3.15,55328,List1B,white,man,,,,,"{""Q0"":""ruth and kate are flirting with each other""}","<img src=""stim_listB/flirt8.gif""style=""height:400px;""></stim_listB>",are flirting with each other,
null,"<div style=""font-size:60px;"">+</div>",,html-keyboard-response,310,1399821,0.0-17.0-0.16,55328,List1B,white,man,,,,null,,,,
null,"<img src=""stim_listB/talk8.gif""style=""height:400px;""></stim_listB>",,html-keyboard-response,311,1401825,0.0-17.0-1.16,55328,List1B,white,man,,,,null,,,,
null,are talking to each other,,html-keyboard-response,312,1403827,0.0-17.0-2.16,55328,List1B,white,man,,,,null,,,,
13141,,,survey-text,313,1416969,0.0-17.0-3.16,55328,List1B,white,man,,,,,"{""Q0"":""ruth and kate are talking to each other""}","<img src=""stim_listB/talk8.gif""style=""height:400px;""></stim_listB>",are talking to each other,
null,"<div style=""font-size:60px;"">+</div>",,html-keyboard-response,314,1417472,0.0-17.0-0.17,55328,List1B,white,man,,,,null,,,,
null,"<img src=""stim_listB/touch3.gif""style=""height:400px;""></stim_listB>",,html-keyboard-response,315,1419475,0.0-17.0-1.17,55328,List1B,white,man,,,,null,,,,
null,is touching,,html-keyboard-response,316,1421476,0.0-17.0-2.17,55328,List1B,white,man,,,,null,,,,
7243,,,survey-text,317,1428720,0.0-17.0-3.17,55328,List1B,white,man,,,,,"{""Q0"":""jane is touching dave""}","<img src=""stim_listB/touch3.gif""style=""height:400px;""></stim_listB>",is touching,
null,"<div style=""font-size:60px;"">+</div>",,html-keyboard-response,318,1429223,0.0-17.0-0.18,55328,List1B,white,man,,,,null,,,,
null,"<img src=""stim_listB/touch5.gif""style=""height:400px;""></stim_listB>",,html-keyboard-response,319,1431227,0.0-17.0-1.18,55328,List1B,white,man,,,,null,,,,
null,is touching,,html-keyboard-response,320,1433229,0.0-17.0-2.18,55328,List1B,white,man,,,,null,,,,
6487,,,survey-text,321,1439718,0.0-17.0-3.18,55328,List1B,white,man,,,,,"{""Q0"":""dave is touching mike""}","<img src=""stim_listB/touch5.gif""style=""height:400px;""></stim_listB>",is touching,
null,"<div style=""font-size:60px;"">+</div>",,html-keyboard-response,322,1440221,0.0-17.0-0.19,55328,List1B,white,man,,,,null,,,,
null,"<img src=""stim_listB/play2.gif""style=""height:400px;""></stim_listB>",,html-keyboard-response,323,1442222,0.0-17.0-1.19,55328,List1B,white,man,,,,null,,,,
null,are playing with each other,,html-keyboard-response,324,1444224,0.0-17.0-2.19,55328,List1B,white,man,,,,null,,,,
10109,,,survey-text,325,1454334,0.0-17.0-3.19,55328,List1B,white,man,,,,,"{""Q0"":""fred and beth are playing with each other""}","<img src=""stim_listB/play2.gif""style=""height:400px;""></stim_listB>",are playing with each other,
2483,"<img src='img/portrait_matrix_list1.jpg' style='width:900px;height:500px;''></img><p>If you have memorised all the portraits and names and are ready to start, press Continue.</p><p><strong>Please note: Your memory of these faces will be tested 4 times during this experiment.</strong></p>",0,html-button-response,326,1456820,0.0-18.0-0.0,55328,List1B,white,man,,,,,,,,
2252,"<img src=""portrait/WM2.jpg""style=""height:400px;""></img>",7,html-button-response,327,1460080,0.0-18.0-1.0,55328,List1B,white,man,,TRUE,7,,,,,
null,CORRECT,,html-keyboard-response,328,1461589,0.0-18.0-2.0-0.0,55328,List1B,white,man,,,,null,,,,
1839,"<img src=""portrait/WW2.jpg""style=""height:400px;""></img>",3,html-button-response,329,1463429,0.0-18.0-4.0,55328,List1B,white,man,,TRUE,3,,,,,
null,CORRECT,,html-keyboard-response,330,1464942,0.0-18.0-5.0-0.0,55328,List1B,white,man,,,,null,,,,
2924,"<img src=""portrait/BW2.jpg""style=""height:400px;""></img>",2,html-button-response,331,1467868,0.0-18.0-7.0,55328,List1B,white,man,,TRUE,2,,,,,
null,CORRECT,,html-keyboard-response,332,1469380,0.0-18.0-8.0-0.0,55328,List1B,white,man,,,,null,,,,
2571,"<img src=""portrait/BM1.jpg""style=""height:400px;""></img>",4,html-button-response,333,1471954,0.0-18.0-10.0,55328,List1B,white,man,,TRUE,4,,,,,
null,CORRECT,,html-keyboard-response,334,1473458,0.0-18.0-11.0-0.0,55328,List1B,white,man,,,,null,,,,
3494,"<img src=""portrait/WW1.jpg""style=""height:400px;""></img>",1,html-button-response,335,1476957,0.0-18.0-13.0,55328,List1B,white,man,,TRUE,1,,,,,
null,CORRECT,,html-keyboard-response,336,1478465,0.0-18.0-14.0-0.0,55328,List1B,white,man,,,,null,,,,
1743,"<img src=""portrait/BW1.jpg""style=""height:400px;""></img>",0,html-button-response,337,1480209,0.0-18.0-16.0,55328,List1B,white,man,,TRUE,0,,,,,
null,CORRECT,,html-keyboard-response,338,1481722,0.0-18.0-17.0-0.0,55328,List1B,white,man,,,,null,,,,
2629,"<img src=""portrait/BM2.jpg""style=""height:400px;""></img>",5,html-button-response,339,1484353,0.0-18.0-19.0,55328,List1B,white,man,,TRUE,5,,,,,
null,CORRECT,,html-keyboard-response,340,1485866,0.0-18.0-20.0-0.0,55328,List1B,white,man,,,,null,,,,
3026,"<img src=""portrait/WM1.jpg""style=""height:400px;""></img>",6,html-button-response,341,1488895,0.0-18.0-22.0,55328,List1B,white,man,,TRUE,6,,,,,
null,CORRECT,,html-keyboard-response,342,1490404,0.0-18.0-23.0-0.0,55328,List1B,white,man,,,,null,,,,
1524,<p>You got 8 out of 8 right first time. Press Continue.</p>,0,html-button-response,343,1491931,0.0-18.0-25.0,55328,List1B,white,man,,,,,,,,
null,"<div style=""font-size:60px;"">+</div>",,html-keyboard-response,344,1493440,0.0-19.0-0.0,55328,List1B,white,man,,,,null,,,,
null,"<img src=""stim_listB/kiss8.gif""style=""height:400px;""></stim_listB>",,html-keyboard-response,345,1495443,0.0-19.0-1.0,55328,List1B,white,man,,,,null,,,,
null,are kissing each other,,html-keyboard-response,346,1497448,0.0-19.0-2.0,55328,List1B,white,man,,,,null,,,,
11231,,,survey-text,347,1508681,0.0-19.0-3.0,55328,List1B,white,man,,,,,"{""Q0"":""kate and jane are kissing each other""}","<img src=""stim_listB/kiss8.gif""style=""height:400px;""></stim_listB>",are kissing each other,
null,"<div style=""font-size:60px;"">+</div>",,html-keyboard-response,348,1509184,0.0-19.0-0.1,55328,List1B,white,man,,,,null,,,,
null,"<img src=""stim_listB/marry3.gif""style=""height:400px;""></stim_listB>",,html-keyboard-response,349,1511187,0.0-19.0-1.1,55328,List1B,white,man,,,,null,,,,
null,is marrying,,html-keyboard-response,350,1513191,0.0-19.0-2.1,55328,List1B,white,man,,,,null,,,,
6559,,,survey-text,351,1519753,0.0-19.0-3.1,55328,List1B,white,man,,,,,"{""Q0"":""ruth is marrying dave""}","<img src=""stim_listB/marry3.gif""style=""height:400px;""></stim_listB>",is marrying,
null,"<div style=""font-size:60px;"">+</div>",,html-keyboard-response,352,1520254,0.0-19.0-0.2,55328,List1B,white,man,,,,null,,,,
null,"<img src=""stim_listB/fight2.gif""style=""height:400px;""></stim_listB>",,html-keyboard-response,353,1522258,0.0-19.0-1.2,55328,List1B,white,man,,,,null,,,,
null,are fighting each other,,html-keyboard-response,354,1524263,0.0-19.0-2.2,55328,List1B,white,man,,,,null,,,,
15493,,,survey-text,355,1539758,0.0-19.0-3.2,55328,List1B,white,man,,,,,"{""Q0"":""fred and beth are fighting with each other""}","<img src=""stim_listB/fight2.gif""style=""height:400px;""></stim_listB>",are fighting each other,
null,"<div style=""font-size:60px;"">+</div>",,html-keyboard-response,356,1540261,0.0-19.0-0.3,55328,List1B,white,man,,,,null,,,,
null,"<img src=""stim_listB/shout5.gif""style=""height:400px;""></stim_listB>",,html-keyboard-response,357,1542262,0.0-19.0-1.3,55328,List1B,white,man,,,,null,,,,
null,is shouting at,,html-keyboard-response,358,1544264,0.0-19.0-2.3,55328,List1B,white,man,,,,null,,,,
7365,,,survey-text,359,1551631,0.0-19.0-3.3,55328,List1B,white,man,,,,,"{""Q0"":""fred is shouting at luke""}","<img src=""stim_listB/shout5.gif""style=""height:400px;""></stim_listB>",is shouting at,
null,"<div style=""font-size:60px;"">+</div>",,html-keyboard-response,360,1552133,0.0-19.0-0.4,55328,List1B,white,man,,,,null,,,,
null,"<img src=""stim_listB/flirt2.gif""style=""height:400px;""></stim_listB>",,html-keyboard-response,361,1554137,0.0-19.0-1.4,55328,List1B,white,man,,,,null,,,,
null,are flirting with each other,,html-keyboard-response,362,1556142,0.0-19.0-2.4,55328,List1B,white,man,,,,null,,,,
12351,,,survey-text,363,1568495,0.0-19.0-3.4,55328,List1B,white,man,,,,,"{""Q0"":""mike and beth are flirting with each other""}","<img src=""stim_listB/flirt2.gif""style=""height:400px;""></stim_listB>",are flirting with each other,
null,"<div style=""font-size:60px;"">+</div>",,html-keyboard-response,364,1568997,0.0-19.0-0.5,55328,List1B,white,man,,,,null,,,,
null,"<img src=""stim_listB/kiss1.gif""style=""height:400px;""></stim_listB>",,html-keyboard-response,365,1571002,0.0-19.0-1.5,55328,List1B,white,man,,,,null,,,,
null,is kissing,,html-keyboard-response,366,1573003,0.0-19.0-2.5,55328,List1B,white,man,,,,null,,,,
6025,,,survey-text,367,1579029,0.0-19.0-3.5,55328,List1B,white,man,,,,,"{""Q0"":""beth is kissing fred""}","<img src=""stim_listB/kiss1.gif""style=""height:400px;""></stim_listB>",is kissing,
null,"<div style=""font-size:60px;"">+</div>",,html-keyboard-response,368,1579532,0.0-19.0-0.6,55328,List1B,white,man,,,,null,,,,
null,"<img src=""stim_listB/flirt5.gif""style=""height:400px;""></stim_listB>",,html-keyboard-response,369,1581538,0.0-19.0-1.6,55328,List1B,white,man,,,,null,,,,
null,is flirting with,,html-keyboard-response,370,1583540,0.0-19.0-2.6,55328,List1B,white,man,,,,null,,,,
8124,,,survey-text,371,1591666,0.0-19.0-3.6,55328,List1B,white,man,,,,,"{""Q0"":""fred is flirting with dave""}","<img src=""stim_listB/flirt5.gif""style=""height:400px;""></stim_listB>",is flirting with,
null,"<div style=""font-size:60px;"">+</div>",,html-keyboard-response,372,1592167,0.0-19.0-0.7,55328,List1B,white,man,,,,null,,,,
null,"<img src=""stim_listB/kiss3.gif""style=""height:400px;""></stim_listB>",,html-keyboard-response,373,1594173,0.0-19.0-1.7,55328,List1B,white,man,,,,null,,,,
null,is kissing,,html-keyboard-response,374,1596177,0.0-19.0-2.7,55328,List1B,white,man,,,,null,,,,
6784,,,survey-text,375,1602963,0.0-19.0-3.7,55328,List1B,white,man,,,,,"{""Q0"":""ruth is kissing luke""}","<img src=""stim_listB/kiss3.gif""style=""height:400px;""></stim_listB>",is kissing,
null,"<div style=""font-size:60px;"">+</div>",,html-keyboard-response,376,1603465,0.0-19.0-0.8,55328,List1B,white,man,,,,null,,,,
null,"<img src=""stim_listB/fight5.gif""style=""height:400px;""></stim_listB>",,html-keyboard-response,377,1605467,0.0-19.0-1.8,55328,List1B,white,man,,,,null,,,,
null,is fighting,,html-keyboard-response,378,1607471,0.0-19.0-2.8,55328,List1B,white,man,,,,null,,,,
6946,,,survey-text,379,1614419,0.0-19.0-3.8,55328,List1B,white,man,,,,,"{""Q0"":""mike is fighting dave""}","<img src=""stim_listB/fight5.gif""style=""height:400px;""></stim_listB>",is fighting,
null,"<div style=""font-size:60px;"">+</div>",,html-keyboard-response,380,1614921,0.0-19.0-0.9,55328,List1B,white,man,,,,null,,,,
null,"<img src=""stim_listB/fight4.gif""style=""height:400px;""></stim_listB>",,html-keyboard-response,381,1616924,0.0-19.0-1.9,55328,List1B,white,man,,,,null,,,,
null,are fighting each other,,html-keyboard-response,382,1618926,0.0-19.0-2.9,55328,List1B,white,man,,,,null,,,,
10769,,,survey-text,383,1629696,0.0-19.0-3.9,55328,List1B,white,man,,,,,"{""Q0"":""luke and ruth are fighting each other""}","<img src=""stim_listB/fight4.gif""style=""height:400px;""></stim_listB>",are fighting each other,
null,"<div style=""font-size:60px;"">+</div>",,html-keyboard-response,384,1630200,0.0-19.0-0.10,55328,List1B,white,man,,,,null,,,,
null,"<img src=""stim_listB/talk5.gif""style=""height:400px;""></stim_listB>",,html-keyboard-response,385,1632203,0.0-19.0-1.10,55328,List1B,white,man,,,,null,,,,
null,is talking to,,html-keyboard-response,386,1634207,0.0-19.0-2.10,55328,List1B,white,man,,,,null,,,,
6198,,,survey-text,387,1640406,0.0-19.0-3.10,55328,List1B,white,man,,,,,"{""Q0"":""fred is talking to dave""}","<img src=""stim_listB/talk5.gif""style=""height:400px;""></stim_listB>",is talking to,
null,"<div style=""font-size:60px;"">+</div>",,html-keyboard-response,388,1640909,0.0-19.0-0.11,55328,List1B,white,man,,,,null,,,,
null,"<img src=""stim_listB/play3.gif""style=""height:400px;""></stim_listB>",,html-keyboard-response,389,1642917,0.0-19.0-1.11,55328,List1B,white,man,,,,null,,,,
null,is playing with,,html-keyboard-response,390,1644918,0.0-19.0-2.11,55328,List1B,white,man,,,,null,,,,
6397,,,survey-text,391,1651317,0.0-19.0-3.11,55328,List1B,white,man,,,,,"{""Q0"":""jane is playing with dave""}","<img src=""stim_listB/play3.gif""style=""height:400px;""></stim_listB>",is playing with,
null,"<div style=""font-size:60px;"">+</div>",,html-keyboard-response,392,1651819,0.0-19.0-0.12,55328,List1B,white,man,,,,null,,,,
null,"<img src=""stim_listB/fight1.gif""style=""height:400px;""></stim_listB>",,html-keyboard-response,393,1653826,0.0-19.0-1.12,55328,List1B,white,man,,,,null,,,,
null,is fighting,,html-keyboard-response,394,1655828,0.0-19.0-2.12,55328,List1B,white,man,,,,null,,,,
7029,,,survey-text,395,1662859,0.0-19.0-3.12,55328,List1B,white,man,,,,,"{""Q0"":""kate is fighting mike""}","<img src=""stim_listB/fight1.gif""style=""height:400px;""></stim_listB>",is fighting,
null,"<div style=""font-size:60px;"">+</div>",,html-keyboard-response,396,1663362,0.0-19.0-0.13,55328,List1B,white,man,,,,null,,,,
null,"<img src=""stim_listB/kiss6.gif""style=""height:400px;""></stim_listB>",,html-keyboard-response,397,1665369,0.0-19.0-1.13,55328,List1B,white,man,,,,null,,,,
null,are kissing each other,,html-keyboard-response,398,1667373,0.0-19.0-2.13,55328,List1B,white,man,,,,null,,,,
9190,,,survey-text,399,1676565,0.0-19.0-3.13,55328,List1B,white,man,,,,,"{""Q0"":""mike and dave are kissing each other""}","<img src=""stim_listB/kiss6.gif""style=""height:400px;""></stim_listB>",are kissing each other,
null,"<div style=""font-size:60px;"">+</div>",,html-keyboard-response,400,1677068,0.0-19.0-0.14,55328,List1B,white,man,,,,null,,,,
null,"<img src=""stim_listB/argue2.gif""style=""height:400px;""></stim_listB>",,html-keyboard-response,401,1679074,0.0-19.0-1.14,55328,List1B,white,man,,,,null,,,,
null,are arguing with each other,,html-keyboard-response,402,1681080,0.0-19.0-2.14,55328,List1B,white,man,,,,null,,,,
12687,,,survey-text,403,1693769,0.0-19.0-3.14,55328,List1B,white,man,,,,,"{""Q0"":""fred and kate are fighting with each other""}","<img src=""stim_listB/argue2.gif""style=""height:400px;""></stim_listB>",are arguing with each other,
null,"<div style=""font-size:60px;"">+</div>",,html-keyboard-response,404,1694270,0.0-19.0-0.15,55328,List1B,white,man,,,,null,,,,
null,"<img src=""stim_listB/shout6.gif""style=""height:400px;""></stim_listB>",,html-keyboard-response,405,1696275,0.0-19.0-1.15,55328,List1B,white,man,,,,null,,,,
null,are shouting at each other,,html-keyboard-response,406,1698281,0.0-19.0-2.15,55328,List1B,white,man,,,,null,,,,
11515,,,survey-text,407,1709797,0.0-19.0-3.15,55328,List1B,white,man,,,,,"{""Q0"":""mike and dave are shouting at each other""}","<img src=""stim_listB/shout6.gif""style=""height:400px;""></stim_listB>",are shouting at each other,
null,"<div style=""font-size:60px;"">+</div>",,html-keyboard-response,408,1710299,0.0-19.0-0.16,55328,List1B,white,man,,,,null,,,,
null,"<img src=""stim_listB/touch4.gif""style=""height:400px;""></stim_listB>",,html-keyboard-response,409,1712304,0.0-19.0-1.16,55328,List1B,white,man,,,,null,,,,
null,are touching each other,,html-keyboard-response,410,1714306,0.0-19.0-2.16,55328,List1B,white,man,,,,null,,,,
10339,,,survey-text,411,1724647,0.0-19.0-3.16,55328,List1B,white,man,,,,,"{""Q0"":""ruth and luke are touching each other""}","<img src=""stim_listB/touch4.gif""style=""height:400px;""></stim_listB>",are touching each other,
null,"<div style=""font-size:60px;"">+</div>",,html-keyboard-response,412,1725149,0.0-19.0-0.17,55328,List1B,white,man,,,,null,,,,
null,"<img src=""stim_listB/marry2.gif""style=""height:400px;""></stim_listB>",,html-keyboard-response,413,1727151,0.0-19.0-1.17,55328,List1B,white,man,,,,null,,,,
null,are marrying each other,,html-keyboard-response,414,1729156,0.0-19.0-2.17,55328,List1B,white,man,,,,null,,,,
10115,,,survey-text,415,1739273,0.0-19.0-3.17,55328,List1B,white,man,,,,,"{""Q0"":""fred and kate are marrying each other""}","<img src=""stim_listB/marry2.gif""style=""height:400px;""></stim_listB>",are marrying each other,
null,"<div style=""font-size:60px;"">+</div>",,html-keyboard-response,416,1739775,0.0-19.0-0.18,55328,List1B,white,man,,,,null,,,,
null,"<img src=""stim_listB/play5.gif""style=""height:400px;""></stim_listB>",,html-keyboard-response,417,1741777,0.0-19.0-1.18,55328,List1B,white,man,,,,null,,,,
null,is playing with,,html-keyboard-response,418,1743779,0.0-19.0-2.18,55328,List1B,white,man,,,,null,,,,
7290,,,survey-text,419,1751071,0.0-19.0-3.18,55328,List1B,white,man,,,,,"{""Q0"":""dave is playing with mike""}","<img src=""stim_listB/play5.gif""style=""height:400px;""></stim_listB>",is playing with,
null,"<div style=""font-size:60px;"">+</div>",,html-keyboard-response,420,1751574,0.0-19.0-0.19,55328,List1B,white,man,,,,null,,,,
null,"<img src=""stim_listB/flirt3.gif""style=""height:400px;""></stim_listB>",,html-keyboard-response,421,1753581,0.0-19.0-1.19,55328,List1B,white,man,,,,null,,,,
null,is flirting with,,html-keyboard-response,422,1755583,0.0-19.0-2.19,55328,List1B,white,man,,,,null,,,,
8042,,,survey-text,423,1763626,0.0-19.0-3.19,55328,List1B,white,man,,,,,"{""Q0"":""luke is flirting with jane""}","<img src=""stim_listB/flirt3.gif""style=""height:400px;""></stim_listB>",is flirting with,
2970,<p>Thank you for completing that task.</p><p>The final part of this session is a short questionnaire.</p><p>Press Continue.</p>,0,html-button-response,424,1766598,0.0-20.0,55328,List1B,white,man,,,,,,,,
26167,,,survey-text,425,1793771,0.0-21.0,55328,List1B,white,man,,,,,"{""Q0"":""39"",""Q1"":""english"",""Q2"":""english"",""Q3"":""south korea"",""Q4"":""white"",""Q5"":""male""}",,,demographics
7847,,,survey-likert,426,1801622,0.0-22.0,55328,List1B,white,man,,,,,"{""Q0"":4}",,,likert_ESS
5916,,,survey-likert,427,1807565,0.0-23.0,55328,List1B,white,man,,,,,"{""Q0"":4}",,,likert_NSSAL_Q1
5125,,,survey-likert,428,1812715,0.0-24.0,55328,List1B,white,man,,,,,"{""Q0"":4}",,,likert_NSSAL_Q2
4696,,,survey-likert,429,1817438,0.0-25.0,55328,List1B,white,man,,,,,"{""Q0"":4}",,,likert_CGRS_Q1
3489,,,survey-likert,430,1820954,0.0-26.0,55328,List1B,white,man,,,,,"{""Q0"":4}",,,likert_CGRS_Q2
3213,,,survey-likert,431,1824191,0.0-27.0,55328,List1B,white,man,,,,,"{""Q0"":4}",,,likert_CGRS_Q3
12593,,,survey-text,432,1836811,0.0-28.0,55328,List1B,white,man,,,,,"{""Q0"":""ccc""}",,,worker_id
41926,,,external-html,433,1879550,0.0-29.0,55328,List1B,white,man,debrief.html,,,,,,,
