rt,stimulus,button_pressed,trial_type,trial_index,time_elapsed,internal_node_id,subject,list,ppt_race,ppt_gender,url,first_guess,correct,key_press,responses,image_type,phrase_type,test_part
5483,Welcome to the experiment. Press Continue to begin.,0,html-button-response,0,5485,0.0-0.0,55796,List1B,white,man,,,,,,,,
26092,,,external-html,1,32613,0.0-1.0,55796,List1B,white,man,consent.html,,,,,,,
15782,"<p>On the next page, you will see portraits of 8 people and their names.</p><p>Your first task is to take a few minutes to memorise the names of these people.</p><p>You will have to recall their names during the rest of the experiment, so it is</p><p>essential that you try to memorise these people and their names as best as you can.</p><br><p><strong>You will then be tested on your memory of these names and portraits.</strong></p><br><p>The experiment will start after you have completed this memory test.</p><br><p>Ready?</p>",0,html-button-response,2,48395,0.0-2.0,55796,List1B,white,man,,,,,,,,
32597,"<img src='img/portrait_matrix_list1.jpg' style='width:900px;height:500px;''></img><p>If you have memorised all the portraits and names and are ready to start, press Continue.</p><p><strong>Please note: Your memory of these faces will be tested 4 times during this experiment.</strong></p>",0,html-button-response,3,81995,0.0-3.0-0.0,55796,List1B,white,man,,,,,,,,
14100,"<img src=""portrait/BW2.jpg""style=""height:400px;""></img>",2,html-button-response,4,97099,0.0-3.0-1.0,55796,List1B,white,man,,TRUE,2,,,,,
null,CORRECT,,html-keyboard-response,5,99349,0.0-3.0-2.0-0.0,55796,List1B,white,man,,,,null,,,,
5860,"<img src=""portrait/BM1.jpg""style=""height:400px;""></img>",4,html-button-response,6,105211,0.0-3.0-4.0,55796,List1B,white,man,,TRUE,4,,,,,
null,CORRECT,,html-keyboard-response,7,106717,0.0-3.0-5.0-0.0,55796,List1B,white,man,,,,null,,,,
22661,"<img src=""portrait/WW1.jpg""style=""height:400px;""></img>",1,html-button-response,8,129379,0.0-3.0-7.0,55796,List1B,white,man,,TRUE,1,,,,,
null,CORRECT,,html-keyboard-response,9,130881,0.0-3.0-8.0-0.0,55796,List1B,white,man,,,,null,,,,
5041,"<img src=""portrait/WM2.jpg""style=""height:400px;""></img>",7,html-button-response,10,135923,0.0-3.0-10.0,55796,List1B,white,man,,TRUE,7,,,,,
null,CORRECT,,html-keyboard-response,11,137438,0.0-3.0-11.0-0.0,55796,List1B,white,man,,,,null,,,,
7507,"<img src=""portrait/WW2.jpg""style=""height:400px;""></img>",3,html-button-response,12,144947,0.0-3.0-13.0,55796,List1B,white,man,,TRUE,3,,,,,
null,CORRECT,,html-keyboard-response,13,146466,0.0-3.0-14.0-0.0,55796,List1B,white,man,,,,null,,,,
4295,"<img src=""portrait/BM2.jpg""style=""height:400px;""></img>",5,html-button-response,14,150763,0.0-3.0-16.0,55796,List1B,white,man,,TRUE,5,,,,,
null,CORRECT,,html-keyboard-response,15,152265,0.0-3.0-17.0-0.0,55796,List1B,white,man,,,,null,,,,
2768,"<img src=""portrait/WM1.jpg""style=""height:400px;""></img>",6,html-button-response,16,155035,0.0-3.0-19.0,55796,List1B,white,man,,TRUE,6,,,,,
null,CORRECT,,html-keyboard-response,17,156538,0.0-3.0-20.0-0.0,55796,List1B,white,man,,,,null,,,,
4272,"<img src=""portrait/BW1.jpg""style=""height:400px;""></img>",0,html-button-response,18,160811,0.0-3.0-22.0,55796,List1B,white,man,,TRUE,0,,,,,
null,CORRECT,,html-keyboard-response,19,162313,0.0-3.0-23.0-0.0,55796,List1B,white,man,,,,null,,,,
1487,<p>You got 8 out of 8 right first time. Press Continue.</p>,0,html-button-response,20,163803,0.0-3.0-25.0,55796,List1B,white,man,,,,,,,,
24172,"<p>In this experiment, you will view photographs of the people from the memory game interacting.</p><p>By using the <strong>exact</strong> phrase given <i>after</i> the photograph appears and recalling the correct names of the people in the photographs, form a sentence describing the interaction. You do not need to capitalise names.</p><p>Type your answer in the space provided. Please complete every sentence before moving onto the next trial.</p><p>You will only have a few seconds to memorise each given photograph and phrase before you can respond, so try your best to focus.</p><p>An example is given below. Press 'Continue' when you are ready.</p><img src='img/speaking_example.jpg' style='width:800px;height:460px;''></img>",0,html-button-response,21,188978,0.0-4.0,55796,List1B,white,man,,,,,,,,
18333,"<p>Before the experiment starts, you will watch two example trials. Press 'Continue'.</p>",0,html-button-response,22,208314,0.0-5.0,55796,List1B,white,man,,,,,,,,
null,<img src='img/meet_eg.gif' style='height:400px;''></img>,,html-keyboard-response,23,211330,0.0-6.0,55796,List1B,white,man,,,,null,,,,
null,<p>is meeting</p>,,html-keyboard-response,24,213332,0.0-7.0,55796,List1B,white,man,,,,null,,,,
1453,<p><b>Answer:</b> kate is meeting beth</p>,0,html-button-response,25,214786,0.0-8.0,55796,List1B,white,man,,,,,,,,
null,<img src='img/look_eg.gif' style='height:400px;''></img>,,html-keyboard-response,26,217789,0.0-9.0,55796,List1B,white,man,,,,null,,,,
null,<p>are looking at each other</p>,,html-keyboard-response,27,219790,0.0-10.0,55796,List1B,white,man,,,,null,,,,
3106,<p><b>Answer:</b> luke and dave are looking at each other</p>,0,html-button-response,28,222898,0.0-11.0,55796,List1B,white,man,,,,,,,,
76254,"<p>Ready to start the experiment?</p><br><p><strong>Remember to describe the picture using a full sentence,</strong></p><p><strong>that combines the names of the people with the <i>exact</i> phrase given.</strong></p><p><strong>To receive full payment you must do this correctly.</strong></p><p><strong> You do not need to capitalise names or use punctuation.</strong></p><br><p>Press 'Continue' to begin.</p>",0,html-button-response,29,300154,0.0-12.0,55796,List1B,white,man,,,,,,,,
null,"<div style=""font-size:60px;"">+</div>",,html-keyboard-response,30,301657,0.0-13.0-0.0,55796,List1B,white,man,,,,null,,,,
null,"<img src=""stim_listB/talk1.gif""style=""height:400px;""></stim_listB>",,html-keyboard-response,31,303660,0.0-13.0-1.0,55796,List1B,white,man,,,,null,,,,
null,is talking to,,html-keyboard-response,32,305661,0.0-13.0-2.0,55796,List1B,white,man,,,,null,,,,
13451,,,survey-text,33,319114,0.0-13.0-3.0,55796,List1B,white,man,,,,,"{""Q0"":""kate is talking to fred""}","<img src=""stim_listB/talk1.gif""style=""height:400px;""></stim_listB>",is talking to,
null,"<div style=""font-size:60px;"">+</div>",,html-keyboard-response,34,319615,0.0-13.0-0.1,55796,List1B,white,man,,,,null,,,,
null,"<img src=""stim_listB/kiss7.gif""style=""height:400px;""></stim_listB>",,html-keyboard-response,35,321618,0.0-13.0-1.1,55796,List1B,white,man,,,,null,,,,
null,is kissing,,html-keyboard-response,36,323619,0.0-13.0-2.1,55796,List1B,white,man,,,,null,,,,
250964,,,survey-text,37,574585,0.0-13.0-3.1,55796,List1B,white,man,,,,,"{""Q0"":""ruth is kissing beth""}","<img src=""stim_listB/kiss7.gif""style=""height:400px;""></stim_listB>",is kissing,
null,"<div style=""font-size:60px;"">+</div>",,html-keyboard-response,38,575087,0.0-13.0-0.2,55796,List1B,white,man,,,,null,,,,
null,"<img src=""stim_listB/fight2.gif""style=""height:400px;""></stim_listB>",,html-keyboard-response,39,577089,0.0-13.0-1.2,55796,List1B,white,man,,,,null,,,,
null,are fighting each other,,html-keyboard-response,40,579102,0.0-13.0-2.2,55796,List1B,white,man,,,,null,,,,
85123,,,survey-text,41,664226,0.0-13.0-3.2,55796,List1B,white,man,,,,,"{""Q0"":""fred is fighting beth""}","<img src=""stim_listB/fight2.gif""style=""height:400px;""></stim_listB>",are fighting each other,
null,"<div style=""font-size:60px;"">+</div>",,html-keyboard-response,42,664728,0.0-13.0-0.3,55796,List1B,white,man,,,,null,,,,
null,"<img src=""stim_listB/touch1.gif""style=""height:400px;""></stim_listB>",,html-keyboard-response,43,666730,0.0-13.0-1.3,55796,List1B,white,man,,,,null,,,,
null,is touching,,html-keyboard-response,44,668732,0.0-13.0-2.3,55796,List1B,white,man,,,,null,,,,
12157,,,survey-text,45,680891,0.0-13.0-3.3,55796,List1B,white,man,,,,,"{""Q0"":""kate is touching mike ""}","<img src=""stim_listB/touch1.gif""style=""height:400px;""></stim_listB>",is touching,
null,"<div style=""font-size:60px;"">+</div>",,html-keyboard-response,46,681393,0.0-13.0-0.4,55796,List1B,white,man,,,,null,,,,
null,"<img src=""stim_listB/argue7.gif""style=""height:400px;""></stim_listB>",,html-keyboard-response,47,683395,0.0-13.0-1.4,55796,List1B,white,man,,,,null,,,,
null,is arguing with,,html-keyboard-response,48,685396,0.0-13.0-2.4,55796,List1B,white,man,,,,null,,,,
17605,,,survey-text,49,703003,0.0-13.0-3.4,55796,List1B,white,man,,,,,"{""Q0"":""ruth is arguing with mike ""}","<img src=""stim_listB/argue7.gif""style=""height:400px;""></stim_listB>",is arguing with,
null,"<div style=""font-size:60px;"">+</div>",,html-keyboard-response,50,703505,0.0-13.0-0.5,55796,List1B,white,man,,,,null,,,,
null,"<img src=""stim_listB/marry8.gif""style=""height:400px;""></stim_listB>",,html-keyboard-response,51,705506,0.0-13.0-1.5,55796,List1B,white,man,,,,null,,,,
null,are marrying each other,,html-keyboard-response,52,707508,0.0-13.0-2.5,55796,List1B,white,man,,,,null,,,,
70349,,,survey-text,53,777858,0.0-13.0-3.5,55796,List1B,white,man,,,,,"{""Q0"":""beth and jane are marrying each other""}","<img src=""stim_listB/marry8.gif""style=""height:400px;""></stim_listB>",are marrying each other,
null,"<div style=""font-size:60px;"">+</div>",,html-keyboard-response,54,778360,0.0-13.0-0.6,55796,List1B,white,man,,,,null,,,,
null,"<img src=""stim_listB/touch8.gif""style=""height:400px;""></stim_listB>",,html-keyboard-response,55,780362,0.0-13.0-1.6,55796,List1B,white,man,,,,null,,,,
null,are touching each other,,html-keyboard-response,56,782362,0.0-13.0-2.6,55796,List1B,white,man,,,,null,,,,
23886,,,survey-text,57,806250,0.0-13.0-3.6,55796,List1B,white,man,,,,,"{""Q0"":""beth and ruth are marrying each other""}","<img src=""stim_listB/touch8.gif""style=""height:400px;""></stim_listB>",are touching each other,
null,"<div style=""font-size:60px;"">+</div>",,html-keyboard-response,58,806752,0.0-13.0-0.7,55796,List1B,white,man,,,,null,,,,
null,"<img src=""stim_listB/argue5.gif""style=""height:400px;""></stim_listB>",,html-keyboard-response,59,808754,0.0-13.0-1.7,55796,List1B,white,man,,,,null,,,,
null,is arguing with,,html-keyboard-response,60,810756,0.0-13.0-2.7,55796,List1B,white,man,,,,null,,,,
10516,,,survey-text,61,821273,0.0-13.0-3.7,55796,List1B,white,man,,,,,"{""Q0"":""luke is arguing with mike""}","<img src=""stim_listB/argue5.gif""style=""height:400px;""></stim_listB>",is arguing with,
null,"<div style=""font-size:60px;"">+</div>",,html-keyboard-response,62,821776,0.0-13.0-0.8,55796,List1B,white,man,,,,null,,,,
null,"<img src=""stim_listB/kiss4.gif""style=""height:400px;""></stim_listB>",,html-keyboard-response,63,823777,0.0-13.0-1.8,55796,List1B,white,man,,,,null,,,,
null,are kissing each other,,html-keyboard-response,64,825778,0.0-13.0-2.8,55796,List1B,white,man,,,,null,,,,
35574,,,survey-text,65,861354,0.0-13.0-3.8,55796,List1B,white,man,,,,,"{""Q0"":""dave is kissing jane""}","<img src=""stim_listB/kiss4.gif""style=""height:400px;""></stim_listB>",are kissing each other,
null,"<div style=""font-size:60px;"">+</div>",,html-keyboard-response,66,861857,0.0-13.0-0.9,55796,List1B,white,man,,,,null,,,,
null,"<img src=""stim_listB/talk7.gif""style=""height:400px;""></stim_listB>",,html-keyboard-response,67,863859,0.0-13.0-1.9,55796,List1B,white,man,,,,null,,,,
null,is talking to,,html-keyboard-response,68,865862,0.0-13.0-2.9,55796,List1B,white,man,,,,null,,,,
11442,,,survey-text,69,877306,0.0-13.0-3.9,55796,List1B,white,man,,,,,"{""Q0"":""beth is talking to kate ""}","<img src=""stim_listB/talk7.gif""style=""height:400px;""></stim_listB>",is talking to,
null,"<div style=""font-size:60px;"">+</div>",,html-keyboard-response,70,877807,0.0-13.0-0.10,55796,List1B,white,man,,,,null,,,,
null,"<img src=""stim_listB/touch2.gif""style=""height:400px;""></stim_listB>",,html-keyboard-response,71,879810,0.0-13.0-1.10,55796,List1B,white,man,,,,null,,,,
null,are touching each other,,html-keyboard-response,72,881812,0.0-13.0-2.10,55796,List1B,white,man,,,,null,,,,
11468,,,survey-text,73,893281,0.0-13.0-3.10,55796,List1B,white,man,,,,,"{""Q0"":""fred and beth are touching each other ""}","<img src=""stim_listB/touch2.gif""style=""height:400px;""></stim_listB>",are touching each other,
null,"<div style=""font-size:60px;"">+</div>",,html-keyboard-response,74,893782,0.0-13.0-0.11,55796,List1B,white,man,,,,null,,,,
null,"<img src=""stim_listB/dance2.gif""style=""height:400px;""></stim_listB>",,html-keyboard-response,75,895785,0.0-13.0-1.11,55796,List1B,white,man,,,,null,,,,
null,are dancing with each other,,html-keyboard-response,76,897787,0.0-13.0-2.11,55796,List1B,white,man,,,,null,,,,
37069,,,survey-text,77,934857,0.0-13.0-3.11,55796,List1B,white,man,,,,,"{""Q0"":""mike and beth are dancing with each other""}","<img src=""stim_listB/dance2.gif""style=""height:400px;""></stim_listB>",are dancing with each other,
null,"<div style=""font-size:60px;"">+</div>",,html-keyboard-response,78,935358,0.0-13.0-0.12,55796,List1B,white,man,,,,null,,,,
null,"<img src=""stim_listB/flirt8.gif""style=""height:400px;""></stim_listB>",,html-keyboard-response,79,937360,0.0-13.0-1.12,55796,List1B,white,man,,,,null,,,,
null,are flirting with each other,,html-keyboard-response,80,939362,0.0-13.0-2.12,55796,List1B,white,man,,,,null,,,,
19991,,,survey-text,81,959353,0.0-13.0-3.12,55796,List1B,white,man,,,,,"{""Q0"":""kate and ruth are flirting with each other""}","<img src=""stim_listB/flirt8.gif""style=""height:400px;""></stim_listB>",are flirting with each other,
null,"<div style=""font-size:60px;"">+</div>",,html-keyboard-response,82,959855,0.0-13.0-0.13,55796,List1B,white,man,,,,null,,,,
null,"<img src=""stim_listB/fight3.gif""style=""height:400px;""></stim_listB>",,html-keyboard-response,83,961858,0.0-13.0-1.13,55796,List1B,white,man,,,,null,,,,
null,is fighting,,html-keyboard-response,84,963860,0.0-13.0-2.13,55796,List1B,white,man,,,,null,,,,
11068,,,survey-text,85,974929,0.0-13.0-3.13,55796,List1B,white,man,,,,,"{""Q0"":""dave and kate are fighting""}","<img src=""stim_listB/fight3.gif""style=""height:400px;""></stim_listB>",is fighting,
null,"<div style=""font-size:60px;"">+</div>",,html-keyboard-response,86,975431,0.0-13.0-0.14,55796,List1B,white,man,,,,null,,,,
null,"<img src=""stim_listB/marry4.gif""style=""height:400px;""></stim_listB>",,html-keyboard-response,87,977432,0.0-13.0-1.14,55796,List1B,white,man,,,,null,,,,
null,are marrying each other,,html-keyboard-response,88,979433,0.0-13.0-2.14,55796,List1B,white,man,,,,null,,,,
74239,,,survey-text,89,1053672,0.0-13.0-3.14,55796,List1B,white,man,,,,,"{""Q0"":""luke and jane are marrying each other""}","<img src=""stim_listB/marry4.gif""style=""height:400px;""></stim_listB>",are marrying each other,
null,"<div style=""font-size:60px;"">+</div>",,html-keyboard-response,90,1054173,0.0-13.0-0.15,55796,List1B,white,man,,,,null,,,,
null,"<img src=""stim_listB/touch5.gif""style=""height:400px;""></stim_listB>",,html-keyboard-response,91,1056182,0.0-13.0-1.15,55796,List1B,white,man,,,,null,,,,
null,is touching,,html-keyboard-response,92,1058187,0.0-13.0-2.15,55796,List1B,white,man,,,,null,,,,
11372,,,survey-text,93,1069560,0.0-13.0-3.15,55796,List1B,white,man,,,,,"{""Q0"":""dave is touching mike ""}","<img src=""stim_listB/touch5.gif""style=""height:400px;""></stim_listB>",is touching,
null,"<div style=""font-size:60px;"">+</div>",,html-keyboard-response,94,1070070,0.0-13.0-0.16,55796,List1B,white,man,,,,null,,,,
null,"<img src=""stim_listB/talk4.gif""style=""height:400px;""></stim_listB>",,html-keyboard-response,95,1072073,0.0-13.0-1.16,55796,List1B,white,man,,,,null,,,,
null,are talking to each other,,html-keyboard-response,96,1074088,0.0-13.0-2.16,55796,List1B,white,man,,,,null,,,,
41246,,,survey-text,97,1115335,0.0-13.0-3.16,55796,List1B,white,man,,,,,"{""Q0"":""dave is talking to ruth""}","<img src=""stim_listB/talk4.gif""style=""height:400px;""></stim_listB>",are talking to each other,
null,"<div style=""font-size:60px;"">+</div>",,html-keyboard-response,98,1115852,0.0-13.0-0.17,55796,List1B,white,man,,,,null,,,,
null,"<img src=""stim_listB/dance4.gif""style=""height:400px;""></stim_listB>",,html-keyboard-response,99,1117854,0.0-13.0-1.17,55796,List1B,white,man,,,,null,,,,
null,are dancing with each other,,html-keyboard-response,100,1119870,0.0-13.0-2.17,55796,List1B,white,man,,,,null,,,,
13489,,,survey-text,101,1133359,0.0-13.0-3.17,55796,List1B,white,man,,,,,"{""Q0"":""dave and ruth are dancing with each other""}","<img src=""stim_listB/dance4.gif""style=""height:400px;""></stim_listB>",are dancing with each other,
null,"<div style=""font-size:60px;"">+</div>",,html-keyboard-response,102,1133862,0.0-13.0-0.18,55796,List1B,white,man,,,,null,,,,
null,"<img src=""stim_listB/dance6.gif""style=""height:400px;""></stim_listB>",,html-keyboard-response,103,1135864,0.0-13.0-1.18,55796,List1B,white,man,,,,null,,,,
null,are dancing with each other,,html-keyboard-response,104,1137867,0.0-13.0-2.18,55796,List1B,white,man,,,,null,,,,
83114,,,survey-text,105,1220981,0.0-13.0-3.18,55796,List1B,white,man,,,,,"{""Q0"":""mike and luke are dancing with each other""}","<img src=""stim_listB/dance6.gif""style=""height:400px;""></stim_listB>",are dancing with each other,
null,"<div style=""font-size:60px;"">+</div>",,html-keyboard-response,106,1221484,0.0-13.0-0.19,55796,List1B,white,man,,,,null,,,,
null,"<img src=""stim_listB/play8.gif""style=""height:400px;""></stim_listB>",,html-keyboard-response,107,1223486,0.0-13.0-1.19,55796,List1B,white,man,,,,null,,,,
null,are playing with each other,,html-keyboard-response,108,1225500,0.0-13.0-2.19,55796,List1B,white,man,,,,null,,,,
54215,,,survey-text,109,1279717,0.0-13.0-3.19,55796,List1B,white,man,,,,,"{""Q0"":""beth and ruth are playing with each other""}","<img src=""stim_listB/play8.gif""style=""height:400px;""></stim_listB>",are playing with each other,
8384,"<img src='img/portrait_matrix_list1.jpg' style='width:900px;height:500px;''></img><p>If you have memorised all the portraits and names and are ready to start, press Continue.</p><p><strong>Please note: Your memory of these faces will be tested 4 times during this experiment.</strong></p>",0,html-button-response,110,1288103,0.0-14.0-0.0,55796,List1B,white,man,,,,,,,,
2252,"<img src=""portrait/WM2.jpg""style=""height:400px;""></img>",7,html-button-response,111,1291359,0.0-14.0-1.0,55796,List1B,white,man,,TRUE,7,,,,,
null,CORRECT,,html-keyboard-response,112,1292861,0.0-14.0-2.0-0.0,55796,List1B,white,man,,,,null,,,,
6240,"<img src=""portrait/BM1.jpg""style=""height:400px;""></img>",4,html-button-response,113,1299103,0.0-14.0-4.0,55796,List1B,white,man,,TRUE,4,,,,,
null,CORRECT,,html-keyboard-response,114,1300605,0.0-14.0-5.0-0.0,55796,List1B,white,man,,,,null,,,,
2880,"<img src=""portrait/BM2.jpg""style=""height:400px;""></img>",5,html-button-response,115,1303486,0.0-14.0-7.0,55796,List1B,white,man,,TRUE,5,,,,,
null,CORRECT,,html-keyboard-response,116,1304990,0.0-14.0-8.0-0.0,55796,List1B,white,man,,,,null,,,,
3487,"<img src=""portrait/WW1.jpg""style=""height:400px;""></img>",1,html-button-response,117,1308478,0.0-14.0-10.0,55796,List1B,white,man,,TRUE,1,,,,,
null,CORRECT,,html-keyboard-response,118,1309981,0.0-14.0-11.0-0.0,55796,List1B,white,man,,,,null,,,,
1840,"<img src=""portrait/WM1.jpg""style=""height:400px;""></img>",6,html-button-response,119,1311822,0.0-14.0-13.0,55796,List1B,white,man,,TRUE,6,,,,,
null,CORRECT,,html-keyboard-response,120,1313324,0.0-14.0-14.0-0.0,55796,List1B,white,man,,,,null,,,,
2857,"<img src=""portrait/BW1.jpg""style=""height:400px;""></img>",0,html-button-response,121,1316182,0.0-14.0-16.0,55796,List1B,white,man,,TRUE,0,,,,,
null,CORRECT,,html-keyboard-response,122,1317685,0.0-14.0-17.0-0.0,55796,List1B,white,man,,,,null,,,,
2775,"<img src=""portrait/WW2.jpg""style=""height:400px;""></img>",3,html-button-response,123,1320462,0.0-14.0-19.0,55796,List1B,white,man,,TRUE,3,,,,,
null,CORRECT,,html-keyboard-response,124,1321966,0.0-14.0-20.0-0.0,55796,List1B,white,man,,,,null,,,,
2808,"<img src=""portrait/BW2.jpg""style=""height:400px;""></img>",2,html-button-response,125,1324774,0.0-14.0-22.0,55796,List1B,white,man,,TRUE,2,,,,,
null,CORRECT,,html-keyboard-response,126,1326277,0.0-14.0-23.0-0.0,55796,List1B,white,man,,,,null,,,,
1297,<p>You got 8 out of 8 right first time. Press Continue.</p>,0,html-button-response,127,1327574,0.0-14.0-25.0,55796,List1B,white,man,,,,,,,,
null,"<div style=""font-size:60px;"">+</div>",,html-keyboard-response,128,1329077,0.0-15.0-0.0,55796,List1B,white,man,,,,null,,,,
null,"<img src=""stim_listB/play2.gif""style=""height:400px;""></stim_listB>",,html-keyboard-response,129,1331079,0.0-15.0-1.0,55796,List1B,white,man,,,,null,,,,
null,are playing with each other,,html-keyboard-response,130,1333080,0.0-15.0-2.0,55796,List1B,white,man,,,,null,,,,
14877,,,survey-text,131,1347958,0.0-15.0-3.0,55796,List1B,white,man,,,,,"{""Q0"":""fred and beth are playing with each other""}","<img src=""stim_listB/play2.gif""style=""height:400px;""></stim_listB>",are playing with each other,
null,"<div style=""font-size:60px;"">+</div>",,html-keyboard-response,132,1348460,0.0-15.0-0.1,55796,List1B,white,man,,,,null,,,,
null,"<img src=""stim_listB/dance5.gif""style=""height:400px;""></stim_listB>",,html-keyboard-response,133,1350462,0.0-15.0-1.1,55796,List1B,white,man,,,,null,,,,
null,is dancing with,,html-keyboard-response,134,1352464,0.0-15.0-2.1,55796,List1B,white,man,,,,null,,,,
7005,,,survey-text,135,1359471,0.0-15.0-3.1,55796,List1B,white,man,,,,,"{""Q0"":""fred is dancing with dave""}","<img src=""stim_listB/dance5.gif""style=""height:400px;""></stim_listB>",is dancing with,
null,"<div style=""font-size:60px;"">+</div>",,html-keyboard-response,136,1359972,0.0-15.0-0.2,55796,List1B,white,man,,,,null,,,,
null,"<img src=""stim_listB/talk8.gif""style=""height:400px;""></stim_listB>",,html-keyboard-response,137,1361974,0.0-15.0-1.2,55796,List1B,white,man,,,,null,,,,
null,are talking to each other,,html-keyboard-response,138,1363975,0.0-15.0-2.2,55796,List1B,white,man,,,,null,,,,
10165,,,survey-text,139,1374142,0.0-15.0-3.2,55796,List1B,white,man,,,,,"{""Q0"":""kate is talking to ruth""}","<img src=""stim_listB/talk8.gif""style=""height:400px;""></stim_listB>",are talking to each other,
null,"<div style=""font-size:60px;"">+</div>",,html-keyboard-response,140,1374644,0.0-15.0-0.3,55796,List1B,white,man,,,,null,,,,
null,"<img src=""stim_listB/kiss5.gif""style=""height:400px;""></stim_listB>",,html-keyboard-response,141,1376646,0.0-15.0-1.3,55796,List1B,white,man,,,,null,,,,
null,is kissing,,html-keyboard-response,142,1378648,0.0-15.0-2.3,55796,List1B,white,man,,,,null,,,,
11276,,,survey-text,143,1389926,0.0-15.0-3.3,55796,List1B,white,man,,,,,"{""Q0"":""fred is kissing luke""}","<img src=""stim_listB/kiss5.gif""style=""height:400px;""></stim_listB>",is kissing,
null,"<div style=""font-size:60px;"">+</div>",,html-keyboard-response,144,1390427,0.0-15.0-0.4,55796,List1B,white,man,,,,null,,,,
null,"<img src=""stim_listB/flirt7.gif""style=""height:400px;""></stim_listB>",,html-keyboard-response,145,1392429,0.0-15.0-1.4,55796,List1B,white,man,,,,null,,,,
null,is flirting with,,html-keyboard-response,146,1394430,0.0-15.0-2.4,55796,List1B,white,man,,,,null,,,,
8278,,,survey-text,147,1402710,0.0-15.0-3.4,55796,List1B,white,man,,,,,"{""Q0"":""beth is flirting with jane ""}","<img src=""stim_listB/flirt7.gif""style=""height:400px;""></stim_listB>",is flirting with,
null,"<div style=""font-size:60px;"">+</div>",,html-keyboard-response,148,1403212,0.0-15.0-0.5,55796,List1B,white,man,,,,null,,,,
null,"<img src=""stim_listB/dance8.gif""style=""height:400px;""></stim_listB>",,html-keyboard-response,149,1405219,0.0-15.0-1.5,55796,List1B,white,man,,,,null,,,,
null,are dancing with each other,,html-keyboard-response,150,1407221,0.0-15.0-2.5,55796,List1B,white,man,,,,null,,,,
12117,,,survey-text,151,1419338,0.0-15.0-3.5,55796,List1B,white,man,,,,,"{""Q0"":""ruth and jane are dancing with each other ""}","<img src=""stim_listB/dance8.gif""style=""height:400px;""></stim_listB>",are dancing with each other,
null,"<div style=""font-size:60px;"">+</div>",,html-keyboard-response,152,1419840,0.0-15.0-0.6,55796,List1B,white,man,,,,null,,,,
null,"<img src=""stim_listB/shout5.gif""style=""height:400px;""></stim_listB>",,html-keyboard-response,153,1421843,0.0-15.0-1.6,55796,List1B,white,man,,,,null,,,,
null,is shouting at,,html-keyboard-response,154,1423845,0.0-15.0-2.6,55796,List1B,white,man,,,,null,,,,
8284,,,survey-text,155,1432130,0.0-15.0-3.6,55796,List1B,white,man,,,,,"{""Q0"":""fred is shouting at luke ""}","<img src=""stim_listB/shout5.gif""style=""height:400px;""></stim_listB>",is shouting at,
null,"<div style=""font-size:60px;"">+</div>",,html-keyboard-response,156,1432632,0.0-15.0-0.7,55796,List1B,white,man,,,,null,,,,
null,"<img src=""stim_listB/marry6.gif""style=""height:400px;""></stim_listB>",,html-keyboard-response,157,1434635,0.0-15.0-1.7,55796,List1B,white,man,,,,null,,,,
null,are marrying each other,,html-keyboard-response,158,1436636,0.0-15.0-2.7,55796,List1B,white,man,,,,null,,,,
13501,,,survey-text,159,1450138,0.0-15.0-3.7,55796,List1B,white,man,,,,,"{""Q0"":""fred is talking to dave ""}","<img src=""stim_listB/marry6.gif""style=""height:400px;""></stim_listB>",are marrying each other,
null,"<div style=""font-size:60px;"">+</div>",,html-keyboard-response,160,1450639,0.0-15.0-0.8,55796,List1B,white,man,,,,null,,,,
null,"<img src=""stim_listB/play5.gif""style=""height:400px;""></stim_listB>",,html-keyboard-response,161,1452642,0.0-15.0-1.8,55796,List1B,white,man,,,,null,,,,
null,is playing with,,html-keyboard-response,162,1454644,0.0-15.0-2.8,55796,List1B,white,man,,,,null,,,,
9485,,,survey-text,163,1464130,0.0-15.0-3.8,55796,List1B,white,man,,,,,"{""Q0"":""dave is playing with mike ""}","<img src=""stim_listB/play5.gif""style=""height:400px;""></stim_listB>",is playing with,
null,"<div style=""font-size:60px;"">+</div>",,html-keyboard-response,164,1464632,0.0-15.0-0.9,55796,List1B,white,man,,,,null,,,,
null,"<img src=""stim_listB/shout1.gif""style=""height:400px;""></stim_listB>",,html-keyboard-response,165,1466640,0.0-15.0-1.9,55796,List1B,white,man,,,,null,,,,
null,is shouting at,,html-keyboard-response,166,1468642,0.0-15.0-2.9,55796,List1B,white,man,,,,null,,,,
6398,,,survey-text,167,1475040,0.0-15.0-3.9,55796,List1B,white,man,,,,,"{""Q0"":""beth is shouting at fred""}","<img src=""stim_listB/shout1.gif""style=""height:400px;""></stim_listB>",is shouting at,
null,"<div style=""font-size:60px;"">+</div>",,html-keyboard-response,168,1475542,0.0-15.0-0.10,55796,List1B,white,man,,,,null,,,,
null,"<img src=""stim_listB/dance1.gif""style=""height:400px;""></stim_listB>",,html-keyboard-response,169,1477543,0.0-15.0-1.10,55796,List1B,white,man,,,,null,,,,
null,is dancing with,,html-keyboard-response,170,1479546,0.0-15.0-2.10,55796,List1B,white,man,,,,null,,,,
7397,,,survey-text,171,1486944,0.0-15.0-3.10,55796,List1B,white,man,,,,,"{""Q0"":""fred is dancing with kate ""}","<img src=""stim_listB/dance1.gif""style=""height:400px;""></stim_listB>",is dancing with,
null,"<div style=""font-size:60px;"">+</div>",,html-keyboard-response,172,1487445,0.0-15.0-0.11,55796,List1B,white,man,,,,null,,,,
null,"<img src=""stim_listB/kiss1.gif""style=""height:400px;""></stim_listB>",,html-keyboard-response,173,1489448,0.0-15.0-1.11,55796,List1B,white,man,,,,null,,,,
null,is kissing,,html-keyboard-response,174,1491450,0.0-15.0-2.11,55796,List1B,white,man,,,,null,,,,
21061,,,survey-text,175,1512512,0.0-15.0-3.11,55796,List1B,white,man,,,,,"{""Q0"":""fred is kissing beth""}","<img src=""stim_listB/kiss1.gif""style=""height:400px;""></stim_listB>",is kissing,
null,"<div style=""font-size:60px;"">+</div>",,html-keyboard-response,176,1513013,0.0-15.0-0.12,55796,List1B,white,man,,,,null,,,,
null,"<img src=""stim_listB/play3.gif""style=""height:400px;""></stim_listB>",,html-keyboard-response,177,1515016,0.0-15.0-1.12,55796,List1B,white,man,,,,null,,,,
null,is playing with,,html-keyboard-response,178,1517017,0.0-15.0-2.12,55796,List1B,white,man,,,,null,,,,
10963,,,survey-text,179,1527981,0.0-15.0-3.12,55796,List1B,white,man,,,,,"{""Q0"":""dave is playing with jane ""}","<img src=""stim_listB/play3.gif""style=""height:400px;""></stim_listB>",is playing with,
null,"<div style=""font-size:60px;"">+</div>",,html-keyboard-response,180,1528483,0.0-15.0-0.13,55796,List1B,white,man,,,,null,,,,
null,"<img src=""stim_listB/touch7.gif""style=""height:400px;""></stim_listB>",,html-keyboard-response,181,1530486,0.0-15.0-1.13,55796,List1B,white,man,,,,null,,,,
null,is touching,,html-keyboard-response,182,1532487,0.0-15.0-2.13,55796,List1B,white,man,,,,null,,,,
8829,,,survey-text,183,1541317,0.0-15.0-3.13,55796,List1B,white,man,,,,,"{""Q0"":""jane is touching kate ""}","<img src=""stim_listB/touch7.gif""style=""height:400px;""></stim_listB>",is touching,
null,"<div style=""font-size:60px;"">+</div>",,html-keyboard-response,184,1541819,0.0-15.0-0.14,55796,List1B,white,man,,,,null,,,,
null,"<img src=""stim_listB/talk2.gif""style=""height:400px;""></stim_listB>",,html-keyboard-response,185,1543821,0.0-15.0-1.14,55796,List1B,white,man,,,,null,,,,
null,are talking to each other,,html-keyboard-response,186,1545823,0.0-15.0-2.14,55796,List1B,white,man,,,,null,,,,
10261,,,survey-text,187,1556085,0.0-15.0-3.14,55796,List1B,white,man,,,,,"{""Q0"":""mike is talking to beth ""}","<img src=""stim_listB/talk2.gif""style=""height:400px;""></stim_listB>",are talking to each other,
null,"<div style=""font-size:60px;"">+</div>",,html-keyboard-response,188,1556587,0.0-15.0-0.15,55796,List1B,white,man,,,,null,,,,
null,"<img src=""stim_listB/kiss2.gif""style=""height:400px;""></stim_listB>",,html-keyboard-response,189,1558588,0.0-15.0-1.15,55796,List1B,white,man,,,,null,,,,
null,are kissing each other,,html-keyboard-response,190,1560589,0.0-15.0-2.15,55796,List1B,white,man,,,,null,,,,
10854,,,survey-text,191,1571445,0.0-15.0-3.15,55796,List1B,white,man,,,,,"{""Q0"":""mike is kissing kate""}","<img src=""stim_listB/kiss2.gif""style=""height:400px;""></stim_listB>",are kissing each other,
null,"<div style=""font-size:60px;"">+</div>",,html-keyboard-response,192,1571946,0.0-15.0-0.16,55796,List1B,white,man,,,,null,,,,
null,"<img src=""stim_listB/fight6.gif""style=""height:400px;""></stim_listB>",,html-keyboard-response,193,1573948,0.0-15.0-1.16,55796,List1B,white,man,,,,null,,,,
null,are fighting each other,,html-keyboard-response,194,1575950,0.0-15.0-2.16,55796,List1B,white,man,,,,null,,,,
15517,,,survey-text,195,1591467,0.0-15.0-3.16,55796,List1B,white,man,,,,,"{""Q0"":""fred and luke are fighting each other ""}","<img src=""stim_listB/fight6.gif""style=""height:400px;""></stim_listB>",are fighting each other,
null,"<div style=""font-size:60px;"">+</div>",,html-keyboard-response,196,1591970,0.0-15.0-0.17,55796,List1B,white,man,,,,null,,,,
null,"<img src=""stim_listB/fight8.gif""style=""height:400px;""></stim_listB>",,html-keyboard-response,197,1593972,0.0-15.0-1.17,55796,List1B,white,man,,,,null,,,,
null,are fighting each other,,html-keyboard-response,198,1595974,0.0-15.0-2.17,55796,List1B,white,man,,,,null,,,,
12315,,,survey-text,199,1608291,0.0-15.0-3.17,55796,List1B,white,man,,,,,"{""Q0"":""ruth and beth are fighting each other ""}","<img src=""stim_listB/fight8.gif""style=""height:400px;""></stim_listB>",are fighting each other,
null,"<div style=""font-size:60px;"">+</div>",,html-keyboard-response,200,1608793,0.0-15.0-0.18,55796,List1B,white,man,,,,null,,,,
null,"<img src=""stim_listB/argue6.gif""style=""height:400px;""></stim_listB>",,html-keyboard-response,201,1610795,0.0-15.0-1.18,55796,List1B,white,man,,,,null,,,,
null,are arguing with each other,,html-keyboard-response,202,1612796,0.0-15.0-2.18,55796,List1B,white,man,,,,null,,,,
72763,,,survey-text,203,1685561,0.0-15.0-3.18,55796,List1B,white,man,,,,,"{""Q0"":""fred and dave are arguing with each other""}","<img src=""stim_listB/argue6.gif""style=""height:400px;""></stim_listB>",are arguing with each other,
null,"<div style=""font-size:60px;"">+</div>",,html-keyboard-response,204,1686064,0.0-15.0-0.19,55796,List1B,white,man,,,,null,,,,
null,"<img src=""stim_listB/talk6.gif""style=""height:400px;""></stim_listB>",,html-keyboard-response,205,1688067,0.0-15.0-1.19,55796,List1B,white,man,,,,null,,,,
null,are talking to each other,,html-keyboard-response,206,1690078,0.0-15.0-2.19,55796,List1B,white,man,,,,null,,,,
145816,,,survey-text,207,1835896,0.0-15.0-3.19,55796,List1B,white,man,,,,,"{""Q0"":""mike and luke are talking to each other""}","<img src=""stim_listB/talk6.gif""style=""height:400px;""></stim_listB>",are talking to each other,
12375,"<img src='img/portrait_matrix_list1.jpg' style='width:900px;height:500px;''></img><p>If you have memorised all the portraits and names and are ready to start, press Continue.</p><p><strong>Please note: Your memory of these faces will be tested 4 times during this experiment.</strong></p>",0,html-button-response,208,1848271,0.0-16.0-0.0,55796,List1B,white,man,,,,,,,,
1966,"<img src=""portrait/WM2.jpg""style=""height:400px;""></img>",7,html-button-response,209,1851240,0.0-16.0-1.0,55796,List1B,white,man,,TRUE,7,,,,,
null,CORRECT,,html-keyboard-response,210,1852743,0.0-16.0-2.0-0.0,55796,List1B,white,man,,,,null,,,,
6919,"<img src=""portrait/BW2.jpg""style=""height:400px;""></img>",2,html-button-response,211,1859664,0.0-16.0-4.0,55796,List1B,white,man,,TRUE,2,,,,,
null,CORRECT,,html-keyboard-response,212,1861165,0.0-16.0-5.0-0.0,55796,List1B,white,man,,,,null,,,,
2345,"<img src=""portrait/WW1.jpg""style=""height:400px;""></img>",1,html-button-response,213,1863512,0.0-16.0-7.0,55796,List1B,white,man,,TRUE,1,,,,,
null,CORRECT,,html-keyboard-response,214,1865020,0.0-16.0-8.0-0.0,55796,List1B,white,man,,,,null,,,,
3426,"<img src=""portrait/BM1.jpg""style=""height:400px;""></img>",4,html-button-response,215,1868456,0.0-16.0-10.0,55796,List1B,white,man,,TRUE,4,,,,,
null,CORRECT,,html-keyboard-response,216,1869958,0.0-16.0-11.0-0.0,55796,List1B,white,man,,,,null,,,,
2792,"<img src=""portrait/WM1.jpg""style=""height:400px;""></img>",6,html-button-response,217,1872752,0.0-16.0-13.0,55796,List1B,white,man,,TRUE,6,,,,,
null,CORRECT,,html-keyboard-response,218,1874253,0.0-16.0-14.0-0.0,55796,List1B,white,man,,,,null,,,,
4753,"<img src=""portrait/BM2.jpg""style=""height:400px;""></img>",5,html-button-response,219,1879007,0.0-16.0-16.0,55796,List1B,white,man,,TRUE,5,,,,,
null,CORRECT,,html-keyboard-response,220,1880510,0.0-16.0-17.0-0.0,55796,List1B,white,man,,,,null,,,,
3200,"<img src=""portrait/BW1.jpg""style=""height:400px;""></img>",0,html-button-response,221,1883711,0.0-16.0-19.0,55796,List1B,white,man,,TRUE,0,,,,,
null,CORRECT,,html-keyboard-response,222,1885214,0.0-16.0-20.0-0.0,55796,List1B,white,man,,,,null,,,,
2560,"<img src=""portrait/WW2.jpg""style=""height:400px;""></img>",3,html-button-response,223,1887776,0.0-16.0-22.0,55796,List1B,white,man,,TRUE,3,,,,,
null,CORRECT,,html-keyboard-response,224,1889278,0.0-16.0-23.0-0.0,55796,List1B,white,man,,,,null,,,,
1376,<p>You got 8 out of 8 right first time. Press Continue.</p>,0,html-button-response,225,1890655,0.0-16.0-25.0,55796,List1B,white,man,,,,,,,,
null,"<div style=""font-size:60px;"">+</div>",,html-keyboard-response,226,1892159,0.0-17.0-0.0,55796,List1B,white,man,,,,null,,,,
null,"<img src=""stim_listB/fight5.gif""style=""height:400px;""></stim_listB>",,html-keyboard-response,227,1894161,0.0-17.0-1.0,55796,List1B,white,man,,,,null,,,,
null,is fighting,,html-keyboard-response,228,1896163,0.0-17.0-2.0,55796,List1B,white,man,,,,null,,,,
8779,,,survey-text,229,1904943,0.0-17.0-3.0,55796,List1B,white,man,,,,,"{""Q0"":""mike is fighting dave""}","<img src=""stim_listB/fight5.gif""style=""height:400px;""></stim_listB>",is fighting,
null,"<div style=""font-size:60px;"">+</div>",,html-keyboard-response,230,1905445,0.0-17.0-0.1,55796,List1B,white,man,,,,null,,,,
null,"<img src=""stim_listB/flirt4.gif""style=""height:400px;""></stim_listB>",,html-keyboard-response,231,1907448,0.0-17.0-1.1,55796,List1B,white,man,,,,null,,,,
null,are flirting with each other,,html-keyboard-response,232,1909449,0.0-17.0-2.1,55796,List1B,white,man,,,,null,,,,
54388,,,survey-text,233,1963838,0.0-17.0-3.1,55796,List1B,white,man,,,,,"{""Q0"":""dave and ruth are flirting with each other""}","<img src=""stim_listB/flirt4.gif""style=""height:400px;""></stim_listB>",are flirting with each other,
null,"<div style=""font-size:60px;"">+</div>",,html-keyboard-response,234,1964339,0.0-17.0-0.2,55796,List1B,white,man,,,,null,,,,
null,"<img src=""stim_listB/play7.gif""style=""height:400px;""></stim_listB>",,html-keyboard-response,235,1966342,0.0-17.0-1.2,55796,List1B,white,man,,,,null,,,,
null,is playing with,,html-keyboard-response,236,1968344,0.0-17.0-2.2,55796,List1B,white,man,,,,null,,,,
20702,,,survey-text,237,1989046,0.0-17.0-3.2,55796,List1B,white,man,,,,,"{""Q0"":""jane and kate are talking to each other ""}","<img src=""stim_listB/play7.gif""style=""height:400px;""></stim_listB>",is playing with,
null,"<div style=""font-size:60px;"">+</div>",,html-keyboard-response,238,1989548,0.0-17.0-0.3,55796,List1B,white,man,,,,null,,,,
null,"<img src=""stim_listB/shout2.gif""style=""height:400px;""></stim_listB>",,html-keyboard-response,239,1991550,0.0-17.0-1.3,55796,List1B,white,man,,,,null,,,,
null,are shouting at each other,,html-keyboard-response,240,1993552,0.0-17.0-2.3,55796,List1B,white,man,,,,null,,,,
12044,,,survey-text,241,2005598,0.0-17.0-3.3,55796,List1B,white,man,,,,,"{""Q0"":""mike and kate are shouting at each other""}","<img src=""stim_listB/shout2.gif""style=""height:400px;""></stim_listB>",are shouting at each other,
null,"<div style=""font-size:60px;"">+</div>",,html-keyboard-response,242,2006100,0.0-17.0-0.4,55796,List1B,white,man,,,,null,,,,
null,"<img src=""stim_listB/touch3.gif""style=""height:400px;""></stim_listB>",,html-keyboard-response,243,2008103,0.0-17.0-1.4,55796,List1B,white,man,,,,null,,,,
null,is touching,,html-keyboard-response,244,2010105,0.0-17.0-2.4,55796,List1B,white,man,,,,null,,,,
9725,,,survey-text,245,2019830,0.0-17.0-3.4,55796,List1B,white,man,,,,,"{""Q0"":""jane is touching dave ""}","<img src=""stim_listB/touch3.gif""style=""height:400px;""></stim_listB>",is touching,
null,"<div style=""font-size:60px;"">+</div>",,html-keyboard-response,246,2020332,0.0-17.0-0.5,55796,List1B,white,man,,,,null,,,,
null,"<img src=""stim_listB/shout4.gif""style=""height:400px;""></stim_listB>",,html-keyboard-response,247,2022335,0.0-17.0-1.5,55796,List1B,white,man,,,,null,,,,
null,are shouting at each other,,html-keyboard-response,248,2024336,0.0-17.0-2.5,55796,List1B,white,man,,,,null,,,,
7964,,,survey-text,249,2032302,0.0-17.0-3.5,55796,List1B,white,man,,,,,"{""Q0"":""jane and dave are shouting at each other ""}","<img src=""stim_listB/shout4.gif""style=""height:400px;""></stim_listB>",are shouting at each other,
null,"<div style=""font-size:60px;"">+</div>",,html-keyboard-response,250,2032804,0.0-17.0-0.6,55796,List1B,white,man,,,,null,,,,
null,"<img src=""stim_listB/dance3.gif""style=""height:400px;""></stim_listB>",,html-keyboard-response,251,2034806,0.0-17.0-1.6,55796,List1B,white,man,,,,null,,,,
null,is dancing with,,html-keyboard-response,252,2036807,0.0-17.0-2.6,55796,List1B,white,man,,,,null,,,,
6678,,,survey-text,253,2043487,0.0-17.0-3.6,55796,List1B,white,man,,,,,"{""Q0"":""luke is dancing with jane ""}","<img src=""stim_listB/dance3.gif""style=""height:400px;""></stim_listB>",is dancing with,
null,"<div style=""font-size:60px;"">+</div>",,html-keyboard-response,254,2043989,0.0-17.0-0.7,55796,List1B,white,man,,,,null,,,,
null,"<img src=""stim_listB/shout6.gif""style=""height:400px;""></stim_listB>",,html-keyboard-response,255,2045991,0.0-17.0-1.7,55796,List1B,white,man,,,,null,,,,
null,are shouting at each other,,html-keyboard-response,256,2047992,0.0-17.0-2.7,55796,List1B,white,man,,,,null,,,,
11444,,,survey-text,257,2059438,0.0-17.0-3.7,55796,List1B,white,man,,,,,"{""Q0"":""mike and dave are shouting at each other ""}","<img src=""stim_listB/shout6.gif""style=""height:400px;""></stim_listB>",are shouting at each other,
null,"<div style=""font-size:60px;"">+</div>",,html-keyboard-response,258,2059939,0.0-17.0-0.8,55796,List1B,white,man,,,,null,,,,
null,"<img src=""stim_listB/kiss3.gif""style=""height:400px;""></stim_listB>",,html-keyboard-response,259,2061943,0.0-17.0-1.8,55796,List1B,white,man,,,,null,,,,
null,is kissing,,html-keyboard-response,260,2063944,0.0-17.0-2.8,55796,List1B,white,man,,,,null,,,,
6028,,,survey-text,261,2069974,0.0-17.0-3.8,55796,List1B,white,man,,,,,"{""Q0"":""luke is kissing ruth""}","<img src=""stim_listB/kiss3.gif""style=""height:400px;""></stim_listB>",is kissing,
null,"<div style=""font-size:60px;"">+</div>",,html-keyboard-response,262,2070476,0.0-17.0-0.9,55796,List1B,white,man,,,,null,,,,
null,"<img src=""stim_listB/shout8.gif""style=""height:400px;""></stim_listB>",,html-keyboard-response,263,2072479,0.0-17.0-1.9,55796,List1B,white,man,,,,null,,,,
null,are shouting at each other,,html-keyboard-response,264,2074481,0.0-17.0-2.9,55796,List1B,white,man,,,,null,,,,
26763,,,survey-text,265,2101245,0.0-17.0-3.9,55796,List1B,white,man,,,,,"{""Q0"":""kate and jane are shouting at each other""}","<img src=""stim_listB/shout8.gif""style=""height:400px;""></stim_listB>",are shouting at each other,
null,"<div style=""font-size:60px;"">+</div>",,html-keyboard-response,266,2101747,0.0-17.0-0.10,55796,List1B,white,man,,,,null,,,,
null,"<img src=""stim_listB/flirt6.gif""style=""height:400px;""></stim_listB>",,html-keyboard-response,267,2103749,0.0-17.0-1.10,55796,List1B,white,man,,,,null,,,,
null,are flirting with each other,,html-keyboard-response,268,2105750,0.0-17.0-2.10,55796,List1B,white,man,,,,null,,,,
11030,,,survey-text,269,2116781,0.0-17.0-3.10,55796,List1B,white,man,,,,,"{""Q0"":""mike and luke are flirting with each other""}","<img src=""stim_listB/flirt6.gif""style=""height:400px;""></stim_listB>",are flirting with each other,
null,"<div style=""font-size:60px;"">+</div>",,html-keyboard-response,270,2117282,0.0-17.0-0.11,55796,List1B,white,man,,,,null,,,,
null,"<img src=""stim_listB/marry7.gif""style=""height:400px;""></stim_listB>",,html-keyboard-response,271,2119285,0.0-17.0-1.11,55796,List1B,white,man,,,,null,,,,
null,is marrying,,html-keyboard-response,272,2121287,0.0-17.0-2.11,55796,List1B,white,man,,,,null,,,,
13589,,,survey-text,273,2134877,0.0-17.0-3.11,55796,List1B,white,man,,,,,"{""Q0"":""ruth and kate are flirting with each other ""}","<img src=""stim_listB/marry7.gif""style=""height:400px;""></stim_listB>",is marrying,
null,"<div style=""font-size:60px;"">+</div>",,html-keyboard-response,274,2135378,0.0-17.0-0.12,55796,List1B,white,man,,,,null,,,,
null,"<img src=""stim_listB/fight1.gif""style=""height:400px;""></stim_listB>",,html-keyboard-response,275,2137380,0.0-17.0-1.12,55796,List1B,white,man,,,,null,,,,
null,is fighting,,html-keyboard-response,276,2139383,0.0-17.0-2.12,55796,List1B,white,man,,,,null,,,,
6348,,,survey-text,277,2145733,0.0-17.0-3.12,55796,List1B,white,man,,,,,"{""Q0"":""mike is fighting kate ""}","<img src=""stim_listB/fight1.gif""style=""height:400px;""></stim_listB>",is fighting,
null,"<div style=""font-size:60px;"">+</div>",,html-keyboard-response,278,2146234,0.0-17.0-0.13,55796,List1B,white,man,,,,null,,,,
null,"<img src=""stim_listB/shout3.gif""style=""height:400px;""></stim_listB>",,html-keyboard-response,279,2148236,0.0-17.0-1.13,55796,List1B,white,man,,,,null,,,,
null,is shouting at,,html-keyboard-response,280,2150238,0.0-17.0-2.13,55796,List1B,white,man,,,,null,,,,
6278,,,survey-text,281,2156517,0.0-17.0-3.13,55796,List1B,white,man,,,,,"{""Q0"":""ruth is shouting at luke ""}","<img src=""stim_listB/shout3.gif""style=""height:400px;""></stim_listB>",is shouting at,
null,"<div style=""font-size:60px;"">+</div>",,html-keyboard-response,282,2157018,0.0-17.0-0.14,55796,List1B,white,man,,,,null,,,,
null,"<img src=""stim_listB/argue3.gif""style=""height:400px;""></stim_listB>",,html-keyboard-response,283,2159021,0.0-17.0-1.14,55796,List1B,white,man,,,,null,,,,
null,is arguing with,,html-keyboard-response,284,2161022,0.0-17.0-2.14,55796,List1B,white,man,,,,null,,,,
9341,,,survey-text,285,2170365,0.0-17.0-3.14,55796,List1B,white,man,,,,,"{""Q0"":""ruth is arguing with dave ""}","<img src=""stim_listB/argue3.gif""style=""height:400px;""></stim_listB>",is arguing with,
null,"<div style=""font-size:60px;"">+</div>",,html-keyboard-response,286,2170866,0.0-17.0-0.15,55796,List1B,white,man,,,,null,,,,
null,"<img src=""stim_listB/argue4.gif""style=""height:400px;""></stim_listB>",,html-keyboard-response,287,2172868,0.0-17.0-1.15,55796,List1B,white,man,,,,null,,,,
null,are arguing with each other,,html-keyboard-response,288,2174870,0.0-17.0-2.15,55796,List1B,white,man,,,,null,,,,
14022,,,survey-text,289,2188892,0.0-17.0-3.15,55796,List1B,white,man,,,,,"{""Q0"":""jane and luke are arguing with each other ""}","<img src=""stim_listB/argue4.gif""style=""height:400px;""></stim_listB>",are arguing with each other,
null,"<div style=""font-size:60px;"">+</div>",,html-keyboard-response,290,2189394,0.0-17.0-0.16,55796,List1B,white,man,,,,null,,,,
null,"<img src=""stim_listB/fight4.gif""style=""height:400px;""></stim_listB>",,html-keyboard-response,291,2191397,0.0-17.0-1.16,55796,List1B,white,man,,,,null,,,,
null,are fighting each other,,html-keyboard-response,292,2193398,0.0-17.0-2.16,55796,List1B,white,man,,,,null,,,,
21101,,,survey-text,293,2214501,0.0-17.0-3.16,55796,List1B,white,man,,,,,"{""Q0"":""luke and ruth are fighting each other ""}","<img src=""stim_listB/fight4.gif""style=""height:400px;""></stim_listB>",are fighting each other,
null,"<div style=""font-size:60px;"">+</div>",,html-keyboard-response,294,2215002,0.0-17.0-0.17,55796,List1B,white,man,,,,null,,,,
null,"<img src=""stim_listB/play1.gif""style=""height:400px;""></stim_listB>",,html-keyboard-response,295,2217006,0.0-17.0-1.17,55796,List1B,white,man,,,,null,,,,
null,is playing with,,html-keyboard-response,296,2219007,0.0-17.0-2.17,55796,List1B,white,man,,,,null,,,,
12227,,,survey-text,297,2231236,0.0-17.0-3.17,55796,List1B,white,man,,,,,"{""Q0"":""mike is playing with kate ""}","<img src=""stim_listB/play1.gif""style=""height:400px;""></stim_listB>",is playing with,
null,"<div style=""font-size:60px;"">+</div>",,html-keyboard-response,298,2231737,0.0-17.0-0.18,55796,List1B,white,man,,,,null,,,,
null,"<img src=""stim_listB/flirt3.gif""style=""height:400px;""></stim_listB>",,html-keyboard-response,299,2233740,0.0-17.0-1.18,55796,List1B,white,man,,,,null,,,,
null,is flirting with,,html-keyboard-response,300,2235741,0.0-17.0-2.18,55796,List1B,white,man,,,,null,,,,
10101,,,survey-text,301,2245843,0.0-17.0-3.18,55796,List1B,white,man,,,,,"{""Q0"":""jane is flirting with luke ""}","<img src=""stim_listB/flirt3.gif""style=""height:400px;""></stim_listB>",is flirting with,
null,"<div style=""font-size:60px;"">+</div>",,html-keyboard-response,302,2246346,0.0-17.0-0.19,55796,List1B,white,man,,,,null,,,,
null,"<img src=""stim_listB/argue2.gif""style=""height:400px;""></stim_listB>",,html-keyboard-response,303,2248348,0.0-17.0-1.19,55796,List1B,white,man,,,,null,,,,
null,are arguing with each other,,html-keyboard-response,304,2250352,0.0-17.0-2.19,55796,List1B,white,man,,,,null,,,,
11730,,,survey-text,305,2262084,0.0-17.0-3.19,55796,List1B,white,man,,,,,"{""Q0"":""fred and kate are arguing with each other""}","<img src=""stim_listB/argue2.gif""style=""height:400px;""></stim_listB>",are arguing with each other,
3447,"<img src='img/portrait_matrix_list1.jpg' style='width:900px;height:500px;''></img><p>If you have memorised all the portraits and names and are ready to start, press Continue.</p><p><strong>Please note: Your memory of these faces will be tested 4 times during this experiment.</strong></p>",0,html-button-response,306,2265532,0.0-18.0-0.0,55796,List1B,white,man,,,,,,,,
2438,"<img src=""portrait/WW2.jpg""style=""height:400px;""></img>",3,html-button-response,307,2268972,0.0-18.0-1.0,55796,List1B,white,man,,TRUE,3,,,,,
null,CORRECT,,html-keyboard-response,308,2270474,0.0-18.0-2.0-0.0,55796,List1B,white,man,,,,null,,,,
3568,"<img src=""portrait/BW1.jpg""style=""height:400px;""></img>",0,html-button-response,309,2274044,0.0-18.0-4.0,55796,List1B,white,man,,TRUE,0,,,,,
null,CORRECT,,html-keyboard-response,310,2275547,0.0-18.0-5.0-0.0,55796,List1B,white,man,,,,null,,,,
4176,"<img src=""portrait/BM2.jpg""style=""height:400px;""></img>",5,html-button-response,311,2279724,0.0-18.0-7.0,55796,List1B,white,man,,TRUE,5,,,,,
null,CORRECT,,html-keyboard-response,312,2281227,0.0-18.0-8.0-0.0,55796,List1B,white,man,,,,null,,,,
2544,"<img src=""portrait/BW2.jpg""style=""height:400px;""></img>",2,html-button-response,313,2283772,0.0-18.0-10.0,55796,List1B,white,man,,TRUE,2,,,,,
null,CORRECT,,html-keyboard-response,314,2285274,0.0-18.0-11.0-0.0,55796,List1B,white,man,,,,null,,,,
1647,"<img src=""portrait/WM1.jpg""style=""height:400px;""></img>",6,html-button-response,315,2286924,0.0-18.0-13.0,55796,List1B,white,man,,TRUE,6,,,,,
null,CORRECT,,html-keyboard-response,316,2288425,0.0-18.0-14.0-0.0,55796,List1B,white,man,,,,null,,,,
2201,"<img src=""portrait/WM2.jpg""style=""height:400px;""></img>",7,html-button-response,317,2290627,0.0-18.0-16.0,55796,List1B,white,man,,TRUE,7,,,,,
null,CORRECT,,html-keyboard-response,318,2292130,0.0-18.0-17.0-0.0,55796,List1B,white,man,,,,null,,,,
3024,"<img src=""portrait/WW1.jpg""style=""height:400px;""></img>",1,html-button-response,319,2295155,0.0-18.0-19.0,55796,List1B,white,man,,TRUE,1,,,,,
null,CORRECT,,html-keyboard-response,320,2296658,0.0-18.0-20.0-0.0,55796,List1B,white,man,,,,null,,,,
1264,"<img src=""portrait/BM1.jpg""style=""height:400px;""></img>",4,html-button-response,321,2297923,0.0-18.0-22.0,55796,List1B,white,man,,TRUE,4,,,,,
null,CORRECT,,html-keyboard-response,322,2299426,0.0-18.0-23.0-0.0,55796,List1B,white,man,,,,null,,,,
1048,<p>You got 8 out of 8 right first time. Press Continue.</p>,0,html-button-response,323,2300475,0.0-18.0-25.0,55796,List1B,white,man,,,,,,,,
null,"<div style=""font-size:60px;"">+</div>",,html-keyboard-response,324,2301979,0.0-19.0-0.0,55796,List1B,white,man,,,,null,,,,
null,"<img src=""stim_listB/kiss6.gif""style=""height:400px;""></stim_listB>",,html-keyboard-response,325,2303981,0.0-19.0-1.0,55796,List1B,white,man,,,,null,,,,
null,are kissing each other,,html-keyboard-response,326,2305983,0.0-19.0-2.0,55796,List1B,white,man,,,,null,,,,
10516,,,survey-text,327,2316499,0.0-19.0-3.0,55796,List1B,white,man,,,,,"{""Q0"":""mike and dave are kissing each other ""}","<img src=""stim_listB/kiss6.gif""style=""height:400px;""></stim_listB>",are kissing each other,
null,"<div style=""font-size:60px;"">+</div>",,html-keyboard-response,328,2317001,0.0-19.0-0.1,55796,List1B,white,man,,,,null,,,,
null,"<img src=""stim_listB/marry5.gif""style=""height:400px;""></stim_listB>",,html-keyboard-response,329,2319003,0.0-19.0-1.1,55796,List1B,white,man,,,,null,,,,
null,is marrying,,html-keyboard-response,330,2321005,0.0-19.0-2.1,55796,List1B,white,man,,,,null,,,,
6085,,,survey-text,331,2327091,0.0-19.0-3.1,55796,List1B,white,man,,,,,"{""Q0"":""luke is marrying mike ""}","<img src=""stim_listB/marry5.gif""style=""height:400px;""></stim_listB>",is marrying,
null,"<div style=""font-size:60px;"">+</div>",,html-keyboard-response,332,2327593,0.0-19.0-0.2,55796,List1B,white,man,,,,null,,,,
null,"<img src=""stim_listB/argue8.gif""style=""height:400px;""></stim_listB>",,html-keyboard-response,333,2329595,0.0-19.0-1.2,55796,List1B,white,man,,,,null,,,,
null,are arguing with each other,,html-keyboard-response,334,2331597,0.0-19.0-2.2,55796,List1B,white,man,,,,null,,,,
12292,,,survey-text,335,2343891,0.0-19.0-3.2,55796,List1B,white,man,,,,,"{""Q0"":""jane and beth are arguing with each other ""}","<img src=""stim_listB/argue8.gif""style=""height:400px;""></stim_listB>",are arguing with each other,
null,"<div style=""font-size:60px;"">+</div>",,html-keyboard-response,336,2344393,0.0-19.0-0.3,55796,List1B,white,man,,,,null,,,,
null,"<img src=""stim_listB/marry2.gif""style=""height:400px;""></stim_listB>",,html-keyboard-response,337,2346395,0.0-19.0-1.3,55796,List1B,white,man,,,,null,,,,
null,are marrying each other,,html-keyboard-response,338,2348398,0.0-19.0-2.3,55796,List1B,white,man,,,,null,,,,
14372,,,survey-text,339,2362770,0.0-19.0-3.3,55796,List1B,white,man,,,,,"{""Q0"":""fred and kate are marrying each other ""}","<img src=""stim_listB/marry2.gif""style=""height:400px;""></stim_listB>",are marrying each other,
null,"<div style=""font-size:60px;"">+</div>",,html-keyboard-response,340,2363272,0.0-19.0-0.4,55796,List1B,white,man,,,,null,,,,
null,"<img src=""stim_listB/marry3.gif""style=""height:400px;""></stim_listB>",,html-keyboard-response,341,2365274,0.0-19.0-1.4,55796,List1B,white,man,,,,null,,,,
null,is marrying,,html-keyboard-response,342,2367275,0.0-19.0-2.4,55796,List1B,white,man,,,,null,,,,
12870,,,survey-text,343,2380146,0.0-19.0-3.4,55796,List1B,white,man,,,,,"{""Q0"":""dave is marrying jane""}","<img src=""stim_listB/marry3.gif""style=""height:400px;""></stim_listB>",is marrying,
null,"<div style=""font-size:60px;"">+</div>",,html-keyboard-response,344,2380648,0.0-19.0-0.5,55796,List1B,white,man,,,,null,,,,
null,"<img src=""stim_listB/play4.gif""style=""height:400px;""></stim_listB>",,html-keyboard-response,345,2382653,0.0-19.0-1.5,55796,List1B,white,man,,,,null,,,,
null,are playing with each other,,html-keyboard-response,346,2384655,0.0-19.0-2.5,55796,List1B,white,man,,,,null,,,,
7284,,,survey-text,347,2391939,0.0-19.0-3.5,55796,List1B,white,man,,,,,"{""Q0"":""luke is playing with ruth ""}","<img src=""stim_listB/play4.gif""style=""height:400px;""></stim_listB>",are playing with each other,
null,"<div style=""font-size:60px;"">+</div>",,html-keyboard-response,348,2392441,0.0-19.0-0.6,55796,List1B,white,man,,,,null,,,,
null,"<img src=""stim_listB/marry1.gif""style=""height:400px;""></stim_listB>",,html-keyboard-response,349,2394443,0.0-19.0-1.6,55796,List1B,white,man,,,,null,,,,
null,is marrying,,html-keyboard-response,350,2396444,0.0-19.0-2.6,55796,List1B,white,man,,,,null,,,,
8678,,,survey-text,351,2405123,0.0-19.0-3.6,55796,List1B,white,man,,,,,"{""Q0"":""mike is marrying beth""}","<img src=""stim_listB/marry1.gif""style=""height:400px;""></stim_listB>",is marrying,
null,"<div style=""font-size:60px;"">+</div>",,html-keyboard-response,352,2405626,0.0-19.0-0.7,55796,List1B,white,man,,,,null,,,,
null,"<img src=""stim_listB/play6.gif""style=""height:400px;""></stim_listB>",,html-keyboard-response,353,2407629,0.0-19.0-1.7,55796,List1B,white,man,,,,null,,,,
null,are playing with each other,,html-keyboard-response,354,2409630,0.0-19.0-2.7,55796,List1B,white,man,,,,null,,,,
37629,,,survey-text,355,2447260,0.0-19.0-3.7,55796,List1B,white,man,,,,,"{""Q0"":""fred and luke are playing with each other ""}","<img src=""stim_listB/play6.gif""style=""height:400px;""></stim_listB>",are playing with each other,
null,"<div style=""font-size:60px;"">+</div>",,html-keyboard-response,356,2447761,0.0-19.0-0.8,55796,List1B,white,man,,,,null,,,,
null,"<img src=""stim_listB/talk5.gif""style=""height:400px;""></stim_listB>",,html-keyboard-response,357,2449772,0.0-19.0-1.8,55796,List1B,white,man,,,,null,,,,
null,is talking to,,html-keyboard-response,358,2451788,0.0-19.0-2.8,55796,List1B,white,man,,,,null,,,,
13831,,,survey-text,359,2465620,0.0-19.0-3.8,55796,List1B,white,man,,,,,"{""Q0"":""fred is talking to dave ""}","<img src=""stim_listB/talk5.gif""style=""height:400px;""></stim_listB>",is talking to,
null,"<div style=""font-size:60px;"">+</div>",,html-keyboard-response,360,2466123,0.0-19.0-0.9,55796,List1B,white,man,,,,null,,,,
null,"<img src=""stim_listB/dance7.gif""style=""height:400px;""></stim_listB>",,html-keyboard-response,361,2468125,0.0-19.0-1.9,55796,List1B,white,man,,,,null,,,,
null,is dancing with,,html-keyboard-response,362,2470126,0.0-19.0-2.9,55796,List1B,white,man,,,,null,,,,
12989,,,survey-text,363,2483116,0.0-19.0-3.9,55796,List1B,white,man,,,,,"{""Q0"":""jane is dancing with beth""}","<img src=""stim_listB/dance7.gif""style=""height:400px;""></stim_listB>",is dancing with,
null,"<div style=""font-size:60px;"">+</div>",,html-keyboard-response,364,2483622,0.0-19.0-0.10,55796,List1B,white,man,,,,null,,,,
null,"<img src=""stim_listB/argue1.gif""style=""height:400px;""></stim_listB>",,html-keyboard-response,365,2485624,0.0-19.0-1.10,55796,List1B,white,man,,,,null,,,,
null,is arguing with,,html-keyboard-response,366,2487626,0.0-19.0-2.10,55796,List1B,white,man,,,,null,,,,
10521,,,survey-text,367,2498148,0.0-19.0-3.10,55796,List1B,white,man,,,,,"{""Q0"":""beth is arguing with mike ""}","<img src=""stim_listB/argue1.gif""style=""height:400px;""></stim_listB>",is arguing with,
null,"<div style=""font-size:60px;"">+</div>",,html-keyboard-response,368,2498650,0.0-19.0-0.11,55796,List1B,white,man,,,,null,,,,
null,"<img src=""stim_listB/talk3.gif""style=""height:400px;""></stim_listB>",,html-keyboard-response,369,2500653,0.0-19.0-1.11,55796,List1B,white,man,,,,null,,,,
null,is talking to,,html-keyboard-response,370,2502654,0.0-19.0-2.11,55796,List1B,white,man,,,,null,,,,
7398,,,survey-text,371,2510054,0.0-19.0-3.11,55796,List1B,white,man,,,,,"{""Q0"":""jane is talking to luke ""}","<img src=""stim_listB/talk3.gif""style=""height:400px;""></stim_listB>",is talking to,
null,"<div style=""font-size:60px;"">+</div>",,html-keyboard-response,372,2510557,0.0-19.0-0.12,55796,List1B,white,man,,,,null,,,,
null,"<img src=""stim_listB/flirt1.gif""style=""height:400px;""></stim_listB>",,html-keyboard-response,373,2512560,0.0-19.0-1.12,55796,List1B,white,man,,,,null,,,,
null,is flirting with,,html-keyboard-response,374,2514563,0.0-19.0-2.12,55796,List1B,white,man,,,,null,,,,
15722,,,survey-text,375,2530286,0.0-19.0-3.12,55796,List1B,white,man,,,,,"{""Q0"":""fred is flirting with beth""}","<img src=""stim_listB/flirt1.gif""style=""height:400px;""></stim_listB>",is flirting with,
null,"<div style=""font-size:60px;"">+</div>",,html-keyboard-response,376,2530787,0.0-19.0-0.13,55796,List1B,white,man,,,,null,,,,
null,"<img src=""stim_listB/kiss8.gif""style=""height:400px;""></stim_listB>",,html-keyboard-response,377,2532790,0.0-19.0-1.13,55796,List1B,white,man,,,,null,,,,
null,are kissing each other,,html-keyboard-response,378,2534791,0.0-19.0-2.13,55796,List1B,white,man,,,,null,,,,
15053,,,survey-text,379,2549845,0.0-19.0-3.13,55796,List1B,white,man,,,,,"{""Q0"":""kate and jane are kissing each other""}","<img src=""stim_listB/kiss8.gif""style=""height:400px;""></stim_listB>",are kissing each other,
null,"<div style=""font-size:60px;"">+</div>",,html-keyboard-response,380,2550347,0.0-19.0-0.14,55796,List1B,white,man,,,,null,,,,
null,"<img src=""stim_listB/touch6.gif""style=""height:400px;""></stim_listB>",,html-keyboard-response,381,2552349,0.0-19.0-1.14,55796,List1B,white,man,,,,null,,,,
null,are touching each other,,html-keyboard-response,382,2554350,0.0-19.0-2.14,55796,List1B,white,man,,,,null,,,,
19583,,,survey-text,383,2573935,0.0-19.0-3.14,55796,List1B,white,man,,,,,"{""Q0"":""fred and like are touching each other""}","<img src=""stim_listB/touch6.gif""style=""height:400px;""></stim_listB>",are touching each other,
null,"<div style=""font-size:60px;"">+</div>",,html-keyboard-response,384,2574436,0.0-19.0-0.15,55796,List1B,white,man,,,,null,,,,
null,"<img src=""stim_listB/flirt5.gif""style=""height:400px;""></stim_listB>",,html-keyboard-response,385,2576438,0.0-19.0-1.15,55796,List1B,white,man,,,,null,,,,
null,is flirting with,,html-keyboard-response,386,2578439,0.0-19.0-2.15,55796,List1B,white,man,,,,null,,,,
8622,,,survey-text,387,2587062,0.0-19.0-3.15,55796,List1B,white,man,,,,,"{""Q0"":""fred is flirting with dave ""}","<img src=""stim_listB/flirt5.gif""style=""height:400px;""></stim_listB>",is flirting with,
null,"<div style=""font-size:60px;"">+</div>",,html-keyboard-response,388,2587564,0.0-19.0-0.16,55796,List1B,white,man,,,,null,,,,
null,"<img src=""stim_listB/fight7.gif""style=""height:400px;""></stim_listB>",,html-keyboard-response,389,2589566,0.0-19.0-1.16,55796,List1B,white,man,,,,null,,,,
null,is fighting,,html-keyboard-response,390,2591569,0.0-19.0-2.16,55796,List1B,white,man,,,,null,,,,
8045,,,survey-text,391,2599614,0.0-19.0-3.16,55796,List1B,white,man,,,,,"{""Q0"":""jane is fighting beth""}","<img src=""stim_listB/fight7.gif""style=""height:400px;""></stim_listB>",is fighting,
null,"<div style=""font-size:60px;"">+</div>",,html-keyboard-response,392,2600117,0.0-19.0-0.17,55796,List1B,white,man,,,,null,,,,
null,"<img src=""stim_listB/flirt2.gif""style=""height:400px;""></stim_listB>",,html-keyboard-response,393,2602119,0.0-19.0-1.17,55796,List1B,white,man,,,,null,,,,
null,are flirting with each other,,html-keyboard-response,394,2604121,0.0-19.0-2.17,55796,List1B,white,man,,,,null,,,,
10845,,,survey-text,395,2614966,0.0-19.0-3.17,55796,List1B,white,man,,,,,"{""Q0"":""mike and beth are flirting with each other ""}","<img src=""stim_listB/flirt2.gif""style=""height:400px;""></stim_listB>",are flirting with each other,
null,"<div style=""font-size:60px;"">+</div>",,html-keyboard-response,396,2615468,0.0-19.0-0.18,55796,List1B,white,man,,,,null,,,,
null,"<img src=""stim_listB/shout7.gif""style=""height:400px;""></stim_listB>",,html-keyboard-response,397,2617472,0.0-19.0-1.18,55796,List1B,white,man,,,,null,,,,
null,is shouting at,,html-keyboard-response,398,2619473,0.0-19.0-2.18,55796,List1B,white,man,,,,null,,,,
6101,,,survey-text,399,2625576,0.0-19.0-3.18,55796,List1B,white,man,,,,,"{""Q0"":""beth is shouting at ruth""}","<img src=""stim_listB/shout7.gif""style=""height:400px;""></stim_listB>",is shouting at,
null,"<div style=""font-size:60px;"">+</div>",,html-keyboard-response,400,2626077,0.0-19.0-0.19,55796,List1B,white,man,,,,null,,,,
null,"<img src=""stim_listB/touch4.gif""style=""height:400px;""></stim_listB>",,html-keyboard-response,401,2628079,0.0-19.0-1.19,55796,List1B,white,man,,,,null,,,,
null,are touching each other,,html-keyboard-response,402,2630081,0.0-19.0-2.19,55796,List1B,white,man,,,,null,,,,
12421,,,survey-text,403,2642503,0.0-19.0-3.19,55796,List1B,white,man,,,,,"{""Q0"":""luke and ruth are touching each other ""}","<img src=""stim_listB/touch4.gif""style=""height:400px;""></stim_listB>",are touching each other,
2383,<p>Thank you for completing that task.</p><p>The final part of this session is a short questionnaire.</p><p>Press Continue.</p>,0,html-button-response,404,2644887,0.0-20.0,55796,List1B,white,man,,,,,,,,
28621,,,survey-text,405,2674511,0.0-21.0,55796,List1B,white,man,,,,,"{""Q0"":""19"",""Q1"":""English"",""Q2"":""English"",""Q3"":""United Kingdom"",""Q4"":""White"",""Q5"":""Male""}",,,demographics
6022,,,survey-likert,406,2680536,0.0-22.0,55796,List1B,white,man,,,,,"{""Q0"":4}",,,likert_ESS
3854,,,survey-likert,407,2684391,0.0-23.0,55796,List1B,white,man,,,,,"{""Q0"":4}",,,likert_NSSAL_Q1
3569,,,survey-likert,408,2687961,0.0-24.0,55796,List1B,white,man,,,,,"{""Q0"":4}",,,likert_NSSAL_Q2
4263,,,survey-likert,409,2692225,0.0-25.0,55796,List1B,white,man,,,,,"{""Q0"":3}",,,likert_CGRS_Q1
2183,,,survey-likert,410,2694409,0.0-26.0,55796,List1B,white,man,,,,,"{""Q0"":3}",,,likert_CGRS_Q2
2535,,,survey-likert,411,2696945,0.0-27.0,55796,List1B,white,man,,,,,"{""Q0"":3}",,,likert_CGRS_Q3
5878,,,survey-text,412,2702825,0.0-28.0,55796,List1B,white,man,,,,,"{""Q0"":""ccc""}",,,worker_id
9699,,,external-html,413,2712577,0.0-29.0,55796,List1B,white,man,debrief.html,,,,,,,
