rt,stimulus,button_pressed,trial_type,trial_index,time_elapsed,internal_node_id,subject,list,ppt_race,ppt_gender,url,first_guess,correct,key_press,responses,image_type,phrase_type,test_part
245487,Welcome to the experiment. Press Continue to begin.,0,html-button-response,0,245494,0.0-0.0,55957,List2A,black,woman,,,,,,,,
53305,,,external-html,1,300191,0.0-1.0,55957,List2A,black,woman,consent.html,,,,,,,
36859,"<p>On the next page, you will see portraits of 8 people and their names.</p><p>Your first task is to take a few minutes to memorise the names of these people.</p><p>You will have to recall their names during the rest of the experiment, so it is</p><p>essential that you try to memorise these people and their names as best as you can.</p><br><p><strong>You will then be tested on your memory of these names and portraits.</strong></p><br><p>The experiment will start after you have completed this memory test.</p><br><p>Ready?</p>",0,html-button-response,2,337055,0.0-2.0,55957,List2A,black,woman,,,,,,,,
166882,"<img src='img/portrait_matrix_list2.jpg' style='width:900px;height:500px;''></img><p>If you have memorised all the portraits and names and are ready to start, press Continue.</p><p><strong>Please note: Your memory of these faces will be tested 4 times during this experiment.</strong></p>",0,html-button-response,3,504957,0.0-3.0-0.0,55957,List2A,black,woman,,,,,,,,
13508,"<img src=""portrait/BM1.jpg""style=""height:400px;""></img>",4,html-button-response,4,519484,0.0-3.0-1.0,55957,List2A,black,woman,,TRUE,4,,,,,
null,CORRECT,,html-keyboard-response,5,521015,0.0-3.0-2.0-0.0,55957,List2A,black,woman,,,,null,,,,
3377,"<img src=""portrait/BM2.jpg""style=""height:400px;""></img>",5,html-button-response,6,524397,0.0-3.0-4.0,55957,List2A,black,woman,,TRUE,5,,,,,
null,CORRECT,,html-keyboard-response,7,525932,0.0-3.0-5.0-0.0,55957,List2A,black,woman,,,,null,,,,
3460,"<img src=""portrait/WM1.jpg""style=""height:400px;""></img>",6,html-button-response,8,529398,0.0-3.0-7.0,55957,List2A,black,woman,,TRUE,6,,,,,
null,CORRECT,,html-keyboard-response,9,530918,0.0-3.0-8.0-0.0,55957,List2A,black,woman,,,,null,,,,
10063,"<img src=""portrait/BW2.jpg""style=""height:400px;""></img>",0,html-button-response,10,540984,0.0-3.0-10.0,55957,List2A,black,woman,,TRUE,2,,,,,
8581,"<img src=""portrait/BW2.jpg""style=""height:400px;""></img>",2,html-button-response,11,550585,0.0-3.0-12.0-0.0,55957,List2A,black,woman,,FALSE,2,,,,,
null,CORRECT,,html-keyboard-response,12,552116,0.0-3.0-12.0-1.0-0.0,55957,List2A,black,woman,,,,null,,,,
3275,"<img src=""portrait/WW1.jpg""style=""height:400px;""></img>",1,html-button-response,13,555395,0.0-3.0-13.0,55957,List2A,black,woman,,TRUE,1,,,,,
null,CORRECT,,html-keyboard-response,14,556928,0.0-3.0-14.0-0.0,55957,List2A,black,woman,,,,null,,,,
3111,"<img src=""portrait/WW2.jpg""style=""height:400px;""></img>",3,html-button-response,15,560045,0.0-3.0-16.0,55957,List2A,black,woman,,TRUE,3,,,,,
null,CORRECT,,html-keyboard-response,16,561586,0.0-3.0-17.0-0.0,55957,List2A,black,woman,,,,null,,,,
4443,"<img src=""portrait/BW1.jpg""style=""height:400px;""></img>",0,html-button-response,17,566034,0.0-3.0-19.0,55957,List2A,black,woman,,TRUE,0,,,,,
null,CORRECT,,html-keyboard-response,18,567545,0.0-3.0-20.0-0.0,55957,List2A,black,woman,,,,null,,,,
11703,"<img src=""portrait/WM2.jpg""style=""height:400px;""></img>",7,html-button-response,19,579252,0.0-3.0-22.0,55957,List2A,black,woman,,TRUE,7,,,,,
null,CORRECT,,html-keyboard-response,20,580793,0.0-3.0-23.0-0.0,55957,List2A,black,woman,,,,null,,,,
4575,<p>You got 7 out of 8 right first time. Press Continue.</p>,0,html-button-response,21,585372,0.0-3.0-25.0,55957,List2A,black,woman,,,,,,,,
3543,"As you did not score 100%, the memory game will repeat. Press Continue.",0,html-button-response,22,589935,0.0-3.0-26.0-0.0,55957,List2A,black,woman,,,,,,,,
27546,"<img src='img/portrait_matrix_list2.jpg' style='width:900px;height:500px;''></img><p>If you have memorised all the portraits and names and are ready to start, press Continue.</p><p><strong>Please note: Your memory of these faces will be tested 4 times during this experiment.</strong></p>",0,html-button-response,23,618525,0.0-3.1-0.1,55957,List2A,black,woman,,,,,,,,
9877,"<img src=""portrait/BM1.jpg""style=""height:400px;""></img>",4,html-button-response,24,629424,0.0-3.1-1.1,55957,List2A,black,woman,,TRUE,4,,,,,
null,CORRECT,,html-keyboard-response,25,630957,0.0-3.1-2.1-0.1,55957,List2A,black,woman,,,,null,,,,
3234,"<img src=""portrait/BM2.jpg""style=""height:400px;""></img>",5,html-button-response,26,634196,0.0-3.1-4.1,55957,List2A,black,woman,,TRUE,5,,,,,
null,CORRECT,,html-keyboard-response,27,635721,0.0-3.1-5.1-0.1,55957,List2A,black,woman,,,,null,,,,
3367,"<img src=""portrait/WM1.jpg""style=""height:400px;""></img>",6,html-button-response,28,639093,0.0-3.1-7.1,55957,List2A,black,woman,,TRUE,6,,,,,
null,CORRECT,,html-keyboard-response,29,640613,0.0-3.1-8.1-0.1,55957,List2A,black,woman,,,,null,,,,
8086,"<img src=""portrait/BW2.jpg""style=""height:400px;""></img>",2,html-button-response,30,648704,0.0-3.1-10.1,55957,List2A,black,woman,,TRUE,2,,,,,
null,CORRECT,,html-keyboard-response,31,650241,0.0-3.1-11.1-0.1,55957,List2A,black,woman,,,,null,,,,
27137,"<img src=""portrait/WW1.jpg""style=""height:400px;""></img>",1,html-button-response,32,677383,0.0-3.1-13.1,55957,List2A,black,woman,,TRUE,1,,,,,
null,CORRECT,,html-keyboard-response,33,678917,0.0-3.1-14.1-0.1,55957,List2A,black,woman,,,,null,,,,
4719,"<img src=""portrait/WW2.jpg""style=""height:400px;""></img>",3,html-button-response,34,683641,0.0-3.1-16.1,55957,List2A,black,woman,,TRUE,3,,,,,
null,CORRECT,,html-keyboard-response,35,685168,0.0-3.1-17.1-0.1,55957,List2A,black,woman,,,,null,,,,
1814,"<img src=""portrait/BW1.jpg""style=""height:400px;""></img>",0,html-button-response,36,686987,0.0-3.1-19.1,55957,List2A,black,woman,,TRUE,0,,,,,
null,CORRECT,,html-keyboard-response,37,688530,0.0-3.1-20.1-0.1,55957,List2A,black,woman,,,,null,,,,
2202,"<img src=""portrait/WM2.jpg""style=""height:400px;""></img>",7,html-button-response,38,690736,0.0-3.1-22.1,55957,List2A,black,woman,,TRUE,7,,,,,
null,CORRECT,,html-keyboard-response,39,692266,0.0-3.1-23.1-0.1,55957,List2A,black,woman,,,,null,,,,
3152,<p>You got 8 out of 8 right first time. Press Continue.</p>,0,html-button-response,40,695421,0.0-3.1-25.1,55957,List2A,black,woman,,,,,,,,
74894,"<p>In this experiment, you will view photographs of the people from the memory game interacting.</p><p>By using the <strong>exact</strong> phrase given <i>after</i> the photograph appears and recalling the correct names of the people in the photographs, form a sentence describing the interaction. You do not need to capitalise names.</p><p>Type your answer in the space provided. Please complete every sentence before moving onto the next trial.</p><p>You will only have a few seconds to memorise each given photograph and phrase before you can respond, so try your best to focus.</p><p>An example is given below. Press 'Continue' when you are ready.</p><img src='img/speaking_example.jpg' style='width:800px;height:460px;''></img>",0,html-button-response,41,771333,0.0-4.0,55957,List2A,black,woman,,,,,,,,
5451,"<p>Before the experiment starts, you will watch two example trials. Press 'Continue'.</p>",0,html-button-response,42,777795,0.0-5.0,55957,List2A,black,woman,,,,,,,,
null,<img src='img/meet_eg.gif' style='height:400px;''></img>,,html-keyboard-response,43,780826,0.0-6.0,55957,List2A,black,woman,,,,null,,,,
null,<p>is meeting</p>,,html-keyboard-response,44,782814,0.0-7.0,55957,List2A,black,woman,,,,null,,,,
5780,<p><b>Answer:</b> jane is meeting ruth</p>,0,html-button-response,45,788597,0.0-8.0,55957,List2A,black,woman,,,,,,,,
null,<img src='img/look_eg.gif' style='height:400px;''></img>,,html-keyboard-response,46,791626,0.0-9.0,55957,List2A,black,woman,,,,null,,,,
null,<p>are looking at each other</p>,,html-keyboard-response,47,793617,0.0-10.0,55957,List2A,black,woman,,,,null,,,,
8142,<p><b>Answer:</b> fred and mike are looking at each other</p>,0,html-button-response,48,801763,0.0-11.0,55957,List2A,black,woman,,,,,,,,
19215,"<p>Ready to start the experiment?</p><br><p><strong>Remember to describe the picture using a full sentence,</strong></p><p><strong>that combines the names of the people with the <i>exact</i> phrase given.</strong></p><p><strong>To receive full payment you must do this correctly.</strong></p><p><strong> You do not need to capitalise names or use punctuation.</strong></p><br><p>Press 'Continue' to begin.</p>",0,html-button-response,49,821992,0.0-12.0,55957,List2A,black,woman,,,,,,,,
null,"<div style=""font-size:60px;"">+</div>",,html-keyboard-response,50,823532,0.0-13.0-0.0,55957,List2A,black,woman,,,,null,,,,
null,"<img src=""stim_listA/play2.gif""style=""height:400px;""></stim_listA>",,html-keyboard-response,51,825558,0.0-13.0-1.0,55957,List2A,black,woman,,,,null,,,,
null,are playing with each other,,html-keyboard-response,52,827534,0.0-13.0-2.0,55957,List2A,black,woman,,,,null,,,,
22876,,,survey-text,53,850414,0.0-13.0-3.0,55957,List2A,black,woman,,,,,"{""Q0"":""ruth and luke are playing with each other""}","<img src=""stim_listA/play2.gif""style=""height:400px;""></stim_listA>",are playing with each other,
null,"<div style=""font-size:60px;"">+</div>",,html-keyboard-response,54,850944,0.0-13.0-0.1,55957,List2A,black,woman,,,,null,,,,
null,"<img src=""stim_listA/dance1.gif""style=""height:400px;""></stim_listA>",,html-keyboard-response,55,852952,0.0-13.0-1.1,55957,List2A,black,woman,,,,null,,,,
null,is dancing with,,html-keyboard-response,56,854959,0.0-13.0-2.1,55957,List2A,black,woman,,,,null,,,,
15410,,,survey-text,57,870374,0.0-13.0-3.1,55957,List2A,black,woman,,,,,"{""Q0"":""jane is dancing with luke""}","<img src=""stim_listA/dance1.gif""style=""height:400px;""></stim_listA>",is dancing with,
null,"<div style=""font-size:60px;"">+</div>",,html-keyboard-response,58,870886,0.0-13.0-0.2,55957,List2A,black,woman,,,,null,,,,
null,"<img src=""stim_listA/touch7.gif""style=""height:400px;""></stim_listA>",,html-keyboard-response,59,872905,0.0-13.0-1.2,55957,List2A,black,woman,,,,null,,,,
null,is touching,,html-keyboard-response,60,874899,0.0-13.0-2.2,55957,List2A,black,woman,,,,null,,,,
15972,,,survey-text,61,890889,0.0-13.0-3.2,55957,List2A,black,woman,,,,,"{""Q0"":""jane is touching kate""}","<img src=""stim_listA/touch7.gif""style=""height:400px;""></stim_listA>",is touching,
null,"<div style=""font-size:60px;"">+</div>",,html-keyboard-response,62,891411,0.0-13.0-0.3,55957,List2A,black,woman,,,,null,,,,
null,"<img src=""stim_listA/talk7.gif""style=""height:400px;""></stim_listA>",,html-keyboard-response,63,893415,0.0-13.0-1.3,55957,List2A,black,woman,,,,null,,,,
null,is talking to,,html-keyboard-response,64,895425,0.0-13.0-2.3,55957,List2A,black,woman,,,,null,,,,
20449,,,survey-text,65,915878,0.0-13.0-3.3,55957,List2A,black,woman,,,,,"{""Q0"":""ruth is talking to kate""}","<img src=""stim_listA/talk7.gif""style=""height:400px;""></stim_listA>",is talking to,
null,"<div style=""font-size:60px;"">+</div>",,html-keyboard-response,66,916390,0.0-13.0-0.4,55957,List2A,black,woman,,,,null,,,,
null,"<img src=""stim_listA/play6.gif""style=""height:400px;""></stim_listA>",,html-keyboard-response,67,918408,0.0-13.0-1.4,55957,List2A,black,woman,,,,null,,,,
null,are playing with each other,,html-keyboard-response,68,920410,0.0-13.0-2.4,55957,List2A,black,woman,,,,null,,,,
22149,,,survey-text,69,942563,0.0-13.0-3.4,55957,List2A,black,woman,,,,,"{""Q0"":""fred and luke are playing with each other""}","<img src=""stim_listA/play6.gif""style=""height:400px;""></stim_listA>",are playing with each other,
null,"<div style=""font-size:60px;"">+</div>",,html-keyboard-response,70,943075,0.0-13.0-0.5,55957,List2A,black,woman,,,,null,,,,
null,"<img src=""stim_listA/shout5.gif""style=""height:400px;""></stim_listA>",,html-keyboard-response,71,945082,0.0-13.0-1.5,55957,List2A,black,woman,,,,null,,,,
null,is shouting at,,html-keyboard-response,72,947106,0.0-13.0-2.5,55957,List2A,black,woman,,,,null,,,,
13232,,,survey-text,73,960342,0.0-13.0-3.5,55957,List2A,black,woman,,,,,"{""Q0"":""luke is shouting at fred""}","<img src=""stim_listA/shout5.gif""style=""height:400px;""></stim_listA>",is shouting at,
null,"<div style=""font-size:60px;"">+</div>",,html-keyboard-response,74,960870,0.0-13.0-0.6,55957,List2A,black,woman,,,,null,,,,
null,"<img src=""stim_listA/play3.gif""style=""height:400px;""></stim_listA>",,html-keyboard-response,75,962876,0.0-13.0-1.6,55957,List2A,black,woman,,,,null,,,,
null,is playing with,,html-keyboard-response,76,964886,0.0-13.0-2.6,55957,List2A,black,woman,,,,null,,,,
11859,,,survey-text,77,976750,0.0-13.0-3.6,55957,List2A,black,woman,,,,,"{""Q0"":""kate is playing with mike""}","<img src=""stim_listA/play3.gif""style=""height:400px;""></stim_listA>",is playing with,
null,"<div style=""font-size:60px;"">+</div>",,html-keyboard-response,78,977271,0.0-13.0-0.7,55957,List2A,black,woman,,,,null,,,,
null,"<img src=""stim_listA/marry7.gif""style=""height:400px;""></stim_listA>",,html-keyboard-response,79,979295,0.0-13.0-1.7,55957,List2A,black,woman,,,,null,,,,
null,is marrying,,html-keyboard-response,80,981289,0.0-13.0-2.7,55957,List2A,black,woman,,,,null,,,,
12877,,,survey-text,81,994171,0.0-13.0-3.7,55957,List2A,black,woman,,,,,"{""Q0"":""beth is marrying jane""}","<img src=""stim_listA/marry7.gif""style=""height:400px;""></stim_listA>",is marrying,
null,"<div style=""font-size:60px;"">+</div>",,html-keyboard-response,82,994690,0.0-13.0-0.8,55957,List2A,black,woman,,,,null,,,,
null,"<img src=""stim_listA/argue6.gif""style=""height:400px;""></stim_listA>",,html-keyboard-response,83,996702,0.0-13.0-1.8,55957,List2A,black,woman,,,,null,,,,
null,are arguing with each other,,html-keyboard-response,84,998709,0.0-13.0-2.8,55957,List2A,black,woman,,,,null,,,,
21129,,,survey-text,85,1019841,0.0-13.0-3.8,55957,List2A,black,woman,,,,,"{""Q0"":""mike and luke are arguing with each other""}","<img src=""stim_listA/argue6.gif""style=""height:400px;""></stim_listA>",are arguing with each other,
null,"<div style=""font-size:60px;"">+</div>",,html-keyboard-response,86,1020364,0.0-13.0-0.9,55957,List2A,black,woman,,,,null,,,,
null,"<img src=""stim_listA/dance2.gif""style=""height:400px;""></stim_listA>",,html-keyboard-response,87,1022375,0.0-13.0-1.9,55957,List2A,black,woman,,,,null,,,,
null,are dancing with each other,,html-keyboard-response,88,1024377,0.0-13.0-2.9,55957,List2A,black,woman,,,,null,,,,
18695,,,survey-text,89,1043076,0.0-13.0-3.9,55957,List2A,black,woman,,,,,"{""Q0"":""dave and ruth are dancing with each other""}","<img src=""stim_listA/dance2.gif""style=""height:400px;""></stim_listA>",are dancing with each other,
null,"<div style=""font-size:60px;"">+</div>",,html-keyboard-response,90,1043589,0.0-13.0-0.10,55957,List2A,black,woman,,,,null,,,,
null,"<img src=""stim_listA/flirt7.gif""style=""height:400px;""></stim_listA>",,html-keyboard-response,91,1045617,0.0-13.0-1.10,55957,List2A,black,woman,,,,null,,,,
null,is flirting with,,html-keyboard-response,92,1047598,0.0-13.0-2.10,55957,List2A,black,woman,,,,null,,,,
15333,,,survey-text,93,1062935,0.0-13.0-3.10,55957,List2A,black,woman,,,,,"{""Q0"":""ruth is flirting with kate""}","<img src=""stim_listA/flirt7.gif""style=""height:400px;""></stim_listA>",is flirting with,
null,"<div style=""font-size:60px;"">+</div>",,html-keyboard-response,94,1063450,0.0-13.0-0.11,55957,List2A,black,woman,,,,null,,,,
null,"<img src=""stim_listA/fight4.gif""style=""height:400px;""></stim_listA>",,html-keyboard-response,95,1065472,0.0-13.0-1.11,55957,List2A,black,woman,,,,null,,,,
null,are fighting each other,,html-keyboard-response,96,1067465,0.0-13.0-2.11,55957,List2A,black,woman,,,,null,,,,
16028,,,survey-text,97,1083497,0.0-13.0-3.11,55957,List2A,black,woman,,,,,"{""Q0"":""beth and fred are fighting each other""}","<img src=""stim_listA/fight4.gif""style=""height:400px;""></stim_listA>",are fighting each other,
null,"<div style=""font-size:60px;"">+</div>",,html-keyboard-response,98,1084020,0.0-13.0-0.12,55957,List2A,black,woman,,,,null,,,,
null,"<img src=""stim_listA/flirt5.gif""style=""height:400px;""></stim_listA>",,html-keyboard-response,99,1086028,0.0-13.0-1.12,55957,List2A,black,woman,,,,null,,,,
null,is flirting with,,html-keyboard-response,100,1088050,0.0-13.0-2.12,55957,List2A,black,woman,,,,null,,,,
10935,,,survey-text,101,1098988,0.0-13.0-3.12,55957,List2A,black,woman,,,,,"{""Q0"":""mike is flirting with luke""}","<img src=""stim_listA/flirt5.gif""style=""height:400px;""></stim_listA>",is flirting with,
null,"<div style=""font-size:60px;"">+</div>",,html-keyboard-response,102,1099512,0.0-13.0-0.13,55957,List2A,black,woman,,,,null,,,,
null,"<img src=""stim_listA/touch8.gif""style=""height:400px;""></stim_listA>",,html-keyboard-response,103,1101520,0.0-13.0-1.13,55957,List2A,black,woman,,,,null,,,,
null,are touching each other,,html-keyboard-response,104,1103527,0.0-13.0-2.13,55957,List2A,black,woman,,,,null,,,,
14763,,,survey-text,105,1118297,0.0-13.0-3.13,55957,List2A,black,woman,,,,,"{""Q0"":""beth and ruth are touching each other""}","<img src=""stim_listA/touch8.gif""style=""height:400px;""></stim_listA>",are touching each other,
null,"<div style=""font-size:60px;"">+</div>",,html-keyboard-response,106,1118814,0.0-13.0-0.14,55957,List2A,black,woman,,,,null,,,,
null,"<img src=""stim_listA/play7.gif""style=""height:400px;""></stim_listA>",,html-keyboard-response,107,1120843,0.0-13.0-1.14,55957,List2A,black,woman,,,,null,,,,
null,is playing with,,html-keyboard-response,108,1122830,0.0-13.0-2.14,55957,List2A,black,woman,,,,null,,,,
14986,,,survey-text,109,1137821,0.0-13.0-3.14,55957,List2A,black,woman,,,,,"{""Q0"":""kate is playing with jane""}","<img src=""stim_listA/play7.gif""style=""height:400px;""></stim_listA>",is playing with,
null,"<div style=""font-size:60px;"">+</div>",,html-keyboard-response,110,1138358,0.0-13.0-0.15,55957,List2A,black,woman,,,,null,,,,
null,"<img src=""stim_listA/marry6.gif""style=""height:400px;""></stim_listA>",,html-keyboard-response,111,1140391,0.0-13.0-1.15,55957,List2A,black,woman,,,,null,,,,
null,are marrying each other,,html-keyboard-response,112,1142371,0.0-13.0-2.15,55957,List2A,black,woman,,,,null,,,,
15457,,,survey-text,113,1157832,0.0-13.0-3.15,55957,List2A,black,woman,,,,,"{""Q0"":""mike and luke are marrying each other""}","<img src=""stim_listA/marry6.gif""style=""height:400px;""></stim_listA>",are marrying each other,
null,"<div style=""font-size:60px;"">+</div>",,html-keyboard-response,114,1158360,0.0-13.0-0.16,55957,List2A,black,woman,,,,null,,,,
null,"<img src=""stim_listA/talk3.gif""style=""height:400px;""></stim_listA>",,html-keyboard-response,115,1160365,0.0-13.0-1.16,55957,List2A,black,woman,,,,null,,,,
null,is talking to,,html-keyboard-response,116,1162373,0.0-13.0-2.16,55957,List2A,black,woman,,,,null,,,,
12191,,,survey-text,117,1174568,0.0-13.0-3.16,55957,List2A,black,woman,,,,,"{""Q0"":""kate is talking to fred""}","<img src=""stim_listA/talk3.gif""style=""height:400px;""></stim_listA>",is talking to,
null,"<div style=""font-size:60px;"">+</div>",,html-keyboard-response,118,1175093,0.0-13.0-0.17,55957,List2A,black,woman,,,,null,,,,
null,"<img src=""stim_listA/shout6.gif""style=""height:400px;""></stim_listA>",,html-keyboard-response,119,1177127,0.0-13.0-1.17,55957,List2A,black,woman,,,,null,,,,
null,are shouting at each other,,html-keyboard-response,120,1179103,0.0-13.0-2.17,55957,List2A,black,woman,,,,null,,,,
15472,,,survey-text,121,1194579,0.0-13.0-3.17,55957,List2A,black,woman,,,,,"{""Q0"":""mike and dave are shouting at each other""}","<img src=""stim_listA/shout6.gif""style=""height:400px;""></stim_listA>",are shouting at each other,
null,"<div style=""font-size:60px;"">+</div>",,html-keyboard-response,122,1195108,0.0-13.0-0.18,55957,List2A,black,woman,,,,null,,,,
null,"<img src=""stim_listA/fight5.gif""style=""height:400px;""></stim_listA>",,html-keyboard-response,123,1197137,0.0-13.0-1.18,55957,List2A,black,woman,,,,null,,,,
null,is fighting,,html-keyboard-response,124,1199127,0.0-13.0-2.18,55957,List2A,black,woman,,,,null,,,,
11242,,,survey-text,125,1210373,0.0-13.0-3.18,55957,List2A,black,woman,,,,,"{""Q0"":""dave is fighting mike""}","<img src=""stim_listA/fight5.gif""style=""height:400px;""></stim_listA>",is fighting,
null,"<div style=""font-size:60px;"">+</div>",,html-keyboard-response,126,1210902,0.0-13.0-0.19,55957,List2A,black,woman,,,,null,,,,
null,"<img src=""stim_listA/fight8.gif""style=""height:400px;""></stim_listA>",,html-keyboard-response,127,1212910,0.0-13.0-1.19,55957,List2A,black,woman,,,,null,,,,
null,are fighting each other,,html-keyboard-response,128,1214935,0.0-13.0-2.19,55957,List2A,black,woman,,,,null,,,,
15676,,,survey-text,129,1230616,0.0-13.0-3.19,55957,List2A,black,woman,,,,,"{""Q0"":""beth and ruth are fighting each other""}","<img src=""stim_listA/fight8.gif""style=""height:400px;""></stim_listA>",are fighting each other,
16253,"<img src='img/portrait_matrix_list2.jpg' style='width:900px;height:500px;''></img><p>If you have memorised all the portraits and names and are ready to start, press Continue.</p><p><strong>Please note: Your memory of these faces will be tested 4 times during this experiment.</strong></p>",0,html-button-response,130,1246874,0.0-14.0-0.0,55957,List2A,black,woman,,,,,,,,
4813,"<img src=""portrait/BW1.jpg""style=""height:400px;""></img>",0,html-button-response,131,1252709,0.0-14.0-1.0,55957,List2A,black,woman,,TRUE,0,,,,,
null,CORRECT,,html-keyboard-response,132,1254258,0.0-14.0-2.0-0.0,55957,List2A,black,woman,,,,null,,,,
3339,"<img src=""portrait/WM1.jpg""style=""height:400px;""></img>",5,html-button-response,133,1257602,0.0-14.0-4.0,55957,List2A,black,woman,,TRUE,6,,,,,
2680,"<img src=""portrait/WM1.jpg""style=""height:400px;""></img>",6,html-button-response,134,1261302,0.0-14.0-6.0-0.0,55957,List2A,black,woman,,FALSE,6,,,,,
null,CORRECT,,html-keyboard-response,135,1262851,0.0-14.0-6.0-1.0-0.0,55957,List2A,black,woman,,,,null,,,,
4864,"<img src=""portrait/BM1.jpg""style=""height:400px;""></img>",4,html-button-response,136,1267720,0.0-14.0-7.0,55957,List2A,black,woman,,TRUE,4,,,,,
null,CORRECT,,html-keyboard-response,137,1269246,0.0-14.0-8.0-0.0,55957,List2A,black,woman,,,,null,,,,
4709,"<img src=""portrait/WW2.jpg""style=""height:400px;""></img>",3,html-button-response,138,1273959,0.0-14.0-10.0,55957,List2A,black,woman,,TRUE,3,,,,,
null,CORRECT,,html-keyboard-response,139,1275502,0.0-14.0-11.0-0.0,55957,List2A,black,woman,,,,null,,,,
2837,"<img src=""portrait/WM2.jpg""style=""height:400px;""></img>",7,html-button-response,140,1278345,0.0-14.0-13.0,55957,List2A,black,woman,,TRUE,7,,,,,
null,CORRECT,,html-keyboard-response,141,1279877,0.0-14.0-14.0-0.0,55957,List2A,black,woman,,,,null,,,,
2995,"<img src=""portrait/BM2.jpg""style=""height:400px;""></img>",5,html-button-response,142,1282877,0.0-14.0-16.0,55957,List2A,black,woman,,TRUE,5,,,,,
null,CORRECT,,html-keyboard-response,143,1284410,0.0-14.0-17.0-0.0,55957,List2A,black,woman,,,,null,,,,
2147,"<img src=""portrait/BW2.jpg""style=""height:400px;""></img>",2,html-button-response,144,1286562,0.0-14.0-19.0,55957,List2A,black,woman,,TRUE,2,,,,,
null,CORRECT,,html-keyboard-response,145,1288094,0.0-14.0-20.0-0.0,55957,List2A,black,woman,,,,null,,,,
3060,"<img src=""portrait/WW1.jpg""style=""height:400px;""></img>",1,html-button-response,146,1291160,0.0-14.0-22.0,55957,List2A,black,woman,,TRUE,1,,,,,
null,CORRECT,,html-keyboard-response,147,1292675,0.0-14.0-23.0-0.0,55957,List2A,black,woman,,,,null,,,,
2214,<p>You got 7 out of 8 right first time. Press Continue.</p>,0,html-button-response,148,1294893,0.0-14.0-25.0,55957,List2A,black,woman,,,,,,,,
2807,"As you did not score 100%, the memory game will repeat. Press Continue.",0,html-button-response,149,1298731,0.0-14.0-26.0-0.0,55957,List2A,black,woman,,,,,,,,
7359,"<img src='img/portrait_matrix_list2.jpg' style='width:900px;height:500px;''></img><p>If you have memorised all the portraits and names and are ready to start, press Continue.</p><p><strong>Please note: Your memory of these faces will be tested 4 times during this experiment.</strong></p>",0,html-button-response,150,1307122,0.0-14.1-0.1,55957,List2A,black,woman,,,,,,,,
4472,"<img src=""portrait/BW1.jpg""style=""height:400px;""></img>",0,html-button-response,151,1312610,0.0-14.1-1.1,55957,List2A,black,woman,,TRUE,0,,,,,
null,CORRECT,,html-keyboard-response,152,1314133,0.0-14.1-2.1-0.1,55957,List2A,black,woman,,,,null,,,,
2246,"<img src=""portrait/WM1.jpg""style=""height:400px;""></img>",6,html-button-response,153,1316400,0.0-14.1-4.1,55957,List2A,black,woman,,TRUE,6,,,,,
null,CORRECT,,html-keyboard-response,154,1317928,0.0-14.1-5.1-0.1,55957,List2A,black,woman,,,,null,,,,
2019,"<img src=""portrait/BM1.jpg""style=""height:400px;""></img>",4,html-button-response,155,1319953,0.0-14.1-7.1,55957,List2A,black,woman,,TRUE,4,,,,,
null,CORRECT,,html-keyboard-response,156,1321490,0.0-14.1-8.1-0.1,55957,List2A,black,woman,,,,null,,,,
2448,"<img src=""portrait/WW2.jpg""style=""height:400px;""></img>",3,html-button-response,157,1323944,0.0-14.1-10.1,55957,List2A,black,woman,,TRUE,3,,,,,
null,CORRECT,,html-keyboard-response,158,1325488,0.0-14.1-11.1-0.1,55957,List2A,black,woman,,,,null,,,,
2305,"<img src=""portrait/WM2.jpg""style=""height:400px;""></img>",7,html-button-response,159,1327798,0.0-14.1-13.1,55957,List2A,black,woman,,TRUE,7,,,,,
null,CORRECT,,html-keyboard-response,160,1329332,0.0-14.1-14.1-0.1,55957,List2A,black,woman,,,,null,,,,
1798,"<img src=""portrait/BM2.jpg""style=""height:400px;""></img>",5,html-button-response,161,1331135,0.0-14.1-16.1,55957,List2A,black,woman,,TRUE,5,,,,,
null,CORRECT,,html-keyboard-response,162,1332658,0.0-14.1-17.1-0.1,55957,List2A,black,woman,,,,null,,,,
2713,"<img src=""portrait/BW2.jpg""style=""height:400px;""></img>",2,html-button-response,163,1335377,0.0-14.1-19.1,55957,List2A,black,woman,,TRUE,2,,,,,
null,CORRECT,,html-keyboard-response,164,1336923,0.0-14.1-20.1-0.1,55957,List2A,black,woman,,,,null,,,,
2103,"<img src=""portrait/WW1.jpg""style=""height:400px;""></img>",1,html-button-response,165,1339031,0.0-14.1-22.1,55957,List2A,black,woman,,TRUE,1,,,,,
null,CORRECT,,html-keyboard-response,166,1340559,0.0-14.1-23.1-0.1,55957,List2A,black,woman,,,,null,,,,
20886,<p>You got 8 out of 8 right first time. Press Continue.</p>,0,html-button-response,167,1361448,0.0-14.1-25.1,55957,List2A,black,woman,,,,,,,,
null,"<div style=""font-size:60px;"">+</div>",,html-keyboard-response,168,1362981,0.0-15.0-0.0,55957,List2A,black,woman,,,,null,,,,
null,"<img src=""stim_listA/dance6.gif""style=""height:400px;""></stim_listA>",,html-keyboard-response,169,1365003,0.0-15.0-1.0,55957,List2A,black,woman,,,,null,,,,
null,are dancing with each other,,html-keyboard-response,170,1366998,0.0-15.0-2.0,55957,List2A,black,woman,,,,null,,,,
19097,,,survey-text,171,1386099,0.0-15.0-3.0,55957,List2A,black,woman,,,,,"{""Q0"":""fred and dave are dancing with each other""}","<img src=""stim_listA/dance6.gif""style=""height:400px;""></stim_listA>",are dancing with each other,
null,"<div style=""font-size:60px;"">+</div>",,html-keyboard-response,172,1386628,0.0-15.0-0.1,55957,List2A,black,woman,,,,null,,,,
null,"<img src=""stim_listA/flirt3.gif""style=""height:400px;""></stim_listA>",,html-keyboard-response,173,1388636,0.0-15.0-1.1,55957,List2A,black,woman,,,,null,,,,
null,is flirting with,,html-keyboard-response,174,1390656,0.0-15.0-2.1,55957,List2A,black,woman,,,,null,,,,
18813,,,survey-text,175,1409474,0.0-15.0-3.1,55957,List2A,black,woman,,,,,"{""Q0"":""fred is flirting with kate""}","<img src=""stim_listA/flirt3.gif""style=""height:400px;""></stim_listA>",is flirting with,
null,"<div style=""font-size:60px;"">+</div>",,html-keyboard-response,176,1409993,0.0-15.0-0.2,55957,List2A,black,woman,,,,null,,,,
null,"<img src=""stim_listA/fight2.gif""style=""height:400px;""></stim_listA>",,html-keyboard-response,177,1412015,0.0-15.0-1.2,55957,List2A,black,woman,,,,null,,,,
null,are fighting each other,,html-keyboard-response,178,1414004,0.0-15.0-2.2,55957,List2A,black,woman,,,,null,,,,
18931,,,survey-text,179,1432939,0.0-15.0-3.2,55957,List2A,black,woman,,,,,"{""Q0"":""luke and ruth are fighting each other""}","<img src=""stim_listA/fight2.gif""style=""height:400px;""></stim_listA>",are fighting each other,
null,"<div style=""font-size:60px;"">+</div>",,html-keyboard-response,180,1433450,0.0-15.0-0.3,55957,List2A,black,woman,,,,null,,,,
null,"<img src=""stim_listA/kiss7.gif""style=""height:400px;""></stim_listA>",,html-keyboard-response,181,1435467,0.0-15.0-1.3,55957,List2A,black,woman,,,,null,,,,
null,is kissing,,html-keyboard-response,182,1437479,0.0-15.0-2.3,55957,List2A,black,woman,,,,null,,,,
11138,,,survey-text,183,1448620,0.0-15.0-3.3,55957,List2A,black,woman,,,,,"{""Q0"":""beth is kissing ruth""}","<img src=""stim_listA/kiss7.gif""style=""height:400px;""></stim_listA>",is kissing,
null,"<div style=""font-size:60px;"">+</div>",,html-keyboard-response,184,1449146,0.0-15.0-0.4,55957,List2A,black,woman,,,,null,,,,
null,"<img src=""stim_listA/argue5.gif""style=""height:400px;""></stim_listA>",,html-keyboard-response,185,1451149,0.0-15.0-1.4,55957,List2A,black,woman,,,,null,,,,
null,is arguing with,,html-keyboard-response,186,1453176,0.0-15.0-2.4,55957,List2A,black,woman,,,,null,,,,
15170,,,survey-text,187,1468351,0.0-15.0-3.4,55957,List2A,black,woman,,,,,"{""Q0"":""fred is arguing with dave""}","<img src=""stim_listA/argue5.gif""style=""height:400px;""></stim_listA>",is arguing with,
null,"<div style=""font-size:60px;"">+</div>",,html-keyboard-response,188,1468868,0.0-15.0-0.5,55957,List2A,black,woman,,,,null,,,,
null,"<img src=""stim_listA/touch4.gif""style=""height:400px;""></stim_listA>",,html-keyboard-response,189,1470878,0.0-15.0-1.5,55957,List2A,black,woman,,,,null,,,,
null,are touching each other,,html-keyboard-response,190,1472883,0.0-15.0-2.5,55957,List2A,black,woman,,,,null,,,,
21467,,,survey-text,191,1494355,0.0-15.0-3.5,55957,List2A,black,woman,,,,,"{""Q0"":""beth is holding fred""}","<img src=""stim_listA/touch4.gif""style=""height:400px;""></stim_listA>",are touching each other,
null,"<div style=""font-size:60px;"">+</div>",,html-keyboard-response,192,1494882,0.0-15.0-0.6,55957,List2A,black,woman,,,,null,,,,
null,"<img src=""stim_listA/talk1.gif""style=""height:400px;""></stim_listA>",,html-keyboard-response,193,1496903,0.0-15.0-1.6,55957,List2A,black,woman,,,,null,,,,
null,is talking to,,html-keyboard-response,194,1498912,0.0-15.0-2.6,55957,List2A,black,woman,,,,null,,,,
11762,,,survey-text,195,1510677,0.0-15.0-3.6,55957,List2A,black,woman,,,,,"{""Q0"":""luke is talking to jane""}","<img src=""stim_listA/talk1.gif""style=""height:400px;""></stim_listA>",is talking to,
null,"<div style=""font-size:60px;"">+</div>",,html-keyboard-response,196,1511204,0.0-15.0-0.7,55957,List2A,black,woman,,,,null,,,,
null,"<img src=""stim_listA/shout8.gif""style=""height:400px;""></stim_listA>",,html-keyboard-response,197,1513215,0.0-15.0-1.7,55957,List2A,black,woman,,,,null,,,,
null,are shouting at each other,,html-keyboard-response,198,1515233,0.0-15.0-2.7,55957,List2A,black,woman,,,,null,,,,
23424,,,survey-text,199,1538662,0.0-15.0-3.7,55957,List2A,black,woman,,,,,"{""Q0"":""kate and jane are shouting at each other""}","<img src=""stim_listA/shout8.gif""style=""height:400px;""></stim_listA>",are shouting at each other,
null,"<div style=""font-size:60px;"">+</div>",,html-keyboard-response,200,1539192,0.0-15.0-0.8,55957,List2A,black,woman,,,,null,,,,
null,"<img src=""stim_listA/talk6.gif""style=""height:400px;""></stim_listA>",,html-keyboard-response,201,1541215,0.0-15.0-1.8,55957,List2A,black,woman,,,,null,,,,
null,are talking to each other,,html-keyboard-response,202,1543220,0.0-15.0-2.8,55957,List2A,black,woman,,,,null,,,,
28949,,,survey-text,203,1572171,0.0-15.0-3.8,55957,List2A,black,woman,,,,,"{""Q0"":""fred and dave are talking to each other""}","<img src=""stim_listA/talk6.gif""style=""height:400px;""></stim_listA>",are talking to each other,
null,"<div style=""font-size:60px;"">+</div>",,html-keyboard-response,204,1572701,0.0-15.0-0.9,55957,List2A,black,woman,,,,null,,,,
null,"<img src=""stim_listA/shout4.gif""style=""height:400px;""></stim_listA>",,html-keyboard-response,205,1574724,0.0-15.0-1.9,55957,List2A,black,woman,,,,null,,,,
null,are shouting at each other,,html-keyboard-response,206,1576714,0.0-15.0-2.9,55957,List2A,black,woman,,,,null,,,,
19309,,,survey-text,207,1596029,0.0-15.0-3.9,55957,List2A,black,woman,,,,,"{""Q0"":""mike and kate are shouting at each other""}","<img src=""stim_listA/shout4.gif""style=""height:400px;""></stim_listA>",are shouting at each other,
null,"<div style=""font-size:60px;"">+</div>",,html-keyboard-response,208,1596534,0.0-15.0-0.10,55957,List2A,black,woman,,,,null,,,,
null,"<img src=""stim_listA/touch5.gif""style=""height:400px;""></stim_listA>",,html-keyboard-response,209,1598557,0.0-15.0-1.10,55957,List2A,black,woman,,,,null,,,,
null,is touching,,html-keyboard-response,210,1600562,0.0-15.0-2.10,55957,List2A,black,woman,,,,null,,,,
13876,,,survey-text,211,1614451,0.0-15.0-3.10,55957,List2A,black,woman,,,,,"{""Q0"":""mike is touching fred""}","<img src=""stim_listA/touch5.gif""style=""height:400px;""></stim_listA>",is touching,
null,"<div style=""font-size:60px;"">+</div>",,html-keyboard-response,212,1614960,0.0-15.0-0.11,55957,List2A,black,woman,,,,null,,,,
null,"<img src=""stim_listA/flirt1.gif""style=""height:400px;""></stim_listA>",,html-keyboard-response,213,1616980,0.0-15.0-1.11,55957,List2A,black,woman,,,,null,,,,
null,is flirting with,,html-keyboard-response,214,1618980,0.0-15.0-2.11,55957,List2A,black,woman,,,,null,,,,
20303,,,survey-text,215,1639288,0.0-15.0-3.11,55957,List2A,black,woman,,,,,"{""Q0"":""luke is flirtingwith jane""}","<img src=""stim_listA/flirt1.gif""style=""height:400px;""></stim_listA>",is flirting with,
null,"<div style=""font-size:60px;"">+</div>",,html-keyboard-response,216,1639795,0.0-15.0-0.12,55957,List2A,black,woman,,,,null,,,,
null,"<img src=""stim_listA/argue8.gif""style=""height:400px;""></stim_listA>",,html-keyboard-response,217,1641805,0.0-15.0-1.12,55957,List2A,black,woman,,,,null,,,,
null,are arguing with each other,,html-keyboard-response,218,1643807,0.0-15.0-2.12,55957,List2A,black,woman,,,,null,,,,
23084,,,survey-text,219,1666896,0.0-15.0-3.12,55957,List2A,black,woman,,,,,"{""Q0"":""kate and ruth are arguing with each other""}","<img src=""stim_listA/argue8.gif""style=""height:400px;""></stim_listA>",are arguing with each other,
null,"<div style=""font-size:60px;"">+</div>",,html-keyboard-response,220,1667408,0.0-15.0-0.13,55957,List2A,black,woman,,,,null,,,,
null,"<img src=""stim_listA/fight3.gif""style=""height:400px;""></stim_listA>",,html-keyboard-response,221,1669428,0.0-15.0-1.13,55957,List2A,black,woman,,,,null,,,,
null,is fighting,,html-keyboard-response,222,1671421,0.0-15.0-2.13,55957,List2A,black,woman,,,,null,,,,
17348,,,survey-text,223,1688774,0.0-15.0-3.13,55957,List2A,black,woman,,,,,"{""Q0"":""kate is fighting with jane""}","<img src=""stim_listA/fight3.gif""style=""height:400px;""></stim_listA>",is fighting,
null,"<div style=""font-size:60px;"">+</div>",,html-keyboard-response,224,1689299,0.0-15.0-0.14,55957,List2A,black,woman,,,,null,,,,
null,"<img src=""stim_listA/kiss8.gif""style=""height:400px;""></stim_listA>",,html-keyboard-response,225,1691322,0.0-15.0-1.14,55957,List2A,black,woman,,,,null,,,,
null,are kissing each other,,html-keyboard-response,226,1693309,0.0-15.0-2.14,55957,List2A,black,woman,,,,null,,,,
17361,,,survey-text,227,1710675,0.0-15.0-3.14,55957,List2A,black,woman,,,,,"{""Q0"":""kate is kissing jane""}","<img src=""stim_listA/kiss8.gif""style=""height:400px;""></stim_listA>",are kissing each other,
null,"<div style=""font-size:60px;"">+</div>",,html-keyboard-response,228,1711184,0.0-15.0-0.15,55957,List2A,black,woman,,,,null,,,,
null,"<img src=""stim_listA/fight7.gif""style=""height:400px;""></stim_listA>",,html-keyboard-response,229,1713190,0.0-15.0-1.15,55957,List2A,black,woman,,,,null,,,,
null,is fighting,,html-keyboard-response,230,1715199,0.0-15.0-2.15,55957,List2A,black,woman,,,,null,,,,
13630,,,survey-text,231,1728834,0.0-15.0-3.15,55957,List2A,black,woman,,,,,"{""Q0"":""jane is fighting kate""}","<img src=""stim_listA/fight7.gif""style=""height:400px;""></stim_listA>",is fighting,
null,"<div style=""font-size:60px;"">+</div>",,html-keyboard-response,232,1729341,0.0-15.0-0.16,55957,List2A,black,woman,,,,null,,,,
null,"<img src=""stim_listA/shout3.gif""style=""height:400px;""></stim_listA>",,html-keyboard-response,233,1731349,0.0-15.0-1.16,55957,List2A,black,woman,,,,null,,,,
null,is shouting at,,html-keyboard-response,234,1733357,0.0-15.0-2.16,55957,List2A,black,woman,,,,null,,,,
14207,,,survey-text,235,1747569,0.0-15.0-3.16,55957,List2A,black,woman,,,,,"{""Q0"":""beth is shouting at fred""}","<img src=""stim_listA/shout3.gif""style=""height:400px;""></stim_listA>",is shouting at,
null,"<div style=""font-size:60px;"">+</div>",,html-keyboard-response,236,1748097,0.0-15.0-0.17,55957,List2A,black,woman,,,,null,,,,
null,"<img src=""stim_listA/marry1.gif""style=""height:400px;""></stim_listA>",,html-keyboard-response,237,1750105,0.0-15.0-1.17,55957,List2A,black,woman,,,,null,,,,
null,is marrying,,html-keyboard-response,238,1752124,0.0-15.0-2.17,55957,List2A,black,woman,,,,null,,,,
12512,,,survey-text,239,1764640,0.0-15.0-3.17,55957,List2A,black,woman,,,,,"{""Q0"":""dave is marrying ruth""}","<img src=""stim_listA/marry1.gif""style=""height:400px;""></stim_listA>",is marrying,
null,"<div style=""font-size:60px;"">+</div>",,html-keyboard-response,240,1765170,0.0-15.0-0.18,55957,List2A,black,woman,,,,null,,,,
null,"<img src=""stim_listA/flirt8.gif""style=""height:400px;""></stim_listA>",,html-keyboard-response,241,1767181,0.0-15.0-1.18,55957,List2A,black,woman,,,,null,,,,
null,are flirting with each other,,html-keyboard-response,242,1769186,0.0-15.0-2.18,55957,List2A,black,woman,,,,null,,,,
25480,,,survey-text,243,1794669,0.0-15.0-3.18,55957,List2A,black,woman,,,,,"{""Q0"":""beth and jane are playing with each other""}","<img src=""stim_listA/flirt8.gif""style=""height:400px;""></stim_listA>",are flirting with each other,
null,"<div style=""font-size:60px;"">+</div>",,html-keyboard-response,244,1795183,0.0-15.0-0.19,55957,List2A,black,woman,,,,null,,,,
null,"<img src=""stim_listA/play8.gif""style=""height:400px;""></stim_listA>",,html-keyboard-response,245,1797206,0.0-15.0-1.19,55957,List2A,black,woman,,,,null,,,,
null,are playing with each other,,html-keyboard-response,246,1799209,0.0-15.0-2.19,55957,List2A,black,woman,,,,null,,,,
25414,,,survey-text,247,1824628,0.0-15.0-3.19,55957,List2A,black,woman,,,,,"{""Q0"":""beth and ruth are playing with each other""}","<img src=""stim_listA/play8.gif""style=""height:400px;""></stim_listA>",are playing with each other,
188943,"<img src='img/portrait_matrix_list2.jpg' style='width:900px;height:500px;''></img><p>If you have memorised all the portraits and names and are ready to start, press Continue.</p><p><strong>Please note: Your memory of these faces will be tested 4 times during this experiment.</strong></p>",0,html-button-response,248,2013576,0.0-16.0-0.0,55957,List2A,black,woman,,,,,,,,
18142,"<img src=""portrait/BM2.jpg""style=""height:400px;""></img>",5,html-button-response,249,2032733,0.0-16.0-1.0,55957,List2A,black,woman,,TRUE,5,,,,,
null,CORRECT,,html-keyboard-response,250,2034270,0.0-16.0-2.0-0.0,55957,List2A,black,woman,,,,null,,,,
7576,"<img src=""portrait/BM1.jpg""style=""height:400px;""></img>",4,html-button-response,251,2041851,0.0-16.0-4.0,55957,List2A,black,woman,,TRUE,4,,,,,
null,CORRECT,,html-keyboard-response,252,2043361,0.0-16.0-5.0-0.0,55957,List2A,black,woman,,,,null,,,,
4635,"<img src=""portrait/WW2.jpg""style=""height:400px;""></img>",3,html-button-response,253,2048001,0.0-16.0-7.0,55957,List2A,black,woman,,TRUE,3,,,,,
null,CORRECT,,html-keyboard-response,254,2049508,0.0-16.0-8.0-0.0,55957,List2A,black,woman,,,,null,,,,
2251,"<img src=""portrait/BW2.jpg""style=""height:400px;""></img>",2,html-button-response,255,2051763,0.0-16.0-10.0,55957,List2A,black,woman,,TRUE,2,,,,,
null,CORRECT,,html-keyboard-response,256,2053288,0.0-16.0-11.0-0.0,55957,List2A,black,woman,,,,null,,,,
2262,"<img src=""portrait/WM2.jpg""style=""height:400px;""></img>",7,html-button-response,257,2055555,0.0-16.0-13.0,55957,List2A,black,woman,,TRUE,7,,,,,
null,CORRECT,,html-keyboard-response,258,2057081,0.0-16.0-14.0-0.0,55957,List2A,black,woman,,,,null,,,,
3670,"<img src=""portrait/BW1.jpg""style=""height:400px;""></img>",0,html-button-response,259,2060756,0.0-16.0-16.0,55957,List2A,black,woman,,TRUE,0,,,,,
null,CORRECT,,html-keyboard-response,260,2062288,0.0-16.0-17.0-0.0,55957,List2A,black,woman,,,,null,,,,
2063,"<img src=""portrait/WW1.jpg""style=""height:400px;""></img>",1,html-button-response,261,2064355,0.0-16.0-19.0,55957,List2A,black,woman,,TRUE,1,,,,,
null,CORRECT,,html-keyboard-response,262,2065877,0.0-16.0-20.0-0.0,55957,List2A,black,woman,,,,null,,,,
4208,"<img src=""portrait/WM1.jpg""style=""height:400px;""></img>",6,html-button-response,263,2070091,0.0-16.0-22.0,55957,List2A,black,woman,,TRUE,6,,,,,
null,CORRECT,,html-keyboard-response,264,2071647,0.0-16.0-23.0-0.0,55957,List2A,black,woman,,,,null,,,,
3028,<p>You got 8 out of 8 right first time. Press Continue.</p>,0,html-button-response,265,2074681,0.0-16.0-25.0,55957,List2A,black,woman,,,,,,,,
null,"<div style=""font-size:60px;"">+</div>",,html-keyboard-response,266,2076202,0.0-17.0-0.0,55957,List2A,black,woman,,,,null,,,,
null,"<img src=""stim_listA/argue3.gif""style=""height:400px;""></stim_listA>",,html-keyboard-response,267,2078221,0.0-17.0-1.0,55957,List2A,black,woman,,,,null,,,,
null,is arguing with,,html-keyboard-response,268,2080209,0.0-17.0-2.0,55957,List2A,black,woman,,,,null,,,,
10766,,,survey-text,269,2090978,0.0-17.0-3.0,55957,List2A,black,woman,,,,,"{""Q0"":""mike is arguing with beth""}","<img src=""stim_listA/argue3.gif""style=""height:400px;""></stim_listA>",is arguing with,
null,"<div style=""font-size:60px;"">+</div>",,html-keyboard-response,270,2091499,0.0-17.0-0.1,55957,List2A,black,woman,,,,null,,,,
null,"<img src=""stim_listA/flirt4.gif""style=""height:400px;""></stim_listA>",,html-keyboard-response,271,2093515,0.0-17.0-1.1,55957,List2A,black,woman,,,,null,,,,
null,are flirting with each other,,html-keyboard-response,272,2095529,0.0-17.0-2.1,55957,List2A,black,woman,,,,null,,,,
15390,,,survey-text,273,2110923,0.0-17.0-3.1,55957,List2A,black,woman,,,,,"{""Q0"":""mike and beth are flirting with each other""}","<img src=""stim_listA/flirt4.gif""style=""height:400px;""></stim_listA>",are flirting with each other,
null,"<div style=""font-size:60px;"">+</div>",,html-keyboard-response,274,2111443,0.0-17.0-0.2,55957,List2A,black,woman,,,,null,,,,
null,"<img src=""stim_listA/play4.gif""style=""height:400px;""></stim_listA>",,html-keyboard-response,275,2113455,0.0-17.0-1.2,55957,List2A,black,woman,,,,null,,,,
null,are playing with each other,,html-keyboard-response,276,2115458,0.0-17.0-2.2,55957,List2A,black,woman,,,,null,,,,
17754,,,survey-text,277,2133216,0.0-17.0-3.2,55957,List2A,black,woman,,,,,"{""Q0"":""fred and beth are playing with each other""}","<img src=""stim_listA/play4.gif""style=""height:400px;""></stim_listA>",are playing with each other,
null,"<div style=""font-size:60px;"">+</div>",,html-keyboard-response,278,2133742,0.0-17.0-0.3,55957,List2A,black,woman,,,,null,,,,
null,"<img src=""stim_listA/dance8.gif""style=""height:400px;""></stim_listA>",,html-keyboard-response,279,2135762,0.0-17.0-1.3,55957,List2A,black,woman,,,,null,,,,
null,are dancing with each other,,html-keyboard-response,280,2137771,0.0-17.0-2.3,55957,List2A,black,woman,,,,null,,,,
16619,,,survey-text,281,2154395,0.0-17.0-3.3,55957,List2A,black,woman,,,,,"{""Q0"":""beth and jane are dancing with each other""}","<img src=""stim_listA/dance8.gif""style=""height:400px;""></stim_listA>",are dancing with each other,
null,"<div style=""font-size:60px;"">+</div>",,html-keyboard-response,282,2154926,0.0-17.0-0.4,55957,List2A,black,woman,,,,null,,,,
null,"<img src=""stim_listA/kiss6.gif""style=""height:400px;""></stim_listA>",,html-keyboard-response,283,2156931,0.0-17.0-1.4,55957,List2A,black,woman,,,,null,,,,
null,are kissing each other,,html-keyboard-response,284,2158953,0.0-17.0-2.4,55957,List2A,black,woman,,,,null,,,,
16790,,,survey-text,285,2175748,0.0-17.0-3.4,55957,List2A,black,woman,,,,,"{""Q0"":""mike and dave are kissing each other""}","<img src=""stim_listA/kiss6.gif""style=""height:400px;""></stim_listA>",are kissing each other,
null,"<div style=""font-size:60px;"">+</div>",,html-keyboard-response,286,2176270,0.0-17.0-0.5,55957,List2A,black,woman,,,,null,,,,
null,"<img src=""stim_listA/talk2.gif""style=""height:400px;""></stim_listA>",,html-keyboard-response,287,2178287,0.0-17.0-1.5,55957,List2A,black,woman,,,,null,,,,
null,are talking to each other,,html-keyboard-response,288,2180308,0.0-17.0-2.5,55957,List2A,black,woman,,,,null,,,,
16695,,,survey-text,289,2197007,0.0-17.0-3.5,55957,List2A,black,woman,,,,,"{""Q0"":""ruth and dave are talking to each other""}","<img src=""stim_listA/talk2.gif""style=""height:400px;""></stim_listA>",are talking to each other,
null,"<div style=""font-size:60px;"">+</div>",,html-keyboard-response,290,2197529,0.0-17.0-0.6,55957,List2A,black,woman,,,,null,,,,
null,"<img src=""stim_listA/argue1.gif""style=""height:400px;""></stim_listA>",,html-keyboard-response,291,2199533,0.0-17.0-1.6,55957,List2A,black,woman,,,,null,,,,
null,is arguing with,,html-keyboard-response,292,2201539,0.0-17.0-2.6,55957,List2A,black,woman,,,,null,,,,
11515,,,survey-text,293,2213059,0.0-17.0-3.6,55957,List2A,black,woman,,,,,"{""Q0"":""ruth is arguing with dave""}","<img src=""stim_listA/argue1.gif""style=""height:400px;""></stim_listA>",is arguing with,
null,"<div style=""font-size:60px;"">+</div>",,html-keyboard-response,294,2213567,0.0-17.0-0.7,55957,List2A,black,woman,,,,null,,,,
null,"<img src=""stim_listA/talk8.gif""style=""height:400px;""></stim_listA>",,html-keyboard-response,295,2215575,0.0-17.0-1.7,55957,List2A,black,woman,,,,null,,,,
null,are talking to each other,,html-keyboard-response,296,2217584,0.0-17.0-2.7,55957,List2A,black,woman,,,,null,,,,
21777,,,survey-text,297,2239365,0.0-17.0-3.7,55957,List2A,black,woman,,,,,"{""Q0"":""jane and beth are talking to each other""}","<img src=""stim_listA/talk8.gif""style=""height:400px;""></stim_listA>",are talking to each other,
null,"<div style=""font-size:60px;"">+</div>",,html-keyboard-response,298,2239893,0.0-17.0-0.8,55957,List2A,black,woman,,,,null,,,,
null,"<img src=""stim_listA/kiss5.gif""style=""height:400px;""></stim_listA>",,html-keyboard-response,299,2241916,0.0-17.0-1.8,55957,List2A,black,woman,,,,null,,,,
null,is kissing,,html-keyboard-response,300,2243905,0.0-17.0-2.8,55957,List2A,black,woman,,,,null,,,,
8962,,,survey-text,301,2252871,0.0-17.0-3.8,55957,List2A,black,woman,,,,,"{""Q0"":""luke is kissing fred""}","<img src=""stim_listA/kiss5.gif""style=""height:400px;""></stim_listA>",is kissing,
null,"<div style=""font-size:60px;"">+</div>",,html-keyboard-response,302,2253377,0.0-17.0-0.9,55957,List2A,black,woman,,,,null,,,,
null,"<img src=""stim_listA/flirt2.gif""style=""height:400px;""></stim_listA>",,html-keyboard-response,303,2255387,0.0-17.0-1.9,55957,List2A,black,woman,,,,null,,,,
null,are flirting with each other,,html-keyboard-response,304,2257393,0.0-17.0-2.9,55957,List2A,black,woman,,,,null,,,,
16907,,,survey-text,305,2274302,0.0-17.0-3.9,55957,List2A,black,woman,,,,,"{""Q0"":""dave and ruth are flirting with each other""}","<img src=""stim_listA/flirt2.gif""style=""height:400px;""></stim_listA>",are flirting with each other,
null,"<div style=""font-size:60px;"">+</div>",,html-keyboard-response,306,2274814,0.0-17.0-0.10,55957,List2A,black,woman,,,,null,,,,
null,"<img src=""stim_listA/dance5.gif""style=""height:400px;""></stim_listA>",,html-keyboard-response,307,2276836,0.0-17.0-1.10,55957,List2A,black,woman,,,,null,,,,
null,is dancing with,,html-keyboard-response,308,2278827,0.0-17.0-2.10,55957,List2A,black,woman,,,,null,,,,
14134,,,survey-text,309,2292966,0.0-17.0-3.10,55957,List2A,black,woman,,,,,"{""Q0"":""mike is dancing with luke""}","<img src=""stim_listA/dance5.gif""style=""height:400px;""></stim_listA>",is dancing with,
null,"<div style=""font-size:60px;"">+</div>",,html-keyboard-response,310,2293486,0.0-17.0-0.11,55957,List2A,black,woman,,,,null,,,,
null,"<img src=""stim_listA/touch3.gif""style=""height:400px;""></stim_listA>",,html-keyboard-response,311,2295496,0.0-17.0-1.11,55957,List2A,black,woman,,,,null,,,,
null,is touching,,html-keyboard-response,312,2297518,0.0-17.0-2.11,55957,List2A,black,woman,,,,null,,,,
11311,,,survey-text,313,2308833,0.0-17.0-3.11,55957,List2A,black,woman,,,,,"{""Q0"":""mike is touching kate""}","<img src=""stim_listA/touch3.gif""style=""height:400px;""></stim_listA>",is touching,
null,"<div style=""font-size:60px;"">+</div>",,html-keyboard-response,314,2309339,0.0-17.0-0.12,55957,List2A,black,woman,,,,null,,,,
null,"<img src=""stim_listA/argue7.gif""style=""height:400px;""></stim_listA>",,html-keyboard-response,315,2311347,0.0-17.0-1.12,55957,List2A,black,woman,,,,null,,,,
null,is arguing with,,html-keyboard-response,316,2313369,0.0-17.0-2.12,55957,List2A,black,woman,,,,null,,,,
11372,,,survey-text,317,2324746,0.0-17.0-3.12,55957,List2A,black,woman,,,,,"{""Q0"":""jane is arguing with beth""}","<img src=""stim_listA/argue7.gif""style=""height:400px;""></stim_listA>",is arguing with,
null,"<div style=""font-size:60px;"">+</div>",,html-keyboard-response,318,2325276,0.0-17.0-0.13,55957,List2A,black,woman,,,,null,,,,
null,"<img src=""stim_listA/touch6.gif""style=""height:400px;""></stim_listA>",,html-keyboard-response,319,2327301,0.0-17.0-1.13,55957,List2A,black,woman,,,,null,,,,
null,are touching each other,,html-keyboard-response,320,2329284,0.0-17.0-2.13,55957,List2A,black,woman,,,,null,,,,
27516,,,survey-text,321,2356803,0.0-17.0-3.13,55957,List2A,black,woman,,,,,"{""Q0"":""fred and luke are touching each other""}","<img src=""stim_listA/touch6.gif""style=""height:400px;""></stim_listA>",are touching each other,
null,"<div style=""font-size:60px;"">+</div>",,html-keyboard-response,322,2357318,0.0-17.0-0.14,55957,List2A,black,woman,,,,null,,,,
null,"<img src=""stim_listA/kiss4.gif""style=""height:400px;""></stim_listA>",,html-keyboard-response,323,2359344,0.0-17.0-1.14,55957,List2A,black,woman,,,,null,,,,
null,are kissing each other,,html-keyboard-response,324,2361334,0.0-17.0-2.14,55957,List2A,black,woman,,,,null,,,,
16873,,,survey-text,325,2378210,0.0-17.0-3.14,55957,List2A,black,woman,,,,,"{""Q0"":""mike and kate are kissing each other""}","<img src=""stim_listA/kiss4.gif""style=""height:400px;""></stim_listA>",are kissing each other,
null,"<div style=""font-size:60px;"">+</div>",,html-keyboard-response,326,2378726,0.0-17.0-0.15,55957,List2A,black,woman,,,,null,,,,
null,"<img src=""stim_listA/dance3.gif""style=""height:400px;""></stim_listA>",,html-keyboard-response,327,2380745,0.0-17.0-1.15,55957,List2A,black,woman,,,,null,,,,
null,is dancing with,,html-keyboard-response,328,2382736,0.0-17.0-2.15,55957,List2A,black,woman,,,,null,,,,
12149,,,survey-text,329,2394889,0.0-17.0-3.15,55957,List2A,black,woman,,,,,"{""Q0"":""kate is dancing with fred""}","<img src=""stim_listA/dance3.gif""style=""height:400px;""></stim_listA>",is dancing with,
null,"<div style=""font-size:60px;"">+</div>",,html-keyboard-response,330,2395409,0.0-17.0-0.16,55957,List2A,black,woman,,,,null,,,,
null,"<img src=""stim_listA/marry8.gif""style=""height:400px;""></stim_listA>",,html-keyboard-response,331,2397415,0.0-17.0-1.16,55957,List2A,black,woman,,,,null,,,,
null,are marrying each other,,html-keyboard-response,332,2399421,0.0-17.0-2.16,55957,List2A,black,woman,,,,null,,,,
14255,,,survey-text,333,2413679,0.0-17.0-3.16,55957,List2A,black,woman,,,,,"{""Q0"":""ruth and kate are marrying each other""}","<img src=""stim_listA/marry8.gif""style=""height:400px;""></stim_listA>",are marrying each other,
null,"<div style=""font-size:60px;"">+</div>",,html-keyboard-response,334,2414188,0.0-17.0-0.17,55957,List2A,black,woman,,,,null,,,,
null,"<img src=""stim_listA/talk4.gif""style=""height:400px;""></stim_listA>",,html-keyboard-response,335,2416197,0.0-17.0-1.17,55957,List2A,black,woman,,,,null,,,,
null,are talking to each other,,html-keyboard-response,336,2418212,0.0-17.0-2.17,55957,List2A,black,woman,,,,null,,,,
20241,,,survey-text,337,2438457,0.0-17.0-3.17,55957,List2A,black,woman,,,,,"{""Q0"":""beth and mike are talking to each other""}","<img src=""stim_listA/talk4.gif""style=""height:400px;""></stim_listA>",are talking to each other,
null,"<div style=""font-size:60px;"">+</div>",,html-keyboard-response,338,2438980,0.0-17.0-0.18,55957,List2A,black,woman,,,,null,,,,
null,"<img src=""stim_listA/kiss2.gif""style=""height:400px;""></stim_listA>",,html-keyboard-response,339,2440989,0.0-17.0-1.18,55957,List2A,black,woman,,,,null,,,,
null,are kissing each other,,html-keyboard-response,340,2442995,0.0-17.0-2.18,55957,List2A,black,woman,,,,null,,,,
16335,,,survey-text,341,2459334,0.0-17.0-3.18,55957,List2A,black,woman,,,,,"{""Q0"":""dave and jane are kissing each other""}","<img src=""stim_listA/kiss2.gif""style=""height:400px;""></stim_listA>",are kissing each other,
null,"<div style=""font-size:60px;"">+</div>",,html-keyboard-response,342,2459851,0.0-17.0-0.19,55957,List2A,black,woman,,,,null,,,,
null,"<img src=""stim_listA/marry2.gif""style=""height:400px;""></stim_listA>",,html-keyboard-response,343,2461863,0.0-17.0-1.19,55957,List2A,black,woman,,,,null,,,,
null,are marrying each other,,html-keyboard-response,344,2463881,0.0-17.0-2.19,55957,List2A,black,woman,,,,null,,,,
14889,,,survey-text,345,2478773,0.0-17.0-3.19,55957,List2A,black,woman,,,,,"{""Q0"":""jane and luke are marrying each other""}","<img src=""stim_listA/marry2.gif""style=""height:400px;""></stim_listA>",are marrying each other,
25542,"<img src='img/portrait_matrix_list2.jpg' style='width:900px;height:500px;''></img><p>If you have memorised all the portraits and names and are ready to start, press Continue.</p><p><strong>Please note: Your memory of these faces will be tested 4 times during this experiment.</strong></p>",0,html-button-response,346,2504319,0.0-18.0-0.0,55957,List2A,black,woman,,,,,,,,
12074,"<img src=""portrait/BM1.jpg""style=""height:400px;""></img>",4,html-button-response,347,2517400,0.0-18.0-1.0,55957,List2A,black,woman,,TRUE,4,,,,,
null,CORRECT,,html-keyboard-response,348,2518947,0.0-18.0-2.0-0.0,55957,List2A,black,woman,,,,null,,,,
3983,"<img src=""portrait/WW2.jpg""style=""height:400px;""></img>",3,html-button-response,349,2522935,0.0-18.0-4.0,55957,List2A,black,woman,,TRUE,3,,,,,
null,CORRECT,,html-keyboard-response,350,2524471,0.0-18.0-5.0-0.0,55957,List2A,black,woman,,,,null,,,,
3335,"<img src=""portrait/WM1.jpg""style=""height:400px;""></img>",6,html-button-response,351,2527812,0.0-18.0-7.0,55957,List2A,black,woman,,TRUE,6,,,,,
null,CORRECT,,html-keyboard-response,352,2529345,0.0-18.0-8.0-0.0,55957,List2A,black,woman,,,,null,,,,
3143,"<img src=""portrait/WW1.jpg""style=""height:400px;""></img>",1,html-button-response,353,2532491,0.0-18.0-10.0,55957,List2A,black,woman,,TRUE,1,,,,,
null,CORRECT,,html-keyboard-response,354,2534034,0.0-18.0-11.0-0.0,55957,List2A,black,woman,,,,null,,,,
2354,"<img src=""portrait/WM2.jpg""style=""height:400px;""></img>",7,html-button-response,355,2536394,0.0-18.0-13.0,55957,List2A,black,woman,,TRUE,7,,,,,
null,CORRECT,,html-keyboard-response,356,2537936,0.0-18.0-14.0-0.0,55957,List2A,black,woman,,,,null,,,,
3367,"<img src=""portrait/BW1.jpg""style=""height:400px;""></img>",0,html-button-response,357,2541310,0.0-18.0-16.0,55957,List2A,black,woman,,TRUE,0,,,,,
null,CORRECT,,html-keyboard-response,358,2542846,0.0-18.0-17.0-0.0,55957,List2A,black,woman,,,,null,,,,
2162,"<img src=""portrait/BW2.jpg""style=""height:400px;""></img>",2,html-button-response,359,2545015,0.0-18.0-19.0,55957,List2A,black,woman,,TRUE,2,,,,,
null,CORRECT,,html-keyboard-response,360,2546560,0.0-18.0-20.0-0.0,55957,List2A,black,woman,,,,null,,,,
2531,"<img src=""portrait/BM2.jpg""style=""height:400px;""></img>",5,html-button-response,361,2549096,0.0-18.0-22.0,55957,List2A,black,woman,,TRUE,5,,,,,
null,CORRECT,,html-keyboard-response,362,2550607,0.0-18.0-23.0-0.0,55957,List2A,black,woman,,,,null,,,,
43360,<p>You got 8 out of 8 right first time. Press Continue.</p>,0,html-button-response,363,2593974,0.0-18.0-25.0,55957,List2A,black,woman,,,,,,,,
null,"<div style=""font-size:60px;"">+</div>",,html-keyboard-response,364,2595500,0.0-19.0-0.0,55957,List2A,black,woman,,,,null,,,,
null,"<img src=""stim_listA/shout2.gif""style=""height:400px;""></stim_listA>",,html-keyboard-response,365,2597521,0.0-19.0-1.0,55957,List2A,black,woman,,,,null,,,,
null,are shouting at each other,,html-keyboard-response,366,2599518,0.0-19.0-2.0,55957,List2A,black,woman,,,,null,,,,
15965,,,survey-text,367,2615485,0.0-19.0-3.0,55957,List2A,black,woman,,,,,"{""Q0"":""fred and jane are shouting at each other""}","<img src=""stim_listA/shout2.gif""style=""height:400px;""></stim_listA>",are shouting at each other,
null,"<div style=""font-size:60px;"">+</div>",,html-keyboard-response,368,2616006,0.0-19.0-0.1,55957,List2A,black,woman,,,,null,,,,
null,"<img src=""stim_listA/argue2.gif""style=""height:400px;""></stim_listA>",,html-keyboard-response,369,2618026,0.0-19.0-1.1,55957,List2A,black,woman,,,,null,,,,
null,are arguing with each other,,html-keyboard-response,370,2620018,0.0-19.0-2.1,55957,List2A,black,woman,,,,null,,,,
14411,,,survey-text,371,2634433,0.0-19.0-3.1,55957,List2A,black,woman,,,,,"{""Q0"":""jane and luke are arguing with each other""}","<img src=""stim_listA/argue2.gif""style=""height:400px;""></stim_listA>",are arguing with each other,
null,"<div style=""font-size:60px;"">+</div>",,html-keyboard-response,372,2634949,0.0-19.0-0.2,55957,List2A,black,woman,,,,null,,,,
null,"<img src=""stim_listA/play1.gif""style=""height:400px;""></stim_listA>",,html-keyboard-response,373,2636970,0.0-19.0-1.2,55957,List2A,black,woman,,,,null,,,,
null,is playing with,,html-keyboard-response,374,2638965,0.0-19.0-2.2,55957,List2A,black,woman,,,,null,,,,
12375,,,survey-text,375,2651344,0.0-19.0-3.2,55957,List2A,black,woman,,,,,"{""Q0"":""dave is playing with jane""}","<img src=""stim_listA/play1.gif""style=""height:400px;""></stim_listA>",is playing with,
null,"<div style=""font-size:60px;"">+</div>",,html-keyboard-response,376,2651867,0.0-19.0-0.3,55957,List2A,black,woman,,,,null,,,,
null,"<img src=""stim_listA/shout7.gif""style=""height:400px;""></stim_listA>",,html-keyboard-response,377,2653889,0.0-19.0-1.3,55957,List2A,black,woman,,,,null,,,,
null,is shouting at,,html-keyboard-response,378,2655897,0.0-19.0-2.3,55957,List2A,black,woman,,,,null,,,,
10107,,,survey-text,379,2666007,0.0-19.0-3.3,55957,List2A,black,woman,,,,,"{""Q0"":""ruth is shouting at beth""}","<img src=""stim_listA/shout7.gif""style=""height:400px;""></stim_listA>",is shouting at,
null,"<div style=""font-size:60px;"">+</div>",,html-keyboard-response,380,2666528,0.0-19.0-0.4,55957,List2A,black,woman,,,,null,,,,
null,"<img src=""stim_listA/fight6.gif""style=""height:400px;""></stim_listA>",,html-keyboard-response,381,2668533,0.0-19.0-1.4,55957,List2A,black,woman,,,,null,,,,
null,are fighting each other,,html-keyboard-response,382,2670541,0.0-19.0-2.4,55957,List2A,black,woman,,,,null,,,,
19067,,,survey-text,383,2689611,0.0-19.0-3.4,55957,List2A,black,woman,,,,,"{""Q0"":""luke and fred are fighting with each other""}","<img src=""stim_listA/fight6.gif""style=""height:400px;""></stim_listA>",are fighting each other,
null,"<div style=""font-size:60px;"">+</div>",,html-keyboard-response,384,2690140,0.0-19.0-0.5,55957,List2A,black,woman,,,,null,,,,
null,"<img src=""stim_listA/marry5.gif""style=""height:400px;""></stim_listA>",,html-keyboard-response,385,2692149,0.0-19.0-1.5,55957,List2A,black,woman,,,,null,,,,
null,is marrying,,html-keyboard-response,386,2694157,0.0-19.0-2.5,55957,List2A,black,woman,,,,null,,,,
8497,,,survey-text,387,2702657,0.0-19.0-3.5,55957,List2A,black,woman,,,,,"{""Q0"":""fred is marrying dave""}","<img src=""stim_listA/marry5.gif""style=""height:400px;""></stim_listA>",is marrying,
null,"<div style=""font-size:60px;"">+</div>",,html-keyboard-response,388,2703171,0.0-19.0-0.6,55957,List2A,black,woman,,,,null,,,,
null,"<img src=""stim_listA/touch1.gif""style=""height:400px;""></stim_listA>",,html-keyboard-response,389,2705188,0.0-19.0-1.6,55957,List2A,black,woman,,,,null,,,,
null,is touching,,html-keyboard-response,390,2707186,0.0-19.0-2.6,55957,List2A,black,woman,,,,null,,,,
12942,,,survey-text,391,2720132,0.0-19.0-3.6,55957,List2A,black,woman,,,,,"{""Q0"":""jane is touchinhg dave""}","<img src=""stim_listA/touch1.gif""style=""height:400px;""></stim_listA>",is touching,
null,"<div style=""font-size:60px;"">+</div>",,html-keyboard-response,392,2720655,0.0-19.0-0.7,55957,List2A,black,woman,,,,null,,,,
null,"<img src=""stim_listA/dance7.gif""style=""height:400px;""></stim_listA>",,html-keyboard-response,393,2722679,0.0-19.0-1.7,55957,List2A,black,woman,,,,null,,,,
null,is dancing with,,html-keyboard-response,394,2724669,0.0-19.0-2.7,55957,List2A,black,woman,,,,null,,,,
21252,,,survey-text,395,2745927,0.0-19.0-3.7,55957,List2A,black,woman,,,,,"{""Q0"":""kate and ruth are dancing with each other""}","<img src=""stim_listA/dance7.gif""style=""height:400px;""></stim_listA>",is dancing with,
null,"<div style=""font-size:60px;"">+</div>",,html-keyboard-response,396,2746472,0.0-19.0-0.8,55957,List2A,black,woman,,,,null,,,,
null,"<img src=""stim_listA/touch2.gif""style=""height:400px;""></stim_listA>",,html-keyboard-response,397,2748503,0.0-19.0-1.8,55957,List2A,black,woman,,,,null,,,,
null,are touching each other,,html-keyboard-response,398,2750493,0.0-19.0-2.8,55957,List2A,black,woman,,,,null,,,,
15493,,,survey-text,399,2765990,0.0-19.0-3.8,55957,List2A,black,woman,,,,,"{""Q0"":""ruth and luke are touching each other""}","<img src=""stim_listA/touch2.gif""style=""height:400px;""></stim_listA>",are touching each other,
null,"<div style=""font-size:60px;"">+</div>",,html-keyboard-response,400,2766518,0.0-19.0-0.9,55957,List2A,black,woman,,,,null,,,,
null,"<img src=""stim_listA/marry3.gif""style=""height:400px;""></stim_listA>",,html-keyboard-response,401,2768541,0.0-19.0-1.9,55957,List2A,black,woman,,,,null,,,,
null,is marrying,,html-keyboard-response,402,2770534,0.0-19.0-2.9,55957,List2A,black,woman,,,,null,,,,
11138,,,survey-text,403,2781680,0.0-19.0-3.9,55957,List2A,black,woman,,,,,"{""Q0"":""mike is marrying beth""}","<img src=""stim_listA/marry3.gif""style=""height:400px;""></stim_listA>",is marrying,
null,"<div style=""font-size:60px;"">+</div>",,html-keyboard-response,404,2782198,0.0-19.0-0.10,55957,List2A,black,woman,,,,null,,,,
null,"<img src=""stim_listA/flirt6.gif""style=""height:400px;""></stim_listA>",,html-keyboard-response,405,2784219,0.0-19.0-1.10,55957,List2A,black,woman,,,,null,,,,
null,are flirting with each other,,html-keyboard-response,406,2786227,0.0-19.0-2.10,55957,List2A,black,woman,,,,null,,,,
18585,,,survey-text,407,2804817,0.0-19.0-3.10,55957,List2A,black,woman,,,,,"{""Q0"":""dave and fred are flirting with each other""}","<img src=""stim_listA/flirt6.gif""style=""height:400px;""></stim_listA>",are flirting with each other,
null,"<div style=""font-size:60px;"">+</div>",,html-keyboard-response,408,2805324,0.0-19.0-0.11,55957,List2A,black,woman,,,,null,,,,
null,"<img src=""stim_listA/shout1.gif""style=""height:400px;""></stim_listA>",,html-keyboard-response,409,2807340,0.0-19.0-1.11,55957,List2A,black,woman,,,,null,,,,
null,is shouting at,,html-keyboard-response,410,2809339,0.0-19.0-2.11,55957,List2A,black,woman,,,,null,,,,
10353,,,survey-text,411,2819697,0.0-19.0-3.11,55957,List2A,black,woman,,,,,"{""Q0"":""luke is shouting at ruth""}","<img src=""stim_listA/shout1.gif""style=""height:400px;""></stim_listA>",is shouting at,
null,"<div style=""font-size:60px;"">+</div>",,html-keyboard-response,412,2820222,0.0-19.0-0.12,55957,List2A,black,woman,,,,null,,,,
null,"<img src=""stim_listA/talk5.gif""style=""height:400px;""></stim_listA>",,html-keyboard-response,413,2822238,0.0-19.0-1.12,55957,List2A,black,woman,,,,null,,,,
null,is talking to,,html-keyboard-response,414,2824243,0.0-19.0-2.12,55957,List2A,black,woman,,,,null,,,,
10610,,,survey-text,415,2834858,0.0-19.0-3.12,55957,List2A,black,woman,,,,,"{""Q0"":""mike is talking with luke""}","<img src=""stim_listA/talk5.gif""style=""height:400px;""></stim_listA>",is talking to,
null,"<div style=""font-size:60px;"">+</div>",,html-keyboard-response,416,2835383,0.0-19.0-0.13,55957,List2A,black,woman,,,,null,,,,
null,"<img src=""stim_listA/dance4.gif""style=""height:400px;""></stim_listA>",,html-keyboard-response,417,2837390,0.0-19.0-1.13,55957,List2A,black,woman,,,,null,,,,
null,are dancing with each other,,html-keyboard-response,418,2839400,0.0-19.0-2.13,55957,List2A,black,woman,,,,null,,,,
15298,,,survey-text,419,2854701,0.0-19.0-3.13,55957,List2A,black,woman,,,,,"{""Q0"":""beth and mike are dancing with each other""}","<img src=""stim_listA/dance4.gif""style=""height:400px;""></stim_listA>",are dancing with each other,
null,"<div style=""font-size:60px;"">+</div>",,html-keyboard-response,420,2855219,0.0-19.0-0.14,55957,List2A,black,woman,,,,null,,,,
null,"<img src=""stim_listA/play5.gif""style=""height:400px;""></stim_listA>",,html-keyboard-response,421,2857244,0.0-19.0-1.14,55957,List2A,black,woman,,,,null,,,,
null,is playing with,,html-keyboard-response,422,2859249,0.0-19.0-2.14,55957,List2A,black,woman,,,,null,,,,
17447,,,survey-text,423,2876702,0.0-19.0-3.14,55957,List2A,black,woman,,,,,"{""Q0"":""mike is playing with dave""}","<img src=""stim_listA/play5.gif""style=""height:400px;""></stim_listA>",is playing with,
null,"<div style=""font-size:60px;"">+</div>",,html-keyboard-response,424,2877234,0.0-19.0-0.15,55957,List2A,black,woman,,,,null,,,,
null,"<img src=""stim_listA/kiss1.gif""style=""height:400px;""></stim_listA>",,html-keyboard-response,425,2879241,0.0-19.0-1.15,55957,List2A,black,woman,,,,null,,,,
null,is kissing,,html-keyboard-response,426,2881253,0.0-19.0-2.15,55957,List2A,black,woman,,,,null,,,,
8919,,,survey-text,427,2890177,0.0-19.0-3.15,55957,List2A,black,woman,,,,,"{""Q0"":""ruth is kissing luke""}","<img src=""stim_listA/kiss1.gif""style=""height:400px;""></stim_listA>",is kissing,
null,"<div style=""font-size:60px;"">+</div>",,html-keyboard-response,428,2890702,0.0-19.0-0.16,55957,List2A,black,woman,,,,null,,,,
null,"<img src=""stim_listA/marry4.gif""style=""height:400px;""></stim_listA>",,html-keyboard-response,429,2892724,0.0-19.0-1.16,55957,List2A,black,woman,,,,null,,,,
null,are marrying each other,,html-keyboard-response,430,2894715,0.0-19.0-2.16,55957,List2A,black,woman,,,,null,,,,
15091,,,survey-text,431,2909811,0.0-19.0-3.16,55957,List2A,black,woman,,,,,"{""Q0"":""kate and fred are marrying each other""}","<img src=""stim_listA/marry4.gif""style=""height:400px;""></stim_listA>",are marrying each other,
null,"<div style=""font-size:60px;"">+</div>",,html-keyboard-response,432,2910335,0.0-19.0-0.17,55957,List2A,black,woman,,,,null,,,,
null,"<img src=""stim_listA/fight1.gif""style=""height:400px;""></stim_listA>",,html-keyboard-response,433,2912356,0.0-19.0-1.17,55957,List2A,black,woman,,,,null,,,,
null,is fighting,,html-keyboard-response,434,2914350,0.0-19.0-2.17,55957,List2A,black,woman,,,,null,,,,
16662,,,survey-text,435,2931018,0.0-19.0-3.17,55957,List2A,black,woman,,,,,"{""Q0"":""dave is fighting jane""}","<img src=""stim_listA/fight1.gif""style=""height:400px;""></stim_listA>",is fighting,
null,"<div style=""font-size:60px;"">+</div>",,html-keyboard-response,436,2931552,0.0-19.0-0.18,55957,List2A,black,woman,,,,null,,,,
null,"<img src=""stim_listA/argue4.gif""style=""height:400px;""></stim_listA>",,html-keyboard-response,437,2933573,0.0-19.0-1.18,55957,List2A,black,woman,,,,null,,,,
null,are arguing with each other,,html-keyboard-response,438,2935565,0.0-19.0-2.18,55957,List2A,black,woman,,,,null,,,,
18692,,,survey-text,439,2954261,0.0-19.0-3.18,55957,List2A,black,woman,,,,,"{""Q0"":""kate and dave are arguing with each other""}","<img src=""stim_listA/argue4.gif""style=""height:400px;""></stim_listA>",are arguing with each other,
null,"<div style=""font-size:60px;"">+</div>",,html-keyboard-response,440,2954771,0.0-19.0-0.19,55957,List2A,black,woman,,,,null,,,,
null,"<img src=""stim_listA/kiss3.gif""style=""height:400px;""></stim_listA>",,html-keyboard-response,441,2956795,0.0-19.0-1.19,55957,List2A,black,woman,,,,null,,,,
null,is kissing,,html-keyboard-response,442,2958800,0.0-19.0-2.19,55957,List2A,black,woman,,,,null,,,,
10933,,,survey-text,443,2969738,0.0-19.0-3.19,55957,List2A,black,woman,,,,,"{""Q0"":""beth is kissing fred""}","<img src=""stim_listA/kiss3.gif""style=""height:400px;""></stim_listA>",is kissing,
6423,<p>Thank you for completing that task.</p><p>The final part of this session is a short questionnaire.</p><p>Press Continue.</p>,0,html-button-response,444,2976166,0.0-20.0,55957,List2A,black,woman,,,,,,,,
74212,,,survey-text,445,3051392,0.0-21.0,55957,List2A,black,woman,,,,,"{""Q0"":""32"",""Q1"":""english"",""Q2"":""english"",""Q3"":""united kingdom"",""Q4"":""african"",""Q5"":""female""}",,,demographics
43588,,,survey-likert,446,3094985,0.0-22.0,55957,List2A,black,woman,,,,,"{""Q0"":3}",,,likert_ESS
42830,,,survey-likert,447,3137819,0.0-23.0,55957,List2A,black,woman,,,,,"{""Q0"":0}",,,likert_NSSAL_Q1
5009,,,survey-likert,448,3142833,0.0-24.0,55957,List2A,black,woman,,,,,"{""Q0"":0}",,,likert_NSSAL_Q2
9293,,,survey-likert,449,3152130,0.0-25.0,55957,List2A,black,woman,,,,,"{""Q0"":4}",,,likert_CGRS_Q1
12765,,,survey-likert,450,3164901,0.0-26.0,55957,List2A,black,woman,,,,,"{""Q0"":4}",,,likert_CGRS_Q2
4654,,,survey-likert,451,3169559,0.0-27.0,55957,List2A,black,woman,,,,,"{""Q0"":4}",,,likert_CGRS_Q3
17667,,,survey-text,452,3187231,0.0-28.0,55957,List2A,black,woman,,,,,"{""Q0"":""ccc""}",,,worker_id
91674,,,external-html,453,3280365,0.0-29.0,55957,List2A,black,woman,debrief.html,,,,,,,
