rt,stimulus,button_pressed,trial_type,trial_index,time_elapsed,internal_node_id,subject,list,ppt_race,ppt_gender,url,first_guess,correct,key_press,responses,image_type,phrase_type,test_part
3032,Welcome to the experiment. Press Continue to begin.,0,html-button-response,0,3040,0.0-0.0,56067,List1B,white,woman,,,,,,,,
37856,,,external-html,1,41953,0.0-1.0,56067,List1B,white,woman,consent.html,,,,,,,
1491,"<p>On the next page, you will see portraits of 8 people and their names.</p><p>Your first task is to take a few minutes to memorise the names of these people.</p><p>You will have to recall their names during the rest of the experiment, so it is</p><p>essential that you try to memorise these people and their names as best as you can.</p><br><p><strong>You will then be tested on your memory of these names and portraits.</strong></p><br><p>The experiment will start after you have completed this memory test.</p><br><p>Ready?</p>",0,html-button-response,2,43446,0.0-2.0,56067,List1B,white,woman,,,,,,,,
12761,"<img src='img/portrait_matrix_list1.jpg' style='width:900px;height:500px;''></img><p>If you have memorised all the portraits and names and are ready to start, press Continue.</p><p><strong>Please note: Your memory of these faces will be tested 4 times during this experiment.</strong></p>",0,html-button-response,3,57210,0.0-3.0-0.0,56067,List1B,white,woman,,,,,,,,
2801,"<img src=""portrait/BM2.jpg""style=""height:400px;""></img>",5,html-button-response,4,61015,0.0-3.0-1.0,56067,List1B,white,woman,,TRUE,5,,,,,
null,CORRECT,,html-keyboard-response,5,62520,0.0-3.0-2.0-0.0,56067,List1B,white,woman,,,,null,,,,
3873,"<img src=""portrait/WW1.jpg""style=""height:400px;""></img>",0,html-button-response,6,66395,0.0-3.0-4.0,56067,List1B,white,woman,,TRUE,1,,,,,
4563,"<img src=""portrait/WW1.jpg""style=""height:400px;""></img>",1,html-button-response,7,71960,0.0-3.0-6.0-0.0,56067,List1B,white,woman,,FALSE,1,,,,,
null,CORRECT,,html-keyboard-response,8,73464,0.0-3.0-6.0-1.0-0.0,56067,List1B,white,woman,,,,null,,,,
2704,"<img src=""portrait/WW2.jpg""style=""height:400px;""></img>",2,html-button-response,9,76170,0.0-3.0-7.0,56067,List1B,white,woman,,TRUE,3,,,,,
2383,"<img src=""portrait/WW2.jpg""style=""height:400px;""></img>",3,html-button-response,10,79555,0.0-3.0-9.0-0.0,56067,List1B,white,woman,,FALSE,3,,,,,
null,CORRECT,,html-keyboard-response,11,81058,0.0-3.0-9.0-1.0-0.0,56067,List1B,white,woman,,,,null,,,,
2538,"<img src=""portrait/WM1.jpg""style=""height:400px;""></img>",5,html-button-response,12,83597,0.0-3.0-10.0,56067,List1B,white,woman,,TRUE,6,,,,,
2037,"<img src=""portrait/WM1.jpg""style=""height:400px;""></img>",6,html-button-response,13,86637,0.0-3.0-12.0-0.0,56067,List1B,white,woman,,FALSE,6,,,,,
null,CORRECT,,html-keyboard-response,14,88139,0.0-3.0-12.0-1.0-0.0,56067,List1B,white,woman,,,,null,,,,
5553,"<img src=""portrait/BW2.jpg""style=""height:400px;""></img>",0,html-button-response,15,93695,0.0-3.0-13.0,56067,List1B,white,woman,,TRUE,2,,,,,
2053,"<img src=""portrait/BW2.jpg""style=""height:400px;""></img>",2,html-button-response,16,96750,0.0-3.0-15.0-0.0,56067,List1B,white,woman,,FALSE,2,,,,,
null,CORRECT,,html-keyboard-response,17,98253,0.0-3.0-15.0-1.0-0.0,56067,List1B,white,woman,,,,null,,,,
3455,"<img src=""portrait/WM2.jpg""style=""height:400px;""></img>",6,html-button-response,18,101710,0.0-3.0-16.0,56067,List1B,white,woman,,TRUE,7,,,,,
1948,"<img src=""portrait/WM2.jpg""style=""height:400px;""></img>",7,html-button-response,19,104659,0.0-3.0-18.0-0.0,56067,List1B,white,woman,,FALSE,7,,,,,
null,CORRECT,,html-keyboard-response,20,106162,0.0-3.0-18.0-1.0-0.0,56067,List1B,white,woman,,,,null,,,,
9416,"<img src=""portrait/BW1.jpg""style=""height:400px;""></img>",1,html-button-response,21,115580,0.0-3.0-19.0,56067,List1B,white,woman,,TRUE,0,,,,,
2295,"<img src=""portrait/BW1.jpg""style=""height:400px;""></img>",0,html-button-response,22,118877,0.0-3.0-21.0-0.0,56067,List1B,white,woman,,FALSE,0,,,,,
null,CORRECT,,html-keyboard-response,23,120380,0.0-3.0-21.0-1.0-0.0,56067,List1B,white,woman,,,,null,,,,
1904,"<img src=""portrait/BM1.jpg""style=""height:400px;""></img>",7,html-button-response,24,122287,0.0-3.0-22.0,56067,List1B,white,woman,,TRUE,4,,,,,
2035,"<img src=""portrait/BM1.jpg""style=""height:400px;""></img>",4,html-button-response,25,125325,0.0-3.0-24.0-0.0,56067,List1B,white,woman,,FALSE,4,,,,,
null,CORRECT,,html-keyboard-response,26,126828,0.0-3.0-24.0-1.0-0.0,56067,List1B,white,woman,,,,null,,,,
1960,<p>You got 1 out of 8 right first time. Press Continue.</p>,0,html-button-response,27,128791,0.0-3.0-25.0,56067,List1B,white,woman,,,,,,,,
3737,"As you did not score 100%, the memory game will repeat. Press Continue.",0,html-button-response,28,133530,0.0-3.0-26.0-0.0,56067,List1B,white,woman,,,,,,,,
67396,"<img src='img/portrait_matrix_list1.jpg' style='width:900px;height:500px;''></img><p>If you have memorised all the portraits and names and are ready to start, press Continue.</p><p><strong>Please note: Your memory of these faces will be tested 4 times during this experiment.</strong></p>",0,html-button-response,29,201930,0.0-3.1-0.1,56067,List1B,white,woman,,,,,,,,
5191,"<img src=""portrait/BM2.jpg""style=""height:400px;""></img>",5,html-button-response,30,208124,0.0-3.1-1.1,56067,List1B,white,woman,,TRUE,5,,,,,
null,CORRECT,,html-keyboard-response,31,209627,0.0-3.1-2.1-0.1,56067,List1B,white,woman,,,,null,,,,
3731,"<img src=""portrait/WW1.jpg""style=""height:400px;""></img>",1,html-button-response,32,213359,0.0-3.1-4.1,56067,List1B,white,woman,,TRUE,1,,,,,
null,CORRECT,,html-keyboard-response,33,214862,0.0-3.1-5.1-0.1,56067,List1B,white,woman,,,,null,,,,
2236,"<img src=""portrait/WW2.jpg""style=""height:400px;""></img>",3,html-button-response,34,217100,0.0-3.1-7.1,56067,List1B,white,woman,,TRUE,3,,,,,
null,CORRECT,,html-keyboard-response,35,218603,0.0-3.1-8.1-0.1,56067,List1B,white,woman,,,,null,,,,
2898,"<img src=""portrait/WM1.jpg""style=""height:400px;""></img>",6,html-button-response,36,221502,0.0-3.1-10.1,56067,List1B,white,woman,,TRUE,6,,,,,
null,CORRECT,,html-keyboard-response,37,223006,0.0-3.1-11.1-0.1,56067,List1B,white,woman,,,,null,,,,
3822,"<img src=""portrait/BW2.jpg""style=""height:400px;""></img>",2,html-button-response,38,226830,0.0-3.1-13.1,56067,List1B,white,woman,,TRUE,2,,,,,
null,CORRECT,,html-keyboard-response,39,228333,0.0-3.1-14.1-0.1,56067,List1B,white,woman,,,,null,,,,
3077,"<img src=""portrait/WM2.jpg""style=""height:400px;""></img>",7,html-button-response,40,231411,0.0-3.1-16.1,56067,List1B,white,woman,,TRUE,7,,,,,
null,CORRECT,,html-keyboard-response,41,232914,0.0-3.1-17.1-0.1,56067,List1B,white,woman,,,,null,,,,
4299,"<img src=""portrait/BW1.jpg""style=""height:400px;""></img>",0,html-button-response,42,237215,0.0-3.1-19.1,56067,List1B,white,woman,,TRUE,0,,,,,
null,CORRECT,,html-keyboard-response,43,238718,0.0-3.1-20.1-0.1,56067,List1B,white,woman,,,,null,,,,
2881,"<img src=""portrait/BM1.jpg""style=""height:400px;""></img>",5,html-button-response,44,241601,0.0-3.1-22.1,56067,List1B,white,woman,,TRUE,4,,,,,
2989,"<img src=""portrait/BM1.jpg""style=""height:400px;""></img>",4,html-button-response,45,245592,0.0-3.1-24.1-0.1,56067,List1B,white,woman,,FALSE,4,,,,,
null,CORRECT,,html-keyboard-response,46,247094,0.0-3.1-24.1-1.1-0.1,56067,List1B,white,woman,,,,null,,,,
3102,<p>You got 7 out of 8 right first time. Press Continue.</p>,0,html-button-response,47,250197,0.0-3.1-25.1,56067,List1B,white,woman,,,,,,,,
1696,"As you did not score 100%, the memory game will repeat. Press Continue.",0,html-button-response,48,252895,0.0-3.1-26.1-0.1,56067,List1B,white,woman,,,,,,,,
1866,"<img src='img/portrait_matrix_list1.jpg' style='width:900px;height:500px;''></img><p>If you have memorised all the portraits and names and are ready to start, press Continue.</p><p><strong>Please note: Your memory of these faces will be tested 4 times during this experiment.</strong></p>",0,html-button-response,49,255764,0.0-3.2-0.2,56067,List1B,white,woman,,,,,,,,
4069,"<img src=""portrait/BM2.jpg""style=""height:400px;""></img>",5,html-button-response,50,260837,0.0-3.2-1.2,56067,List1B,white,woman,,TRUE,5,,,,,
null,CORRECT,,html-keyboard-response,51,262340,0.0-3.2-2.2-0.2,56067,List1B,white,woman,,,,null,,,,
4652,"<img src=""portrait/WW1.jpg""style=""height:400px;""></img>",1,html-button-response,52,266993,0.0-3.2-4.2,56067,List1B,white,woman,,TRUE,1,,,,,
null,CORRECT,,html-keyboard-response,53,268495,0.0-3.2-5.2-0.2,56067,List1B,white,woman,,,,null,,,,
2269,"<img src=""portrait/WW2.jpg""style=""height:400px;""></img>",3,html-button-response,54,270766,0.0-3.2-7.2,56067,List1B,white,woman,,TRUE,3,,,,,
null,CORRECT,,html-keyboard-response,55,272269,0.0-3.2-8.2-0.2,56067,List1B,white,woman,,,,null,,,,
2439,"<img src=""portrait/WM1.jpg""style=""height:400px;""></img>",6,html-button-response,56,274709,0.0-3.2-10.2,56067,List1B,white,woman,,TRUE,6,,,,,
null,CORRECT,,html-keyboard-response,57,276212,0.0-3.2-11.2-0.2,56067,List1B,white,woman,,,,null,,,,
2867,"<img src=""portrait/BW2.jpg""style=""height:400px;""></img>",2,html-button-response,58,279080,0.0-3.2-13.2,56067,List1B,white,woman,,TRUE,2,,,,,
null,CORRECT,,html-keyboard-response,59,280583,0.0-3.2-14.2-0.2,56067,List1B,white,woman,,,,null,,,,
2389,"<img src=""portrait/WM2.jpg""style=""height:400px;""></img>",7,html-button-response,60,282973,0.0-3.2-16.2,56067,List1B,white,woman,,TRUE,7,,,,,
null,CORRECT,,html-keyboard-response,61,284477,0.0-3.2-17.2-0.2,56067,List1B,white,woman,,,,null,,,,
4194,"<img src=""portrait/BW1.jpg""style=""height:400px;""></img>",0,html-button-response,62,288672,0.0-3.2-19.2,56067,List1B,white,woman,,TRUE,0,,,,,
null,CORRECT,,html-keyboard-response,63,290176,0.0-3.2-20.2-0.2,56067,List1B,white,woman,,,,null,,,,
2671,"<img src=""portrait/BM1.jpg""style=""height:400px;""></img>",4,html-button-response,64,292849,0.0-3.2-22.2,56067,List1B,white,woman,,TRUE,4,,,,,
null,CORRECT,,html-keyboard-response,65,294350,0.0-3.2-23.2-0.2,56067,List1B,white,woman,,,,null,,,,
1639,<p>You got 8 out of 8 right first time. Press Continue.</p>,0,html-button-response,66,295990,0.0-3.2-25.2,56067,List1B,white,woman,,,,,,,,
31268,"<p>In this experiment, you will view photographs of the people from the memory game interacting.</p><p>By using the <strong>exact</strong> phrase given <i>after</i> the photograph appears and recalling the correct names of the people in the photographs, form a sentence describing the interaction. You do not need to capitalise names.</p><p>Type your answer in the space provided. Please complete every sentence before moving onto the next trial.</p><p>You will only have a few seconds to memorise each given photograph and phrase before you can respond, so try your best to focus.</p><p>An example is given below. Press 'Continue' when you are ready.</p><img src='img/speaking_example.jpg' style='width:800px;height:460px;''></img>",0,html-button-response,67,328260,0.0-4.0,56067,List1B,white,woman,,,,,,,,
2998,"<p>Before the experiment starts, you will watch two example trials. Press 'Continue'.</p>",0,html-button-response,68,332260,0.0-5.0,56067,List1B,white,woman,,,,,,,,
null,<img src='img/meet_eg.gif' style='height:400px;''></img>,,html-keyboard-response,69,335264,0.0-6.0,56067,List1B,white,woman,,,,null,,,,
null,<p>is meeting</p>,,html-keyboard-response,70,337266,0.0-7.0,56067,List1B,white,woman,,,,null,,,,
5660,<p><b>Answer:</b> kate is meeting beth</p>,0,html-button-response,71,342927,0.0-8.0,56067,List1B,white,woman,,,,,,,,
null,<img src='img/look_eg.gif' style='height:400px;''></img>,,html-keyboard-response,72,345930,0.0-9.0,56067,List1B,white,woman,,,,null,,,,
null,<p>are looking at each other</p>,,html-keyboard-response,73,347932,0.0-10.0,56067,List1B,white,woman,,,,null,,,,
6138,<p><b>Answer:</b> luke and dave are looking at each other</p>,0,html-button-response,74,354071,0.0-11.0,56067,List1B,white,woman,,,,,,,,
4990,"<p>Ready to start the experiment?</p><br><p><strong>Remember to describe the picture using a full sentence,</strong></p><p><strong>that combines the names of the people with the <i>exact</i> phrase given.</strong></p><p><strong>To receive full payment you must do this correctly.</strong></p><p><strong> You do not need to capitalise names or use punctuation.</strong></p><br><p>Press 'Continue' to begin.</p>",0,html-button-response,75,360063,0.0-12.0,56067,List1B,white,woman,,,,,,,,
null,"<div style=""font-size:60px;"">+</div>",,html-keyboard-response,76,361566,0.0-13.0-0.0,56067,List1B,white,woman,,,,null,,,,
null,"<img src=""stim_listB/talk3.gif""style=""height:400px;""></stim_listB>",,html-keyboard-response,77,363569,0.0-13.0-1.0,56067,List1B,white,woman,,,,null,,,,
null,is talking to,,html-keyboard-response,78,365571,0.0-13.0-2.0,56067,List1B,white,woman,,,,null,,,,
7072,,,survey-text,79,372645,0.0-13.0-3.0,56067,List1B,white,woman,,,,,"{""Q0"":""Jane is talking to mike""}","<img src=""stim_listB/talk3.gif""style=""height:400px;""></stim_listB>",is talking to,
null,"<div style=""font-size:60px;"">+</div>",,html-keyboard-response,80,373148,0.0-13.0-0.1,56067,List1B,white,woman,,,,null,,,,
null,"<img src=""stim_listB/shout8.gif""style=""height:400px;""></stim_listB>",,html-keyboard-response,81,375151,0.0-13.0-1.1,56067,List1B,white,woman,,,,null,,,,
null,are shouting at each other,,html-keyboard-response,82,377153,0.0-13.0-2.1,56067,List1B,white,woman,,,,null,,,,
14079,,,survey-text,83,391234,0.0-13.0-3.1,56067,List1B,white,woman,,,,,"{""Q0"":""Kate and Jane are shouting at eachother""}","<img src=""stim_listB/shout8.gif""style=""height:400px;""></stim_listB>",are shouting at each other,
null,"<div style=""font-size:60px;"">+</div>",,html-keyboard-response,84,391737,0.0-13.0-0.2,56067,List1B,white,woman,,,,null,,,,
null,"<img src=""stim_listB/talk2.gif""style=""height:400px;""></stim_listB>",,html-keyboard-response,85,393740,0.0-13.0-1.2,56067,List1B,white,woman,,,,null,,,,
null,are talking to each other,,html-keyboard-response,86,395742,0.0-13.0-2.2,56067,List1B,white,woman,,,,null,,,,
25472,,,survey-text,87,421215,0.0-13.0-3.2,56067,List1B,white,woman,,,,,"{""Q0"":""Beth and mike are talking to each other""}","<img src=""stim_listB/talk2.gif""style=""height:400px;""></stim_listB>",are talking to each other,
null,"<div style=""font-size:60px;"">+</div>",,html-keyboard-response,88,421718,0.0-13.0-0.3,56067,List1B,white,woman,,,,null,,,,
null,"<img src=""stim_listB/play1.gif""style=""height:400px;""></stim_listB>",,html-keyboard-response,89,423720,0.0-13.0-1.3,56067,List1B,white,woman,,,,null,,,,
null,is playing with,,html-keyboard-response,90,425722,0.0-13.0-2.3,56067,List1B,white,woman,,,,null,,,,
15735,,,survey-text,91,441458,0.0-13.0-3.3,56067,List1B,white,woman,,,,,"{""Q0"":""mike and Beth are playing""}","<img src=""stim_listB/play1.gif""style=""height:400px;""></stim_listB>",is playing with,
null,"<div style=""font-size:60px;"">+</div>",,html-keyboard-response,92,441961,0.0-13.0-0.4,56067,List1B,white,woman,,,,null,,,,
null,"<img src=""stim_listB/kiss4.gif""style=""height:400px;""></stim_listB>",,html-keyboard-response,93,443963,0.0-13.0-1.4,56067,List1B,white,woman,,,,null,,,,
null,are kissing each other,,html-keyboard-response,94,445965,0.0-13.0-2.4,56067,List1B,white,woman,,,,null,,,,
10376,,,survey-text,95,456343,0.0-13.0-3.4,56067,List1B,white,woman,,,,,"{""Q0"":""Jane and Dave are kissing eachother""}","<img src=""stim_listB/kiss4.gif""style=""height:400px;""></stim_listB>",are kissing each other,
null,"<div style=""font-size:60px;"">+</div>",,html-keyboard-response,96,456845,0.0-13.0-0.5,56067,List1B,white,woman,,,,null,,,,
null,"<img src=""stim_listB/marry3.gif""style=""height:400px;""></stim_listB>",,html-keyboard-response,97,458847,0.0-13.0-1.5,56067,List1B,white,woman,,,,null,,,,
null,is marrying,,html-keyboard-response,98,460850,0.0-13.0-2.5,56067,List1B,white,woman,,,,null,,,,
13512,,,survey-text,99,474362,0.0-13.0-3.5,56067,List1B,white,woman,,,,,"{""Q0"":""Dave and ruth are marrying""}","<img src=""stim_listB/marry3.gif""style=""height:400px;""></stim_listB>",is marrying,
null,"<div style=""font-size:60px;"">+</div>",,html-keyboard-response,100,474865,0.0-13.0-0.6,56067,List1B,white,woman,,,,null,,,,
null,"<img src=""stim_listB/kiss2.gif""style=""height:400px;""></stim_listB>",,html-keyboard-response,101,476867,0.0-13.0-1.6,56067,List1B,white,woman,,,,null,,,,
null,are kissing each other,,html-keyboard-response,102,478869,0.0-13.0-2.6,56067,List1B,white,woman,,,,null,,,,
12507,,,survey-text,103,491377,0.0-13.0-3.6,56067,List1B,white,woman,,,,,"{""Q0"":""mike and Kate are kissing eachother""}","<img src=""stim_listB/kiss2.gif""style=""height:400px;""></stim_listB>",are kissing each other,
null,"<div style=""font-size:60px;"">+</div>",,html-keyboard-response,104,491880,0.0-13.0-0.7,56067,List1B,white,woman,,,,null,,,,
null,"<img src=""stim_listB/flirt1.gif""style=""height:400px;""></stim_listB>",,html-keyboard-response,105,493882,0.0-13.0-1.7,56067,List1B,white,woman,,,,null,,,,
null,is flirting with,,html-keyboard-response,106,495885,0.0-13.0-2.7,56067,List1B,white,woman,,,,null,,,,
13976,,,survey-text,107,509861,0.0-13.0-3.7,56067,List1B,white,woman,,,,,"{""Q0"":""fred is flirting with Kate ""}","<img src=""stim_listB/flirt1.gif""style=""height:400px;""></stim_listB>",is flirting with,
null,"<div style=""font-size:60px;"">+</div>",,html-keyboard-response,108,510364,0.0-13.0-0.8,56067,List1B,white,woman,,,,null,,,,
null,"<img src=""stim_listB/shout4.gif""style=""height:400px;""></stim_listB>",,html-keyboard-response,109,512365,0.0-13.0-1.8,56067,List1B,white,woman,,,,null,,,,
null,are shouting at each other,,html-keyboard-response,110,514368,0.0-13.0-2.8,56067,List1B,white,woman,,,,null,,,,
13270,,,survey-text,111,527639,0.0-13.0-3.8,56067,List1B,white,woman,,,,,"{""Q0"":""Jane and Dave are shouting at eachother ""}","<img src=""stim_listB/shout4.gif""style=""height:400px;""></stim_listB>",are shouting at each other,
null,"<div style=""font-size:60px;"">+</div>",,html-keyboard-response,112,528141,0.0-13.0-0.9,56067,List1B,white,woman,,,,null,,,,
null,"<img src=""stim_listB/argue7.gif""style=""height:400px;""></stim_listB>",,html-keyboard-response,113,530143,0.0-13.0-1.9,56067,List1B,white,woman,,,,null,,,,
null,is arguing with,,html-keyboard-response,114,532146,0.0-13.0-2.9,56067,List1B,white,woman,,,,null,,,,
15661,,,survey-text,115,547808,0.0-13.0-3.9,56067,List1B,white,woman,,,,,"{""Q0"":""ruth is arguing with Kate""}","<img src=""stim_listB/argue7.gif""style=""height:400px;""></stim_listB>",is arguing with,
null,"<div style=""font-size:60px;"">+</div>",,html-keyboard-response,116,548310,0.0-13.0-0.10,56067,List1B,white,woman,,,,null,,,,
null,"<img src=""stim_listB/talk4.gif""style=""height:400px;""></stim_listB>",,html-keyboard-response,117,550312,0.0-13.0-1.10,56067,List1B,white,woman,,,,null,,,,
null,are talking to each other,,html-keyboard-response,118,552315,0.0-13.0-2.10,56067,List1B,white,woman,,,,null,,,,
7836,,,survey-text,119,560152,0.0-13.0-3.10,56067,List1B,white,woman,,,,,"{""Q0"":""Dave and ruth are talking to eachother""}","<img src=""stim_listB/talk4.gif""style=""height:400px;""></stim_listB>",are talking to each other,
null,"<div style=""font-size:60px;"">+</div>",,html-keyboard-response,120,560654,0.0-13.0-0.11,56067,List1B,white,woman,,,,null,,,,
null,"<img src=""stim_listB/fight8.gif""style=""height:400px;""></stim_listB>",,html-keyboard-response,121,562655,0.0-13.0-1.11,56067,List1B,white,woman,,,,null,,,,
null,are fighting each other,,html-keyboard-response,122,564657,0.0-13.0-2.11,56067,List1B,white,woman,,,,null,,,,
14040,,,survey-text,123,578698,0.0-13.0-3.11,56067,List1B,white,woman,,,,,"{""Q0"":""ruth and Beth are fighting eachother""}","<img src=""stim_listB/fight8.gif""style=""height:400px;""></stim_listB>",are fighting each other,
null,"<div style=""font-size:60px;"">+</div>",,html-keyboard-response,124,579200,0.0-13.0-0.12,56067,List1B,white,woman,,,,null,,,,
null,"<img src=""stim_listB/flirt4.gif""style=""height:400px;""></stim_listB>",,html-keyboard-response,125,581202,0.0-13.0-1.12,56067,List1B,white,woman,,,,null,,,,
null,are flirting with each other,,html-keyboard-response,126,583204,0.0-13.0-2.12,56067,List1B,white,woman,,,,null,,,,
10194,,,survey-text,127,593399,0.0-13.0-3.12,56067,List1B,white,woman,,,,,"{""Q0"":""Dave and ruth are flirting with eachother""}","<img src=""stim_listB/flirt4.gif""style=""height:400px;""></stim_listB>",are flirting with each other,
null,"<div style=""font-size:60px;"">+</div>",,html-keyboard-response,128,593901,0.0-13.0-0.13,56067,List1B,white,woman,,,,null,,,,
null,"<img src=""stim_listB/fight7.gif""style=""height:400px;""></stim_listB>",,html-keyboard-response,129,595903,0.0-13.0-1.13,56067,List1B,white,woman,,,,null,,,,
null,is fighting,,html-keyboard-response,130,597905,0.0-13.0-2.13,56067,List1B,white,woman,,,,null,,,,
5335,,,survey-text,131,603241,0.0-13.0-3.13,56067,List1B,white,woman,,,,,"{""Q0"":""Jane is fighting Kate""}","<img src=""stim_listB/fight7.gif""style=""height:400px;""></stim_listB>",is fighting,
null,"<div style=""font-size:60px;"">+</div>",,html-keyboard-response,132,603744,0.0-13.0-0.14,56067,List1B,white,woman,,,,null,,,,
null,"<img src=""stim_listB/touch6.gif""style=""height:400px;""></stim_listB>",,html-keyboard-response,133,605746,0.0-13.0-1.14,56067,List1B,white,woman,,,,null,,,,
null,are touching each other,,html-keyboard-response,134,607748,0.0-13.0-2.14,56067,List1B,white,woman,,,,null,,,,
9326,,,survey-text,135,617075,0.0-13.0-3.14,56067,List1B,white,woman,,,,,"{""Q0"":""Dave and mike are touching eachother""}","<img src=""stim_listB/touch6.gif""style=""height:400px;""></stim_listB>",are touching each other,
null,"<div style=""font-size:60px;"">+</div>",,html-keyboard-response,136,617578,0.0-13.0-0.15,56067,List1B,white,woman,,,,null,,,,
null,"<img src=""stim_listB/marry7.gif""style=""height:400px;""></stim_listB>",,html-keyboard-response,137,619580,0.0-13.0-1.15,56067,List1B,white,woman,,,,null,,,,
null,is marrying,,html-keyboard-response,138,621582,0.0-13.0-2.15,56067,List1B,white,woman,,,,null,,,,
6903,,,survey-text,139,628486,0.0-13.0-3.15,56067,List1B,white,woman,,,,,"{""Q0"":""Jane is marrying ruth""}","<img src=""stim_listB/marry7.gif""style=""height:400px;""></stim_listB>",is marrying,
null,"<div style=""font-size:60px;"">+</div>",,html-keyboard-response,140,628988,0.0-13.0-0.16,56067,List1B,white,woman,,,,null,,,,
null,"<img src=""stim_listB/play5.gif""style=""height:400px;""></stim_listB>",,html-keyboard-response,141,630990,0.0-13.0-1.16,56067,List1B,white,woman,,,,null,,,,
null,is playing with,,html-keyboard-response,142,632993,0.0-13.0-2.16,56067,List1B,white,woman,,,,null,,,,
10324,,,survey-text,143,643319,0.0-13.0-3.16,56067,List1B,white,woman,,,,,"{""Q0"":""Dave is playing with mike""}","<img src=""stim_listB/play5.gif""style=""height:400px;""></stim_listB>",is playing with,
null,"<div style=""font-size:60px;"">+</div>",,html-keyboard-response,144,643820,0.0-13.0-0.17,56067,List1B,white,woman,,,,null,,,,
null,"<img src=""stim_listB/dance6.gif""style=""height:400px;""></stim_listB>",,html-keyboard-response,145,645823,0.0-13.0-1.17,56067,List1B,white,woman,,,,null,,,,
null,are dancing with each other,,html-keyboard-response,146,647825,0.0-13.0-2.17,56067,List1B,white,woman,,,,null,,,,
11602,,,survey-text,147,659428,0.0-13.0-3.17,56067,List1B,white,woman,,,,,"{""Q0"":""fred is dancing with mike""}","<img src=""stim_listB/dance6.gif""style=""height:400px;""></stim_listB>",are dancing with each other,
null,"<div style=""font-size:60px;"">+</div>",,html-keyboard-response,148,659931,0.0-13.0-0.18,56067,List1B,white,woman,,,,null,,,,
null,"<img src=""stim_listB/touch3.gif""style=""height:400px;""></stim_listB>",,html-keyboard-response,149,661934,0.0-13.0-1.18,56067,List1B,white,woman,,,,null,,,,
null,is touching,,html-keyboard-response,150,663936,0.0-13.0-2.18,56067,List1B,white,woman,,,,null,,,,
5721,,,survey-text,151,669659,0.0-13.0-3.18,56067,List1B,white,woman,,,,,"{""Q0"":""Dave is touching mike""}","<img src=""stim_listB/touch3.gif""style=""height:400px;""></stim_listB>",is touching,
null,"<div style=""font-size:60px;"">+</div>",,html-keyboard-response,152,670161,0.0-13.0-0.19,56067,List1B,white,woman,,,,null,,,,
null,"<img src=""stim_listB/dance7.gif""style=""height:400px;""></stim_listB>",,html-keyboard-response,153,672163,0.0-13.0-1.19,56067,List1B,white,woman,,,,null,,,,
null,is dancing with,,html-keyboard-response,154,674166,0.0-13.0-2.19,56067,List1B,white,woman,,,,null,,,,
7957,,,survey-text,155,682124,0.0-13.0-3.19,56067,List1B,white,woman,,,,,"{""Q0"":""Beth is dancing with Jane""}","<img src=""stim_listB/dance7.gif""style=""height:400px;""></stim_listB>",is dancing with,
6785,"<img src='img/portrait_matrix_list1.jpg' style='width:900px;height:500px;''></img><p>If you have memorised all the portraits and names and are ready to start, press Continue.</p><p><strong>Please note: Your memory of these faces will be tested 4 times during this experiment.</strong></p>",0,html-button-response,156,688911,0.0-14.0-0.0,56067,List1B,white,woman,,,,,,,,
4741,"<img src=""portrait/BM2.jpg""style=""height:400px;""></img>",5,html-button-response,157,694655,0.0-14.0-1.0,56067,List1B,white,woman,,TRUE,5,,,,,
null,CORRECT,,html-keyboard-response,158,696158,0.0-14.0-2.0-0.0,56067,List1B,white,woman,,,,null,,,,
2412,"<img src=""portrait/BW2.jpg""style=""height:400px;""></img>",2,html-button-response,159,698571,0.0-14.0-4.0,56067,List1B,white,woman,,TRUE,2,,,,,
null,CORRECT,,html-keyboard-response,160,700074,0.0-14.0-5.0-0.0,56067,List1B,white,woman,,,,null,,,,
3637,"<img src=""portrait/WM2.jpg""style=""height:400px;""></img>",7,html-button-response,161,703713,0.0-14.0-7.0,56067,List1B,white,woman,,TRUE,7,,,,,
null,CORRECT,,html-keyboard-response,162,705216,0.0-14.0-8.0-0.0,56067,List1B,white,woman,,,,null,,,,
2121,"<img src=""portrait/WW2.jpg""style=""height:400px;""></img>",3,html-button-response,163,707339,0.0-14.0-10.0,56067,List1B,white,woman,,TRUE,3,,,,,
null,CORRECT,,html-keyboard-response,164,708842,0.0-14.0-11.0-0.0,56067,List1B,white,woman,,,,null,,,,
2927,"<img src=""portrait/WM1.jpg""style=""height:400px;""></img>",6,html-button-response,165,711772,0.0-14.0-13.0,56067,List1B,white,woman,,TRUE,6,,,,,
null,CORRECT,,html-keyboard-response,166,713275,0.0-14.0-14.0-0.0,56067,List1B,white,woman,,,,null,,,,
3587,"<img src=""portrait/WW1.jpg""style=""height:400px;""></img>",1,html-button-response,167,716864,0.0-14.0-16.0,56067,List1B,white,woman,,TRUE,1,,,,,
null,CORRECT,,html-keyboard-response,168,718367,0.0-14.0-17.0-0.0,56067,List1B,white,woman,,,,null,,,,
3233,"<img src=""portrait/BW1.jpg""style=""height:400px;""></img>",0,html-button-response,169,721603,0.0-14.0-19.0,56067,List1B,white,woman,,TRUE,0,,,,,
null,CORRECT,,html-keyboard-response,170,723106,0.0-14.0-20.0-0.0,56067,List1B,white,woman,,,,null,,,,
2569,"<img src=""portrait/BM1.jpg""style=""height:400px;""></img>",4,html-button-response,171,725677,0.0-14.0-22.0,56067,List1B,white,woman,,TRUE,4,,,,,
null,CORRECT,,html-keyboard-response,172,727181,0.0-14.0-23.0-0.0,56067,List1B,white,woman,,,,null,,,,
1533,<p>You got 8 out of 8 right first time. Press Continue.</p>,0,html-button-response,173,728716,0.0-14.0-25.0,56067,List1B,white,woman,,,,,,,,
null,"<div style=""font-size:60px;"">+</div>",,html-keyboard-response,174,730219,0.0-15.0-0.0,56067,List1B,white,woman,,,,null,,,,
null,"<img src=""stim_listB/touch2.gif""style=""height:400px;""></stim_listB>",,html-keyboard-response,175,732222,0.0-15.0-1.0,56067,List1B,white,woman,,,,null,,,,
null,are touching each other,,html-keyboard-response,176,734224,0.0-15.0-2.0,56067,List1B,white,woman,,,,null,,,,
8734,,,survey-text,177,742959,0.0-15.0-3.0,56067,List1B,white,woman,,,,,"{""Q0"":""Beth and fred are touching eachother""}","<img src=""stim_listB/touch2.gif""style=""height:400px;""></stim_listB>",are touching each other,
null,"<div style=""font-size:60px;"">+</div>",,html-keyboard-response,178,743461,0.0-15.0-0.1,56067,List1B,white,woman,,,,null,,,,
null,"<img src=""stim_listB/fight2.gif""style=""height:400px;""></stim_listB>",,html-keyboard-response,179,745464,0.0-15.0-1.1,56067,List1B,white,woman,,,,null,,,,
null,are fighting each other,,html-keyboard-response,180,747467,0.0-15.0-2.1,56067,List1B,white,woman,,,,null,,,,
7952,,,survey-text,181,755419,0.0-15.0-3.1,56067,List1B,white,woman,,,,,"{""Q0"":""Beth and fred are fighting eachother""}","<img src=""stim_listB/fight2.gif""style=""height:400px;""></stim_listB>",are fighting each other,
null,"<div style=""font-size:60px;"">+</div>",,html-keyboard-response,182,755921,0.0-15.0-0.2,56067,List1B,white,woman,,,,null,,,,
null,"<img src=""stim_listB/touch8.gif""style=""height:400px;""></stim_listB>",,html-keyboard-response,183,757924,0.0-15.0-1.2,56067,List1B,white,woman,,,,null,,,,
null,are touching each other,,html-keyboard-response,184,759927,0.0-15.0-2.2,56067,List1B,white,woman,,,,null,,,,
7821,,,survey-text,185,767748,0.0-15.0-3.2,56067,List1B,white,woman,,,,,"{""Q0"":""ruth and Beth are touching eachother""}","<img src=""stim_listB/touch8.gif""style=""height:400px;""></stim_listB>",are touching each other,
null,"<div style=""font-size:60px;"">+</div>",,html-keyboard-response,186,768250,0.0-15.0-0.3,56067,List1B,white,woman,,,,null,,,,
null,"<img src=""stim_listB/flirt6.gif""style=""height:400px;""></stim_listB>",,html-keyboard-response,187,770252,0.0-15.0-1.3,56067,List1B,white,woman,,,,null,,,,
null,are flirting with each other,,html-keyboard-response,188,772255,0.0-15.0-2.3,56067,List1B,white,woman,,,,null,,,,
8939,,,survey-text,189,781195,0.0-15.0-3.3,56067,List1B,white,woman,,,,,"{""Q0"":""mike and Luke are flirting with eachother""}","<img src=""stim_listB/flirt6.gif""style=""height:400px;""></stim_listB>",are flirting with each other,
null,"<div style=""font-size:60px;"">+</div>",,html-keyboard-response,190,781698,0.0-15.0-0.4,56067,List1B,white,woman,,,,null,,,,
null,"<img src=""stim_listB/talk6.gif""style=""height:400px;""></stim_listB>",,html-keyboard-response,191,783700,0.0-15.0-1.4,56067,List1B,white,woman,,,,null,,,,
null,are talking to each other,,html-keyboard-response,192,785702,0.0-15.0-2.4,56067,List1B,white,woman,,,,null,,,,
7908,,,survey-text,193,793611,0.0-15.0-3.4,56067,List1B,white,woman,,,,,"{""Q0"":""mike and Luke are talking to eachother""}","<img src=""stim_listB/talk6.gif""style=""height:400px;""></stim_listB>",are talking to each other,
null,"<div style=""font-size:60px;"">+</div>",,html-keyboard-response,194,794114,0.0-15.0-0.5,56067,List1B,white,woman,,,,null,,,,
null,"<img src=""stim_listB/dance5.gif""style=""height:400px;""></stim_listB>",,html-keyboard-response,195,796116,0.0-15.0-1.5,56067,List1B,white,woman,,,,null,,,,
null,is dancing with,,html-keyboard-response,196,798119,0.0-15.0-2.5,56067,List1B,white,woman,,,,null,,,,
6773,,,survey-text,197,804893,0.0-15.0-3.5,56067,List1B,white,woman,,,,,"{""Q0"":""fred is dancing with Dave""}","<img src=""stim_listB/dance5.gif""style=""height:400px;""></stim_listB>",is dancing with,
null,"<div style=""font-size:60px;"">+</div>",,html-keyboard-response,198,805397,0.0-15.0-0.6,56067,List1B,white,woman,,,,null,,,,
null,"<img src=""stim_listB/talk7.gif""style=""height:400px;""></stim_listB>",,html-keyboard-response,199,807400,0.0-15.0-1.6,56067,List1B,white,woman,,,,null,,,,
null,is talking to,,html-keyboard-response,200,809402,0.0-15.0-2.6,56067,List1B,white,woman,,,,null,,,,
5632,,,survey-text,201,815036,0.0-15.0-3.6,56067,List1B,white,woman,,,,,"{""Q0"":""Beth is talking to Jane""}","<img src=""stim_listB/talk7.gif""style=""height:400px;""></stim_listB>",is talking to,
null,"<div style=""font-size:60px;"">+</div>",,html-keyboard-response,202,815538,0.0-15.0-0.7,56067,List1B,white,woman,,,,null,,,,
null,"<img src=""stim_listB/touch7.gif""style=""height:400px;""></stim_listB>",,html-keyboard-response,203,817540,0.0-15.0-1.7,56067,List1B,white,woman,,,,null,,,,
null,is touching,,html-keyboard-response,204,819543,0.0-15.0-2.7,56067,List1B,white,woman,,,,null,,,,
4215,,,survey-text,205,823759,0.0-15.0-3.7,56067,List1B,white,woman,,,,,"{""Q0"":""Jane is touching Kate""}","<img src=""stim_listB/touch7.gif""style=""height:400px;""></stim_listB>",is touching,
null,"<div style=""font-size:60px;"">+</div>",,html-keyboard-response,206,824262,0.0-15.0-0.8,56067,List1B,white,woman,,,,null,,,,
null,"<img src=""stim_listB/kiss6.gif""style=""height:400px;""></stim_listB>",,html-keyboard-response,207,826264,0.0-15.0-1.8,56067,List1B,white,woman,,,,null,,,,
null,are kissing each other,,html-keyboard-response,208,828266,0.0-15.0-2.8,56067,List1B,white,woman,,,,null,,,,
11906,,,survey-text,209,840173,0.0-15.0-3.8,56067,List1B,white,woman,,,,,"{""Q0"":""mike and Dave are kissing eachother""}","<img src=""stim_listB/kiss6.gif""style=""height:400px;""></stim_listB>",are kissing each other,
null,"<div style=""font-size:60px;"">+</div>",,html-keyboard-response,210,840676,0.0-15.0-0.9,56067,List1B,white,woman,,,,null,,,,
null,"<img src=""stim_listB/shout5.gif""style=""height:400px;""></stim_listB>",,html-keyboard-response,211,842678,0.0-15.0-1.9,56067,List1B,white,woman,,,,null,,,,
null,is shouting at,,html-keyboard-response,212,844680,0.0-15.0-2.9,56067,List1B,white,woman,,,,null,,,,
7604,,,survey-text,213,852285,0.0-15.0-3.9,56067,List1B,white,woman,,,,,"{""Q0"":""fred is shouting at Luke""}","<img src=""stim_listB/shout5.gif""style=""height:400px;""></stim_listB>",is shouting at,
null,"<div style=""font-size:60px;"">+</div>",,html-keyboard-response,214,852787,0.0-15.0-0.10,56067,List1B,white,woman,,,,null,,,,
null,"<img src=""stim_listB/kiss3.gif""style=""height:400px;""></stim_listB>",,html-keyboard-response,215,854790,0.0-15.0-1.10,56067,List1B,white,woman,,,,null,,,,
null,is kissing,,html-keyboard-response,216,856792,0.0-15.0-2.10,56067,List1B,white,woman,,,,null,,,,
4922,,,survey-text,217,861716,0.0-15.0-3.10,56067,List1B,white,woman,,,,,"{""Q0"":""Luke is kissing ruth""}","<img src=""stim_listB/kiss3.gif""style=""height:400px;""></stim_listB>",is kissing,
null,"<div style=""font-size:60px;"">+</div>",,html-keyboard-response,218,862218,0.0-15.0-0.11,56067,List1B,white,woman,,,,null,,,,
null,"<img src=""stim_listB/argue4.gif""style=""height:400px;""></stim_listB>",,html-keyboard-response,219,864221,0.0-15.0-1.11,56067,List1B,white,woman,,,,null,,,,
null,are arguing with each other,,html-keyboard-response,220,866223,0.0-15.0-2.11,56067,List1B,white,woman,,,,null,,,,
10651,,,survey-text,221,876875,0.0-15.0-3.11,56067,List1B,white,woman,,,,,"{""Q0"":""Jane and Luke are arguing with eachother""}","<img src=""stim_listB/argue4.gif""style=""height:400px;""></stim_listB>",are arguing with each other,
null,"<div style=""font-size:60px;"">+</div>",,html-keyboard-response,222,877378,0.0-15.0-0.12,56067,List1B,white,woman,,,,null,,,,
null,"<img src=""stim_listB/fight5.gif""style=""height:400px;""></stim_listB>",,html-keyboard-response,223,879380,0.0-15.0-1.12,56067,List1B,white,woman,,,,null,,,,
null,is fighting,,html-keyboard-response,224,881382,0.0-15.0-2.12,56067,List1B,white,woman,,,,null,,,,
7296,,,survey-text,225,888679,0.0-15.0-3.12,56067,List1B,white,woman,,,,,"{""Q0"":""mike is fighting with Dave""}","<img src=""stim_listB/fight5.gif""style=""height:400px;""></stim_listB>",is fighting,
null,"<div style=""font-size:60px;"">+</div>",,html-keyboard-response,226,889182,0.0-15.0-0.13,56067,List1B,white,woman,,,,null,,,,
null,"<img src=""stim_listB/shout3.gif""style=""height:400px;""></stim_listB>",,html-keyboard-response,227,891184,0.0-15.0-1.13,56067,List1B,white,woman,,,,null,,,,
null,is shouting at,,html-keyboard-response,228,893187,0.0-15.0-2.13,56067,List1B,white,woman,,,,null,,,,
5616,,,survey-text,229,898803,0.0-15.0-3.13,56067,List1B,white,woman,,,,,"{""Q0"":""ruth is shouting at Luke""}","<img src=""stim_listB/shout3.gif""style=""height:400px;""></stim_listB>",is shouting at,
null,"<div style=""font-size:60px;"">+</div>",,html-keyboard-response,230,899306,0.0-15.0-0.14,56067,List1B,white,woman,,,,null,,,,
null,"<img src=""stim_listB/argue1.gif""style=""height:400px;""></stim_listB>",,html-keyboard-response,231,901308,0.0-15.0-1.14,56067,List1B,white,woman,,,,null,,,,
null,is arguing with,,html-keyboard-response,232,903310,0.0-15.0-2.14,56067,List1B,white,woman,,,,null,,,,
9945,,,survey-text,233,913256,0.0-15.0-3.14,56067,List1B,white,woman,,,,,"{""Q0"":""Beth is arguing with mike""}","<img src=""stim_listB/argue1.gif""style=""height:400px;""></stim_listB>",is arguing with,
null,"<div style=""font-size:60px;"">+</div>",,html-keyboard-response,234,913758,0.0-15.0-0.15,56067,List1B,white,woman,,,,null,,,,
null,"<img src=""stim_listB/play8.gif""style=""height:400px;""></stim_listB>",,html-keyboard-response,235,915761,0.0-15.0-1.15,56067,List1B,white,woman,,,,null,,,,
null,are playing with each other,,html-keyboard-response,236,917763,0.0-15.0-2.15,56067,List1B,white,woman,,,,null,,,,
10562,,,survey-text,237,928326,0.0-15.0-3.15,56067,List1B,white,woman,,,,,"{""Q0"":""Kate and ruth are playing with eachother""}","<img src=""stim_listB/play8.gif""style=""height:400px;""></stim_listB>",are playing with each other,
null,"<div style=""font-size:60px;"">+</div>",,html-keyboard-response,238,928828,0.0-15.0-0.16,56067,List1B,white,woman,,,,null,,,,
null,"<img src=""stim_listB/dance3.gif""style=""height:400px;""></stim_listB>",,html-keyboard-response,239,930830,0.0-15.0-1.16,56067,List1B,white,woman,,,,null,,,,
null,is dancing with,,html-keyboard-response,240,932833,0.0-15.0-2.16,56067,List1B,white,woman,,,,null,,,,
5647,,,survey-text,241,938481,0.0-15.0-3.16,56067,List1B,white,woman,,,,,"{""Q0"":""Jane is dancing with Luke""}","<img src=""stim_listB/dance3.gif""style=""height:400px;""></stim_listB>",is dancing with,
null,"<div style=""font-size:60px;"">+</div>",,html-keyboard-response,242,938983,0.0-15.0-0.17,56067,List1B,white,woman,,,,null,,,,
null,"<img src=""stim_listB/flirt7.gif""style=""height:400px;""></stim_listB>",,html-keyboard-response,243,940986,0.0-15.0-1.17,56067,List1B,white,woman,,,,null,,,,
null,is flirting with,,html-keyboard-response,244,942988,0.0-15.0-2.17,56067,List1B,white,woman,,,,null,,,,
7891,,,survey-text,245,950880,0.0-15.0-3.17,56067,List1B,white,woman,,,,,"{""Q0"":""Beth is flirting with Jane""}","<img src=""stim_listB/flirt7.gif""style=""height:400px;""></stim_listB>",is flirting with,
null,"<div style=""font-size:60px;"">+</div>",,html-keyboard-response,246,951383,0.0-15.0-0.18,56067,List1B,white,woman,,,,null,,,,
null,"<img src=""stim_listB/touch4.gif""style=""height:400px;""></stim_listB>",,html-keyboard-response,247,953385,0.0-15.0-1.18,56067,List1B,white,woman,,,,null,,,,
null,are touching each other,,html-keyboard-response,248,955387,0.0-15.0-2.18,56067,List1B,white,woman,,,,null,,,,
10161,,,survey-text,249,965549,0.0-15.0-3.18,56067,List1B,white,woman,,,,,"{""Q0"":""Luke and ruth are touching eachother""}","<img src=""stim_listB/touch4.gif""style=""height:400px;""></stim_listB>",are touching each other,
null,"<div style=""font-size:60px;"">+</div>",,html-keyboard-response,250,966051,0.0-15.0-0.19,56067,List1B,white,woman,,,,null,,,,
null,"<img src=""stim_listB/argue3.gif""style=""height:400px;""></stim_listB>",,html-keyboard-response,251,968054,0.0-15.0-1.19,56067,List1B,white,woman,,,,null,,,,
null,is arguing with,,html-keyboard-response,252,970056,0.0-15.0-2.19,56067,List1B,white,woman,,,,null,,,,
6796,,,survey-text,253,976853,0.0-15.0-3.19,56067,List1B,white,woman,,,,,"{""Q0"":""Dave is arguing with ruth""}","<img src=""stim_listB/argue3.gif""style=""height:400px;""></stim_listB>",is arguing with,
2081,"<img src='img/portrait_matrix_list1.jpg' style='width:900px;height:500px;''></img><p>If you have memorised all the portraits and names and are ready to start, press Continue.</p><p><strong>Please note: Your memory of these faces will be tested 4 times during this experiment.</strong></p>",0,html-button-response,254,978936,0.0-16.0-0.0,56067,List1B,white,woman,,,,,,,,
3692,"<img src=""portrait/BW2.jpg""style=""height:400px;""></img>",2,html-button-response,255,983630,0.0-16.0-1.0,56067,List1B,white,woman,,TRUE,2,,,,,
null,CORRECT,,html-keyboard-response,256,985133,0.0-16.0-2.0-0.0,56067,List1B,white,woman,,,,null,,,,
2452,"<img src=""portrait/BM2.jpg""style=""height:400px;""></img>",5,html-button-response,257,987586,0.0-16.0-4.0,56067,List1B,white,woman,,TRUE,5,,,,,
null,CORRECT,,html-keyboard-response,258,989089,0.0-16.0-5.0-0.0,56067,List1B,white,woman,,,,null,,,,
3558,"<img src=""portrait/WW1.jpg""style=""height:400px;""></img>",1,html-button-response,259,992649,0.0-16.0-7.0,56067,List1B,white,woman,,TRUE,1,,,,,
null,CORRECT,,html-keyboard-response,260,994153,0.0-16.0-8.0-0.0,56067,List1B,white,woman,,,,null,,,,
2032,"<img src=""portrait/WM2.jpg""style=""height:400px;""></img>",7,html-button-response,261,996186,0.0-16.0-10.0,56067,List1B,white,woman,,TRUE,7,,,,,
null,CORRECT,,html-keyboard-response,262,997690,0.0-16.0-11.0-0.0,56067,List1B,white,woman,,,,null,,,,
2519,"<img src=""portrait/WW2.jpg""style=""height:400px;""></img>",3,html-button-response,263,1000210,0.0-16.0-13.0,56067,List1B,white,woman,,TRUE,3,,,,,
null,CORRECT,,html-keyboard-response,264,1001713,0.0-16.0-14.0-0.0,56067,List1B,white,woman,,,,null,,,,
2874,"<img src=""portrait/WM1.jpg""style=""height:400px;""></img>",6,html-button-response,265,1004588,0.0-16.0-16.0,56067,List1B,white,woman,,TRUE,6,,,,,
null,CORRECT,,html-keyboard-response,266,1006092,0.0-16.0-17.0-0.0,56067,List1B,white,woman,,,,null,,,,
3027,"<img src=""portrait/BW1.jpg""style=""height:400px;""></img>",0,html-button-response,267,1009120,0.0-16.0-19.0,56067,List1B,white,woman,,TRUE,0,,,,,
null,CORRECT,,html-keyboard-response,268,1010623,0.0-16.0-20.0-0.0,56067,List1B,white,woman,,,,null,,,,
2333,"<img src=""portrait/BM1.jpg""style=""height:400px;""></img>",4,html-button-response,269,1012957,0.0-16.0-22.0,56067,List1B,white,woman,,TRUE,4,,,,,
null,CORRECT,,html-keyboard-response,270,1014461,0.0-16.0-23.0-0.0,56067,List1B,white,woman,,,,null,,,,
1500,<p>You got 8 out of 8 right first time. Press Continue.</p>,0,html-button-response,271,1015962,0.0-16.0-25.0,56067,List1B,white,woman,,,,,,,,
null,"<div style=""font-size:60px;"">+</div>",,html-keyboard-response,272,1017466,0.0-17.0-0.0,56067,List1B,white,woman,,,,null,,,,
null,"<img src=""stim_listB/flirt5.gif""style=""height:400px;""></stim_listB>",,html-keyboard-response,273,1019469,0.0-17.0-1.0,56067,List1B,white,woman,,,,null,,,,
null,is flirting with,,html-keyboard-response,274,1021471,0.0-17.0-2.0,56067,List1B,white,woman,,,,null,,,,
8588,,,survey-text,275,1030061,0.0-17.0-3.0,56067,List1B,white,woman,,,,,"{""Q0"":""fred is flirting with dave""}","<img src=""stim_listB/flirt5.gif""style=""height:400px;""></stim_listB>",is flirting with,
null,"<div style=""font-size:60px;"">+</div>",,html-keyboard-response,276,1030562,0.0-17.0-0.1,56067,List1B,white,woman,,,,null,,,,
null,"<img src=""stim_listB/fight1.gif""style=""height:400px;""></stim_listB>",,html-keyboard-response,277,1032564,0.0-17.0-1.1,56067,List1B,white,woman,,,,null,,,,
null,is fighting,,html-keyboard-response,278,1034566,0.0-17.0-2.1,56067,List1B,white,woman,,,,null,,,,
5400,,,survey-text,279,1039967,0.0-17.0-3.1,56067,List1B,white,woman,,,,,"{""Q0"":""Kate is fighting mike""}","<img src=""stim_listB/fight1.gif""style=""height:400px;""></stim_listB>",is fighting,
null,"<div style=""font-size:60px;"">+</div>",,html-keyboard-response,280,1040469,0.0-17.0-0.2,56067,List1B,white,woman,,,,null,,,,
null,"<img src=""stim_listB/talk1.gif""style=""height:400px;""></stim_listB>",,html-keyboard-response,281,1042471,0.0-17.0-1.2,56067,List1B,white,woman,,,,null,,,,
null,is talking to,,html-keyboard-response,282,1044473,0.0-17.0-2.2,56067,List1B,white,woman,,,,null,,,,
5970,,,survey-text,283,1050444,0.0-17.0-3.2,56067,List1B,white,woman,,,,,"{""Q0"":""fred is talking to Kate""}","<img src=""stim_listB/talk1.gif""style=""height:400px;""></stim_listB>",is talking to,
null,"<div style=""font-size:60px;"">+</div>",,html-keyboard-response,284,1050947,0.0-17.0-0.3,56067,List1B,white,woman,,,,null,,,,
null,"<img src=""stim_listB/marry6.gif""style=""height:400px;""></stim_listB>",,html-keyboard-response,285,1052950,0.0-17.0-1.3,56067,List1B,white,woman,,,,null,,,,
null,are marrying each other,,html-keyboard-response,286,1054952,0.0-17.0-2.3,56067,List1B,white,woman,,,,null,,,,
7755,,,survey-text,287,1062709,0.0-17.0-3.3,56067,List1B,white,woman,,,,,"{""Q0"":""Dave and fred are marrying eachother""}","<img src=""stim_listB/marry6.gif""style=""height:400px;""></stim_listB>",are marrying each other,
null,"<div style=""font-size:60px;"">+</div>",,html-keyboard-response,288,1063211,0.0-17.0-0.4,56067,List1B,white,woman,,,,null,,,,
null,"<img src=""stim_listB/flirt2.gif""style=""height:400px;""></stim_listB>",,html-keyboard-response,289,1065213,0.0-17.0-1.4,56067,List1B,white,woman,,,,null,,,,
null,are flirting with each other,,html-keyboard-response,290,1067216,0.0-17.0-2.4,56067,List1B,white,woman,,,,null,,,,
9091,,,survey-text,291,1076308,0.0-17.0-3.4,56067,List1B,white,woman,,,,,"{""Q0"":""Beth and mike are flirting with eachother""}","<img src=""stim_listB/flirt2.gif""style=""height:400px;""></stim_listB>",are flirting with each other,
null,"<div style=""font-size:60px;"">+</div>",,html-keyboard-response,292,1076810,0.0-17.0-0.5,56067,List1B,white,woman,,,,null,,,,
null,"<img src=""stim_listB/touch5.gif""style=""height:400px;""></stim_listB>",,html-keyboard-response,293,1078813,0.0-17.0-1.5,56067,List1B,white,woman,,,,null,,,,
null,is touching,,html-keyboard-response,294,1080815,0.0-17.0-2.5,56067,List1B,white,woman,,,,null,,,,
5226,,,survey-text,295,1086043,0.0-17.0-3.5,56067,List1B,white,woman,,,,,"{""Q0"":""Dave and mike are touching""}","<img src=""stim_listB/touch5.gif""style=""height:400px;""></stim_listB>",is touching,
null,"<div style=""font-size:60px;"">+</div>",,html-keyboard-response,296,1086545,0.0-17.0-0.6,56067,List1B,white,woman,,,,null,,,,
null,"<img src=""stim_listB/marry4.gif""style=""height:400px;""></stim_listB>",,html-keyboard-response,297,1088547,0.0-17.0-1.6,56067,List1B,white,woman,,,,null,,,,
null,are marrying each other,,html-keyboard-response,298,1090549,0.0-17.0-2.6,56067,List1B,white,woman,,,,null,,,,
8113,,,survey-text,299,1098663,0.0-17.0-3.6,56067,List1B,white,woman,,,,,"{""Q0"":""Jane and Luke are marrying eachother""}","<img src=""stim_listB/marry4.gif""style=""height:400px;""></stim_listB>",are marrying each other,
null,"<div style=""font-size:60px;"">+</div>",,html-keyboard-response,300,1099165,0.0-17.0-0.7,56067,List1B,white,woman,,,,null,,,,
null,"<img src=""stim_listB/play7.gif""style=""height:400px;""></stim_listB>",,html-keyboard-response,301,1101165,0.0-17.0-1.7,56067,List1B,white,woman,,,,null,,,,
null,is playing with,,html-keyboard-response,302,1103165,0.0-17.0-2.7,56067,List1B,white,woman,,,,null,,,,
8801,,,survey-text,303,1111967,0.0-17.0-3.7,56067,List1B,white,woman,,,,,"{""Q0"":""Kate is playing withjane""}","<img src=""stim_listB/play7.gif""style=""height:400px;""></stim_listB>",is playing with,
null,"<div style=""font-size:60px;"">+</div>",,html-keyboard-response,304,1112469,0.0-17.0-0.8,56067,List1B,white,woman,,,,null,,,,
null,"<img src=""stim_listB/shout1.gif""style=""height:400px;""></stim_listB>",,html-keyboard-response,305,1114470,0.0-17.0-1.8,56067,List1B,white,woman,,,,null,,,,
null,is shouting at,,html-keyboard-response,306,1116471,0.0-17.0-2.8,56067,List1B,white,woman,,,,null,,,,
5522,,,survey-text,307,1121994,0.0-17.0-3.8,56067,List1B,white,woman,,,,,"{""Q0"":""fred is shouting at Beth""}","<img src=""stim_listB/shout1.gif""style=""height:400px;""></stim_listB>",is shouting at,
null,"<div style=""font-size:60px;"">+</div>",,html-keyboard-response,308,1122496,0.0-17.0-0.9,56067,List1B,white,woman,,,,null,,,,
null,"<img src=""stim_listB/marry8.gif""style=""height:400px;""></stim_listB>",,html-keyboard-response,309,1124504,0.0-17.0-1.9,56067,List1B,white,woman,,,,null,,,,
null,are marrying each other,,html-keyboard-response,310,1126506,0.0-17.0-2.9,56067,List1B,white,woman,,,,null,,,,
9285,,,survey-text,311,1135792,0.0-17.0-3.9,56067,List1B,white,woman,,,,,"{""Q0"":""Beth and Jane are marrying eachother""}","<img src=""stim_listB/marry8.gif""style=""height:400px;""></stim_listB>",are marrying each other,
null,"<div style=""font-size:60px;"">+</div>",,html-keyboard-response,312,1136295,0.0-17.0-0.10,56067,List1B,white,woman,,,,null,,,,
null,"<img src=""stim_listB/argue6.gif""style=""height:400px;""></stim_listB>",,html-keyboard-response,313,1138297,0.0-17.0-1.10,56067,List1B,white,woman,,,,null,,,,
null,are arguing with each other,,html-keyboard-response,314,1140299,0.0-17.0-2.10,56067,List1B,white,woman,,,,null,,,,
9529,,,survey-text,315,1149831,0.0-17.0-3.10,56067,List1B,white,woman,,,,,"{""Q0"":""Dave and fred are arguing with eachother""}","<img src=""stim_listB/argue6.gif""style=""height:400px;""></stim_listB>",are arguing with each other,
null,"<div style=""font-size:60px;"">+</div>",,html-keyboard-response,316,1150333,0.0-17.0-0.11,56067,List1B,white,woman,,,,null,,,,
null,"<img src=""stim_listB/fight4.gif""style=""height:400px;""></stim_listB>",,html-keyboard-response,317,1152336,0.0-17.0-1.11,56067,List1B,white,woman,,,,null,,,,
null,are fighting each other,,html-keyboard-response,318,1154338,0.0-17.0-2.11,56067,List1B,white,woman,,,,null,,,,
8797,,,survey-text,319,1163136,0.0-17.0-3.11,56067,List1B,white,woman,,,,,"{""Q0"":""Luke and ruth are fighting eachother""}","<img src=""stim_listB/fight4.gif""style=""height:400px;""></stim_listB>",are fighting each other,
null,"<div style=""font-size:60px;"">+</div>",,html-keyboard-response,320,1163638,0.0-17.0-0.12,56067,List1B,white,woman,,,,null,,,,
null,"<img src=""stim_listB/talk5.gif""style=""height:400px;""></stim_listB>",,html-keyboard-response,321,1165641,0.0-17.0-1.12,56067,List1B,white,woman,,,,null,,,,
null,is talking to,,html-keyboard-response,322,1167643,0.0-17.0-2.12,56067,List1B,white,woman,,,,null,,,,
4207,,,survey-text,323,1171851,0.0-17.0-3.12,56067,List1B,white,woman,,,,,"{""Q0"":""Dave is talking to fred""}","<img src=""stim_listB/talk5.gif""style=""height:400px;""></stim_listB>",is talking to,
null,"<div style=""font-size:60px;"">+</div>",,html-keyboard-response,324,1172353,0.0-17.0-0.13,56067,List1B,white,woman,,,,null,,,,
null,"<img src=""stim_listB/play6.gif""style=""height:400px;""></stim_listB>",,html-keyboard-response,325,1174356,0.0-17.0-1.13,56067,List1B,white,woman,,,,null,,,,
null,are playing with each other,,html-keyboard-response,326,1176358,0.0-17.0-2.13,56067,List1B,white,woman,,,,null,,,,
9932,,,survey-text,327,1186294,0.0-17.0-3.13,56067,List1B,white,woman,,,,,"{""Q0"":""Luke and fred are playing with eachother""}","<img src=""stim_listB/play6.gif""style=""height:400px;""></stim_listB>",are playing with each other,
null,"<div style=""font-size:60px;"">+</div>",,html-keyboard-response,328,1186796,0.0-17.0-0.14,56067,List1B,white,woman,,,,null,,,,
null,"<img src=""stim_listB/shout6.gif""style=""height:400px;""></stim_listB>",,html-keyboard-response,329,1188799,0.0-17.0-1.14,56067,List1B,white,woman,,,,null,,,,
null,are shouting at each other,,html-keyboard-response,330,1190801,0.0-17.0-2.14,56067,List1B,white,woman,,,,null,,,,
8068,,,survey-text,331,1198871,0.0-17.0-3.14,56067,List1B,white,woman,,,,,"{""Q0"":""Dave and mike are shouting at eachother""}","<img src=""stim_listB/shout6.gif""style=""height:400px;""></stim_listB>",are shouting at each other,
null,"<div style=""font-size:60px;"">+</div>",,html-keyboard-response,332,1199374,0.0-17.0-0.15,56067,List1B,white,woman,,,,null,,,,
null,"<img src=""stim_listB/shout2.gif""style=""height:400px;""></stim_listB>",,html-keyboard-response,333,1201377,0.0-17.0-1.15,56067,List1B,white,woman,,,,null,,,,
null,are shouting at each other,,html-keyboard-response,334,1203378,0.0-17.0-2.15,56067,List1B,white,woman,,,,null,,,,
8290,,,survey-text,335,1211669,0.0-17.0-3.15,56067,List1B,white,woman,,,,,"{""Q0"":""Kate and mike are shouting at eachother""}","<img src=""stim_listB/shout2.gif""style=""height:400px;""></stim_listB>",are shouting at each other,
null,"<div style=""font-size:60px;"">+</div>",,html-keyboard-response,336,1212173,0.0-17.0-0.16,56067,List1B,white,woman,,,,null,,,,
null,"<img src=""stim_listB/fight3.gif""style=""height:400px;""></stim_listB>",,html-keyboard-response,337,1214176,0.0-17.0-1.16,56067,List1B,white,woman,,,,null,,,,
null,is fighting,,html-keyboard-response,338,1216178,0.0-17.0-2.16,56067,List1B,white,woman,,,,null,,,,
6126,,,survey-text,339,1222306,0.0-17.0-3.16,56067,List1B,white,woman,,,,,"{""Q0"":""Jane is fighting Dave""}","<img src=""stim_listB/fight3.gif""style=""height:400px;""></stim_listB>",is fighting,
null,"<div style=""font-size:60px;"">+</div>",,html-keyboard-response,340,1222809,0.0-17.0-0.17,56067,List1B,white,woman,,,,null,,,,
null,"<img src=""stim_listB/marry5.gif""style=""height:400px;""></stim_listB>",,html-keyboard-response,341,1224812,0.0-17.0-1.17,56067,List1B,white,woman,,,,null,,,,
null,is marrying,,html-keyboard-response,342,1226814,0.0-17.0-2.17,56067,List1B,white,woman,,,,null,,,,
8256,,,survey-text,343,1235072,0.0-17.0-3.17,56067,List1B,white,woman,,,,,"{""Q0"":""Luke is marrying mike""}","<img src=""stim_listB/marry5.gif""style=""height:400px;""></stim_listB>",is marrying,
null,"<div style=""font-size:60px;"">+</div>",,html-keyboard-response,344,1235575,0.0-17.0-0.18,56067,List1B,white,woman,,,,null,,,,
null,"<img src=""stim_listB/dance2.gif""style=""height:400px;""></stim_listB>",,html-keyboard-response,345,1237578,0.0-17.0-1.18,56067,List1B,white,woman,,,,null,,,,
null,are dancing with each other,,html-keyboard-response,346,1239580,0.0-17.0-2.18,56067,List1B,white,woman,,,,null,,,,
8599,,,survey-text,347,1248180,0.0-17.0-3.18,56067,List1B,white,woman,,,,,"{""Q0"":""mike and bet are dancing with eachother""}","<img src=""stim_listB/dance2.gif""style=""height:400px;""></stim_listB>",are dancing with each other,
null,"<div style=""font-size:60px;"">+</div>",,html-keyboard-response,348,1248683,0.0-17.0-0.19,56067,List1B,white,woman,,,,null,,,,
null,"<img src=""stim_listB/kiss5.gif""style=""height:400px;""></stim_listB>",,html-keyboard-response,349,1250685,0.0-17.0-1.19,56067,List1B,white,woman,,,,null,,,,
null,is kissing,,html-keyboard-response,350,1252688,0.0-17.0-2.19,56067,List1B,white,woman,,,,null,,,,
4243,,,survey-text,351,1256933,0.0-17.0-3.19,56067,List1B,white,woman,,,,,"{""Q0"":""Luke is kissing fred""}","<img src=""stim_listB/kiss5.gif""style=""height:400px;""></stim_listB>",is kissing,
9335,"<img src='img/portrait_matrix_list1.jpg' style='width:900px;height:500px;''></img><p>If you have memorised all the portraits and names and are ready to start, press Continue.</p><p><strong>Please note: Your memory of these faces will be tested 4 times during this experiment.</strong></p>",0,html-button-response,352,1266270,0.0-18.0-0.0,56067,List1B,white,woman,,,,,,,,
3763,"<img src=""portrait/BM1.jpg""style=""height:400px;""></img>",4,html-button-response,353,1271036,0.0-18.0-1.0,56067,List1B,white,woman,,TRUE,4,,,,,
null,CORRECT,,html-keyboard-response,354,1272543,0.0-18.0-2.0-0.0,56067,List1B,white,woman,,,,null,,,,
2497,"<img src=""portrait/BW1.jpg""style=""height:400px;""></img>",0,html-button-response,355,1275043,0.0-18.0-4.0,56067,List1B,white,woman,,TRUE,0,,,,,
null,CORRECT,,html-keyboard-response,356,1276546,0.0-18.0-5.0-0.0,56067,List1B,white,woman,,,,null,,,,
2575,"<img src=""portrait/BW2.jpg""style=""height:400px;""></img>",2,html-button-response,357,1279122,0.0-18.0-7.0,56067,List1B,white,woman,,TRUE,2,,,,,
null,CORRECT,,html-keyboard-response,358,1280625,0.0-18.0-8.0-0.0,56067,List1B,white,woman,,,,null,,,,
2283,"<img src=""portrait/WW1.jpg""style=""height:400px;""></img>",1,html-button-response,359,1282911,0.0-18.0-10.0,56067,List1B,white,woman,,TRUE,1,,,,,
null,CORRECT,,html-keyboard-response,360,1284414,0.0-18.0-11.0-0.0,56067,List1B,white,woman,,,,null,,,,
4553,"<img src=""portrait/WM1.jpg""style=""height:400px;""></img>",6,html-button-response,361,1288968,0.0-18.0-13.0,56067,List1B,white,woman,,TRUE,6,,,,,
null,CORRECT,,html-keyboard-response,362,1290472,0.0-18.0-14.0-0.0,56067,List1B,white,woman,,,,null,,,,
2832,"<img src=""portrait/WM2.jpg""style=""height:400px;""></img>",7,html-button-response,363,1293305,0.0-18.0-16.0,56067,List1B,white,woman,,TRUE,7,,,,,
null,CORRECT,,html-keyboard-response,364,1294808,0.0-18.0-17.0-0.0,56067,List1B,white,woman,,,,null,,,,
3485,"<img src=""portrait/BM2.jpg""style=""height:400px;""></img>",5,html-button-response,365,1298295,0.0-18.0-19.0,56067,List1B,white,woman,,TRUE,5,,,,,
null,CORRECT,,html-keyboard-response,366,1299799,0.0-18.0-20.0-0.0,56067,List1B,white,woman,,,,null,,,,
1967,"<img src=""portrait/WW2.jpg""style=""height:400px;""></img>",3,html-button-response,367,1301767,0.0-18.0-22.0,56067,List1B,white,woman,,TRUE,3,,,,,
null,CORRECT,,html-keyboard-response,368,1303269,0.0-18.0-23.0-0.0,56067,List1B,white,woman,,,,null,,,,
1461,<p>You got 8 out of 8 right first time. Press Continue.</p>,0,html-button-response,369,1304732,0.0-18.0-25.0,56067,List1B,white,woman,,,,,,,,
null,"<div style=""font-size:60px;"">+</div>",,html-keyboard-response,370,1306235,0.0-19.0-0.0,56067,List1B,white,woman,,,,null,,,,
null,"<img src=""stim_listB/kiss8.gif""style=""height:400px;""></stim_listB>",,html-keyboard-response,371,1308237,0.0-19.0-1.0,56067,List1B,white,woman,,,,null,,,,
null,are kissing each other,,html-keyboard-response,372,1310238,0.0-19.0-2.0,56067,List1B,white,woman,,,,null,,,,
7226,,,survey-text,373,1317468,0.0-19.0-3.0,56067,List1B,white,woman,,,,,"{""Q0"":""Jane and Kate are kissing eachother""}","<img src=""stim_listB/kiss8.gif""style=""height:400px;""></stim_listB>",are kissing each other,
null,"<div style=""font-size:60px;"">+</div>",,html-keyboard-response,374,1317971,0.0-19.0-0.1,56067,List1B,white,woman,,,,null,,,,
null,"<img src=""stim_listB/dance8.gif""style=""height:400px;""></stim_listB>",,html-keyboard-response,375,1319974,0.0-19.0-1.1,56067,List1B,white,woman,,,,null,,,,
null,are dancing with each other,,html-keyboard-response,376,1321976,0.0-19.0-2.1,56067,List1B,white,woman,,,,null,,,,
9595,,,survey-text,377,1331575,0.0-19.0-3.1,56067,List1B,white,woman,,,,,"{""Q0"":""Kate and Jane are dancing with eachother""}","<img src=""stim_listB/dance8.gif""style=""height:400px;""></stim_listB>",are dancing with each other,
null,"<div style=""font-size:60px;"">+</div>",,html-keyboard-response,378,1332077,0.0-19.0-0.2,56067,List1B,white,woman,,,,null,,,,
null,"<img src=""stim_listB/touch1.gif""style=""height:400px;""></stim_listB>",,html-keyboard-response,379,1334080,0.0-19.0-1.2,56067,List1B,white,woman,,,,null,,,,
null,is touching,,html-keyboard-response,380,1336082,0.0-19.0-2.2,56067,List1B,white,woman,,,,null,,,,
5591,,,survey-text,381,1341675,0.0-19.0-3.2,56067,List1B,white,woman,,,,,"{""Q0"":""mike and Kate are touching""}","<img src=""stim_listB/touch1.gif""style=""height:400px;""></stim_listB>",is touching,
null,"<div style=""font-size:60px;"">+</div>",,html-keyboard-response,382,1342177,0.0-19.0-0.3,56067,List1B,white,woman,,,,null,,,,
null,"<img src=""stim_listB/dance1.gif""style=""height:400px;""></stim_listB>",,html-keyboard-response,383,1344180,0.0-19.0-1.3,56067,List1B,white,woman,,,,null,,,,
null,is dancing with,,html-keyboard-response,384,1346182,0.0-19.0-2.3,56067,List1B,white,woman,,,,null,,,,
4995,,,survey-text,385,1351178,0.0-19.0-3.3,56067,List1B,white,woman,,,,,"{""Q0"":""fred is dancing with Kate""}","<img src=""stim_listB/dance1.gif""style=""height:400px;""></stim_listB>",is dancing with,
null,"<div style=""font-size:60px;"">+</div>",,html-keyboard-response,386,1351681,0.0-19.0-0.4,56067,List1B,white,woman,,,,null,,,,
null,"<img src=""stim_listB/marry2.gif""style=""height:400px;""></stim_listB>",,html-keyboard-response,387,1353683,0.0-19.0-1.4,56067,List1B,white,woman,,,,null,,,,
null,are marrying each other,,html-keyboard-response,388,1355686,0.0-19.0-2.4,56067,List1B,white,woman,,,,null,,,,
6732,,,survey-text,389,1362419,0.0-19.0-3.4,56067,List1B,white,woman,,,,,"{""Q0"":""fred and Kate are marrying eachother""}","<img src=""stim_listB/marry2.gif""style=""height:400px;""></stim_listB>",are marrying each other,
null,"<div style=""font-size:60px;"">+</div>",,html-keyboard-response,390,1362922,0.0-19.0-0.5,56067,List1B,white,woman,,,,null,,,,
null,"<img src=""stim_listB/kiss7.gif""style=""height:400px;""></stim_listB>",,html-keyboard-response,391,1364925,0.0-19.0-1.5,56067,List1B,white,woman,,,,null,,,,
null,is kissing,,html-keyboard-response,392,1366927,0.0-19.0-2.5,56067,List1B,white,woman,,,,null,,,,
7978,,,survey-text,393,1374910,0.0-19.0-3.5,56067,List1B,white,woman,,,,,"{""Q0"":""ruth is kissing Beth""}","<img src=""stim_listB/kiss7.gif""style=""height:400px;""></stim_listB>",is kissing,
null,"<div style=""font-size:60px;"">+</div>",,html-keyboard-response,394,1375412,0.0-19.0-0.6,56067,List1B,white,woman,,,,null,,,,
null,"<img src=""stim_listB/argue2.gif""style=""height:400px;""></stim_listB>",,html-keyboard-response,395,1377415,0.0-19.0-1.6,56067,List1B,white,woman,,,,null,,,,
null,are arguing with each other,,html-keyboard-response,396,1379417,0.0-19.0-2.6,56067,List1B,white,woman,,,,null,,,,
8920,,,survey-text,397,1388338,0.0-19.0-3.6,56067,List1B,white,woman,,,,,"{""Q0"":""Kate and fred are arguing with eachother""}","<img src=""stim_listB/argue2.gif""style=""height:400px;""></stim_listB>",are arguing with each other,
null,"<div style=""font-size:60px;"">+</div>",,html-keyboard-response,398,1388840,0.0-19.0-0.7,56067,List1B,white,woman,,,,null,,,,
null,"<img src=""stim_listB/play3.gif""style=""height:400px;""></stim_listB>",,html-keyboard-response,399,1390843,0.0-19.0-1.7,56067,List1B,white,woman,,,,null,,,,
null,is playing with,,html-keyboard-response,400,1392845,0.0-19.0-2.7,56067,List1B,white,woman,,,,null,,,,
5994,,,survey-text,401,1398842,0.0-19.0-3.7,56067,List1B,white,woman,,,,,"{""Q0"":""Jane is playing with Dave""}","<img src=""stim_listB/play3.gif""style=""height:400px;""></stim_listB>",is playing with,
null,"<div style=""font-size:60px;"">+</div>",,html-keyboard-response,402,1399345,0.0-19.0-0.8,56067,List1B,white,woman,,,,null,,,,
null,"<img src=""stim_listB/play2.gif""style=""height:400px;""></stim_listB>",,html-keyboard-response,403,1401348,0.0-19.0-1.8,56067,List1B,white,woman,,,,null,,,,
null,are playing with each other,,html-keyboard-response,404,1403350,0.0-19.0-2.8,56067,List1B,white,woman,,,,null,,,,
7583,,,survey-text,405,1410934,0.0-19.0-3.8,56067,List1B,white,woman,,,,,"{""Q0"":""fred and bet are playing with eachother""}","<img src=""stim_listB/play2.gif""style=""height:400px;""></stim_listB>",are playing with each other,
null,"<div style=""font-size:60px;"">+</div>",,html-keyboard-response,406,1411436,0.0-19.0-0.9,56067,List1B,white,woman,,,,null,,,,
null,"<img src=""stim_listB/talk8.gif""style=""height:400px;""></stim_listB>",,html-keyboard-response,407,1413441,0.0-19.0-1.9,56067,List1B,white,woman,,,,null,,,,
null,are talking to each other,,html-keyboard-response,408,1415443,0.0-19.0-2.9,56067,List1B,white,woman,,,,null,,,,
7449,,,survey-text,409,1422893,0.0-19.0-3.9,56067,List1B,white,woman,,,,,"{""Q0"":""Kate and ruth are talking to eachother""}","<img src=""stim_listB/talk8.gif""style=""height:400px;""></stim_listB>",are talking to each other,
null,"<div style=""font-size:60px;"">+</div>",,html-keyboard-response,410,1423395,0.0-19.0-0.10,56067,List1B,white,woman,,,,null,,,,
null,"<img src=""stim_listB/marry1.gif""style=""height:400px;""></stim_listB>",,html-keyboard-response,411,1425398,0.0-19.0-1.10,56067,List1B,white,woman,,,,null,,,,
null,is marrying,,html-keyboard-response,412,1427400,0.0-19.0-2.10,56067,List1B,white,woman,,,,null,,,,
5326,,,survey-text,413,1432728,0.0-19.0-3.10,56067,List1B,white,woman,,,,,"{""Q0"":""Beth is marrying mike""}","<img src=""stim_listB/marry1.gif""style=""height:400px;""></stim_listB>",is marrying,
null,"<div style=""font-size:60px;"">+</div>",,html-keyboard-response,414,1433230,0.0-19.0-0.11,56067,List1B,white,woman,,,,null,,,,
null,"<img src=""stim_listB/flirt8.gif""style=""height:400px;""></stim_listB>",,html-keyboard-response,415,1435232,0.0-19.0-1.11,56067,List1B,white,woman,,,,null,,,,
null,are flirting with each other,,html-keyboard-response,416,1437235,0.0-19.0-2.11,56067,List1B,white,woman,,,,null,,,,
9066,,,survey-text,417,1446302,0.0-19.0-3.11,56067,List1B,white,woman,,,,,"{""Q0"":""ruth and Kate are flirting with eachother""}","<img src=""stim_listB/flirt8.gif""style=""height:400px;""></stim_listB>",are flirting with each other,
null,"<div style=""font-size:60px;"">+</div>",,html-keyboard-response,418,1446806,0.0-19.0-0.12,56067,List1B,white,woman,,,,null,,,,
null,"<img src=""stim_listB/shout7.gif""style=""height:400px;""></stim_listB>",,html-keyboard-response,419,1448809,0.0-19.0-1.12,56067,List1B,white,woman,,,,null,,,,
null,is shouting at,,html-keyboard-response,420,1450811,0.0-19.0-2.12,56067,List1B,white,woman,,,,null,,,,
5524,,,survey-text,421,1456337,0.0-19.0-3.12,56067,List1B,white,woman,,,,,"{""Q0"":""ruth is shouting at Beth""}","<img src=""stim_listB/shout7.gif""style=""height:400px;""></stim_listB>",is shouting at,
null,"<div style=""font-size:60px;"">+</div>",,html-keyboard-response,422,1456841,0.0-19.0-0.13,56067,List1B,white,woman,,,,null,,,,
null,"<img src=""stim_listB/play4.gif""style=""height:400px;""></stim_listB>",,html-keyboard-response,423,1458843,0.0-19.0-1.13,56067,List1B,white,woman,,,,null,,,,
null,are playing with each other,,html-keyboard-response,424,1460845,0.0-19.0-2.13,56067,List1B,white,woman,,,,null,,,,
7178,,,survey-text,425,1468025,0.0-19.0-3.13,56067,List1B,white,woman,,,,,"{""Q0"":""Luke and ruth are playing with eachother""}","<img src=""stim_listB/play4.gif""style=""height:400px;""></stim_listB>",are playing with each other,
null,"<div style=""font-size:60px;"">+</div>",,html-keyboard-response,426,1468528,0.0-19.0-0.14,56067,List1B,white,woman,,,,null,,,,
null,"<img src=""stim_listB/kiss1.gif""style=""height:400px;""></stim_listB>",,html-keyboard-response,427,1470531,0.0-19.0-1.14,56067,List1B,white,woman,,,,null,,,,
null,is kissing,,html-keyboard-response,428,1472533,0.0-19.0-2.14,56067,List1B,white,woman,,,,null,,,,
4260,,,survey-text,429,1476796,0.0-19.0-3.14,56067,List1B,white,woman,,,,,"{""Q0"":""fred is kissing Beth""}","<img src=""stim_listB/kiss1.gif""style=""height:400px;""></stim_listB>",is kissing,
null,"<div style=""font-size:60px;"">+</div>",,html-keyboard-response,430,1477299,0.0-19.0-0.15,56067,List1B,white,woman,,,,null,,,,
null,"<img src=""stim_listB/dance4.gif""style=""height:400px;""></stim_listB>",,html-keyboard-response,431,1479302,0.0-19.0-1.15,56067,List1B,white,woman,,,,null,,,,
null,are dancing with each other,,html-keyboard-response,432,1481305,0.0-19.0-2.15,56067,List1B,white,woman,,,,null,,,,
7313,,,survey-text,433,1488619,0.0-19.0-3.15,56067,List1B,white,woman,,,,,"{""Q0"":""Dave and ruth are dancing with eachother""}","<img src=""stim_listB/dance4.gif""style=""height:400px;""></stim_listB>",are dancing with each other,
null,"<div style=""font-size:60px;"">+</div>",,html-keyboard-response,434,1489123,0.0-19.0-0.16,56067,List1B,white,woman,,,,null,,,,
null,"<img src=""stim_listB/argue5.gif""style=""height:400px;""></stim_listB>",,html-keyboard-response,435,1491125,0.0-19.0-1.16,56067,List1B,white,woman,,,,null,,,,
null,is arguing with,,html-keyboard-response,436,1493128,0.0-19.0-2.16,56067,List1B,white,woman,,,,null,,,,
4341,,,survey-text,437,1497471,0.0-19.0-3.16,56067,List1B,white,woman,,,,,"{""Q0"":""luke is arguing with mike""}","<img src=""stim_listB/argue5.gif""style=""height:400px;""></stim_listB>",is arguing with,
null,"<div style=""font-size:60px;"">+</div>",,html-keyboard-response,438,1497973,0.0-19.0-0.17,56067,List1B,white,woman,,,,null,,,,
null,"<img src=""stim_listB/flirt3.gif""style=""height:400px;""></stim_listB>",,html-keyboard-response,439,1499976,0.0-19.0-1.17,56067,List1B,white,woman,,,,null,,,,
null,is flirting with,,html-keyboard-response,440,1501978,0.0-19.0-2.17,56067,List1B,white,woman,,,,null,,,,
6111,,,survey-text,441,1508093,0.0-19.0-3.17,56067,List1B,white,woman,,,,,"{""Q0"":""Jane is flirting with Luke""}","<img src=""stim_listB/flirt3.gif""style=""height:400px;""></stim_listB>",is flirting with,
null,"<div style=""font-size:60px;"">+</div>",,html-keyboard-response,442,1508596,0.0-19.0-0.18,56067,List1B,white,woman,,,,null,,,,
null,"<img src=""stim_listB/fight6.gif""style=""height:400px;""></stim_listB>",,html-keyboard-response,443,1510598,0.0-19.0-1.18,56067,List1B,white,woman,,,,null,,,,
null,are fighting each other,,html-keyboard-response,444,1512600,0.0-19.0-2.18,56067,List1B,white,woman,,,,null,,,,
6789,,,survey-text,445,1519391,0.0-19.0-3.18,56067,List1B,white,woman,,,,,"{""Q0"":""fred and Luke are fighting eachother""}","<img src=""stim_listB/fight6.gif""style=""height:400px;""></stim_listB>",are fighting each other,
null,"<div style=""font-size:60px;"">+</div>",,html-keyboard-response,446,1519894,0.0-19.0-0.19,56067,List1B,white,woman,,,,null,,,,
null,"<img src=""stim_listB/argue8.gif""style=""height:400px;""></stim_listB>",,html-keyboard-response,447,1521896,0.0-19.0-1.19,56067,List1B,white,woman,,,,null,,,,
null,are arguing with each other,,html-keyboard-response,448,1523898,0.0-19.0-2.19,56067,List1B,white,woman,,,,null,,,,
12538,,,survey-text,449,1536438,0.0-19.0-3.19,56067,List1B,white,woman,,,,,"{""Q0"":""Jane and Beth are arguing with eachother""}","<img src=""stim_listB/argue8.gif""style=""height:400px;""></stim_listB>",are arguing with each other,
2041,<p>Thank you for completing that task.</p><p>The final part of this session is a short questionnaire.</p><p>Press Continue.</p>,0,html-button-response,450,1538482,0.0-20.0,56067,List1B,white,woman,,,,,,,,
57083,,,survey-text,451,1596567,0.0-21.0,56067,List1B,white,woman,,,,,"{""Q0"":""36"",""Q1"":""english "",""Q2"":""English"",""Q3"":""england"",""Q4"":""white"",""Q5"":""female""}",,,demographics
6545,,,survey-likert,452,1603117,0.0-22.0,56067,List1B,white,woman,,,,,"{""Q0"":4}",,,likert_ESS
5761,,,survey-likert,453,1608883,0.0-23.0,56067,List1B,white,woman,,,,,"{""Q0"":4}",,,likert_NSSAL_Q1
3441,,,survey-likert,454,1612327,0.0-24.0,56067,List1B,white,woman,,,,,"{""Q0"":4}",,,likert_NSSAL_Q2
3863,,,survey-likert,455,1616193,0.0-25.0,56067,List1B,white,woman,,,,,"{""Q0"":4}",,,likert_CGRS_Q1
4139,,,survey-likert,456,1620336,0.0-26.0,56067,List1B,white,woman,,,,,"{""Q0"":4}",,,likert_CGRS_Q2
4366,,,survey-likert,457,1624706,0.0-27.0,56067,List1B,white,woman,,,,,"{""Q0"":4}",,,likert_CGRS_Q3
13299,,,survey-text,458,1638010,0.0-28.0,56067,List1B,white,woman,,,,,"{""Q0"":""ccc""}",,,worker_id
4821,,,external-html,459,1642931,0.0-29.0,56067,List1B,white,woman,debrief.html,,,,,,,
