"rt","stimulus","button_pressed","trial_type","trial_index","time_elapsed","internal_node_id","subject","list","ppt_race","ppt_gender","url","first_guess","correct","key_press","responses","image_type","phrase_type","test_part"
"2075","Welcome to the experiment. Press Continue to begin.","0","html-button-response","0","2113","0.0-0.0","56197","List1A","black","woman","","","","","","","",""
"13824","","","external-html","1","17127","0.0-1.0","56197","List1A","black","woman","consent.html","","","","","","",""
"23567","<p>On the next page, you will see portraits of 8 people and their names.</p><p>Your first task is to take a few minutes to memorise the names of these people.</p><p>You will have to recall their names during the rest of the experiment, so it is</p><p>essential that you try to memorise these people and their names as best as you can.</p><br><p><strong>You will then be tested on your memory of these names and portraits.</strong></p><br><p>The experiment will start after you have completed this memory test.</p><br><p>Ready?</p>","0","html-button-response","2","40703","0.0-2.0","56197","List1A","black","woman","","","","","","","",""
"39075","<img src='img/portrait_matrix_list1.jpg' style='width:900px;height:500px;''></img><p>If you have memorised all the portraits and names and are ready to start, press Continue.</p><p><strong>Please note: Your memory of these faces will be tested 4 times during this experiment.</strong></p>","0","html-button-response","3","80806","0.0-3.0-0.0","56197","List1A","black","woman","","","","","","","",""
"5938","<img src=""portrait/WM1.jpg""style=""height:400px;""></img>","6","html-button-response","4","87762","0.0-3.0-1.0","56197","List1A","black","woman","","true","6","","","","",""
"null","CORRECT","","html-keyboard-response","5","89278","0.0-3.0-2.0-0.0","56197","List1A","black","woman","","","","null","","","",""
"2700","<img src=""portrait/WM2.jpg""style=""height:400px;""></img>","7","html-button-response","6","91987","0.0-3.0-4.0","56197","List1A","black","woman","","true","7","","","","",""
"null","CORRECT","","html-keyboard-response","7","93504","0.0-3.0-5.0-0.0","56197","List1A","black","woman","","","","null","","","",""
"17315","<img src=""portrait/BW1.jpg""style=""height:400px;""></img>","1","html-button-response","8","110827","0.0-3.0-7.0","56197","List1A","black","woman","","true","0","","","","",""
"3631","<img src=""portrait/BW1.jpg""style=""height:400px;""></img>","0","html-button-response","9","115471","0.0-3.0-9.0-0.0","56197","List1A","black","woman","","false","0","","","","",""
"null","CORRECT","","html-keyboard-response","10","116982","0.0-3.0-9.0-1.0-0.0","56197","List1A","black","woman","","","","null","","","",""
"2089","<img src=""portrait/WW2.jpg""style=""height:400px;""></img>","3","html-button-response","11","119082","0.0-3.0-10.0","56197","List1A","black","woman","","true","3","","","","",""
"null","CORRECT","","html-keyboard-response","12","120586","0.0-3.0-11.0-0.0","56197","List1A","black","woman","","","","null","","","",""
"3666","<img src=""portrait/BM1.jpg""style=""height:400px;""></img>","4","html-button-response","13","124257","0.0-3.0-13.0","56197","List1A","black","woman","","true","4","","","","",""
"null","CORRECT","","html-keyboard-response","14","125760","0.0-3.0-14.0-0.0","56197","List1A","black","woman","","","","null","","","",""
"5449","<img src=""portrait/BW2.jpg""style=""height:400px;""></img>","1","html-button-response","15","131217","0.0-3.0-16.0","56197","List1A","black","woman","","true","2","","","","",""
"1487","<img src=""portrait/BW2.jpg""style=""height:400px;""></img>","2","html-button-response","16","133715","0.0-3.0-18.0-0.0","56197","List1A","black","woman","","false","2","","","","",""
"null","CORRECT","","html-keyboard-response","17","135224","0.0-3.0-18.0-1.0-0.0","56197","List1A","black","woman","","","","null","","","",""
"5076","<img src=""portrait/BM2.jpg""style=""height:400px;""></img>","5","html-button-response","18","140308","0.0-3.0-19.0","56197","List1A","black","woman","","true","5","","","","",""
"null","CORRECT","","html-keyboard-response","19","141816","0.0-3.0-20.0-0.0","56197","List1A","black","woman","","","","null","","","",""
"6134","<img src=""portrait/WW1.jpg""style=""height:400px;""></img>","2","html-button-response","20","147959","0.0-3.0-22.0","56197","List1A","black","woman","","true","1","","","","",""
"1515","<img src=""portrait/WW1.jpg""style=""height:400px;""></img>","1","html-button-response","21","150486","0.0-3.0-24.0-0.0","56197","List1A","black","woman","","false","1","","","","",""
"null","CORRECT","","html-keyboard-response","22","151991","0.0-3.0-24.0-1.0-0.0","56197","List1A","black","woman","","","","null","","","",""
"3043","<p>You got 5 out of 8 right first time. Press Continue.</p>","0","html-button-response","23","155043","0.0-3.0-25.0","56197","List1A","black","woman","","","","","","","",""
"2126","As you did not score 100%, the memory game will repeat. Press Continue.","0","html-button-response","24","158177","0.0-3.0-26.0-0.0","56197","List1A","black","woman","","","","","","","",""
"33004","<img src='img/portrait_matrix_list1.jpg' style='width:900px;height:500px;''></img><p>If you have memorised all the portraits and names and are ready to start, press Continue.</p><p><strong>Please note: Your memory of these faces will be tested 4 times during this experiment.</strong></p>","0","html-button-response","25","192193","0.0-3.1-0.1","56197","List1A","black","woman","","","","","","","",""
"4178","<img src=""portrait/WM1.jpg""style=""height:400px;""></img>","6","html-button-response","26","197383","0.0-3.1-1.1","56197","List1A","black","woman","","true","6","","","","",""
"null","CORRECT","","html-keyboard-response","27","198892","0.0-3.1-2.1-0.1","56197","List1A","black","woman","","","","null","","","",""
"1536","<img src=""portrait/WM2.jpg""style=""height:400px;""></img>","7","html-button-response","28","200435","0.0-3.1-4.1","56197","List1A","black","woman","","true","7","","","","",""
"null","CORRECT","","html-keyboard-response","29","201942","0.0-3.1-5.1-0.1","56197","List1A","black","woman","","","","null","","","",""
"3184","<img src=""portrait/BW1.jpg""style=""height:400px;""></img>","0","html-button-response","30","205133","0.0-3.1-7.1","56197","List1A","black","woman","","true","0","","","","",""
"null","CORRECT","","html-keyboard-response","31","206640","0.0-3.1-8.1-0.1","56197","List1A","black","woman","","","","null","","","",""
"1512","<img src=""portrait/WW2.jpg""style=""height:400px;""></img>","3","html-button-response","32","208163","0.0-3.1-10.1","56197","List1A","black","woman","","true","3","","","","",""
"null","CORRECT","","html-keyboard-response","33","209675","0.0-3.1-11.1-0.1","56197","List1A","black","woman","","","","null","","","",""
"2469","<img src=""portrait/BM1.jpg""style=""height:400px;""></img>","4","html-button-response","34","212155","0.0-3.1-13.1","56197","List1A","black","woman","","true","4","","","","",""
"null","CORRECT","","html-keyboard-response","35","213664","0.0-3.1-14.1-0.1","56197","List1A","black","woman","","","","null","","","",""
"5297","<img src=""portrait/BW2.jpg""style=""height:400px;""></img>","2","html-button-response","36","218969","0.0-3.1-16.1","56197","List1A","black","woman","","true","2","","","","",""
"null","CORRECT","","html-keyboard-response","37","220476","0.0-3.1-17.1-0.1","56197","List1A","black","woman","","","","null","","","",""
"3678","<img src=""portrait/BM2.jpg""style=""height:400px;""></img>","5","html-button-response","38","224161","0.0-3.1-19.1","56197","List1A","black","woman","","true","5","","","","",""
"null","CORRECT","","html-keyboard-response","39","225665","0.0-3.1-20.1-0.1","56197","List1A","black","woman","","","","null","","","",""
"5009","<img src=""portrait/WW1.jpg""style=""height:400px;""></img>","1","html-button-response","40","230687","0.0-3.1-22.1","56197","List1A","black","woman","","true","1","","","","",""
"null","CORRECT","","html-keyboard-response","41","232201","0.0-3.1-23.1-0.1","56197","List1A","black","woman","","","","null","","","",""
"1464","<p>You got 8 out of 8 right first time. Press Continue.</p>","0","html-button-response","42","233671","0.0-3.1-25.1","56197","List1A","black","woman","","","","","","","",""
"61206","<p>In this experiment, you will view photographs of the people from the memory game interacting.</p><p>By using the <strong>exact</strong> phrase given <i>after</i> the photograph appears and recalling the correct names of the people in the photographs, form a sentence describing the interaction. You do not need to capitalise names.</p><p>Type your answer in the space provided. Please complete every sentence before moving onto the next trial.</p><p>You will only have a few seconds to memorise each given photograph and phrase before you can respond, so try your best to focus.</p><p>An example is given below. Press 'Continue' when you are ready.</p><img src='img/speaking_example.jpg' style='width:800px;height:460px;''></img>","0","html-button-response","43","295891","0.0-4.0","56197","List1A","black","woman","","","","","","","",""
"2452","<p>Before the experiment starts, you will watch two example trials. Press 'Continue'.</p>","0","html-button-response","44","299351","0.0-5.0","56197","List1A","black","woman","","","","","","","",""
"null","<img src='img/meet_eg.gif' style='height:400px;''></img>","","html-keyboard-response","45","302359","0.0-6.0","56197","List1A","black","woman","","","","null","","","",""
"null","<p>is meeting</p>","","html-keyboard-response","46","304363","0.0-7.0","56197","List1A","black","woman","","","","null","","","",""
"1949","<p><b>Answer:</b> kate is meeting beth</p>","0","html-button-response","47","306317","0.0-8.0","56197","List1A","black","woman","","","","","","","",""
"null","<img src='img/look_eg.gif' style='height:400px;''></img>","","html-keyboard-response","48","309323","0.0-9.0","56197","List1A","black","woman","","","","null","","","",""
"null","<p>are looking at each other</p>","","html-keyboard-response","49","311326","0.0-10.0","56197","List1A","black","woman","","","","null","","","",""
"1649","<p><b>Answer:</b> luke and dave are looking at each other</p>","0","html-button-response","50","312980","0.0-11.0","56197","List1A","black","woman","","","","","","","",""
"16660","<p>Ready to start the experiment?</p><br><p><strong>Remember to describe the picture using a full sentence,</strong></p><p><strong>that combines the names of the people with the <i>exact</i> phrase given.</strong></p><p><strong>To receive full payment you must do this correctly.</strong></p><p><strong> You do not need to capitalise names or use punctuation.</strong></p><br><p>Press 'Continue' to begin.</p>","0","html-button-response","51","330648","0.0-12.0","56197","List1A","black","woman","","","","","","","",""
"null","<div style=""font-size:60px;"">+</div>","","html-keyboard-response","52","332153","0.0-13.0-0.0","56197","List1A","black","woman","","","","null","","","",""
"null","<img src=""stim_listA/talk1.gif""style=""height:400px;""></stim_listA>","","html-keyboard-response","53","334159","0.0-13.0-1.0","56197","List1A","black","woman","","","","null","","","",""
"null","is talking to","","html-keyboard-response","54","336163","0.0-13.0-2.0","56197","List1A","black","woman","","","","null","","","",""
"7109","","","survey-text","55","343278","0.0-13.0-3.0","56197","List1A","black","woman","","","","","{""Q0"":""Fred is talking to kate""}","<img src=""stim_listA/talk1.gif""style=""height:400px;""></stim_listA>","is talking to",""
"null","<div style=""font-size:60px;"">+</div>","","html-keyboard-response","56","343787","0.0-13.0-0.1","56197","List1A","black","woman","","","","null","","","",""
"null","<img src=""stim_listA/kiss1.gif""style=""height:400px;""></stim_listA>","","html-keyboard-response","57","345791","0.0-13.0-1.1","56197","List1A","black","woman","","","","null","","","",""
"null","is kissing","","html-keyboard-response","58","347807","0.0-13.0-2.1","56197","List1A","black","woman","","","","null","","","",""
"7810","","","survey-text","59","355621","0.0-13.0-3.1","56197","List1A","black","woman","","","","","{""Q0"":""Fred is kissing beth""}","<img src=""stim_listA/kiss1.gif""style=""height:400px;""></stim_listA>","is kissing",""
"null","<div style=""font-size:60px;"">+</div>","","html-keyboard-response","60","356125","0.0-13.0-0.2","56197","List1A","black","woman","","","","null","","","",""
"null","<img src=""stim_listA/marry8.gif""style=""height:400px;""></stim_listA>","","html-keyboard-response","61","358132","0.0-13.0-1.2","56197","List1A","black","woman","","","","null","","","",""
"null","are marrying each other","","html-keyboard-response","62","360136","0.0-13.0-2.2","56197","List1A","black","woman","","","","null","","","",""
"17755","","","survey-text","63","377895","0.0-13.0-3.2","56197","List1A","black","woman","","","","","{""Q0"":""Jane and beth are marrying each other""}","<img src=""stim_listA/marry8.gif""style=""height:400px;""></stim_listA>","are marrying each other",""
"null","<div style=""font-size:60px;"">+</div>","","html-keyboard-response","64","378399","0.0-13.0-0.3","56197","List1A","black","woman","","","","null","","","",""
"null","<img src=""stim_listA/fight5.gif""style=""height:400px;""></stim_listA>","","html-keyboard-response","65","380404","0.0-13.0-1.3","56197","List1A","black","woman","","","","null","","","",""
"null","is fighting","","html-keyboard-response","66","382407","0.0-13.0-2.3","56197","List1A","black","woman","","","","null","","","",""
"25549","","","survey-text","67","407963","0.0-13.0-3.3","56197","List1A","black","woman","","","","","{""Q0"":""Beth is fighting kate""}","<img src=""stim_listA/fight5.gif""style=""height:400px;""></stim_listA>","is fighting",""
"null","<div style=""font-size:60px;"">+</div>","","html-keyboard-response","68","408468","0.0-13.0-0.4","56197","List1A","black","woman","","","","null","","","",""
"null","<img src=""stim_listA/marry7.gif""style=""height:400px;""></stim_listA>","","html-keyboard-response","69","410473","0.0-13.0-1.4","56197","List1A","black","woman","","","","null","","","",""
"null","is marrying","","html-keyboard-response","70","412479","0.0-13.0-2.4","56197","List1A","black","woman","","","","null","","","",""
"17314","","","survey-text","71","429801","0.0-13.0-3.4","56197","List1A","black","woman","","","","","{""Q0"":""Kate is marrying ruth""}","<img src=""stim_listA/marry7.gif""style=""height:400px;""></stim_listA>","is marrying",""
"null","<div style=""font-size:60px;"">+</div>","","html-keyboard-response","72","430306","0.0-13.0-0.5","56197","List1A","black","woman","","","","null","","","",""
"null","<img src=""stim_listA/play3.gif""style=""height:400px;""></stim_listA>","","html-keyboard-response","73","432310","0.0-13.0-1.5","56197","List1A","black","woman","","","","null","","","",""
"null","is playing with","","html-keyboard-response","74","434313","0.0-13.0-2.5","56197","List1A","black","woman","","","","null","","","",""
"23953","","","survey-text","75","458272","0.0-13.0-3.5","56197","List1A","black","woman","","","","","{""Q0"":""Dave is playing with jane""}","<img src=""stim_listA/play3.gif""style=""height:400px;""></stim_listA>","is playing with",""
"null","<div style=""font-size:60px;"">+</div>","","html-keyboard-response","76","458779","0.0-13.0-0.6","56197","List1A","black","woman","","","","null","","","",""
"null","<img src=""stim_listA/touch7.gif""style=""height:400px;""></stim_listA>","","html-keyboard-response","77","460784","0.0-13.0-1.6","56197","List1A","black","woman","","","","null","","","",""
"null","is touching","","html-keyboard-response","78","462787","0.0-13.0-2.6","56197","List1A","black","woman","","","","null","","","",""
"6736","","","survey-text","79","469526","0.0-13.0-3.6","56197","List1A","black","woman","","","","","{""Q0"":""Kate is touching jane""}","<img src=""stim_listA/touch7.gif""style=""height:400px;""></stim_listA>","is touching",""
"null","<div style=""font-size:60px;"">+</div>","","html-keyboard-response","80","470032","0.0-13.0-0.7","56197","List1A","black","woman","","","","null","","","",""
"null","<img src=""stim_listA/dance6.gif""style=""height:400px;""></stim_listA>","","html-keyboard-response","81","472038","0.0-13.0-1.7","56197","List1A","black","woman","","","","null","","","",""
"null","are dancing with each other","","html-keyboard-response","82","474040","0.0-13.0-2.7","56197","List1A","black","woman","","","","null","","","",""
"9680","","","survey-text","83","483724","0.0-13.0-3.7","56197","List1A","black","woman","","","","","{""Q0"":""Matt and luke are dancing with each other""}","<img src=""stim_listA/dance6.gif""style=""height:400px;""></stim_listA>","are dancing with each other",""
"null","<div style=""font-size:60px;"">+</div>","","html-keyboard-response","84","484230","0.0-13.0-0.8","56197","List1A","black","woman","","","","null","","","",""
"null","<img src=""stim_listA/shout3.gif""style=""height:400px;""></stim_listA>","","html-keyboard-response","85","486235","0.0-13.0-1.8","56197","List1A","black","woman","","","","null","","","",""
"null","is shouting at","","html-keyboard-response","86","488239","0.0-13.0-2.8","56197","List1A","black","woman","","","","null","","","",""
"17555","","","survey-text","87","505800","0.0-13.0-3.8","56197","List1A","black","woman","","","","","{""Q0"":""Luke is shouting at ruth""}","<img src=""stim_listA/shout3.gif""style=""height:400px;""></stim_listA>","is shouting at",""
"null","<div style=""font-size:60px;"">+</div>","","html-keyboard-response","88","506305","0.0-13.0-0.9","56197","List1A","black","woman","","","","null","","","",""
"null","<img src=""stim_listA/marry6.gif""style=""height:400px;""></stim_listA>","","html-keyboard-response","89","508311","0.0-13.0-1.9","56197","List1A","black","woman","","","","null","","","",""
"null","are marrying each other","","html-keyboard-response","90","510314","0.0-13.0-2.9","56197","List1A","black","woman","","","","null","","","",""
"13924","","","survey-text","91","524242","0.0-13.0-3.9","56197","List1A","black","woman","","","","","{""Q0"":""Dave and Fred are marrying each other""}","<img src=""stim_listA/marry6.gif""style=""height:400px;""></stim_listA>","are marrying each other",""
"null","<div style=""font-size:60px;"">+</div>","","html-keyboard-response","92","524746","0.0-13.0-0.10","56197","List1A","black","woman","","","","null","","","",""
"null","<img src=""stim_listA/talk5.gif""style=""height:400px;""></stim_listA>","","html-keyboard-response","93","526751","0.0-13.0-1.10","56197","List1A","black","woman","","","","null","","","",""
"null","is talking to","","html-keyboard-response","94","528755","0.0-13.0-2.10","56197","List1A","black","woman","","","","null","","","",""
"5914","","","survey-text","95","534673","0.0-13.0-3.10","56197","List1A","black","woman","","","","","{""Q0"":""Dave is talking to fred""}","<img src=""stim_listA/talk5.gif""style=""height:400px;""></stim_listA>","is talking to",""
"null","<div style=""font-size:60px;"">+</div>","","html-keyboard-response","96","535182","0.0-13.0-0.11","56197","List1A","black","woman","","","","null","","","",""
"null","<img src=""stim_listA/kiss3.gif""style=""height:400px;""></stim_listA>","","html-keyboard-response","97","537187","0.0-13.0-1.11","56197","List1A","black","woman","","","","null","","","",""
"null","is kissing","","html-keyboard-response","98","539190","0.0-13.0-2.11","56197","List1A","black","woman","","","","null","","","",""
"5533","","","survey-text","99","544728","0.0-13.0-3.11","56197","List1A","black","woman","","","","","{""Q0"":""Luke is kissing ruth""}","<img src=""stim_listA/kiss3.gif""style=""height:400px;""></stim_listA>","is kissing",""
"null","<div style=""font-size:60px;"">+</div>","","html-keyboard-response","100","545234","0.0-13.0-0.12","56197","List1A","black","woman","","","","null","","","",""
"null","<img src=""stim_listA/kiss4.gif""style=""height:400px;""></stim_listA>","","html-keyboard-response","101","547240","0.0-13.0-1.12","56197","List1A","black","woman","","","","null","","","",""
"null","are kissing each other","","html-keyboard-response","102","549244","0.0-13.0-2.12","56197","List1A","black","woman","","","","null","","","",""
"8914","","","survey-text","103","558163","0.0-13.0-3.12","56197","List1A","black","woman","","","","","{""Q0"":""Dave and jane are kissing each other""}","<img src=""stim_listA/kiss4.gif""style=""height:400px;""></stim_listA>","are kissing each other",""
"null","<div style=""font-size:60px;"">+</div>","","html-keyboard-response","104","558667","0.0-13.0-0.13","56197","List1A","black","woman","","","","null","","","",""
"null","<img src=""stim_listA/dance8.gif""style=""height:400px;""></stim_listA>","","html-keyboard-response","105","560672","0.0-13.0-1.13","56197","List1A","black","woman","","","","null","","","",""
"null","are dancing with each other","","html-keyboard-response","106","562675","0.0-13.0-2.13","56197","List1A","black","woman","","","","null","","","",""
"9379","","","survey-text","107","572058","0.0-13.0-3.13","56197","List1A","black","woman","","","","","{""Q0"":""Kate and ruth are dancing with each other""}","<img src=""stim_listA/dance8.gif""style=""height:400px;""></stim_listA>","are dancing with each other",""
"null","<div style=""font-size:60px;"">+</div>","","html-keyboard-response","108","572562","0.0-13.0-0.14","56197","List1A","black","woman","","","","null","","","",""
"null","<img src=""stim_listA/talk7.gif""style=""height:400px;""></stim_listA>","","html-keyboard-response","109","574567","0.0-13.0-1.14","56197","List1A","black","woman","","","","null","","","",""
"null","is talking to","","html-keyboard-response","110","576570","0.0-13.0-2.14","56197","List1A","black","woman","","","","null","","","",""
"10648","","","survey-text","111","587226","0.0-13.0-3.14","56197","List1A","black","woman","","","","","{""Q0"":""Jane is talking to beth""}","<img src=""stim_listA/talk7.gif""style=""height:400px;""></stim_listA>","is talking to",""
"null","<div style=""font-size:60px;"">+</div>","","html-keyboard-response","112","587732","0.0-13.0-0.15","56197","List1A","black","woman","","","","null","","","",""
"null","<img src=""stim_listA/flirt8.gif""style=""height:400px;""></stim_listA>","","html-keyboard-response","113","589738","0.0-13.0-1.15","56197","List1A","black","woman","","","","null","","","",""
"null","are flirting with each other","","html-keyboard-response","114","591741","0.0-13.0-2.15","56197","List1A","black","woman","","","","null","","","",""
"11042","","","survey-text","115","602790","0.0-13.0-3.15","56197","List1A","black","woman","","","","","{""Q0"":""Kate and Ruth are flirting with each other""}","<img src=""stim_listA/flirt8.gif""style=""height:400px;""></stim_listA>","are flirting with each other",""
"null","<div style=""font-size:60px;"">+</div>","","html-keyboard-response","116","603294","0.0-13.0-0.16","56197","List1A","black","woman","","","","null","","","",""
"null","<img src=""stim_listA/argue3.gif""style=""height:400px;""></stim_listA>","","html-keyboard-response","117","605299","0.0-13.0-1.16","56197","List1A","black","woman","","","","null","","","",""
"null","is arguing with","","html-keyboard-response","118","607303","0.0-13.0-2.16","56197","List1A","black","woman","","","","null","","","",""
"6475","","","survey-text","119","613782","0.0-13.0-3.16","56197","List1A","black","woman","","","","","{""Q0"":""Dave is arguing with ruth""}","<img src=""stim_listA/argue3.gif""style=""height:400px;""></stim_listA>","is arguing with",""
"null","<div style=""font-size:60px;"">+</div>","","html-keyboard-response","120","614286","0.0-13.0-0.17","56197","List1A","black","woman","","","","null","","","",""
"null","<img src=""stim_listA/flirt4.gif""style=""height:400px;""></stim_listA>","","html-keyboard-response","121","616309","0.0-13.0-1.17","56197","List1A","black","woman","","","","null","","","",""
"null","are flirting with each other","","html-keyboard-response","122","618312","0.0-13.0-2.17","56197","List1A","black","woman","","","","null","","","",""
"11525","","","survey-text","123","629842","0.0-13.0-3.17","56197","List1A","black","woman","","","","","{""Q0"":""Dave and ruth are flirting with each ither""}","<img src=""stim_listA/flirt4.gif""style=""height:400px;""></stim_listA>","are flirting with each other",""
"null","<div style=""font-size:60px;"">+</div>","","html-keyboard-response","124","630346","0.0-13.0-0.18","56197","List1A","black","woman","","","","null","","","",""
"null","<img src=""stim_listA/dance5.gif""style=""height:400px;""></stim_listA>","","html-keyboard-response","125","632350","0.0-13.0-1.18","56197","List1A","black","woman","","","","null","","","",""
"null","is dancing with","","html-keyboard-response","126","634353","0.0-13.0-2.18","56197","List1A","black","woman","","","","null","","","",""
"7314","","","survey-text","127","641671","0.0-13.0-3.18","56197","List1A","black","woman","","","","","{""Q0"":""Fred is dancing with dave""}","<img src=""stim_listA/dance5.gif""style=""height:400px;""></stim_listA>","is dancing with",""
"null","<div style=""font-size:60px;"">+</div>","","html-keyboard-response","128","642176","0.0-13.0-0.19","56197","List1A","black","woman","","","","null","","","",""
"null","<img src=""stim_listA/argue2.gif""style=""height:400px;""></stim_listA>","","html-keyboard-response","129","644183","0.0-13.0-1.19","56197","List1A","black","woman","","","","null","","","",""
"null","are arguing with each other","","html-keyboard-response","130","646186","0.0-13.0-2.19","56197","List1A","black","woman","","","","null","","","",""
"9419","","","survey-text","131","655608","0.0-13.0-3.19","56197","List1A","black","woman","","","","","{""Q0"":""Kate and fred are arguing witt each other""}","<img src=""stim_listA/argue2.gif""style=""height:400px;""></stim_listA>","are arguing with each other",""
"25607","<img src='img/portrait_matrix_list1.jpg' style='width:900px;height:500px;''></img><p>If you have memorised all the portraits and names and are ready to start, press Continue.</p><p><strong>Please note: Your memory of these faces will be tested 4 times during this experiment.</strong></p>","0","html-button-response","132","681240","0.0-14.0-0.0","56197","List1A","black","woman","","","","","","","",""
"3237","<img src=""portrait/BM2.jpg""style=""height:400px;""></img>","5","html-button-response","133","685513","0.0-14.0-1.0","56197","List1A","black","woman","","true","5","","","","",""
"null","CORRECT","","html-keyboard-response","134","687030","0.0-14.0-2.0-0.0","56197","List1A","black","woman","","","","null","","","",""
"1526","<img src=""portrait/WW2.jpg""style=""height:400px;""></img>","3","html-button-response","135","688563","0.0-14.0-4.0","56197","List1A","black","woman","","true","3","","","","",""
"null","CORRECT","","html-keyboard-response","136","690071","0.0-14.0-5.0-0.0","56197","List1A","black","woman","","","","null","","","",""
"1767","<img src=""portrait/BW1.jpg""style=""height:400px;""></img>","0","html-button-response","137","691844","0.0-14.0-7.0","56197","List1A","black","woman","","true","0","","","","",""
"null","CORRECT","","html-keyboard-response","138","693353","0.0-14.0-8.0-0.0","56197","List1A","black","woman","","","","null","","","",""
"2573","<img src=""portrait/BW2.jpg""style=""height:400px;""></img>","2","html-button-response","139","695947","0.0-14.0-10.0","56197","List1A","black","woman","","true","2","","","","",""
"null","CORRECT","","html-keyboard-response","140","697456","0.0-14.0-11.0-0.0","56197","List1A","black","woman","","","","null","","","",""
"1873","<img src=""portrait/WM2.jpg""style=""height:400px;""></img>","7","html-button-response","141","699337","0.0-14.0-13.0","56197","List1A","black","woman","","true","7","","","","",""
"null","CORRECT","","html-keyboard-response","142","700841","0.0-14.0-14.0-0.0","56197","List1A","black","woman","","","","null","","","",""
"1746","<img src=""portrait/BM1.jpg""style=""height:400px;""></img>","4","html-button-response","143","702592","0.0-14.0-16.0","56197","List1A","black","woman","","true","4","","","","",""
"null","CORRECT","","html-keyboard-response","144","704097","0.0-14.0-17.0-0.0","56197","List1A","black","woman","","","","null","","","",""
"2432","<img src=""portrait/WM1.jpg""style=""height:400px;""></img>","6","html-button-response","145","706535","0.0-14.0-19.0","56197","List1A","black","woman","","true","6","","","","",""
"null","CORRECT","","html-keyboard-response","146","708041","0.0-14.0-20.0-0.0","56197","List1A","black","woman","","","","null","","","",""
"2132","<img src=""portrait/WW1.jpg""style=""height:400px;""></img>","1","html-button-response","147","710177","0.0-14.0-22.0","56197","List1A","black","woman","","true","1","","","","",""
"null","CORRECT","","html-keyboard-response","148","711681","0.0-14.0-23.0-0.0","56197","List1A","black","woman","","","","null","","","",""
"1221","<p>You got 8 out of 8 right first time. Press Continue.</p>","0","html-button-response","149","712910","0.0-14.0-25.0","56197","List1A","black","woman","","","","","","","",""
"null","<div style=""font-size:60px;"">+</div>","","html-keyboard-response","150","714436","0.0-15.0-0.0","56197","List1A","black","woman","","","","null","","","",""
"null","<img src=""stim_listA/kiss2.gif""style=""height:400px;""></stim_listA>","","html-keyboard-response","151","716441","0.0-15.0-1.0","56197","List1A","black","woman","","","","null","","","",""
"null","are kissing each other","","html-keyboard-response","152","718445","0.0-15.0-2.0","56197","List1A","black","woman","","","","null","","","",""
"9613","","","survey-text","153","728075","0.0-15.0-3.0","56197","List1A","black","woman","","","","","{""Q0"":""Kate and mike are kissing each other""}","<img src=""stim_listA/kiss2.gif""style=""height:400px;""></stim_listA>","are kissing each other",""
"null","<div style=""font-size:60px;"">+</div>","","html-keyboard-response","154","728579","0.0-15.0-0.1","56197","List1A","black","woman","","","","null","","","",""
"null","<img src=""stim_listA/flirt3.gif""style=""height:400px;""></stim_listA>","","html-keyboard-response","155","730585","0.0-15.0-1.1","56197","List1A","black","woman","","","","null","","","",""
"null","is flirting with","","html-keyboard-response","156","732589","0.0-15.0-2.1","56197","List1A","black","woman","","","","null","","","",""
"7438","","","survey-text","157","740030","0.0-15.0-3.1","56197","List1A","black","woman","","","","","{""Q0"":""Jane is flirting with luke""}","<img src=""stim_listA/flirt3.gif""style=""height:400px;""></stim_listA>","is flirting with",""
"null","<div style=""font-size:60px;"">+</div>","","html-keyboard-response","158","740533","0.0-15.0-0.2","56197","List1A","black","woman","","","","null","","","",""
"null","<img src=""stim_listA/fight1.gif""style=""height:400px;""></stim_listA>","","html-keyboard-response","159","742538","0.0-15.0-1.2","56197","List1A","black","woman","","","","null","","","",""
"null","is fighting","","html-keyboard-response","160","744541","0.0-15.0-2.2","56197","List1A","black","woman","","","","null","","","",""
"6400","","","survey-text","161","750950","0.0-15.0-3.2","56197","List1A","black","woman","","","","","{""Q0"":""Mike is fighting kate""}","<img src=""stim_listA/fight1.gif""style=""height:400px;""></stim_listA>","is fighting",""
"null","<div style=""font-size:60px;"">+</div>","","html-keyboard-response","162","751455","0.0-15.0-0.3","56197","List1A","black","woman","","","","null","","","",""
"null","<img src=""stim_listA/shout6.gif""style=""height:400px;""></stim_listA>","","html-keyboard-response","163","753460","0.0-15.0-1.3","56197","List1A","black","woman","","","","null","","","",""
"null","are shouting at each other","","html-keyboard-response","164","755464","0.0-15.0-2.3","56197","List1A","black","woman","","","","null","","","",""
"10025","","","survey-text","165","765495","0.0-15.0-3.3","56197","List1A","black","woman","","","","","{""Q0"":""Dave and mike are shouting at each other""}","<img src=""stim_listA/shout6.gif""style=""height:400px;""></stim_listA>","are shouting at each other",""
"null","<div style=""font-size:60px;"">+</div>","","html-keyboard-response","166","765999","0.0-15.0-0.4","56197","List1A","black","woman","","","","null","","","",""
"null","<img src=""stim_listA/fight7.gif""style=""height:400px;""></stim_listA>","","html-keyboard-response","167","768006","0.0-15.0-1.4","56197","List1A","black","woman","","","","null","","","",""
"null","is fighting","","html-keyboard-response","168","770009","0.0-15.0-2.4","56197","List1A","black","woman","","","","null","","","",""
"5995","","","survey-text","169","776007","0.0-15.0-3.4","56197","List1A","black","woman","","","","","{""Q0"":""Kate is fighting jane""}","<img src=""stim_listA/fight7.gif""style=""height:400px;""></stim_listA>","is fighting",""
"null","<div style=""font-size:60px;"">+</div>","","html-keyboard-response","170","776513","0.0-15.0-0.5","56197","List1A","black","woman","","","","null","","","",""
"null","<img src=""stim_listA/shout4.gif""style=""height:400px;""></stim_listA>","","html-keyboard-response","171","778517","0.0-15.0-1.5","56197","List1A","black","woman","","","","null","","","",""
"null","are shouting at each other","","html-keyboard-response","172","780521","0.0-15.0-2.5","56197","List1A","black","woman","","","","null","","","",""
"8707","","","survey-text","173","789232","0.0-15.0-3.5","56197","List1A","black","woman","","","","","{""Q0"":""Dave and jane are shouting at each other""}","<img src=""stim_listA/shout4.gif""style=""height:400px;""></stim_listA>","are shouting at each other",""
"null","<div style=""font-size:60px;"">+</div>","","html-keyboard-response","174","789737","0.0-15.0-0.6","56197","List1A","black","woman","","","","null","","","",""
"null","<img src=""stim_listA/play8.gif""style=""height:400px;""></stim_listA>","","html-keyboard-response","175","791744","0.0-15.0-1.6","56197","List1A","black","woman","","","","null","","","",""
"null","are playing with each other","","html-keyboard-response","176","793749","0.0-15.0-2.6","56197","List1A","black","woman","","","","null","","","",""
"11935","","","survey-text","177","805692","0.0-15.0-3.6","56197","List1A","black","woman","","","","","{""Q0"":""Ruth and beth are playing with each other""}","<img src=""stim_listA/play8.gif""style=""height:400px;""></stim_listA>","are playing with each other",""
"null","<div style=""font-size:60px;"">+</div>","","html-keyboard-response","178","806199","0.0-15.0-0.7","56197","List1A","black","woman","","","","null","","","",""
"null","<img src=""stim_listA/talk8.gif""style=""height:400px;""></stim_listA>","","html-keyboard-response","179","808209","0.0-15.0-1.7","56197","List1A","black","woman","","","","null","","","",""
"null","are talking to each other","","html-keyboard-response","180","810215","0.0-15.0-2.7","56197","List1A","black","woman","","","","null","","","",""
"11241","","","survey-text","181","821463","0.0-15.0-3.7","56197","List1A","black","woman","","","","","{""Q0"":""Kate and ruth are talking to each other""}","<img src=""stim_listA/talk8.gif""style=""height:400px;""></stim_listA>","are talking to each other",""
"null","<div style=""font-size:60px;"">+</div>","","html-keyboard-response","182","821969","0.0-15.0-0.8","56197","List1A","black","woman","","","","null","","","",""
"null","<img src=""stim_listA/flirt5.gif""style=""height:400px;""></stim_listA>","","html-keyboard-response","183","823974","0.0-15.0-1.8","56197","List1A","black","woman","","","","null","","","",""
"null","is flirting with","","html-keyboard-response","184","825977","0.0-15.0-2.8","56197","List1A","black","woman","","","","null","","","",""
"6561","","","survey-text","185","832542","0.0-15.0-3.8","56197","List1A","black","woman","","","","","{""Q0"":""Fred is flirting with dave""}","<img src=""stim_listA/flirt5.gif""style=""height:400px;""></stim_listA>","is flirting with",""
"null","<div style=""font-size:60px;"">+</div>","","html-keyboard-response","186","833046","0.0-15.0-0.9","56197","List1A","black","woman","","","","null","","","",""
"null","<img src=""stim_listA/argue8.gif""style=""height:400px;""></stim_listA>","","html-keyboard-response","187","835066","0.0-15.0-1.9","56197","List1A","black","woman","","","","null","","","",""
"null","are arguing with each other","","html-keyboard-response","188","837071","0.0-15.0-2.9","56197","List1A","black","woman","","","","null","","","",""
"9026","","","survey-text","189","846102","0.0-15.0-3.9","56197","List1A","black","woman","","","","","{""Q0"":""Beth and jane are arguing with each other""}","<img src=""stim_listA/argue8.gif""style=""height:400px;""></stim_listA>","are arguing with each other",""
"null","<div style=""font-size:60px;"">+</div>","","html-keyboard-response","190","846606","0.0-15.0-0.10","56197","List1A","black","woman","","","","null","","","",""
"null","<img src=""stim_listA/touch4.gif""style=""height:400px;""></stim_listA>","","html-keyboard-response","191","848613","0.0-15.0-1.10","56197","List1A","black","woman","","","","null","","","",""
"null","are touching each other","","html-keyboard-response","192","850615","0.0-15.0-2.10","56197","List1A","black","woman","","","","null","","","",""
"10451","","","survey-text","193","861071","0.0-15.0-3.10","56197","List1A","black","woman","","","","","{""Q0"":""Ruth and luke are touching each other""}","<img src=""stim_listA/touch4.gif""style=""height:400px;""></stim_listA>","are touching each other",""
"null","<div style=""font-size:60px;"">+</div>","","html-keyboard-response","194","861575","0.0-15.0-0.11","56197","List1A","black","woman","","","","null","","","",""
"null","<img src=""stim_listA/flirt1.gif""style=""height:400px;""></stim_listA>","","html-keyboard-response","195","863581","0.0-15.0-1.11","56197","List1A","black","woman","","","","null","","","",""
"null","is flirting with","","html-keyboard-response","196","865585","0.0-15.0-2.11","56197","List1A","black","woman","","","","null","","","",""
"6629","","","survey-text","197","872220","0.0-15.0-3.11","56197","List1A","black","woman","","","","","{""Q0"":""Kate is flirting with fred""}","<img src=""stim_listA/flirt1.gif""style=""height:400px;""></stim_listA>","is flirting with",""
"null","<div style=""font-size:60px;"">+</div>","","html-keyboard-response","198","872727","0.0-15.0-0.12","56197","List1A","black","woman","","","","null","","","",""
"null","<img src=""stim_listA/fight6.gif""style=""height:400px;""></stim_listA>","","html-keyboard-response","199","874730","0.0-15.0-1.12","56197","List1A","black","woman","","","","null","","","",""
"null","are fighting each other","","html-keyboard-response","200","876734","0.0-15.0-2.12","56197","List1A","black","woman","","","","null","","","",""
"14159","","","survey-text","201","890897","0.0-15.0-3.12","56197","List1A","black","woman","","","","","{""Q0"":""Fred and luke are fighting each other""}","<img src=""stim_listA/fight6.gif""style=""height:400px;""></stim_listA>","are fighting each other",""
"null","<div style=""font-size:60px;"">+</div>","","html-keyboard-response","202","891404","0.0-15.0-0.13","56197","List1A","black","woman","","","","null","","","",""
"null","<img src=""stim_listA/talk2.gif""style=""height:400px;""></stim_listA>","","html-keyboard-response","203","893409","0.0-15.0-1.13","56197","List1A","black","woman","","","","null","","","",""
"null","are talking to each other","","html-keyboard-response","204","895454","0.0-15.0-2.13","56197","List1A","black","woman","","","","null","","","",""
"10058","","","survey-text","205","905517","0.0-15.0-3.13","56197","List1A","black","woman","","","","","{""Q0"":""Beth and mike are talking to each other""}","<img src=""stim_listA/talk2.gif""style=""height:400px;""></stim_listA>","are talking to each other",""
"null","<div style=""font-size:60px;"">+</div>","","html-keyboard-response","206","906021","0.0-15.0-0.14","56197","List1A","black","woman","","","","null","","","",""
"null","<img src=""stim_listA/touch8.gif""style=""height:400px;""></stim_listA>","","html-keyboard-response","207","908028","0.0-15.0-1.14","56197","List1A","black","woman","","","","null","","","",""
"null","are touching each other","","html-keyboard-response","208","910031","0.0-15.0-2.14","56197","List1A","black","woman","","","","null","","","",""
"10081","","","survey-text","209","920118","0.0-15.0-3.14","56197","List1A","black","woman","","","","","{""Q0"":""Ruth and beth are touching each other""}","<img src=""stim_listA/touch8.gif""style=""height:400px;""></stim_listA>","are touching each other",""
"null","<div style=""font-size:60px;"">+</div>","","html-keyboard-response","210","920622","0.0-15.0-0.15","56197","List1A","black","woman","","","","null","","","",""
"null","<img src=""stim_listA/marry2.gif""style=""height:400px;""></stim_listA>","","html-keyboard-response","211","922628","0.0-15.0-1.15","56197","List1A","black","woman","","","","null","","","",""
"null","are marrying each other","","html-keyboard-response","212","924632","0.0-15.0-2.15","56197","List1A","black","woman","","","","null","","","",""
"8939","","","survey-text","213","933576","0.0-15.0-3.15","56197","List1A","black","woman","","","","","{""Q0"":""Kate and fred are marrying each other""}","<img src=""stim_listA/marry2.gif""style=""height:400px;""></stim_listA>","are marrying each other",""
"null","<div style=""font-size:60px;"">+</div>","","html-keyboard-response","214","934082","0.0-15.0-0.16","56197","List1A","black","woman","","","","null","","","",""
"null","<img src=""stim_listA/argue5.gif""style=""height:400px;""></stim_listA>","","html-keyboard-response","215","936088","0.0-15.0-1.16","56197","List1A","black","woman","","","","null","","","",""
"null","is arguing with","","html-keyboard-response","216","938091","0.0-15.0-2.16","56197","List1A","black","woman","","","","null","","","",""
"8246","","","survey-text","217","946341","0.0-15.0-3.16","56197","List1A","black","woman","","","","","{""Q0"":""Mike is arguing with luke""}","<img src=""stim_listA/argue5.gif""style=""height:400px;""></stim_listA>","is arguing with",""
"null","<div style=""font-size:60px;"">+</div>","","html-keyboard-response","218","946846","0.0-15.0-0.17","56197","List1A","black","woman","","","","null","","","",""
"null","<img src=""stim_listA/play4.gif""style=""height:400px;""></stim_listA>","","html-keyboard-response","219","948852","0.0-15.0-1.17","56197","List1A","black","woman","","","","null","","","",""
"null","are playing with each other","","html-keyboard-response","220","950857","0.0-15.0-2.17","56197","List1A","black","woman","","","","null","","","",""
"8438","","","survey-text","221","959300","0.0-15.0-3.17","56197","List1A","black","woman","","","","","{""Q0"":""Ruth and luke are playing each other""}","<img src=""stim_listA/play4.gif""style=""height:400px;""></stim_listA>","are playing with each other",""
"null","<div style=""font-size:60px;"">+</div>","","html-keyboard-response","222","959804","0.0-15.0-0.18","56197","List1A","black","woman","","","","null","","","",""
"null","<img src=""stim_listA/marry3.gif""style=""height:400px;""></stim_listA>","","html-keyboard-response","223","961809","0.0-15.0-1.18","56197","List1A","black","woman","","","","null","","","",""
"null","is marrying","","html-keyboard-response","224","963817","0.0-15.0-2.18","56197","List1A","black","woman","","","","null","","","",""
"6223","","","survey-text","225","970045","0.0-15.0-3.18","56197","List1A","black","woman","","","","","{""Q0"":""Ruth is marrying dave""}","<img src=""stim_listA/marry3.gif""style=""height:400px;""></stim_listA>","is marrying",""
"null","<div style=""font-size:60px;"">+</div>","","html-keyboard-response","226","970553","0.0-15.0-0.19","56197","List1A","black","woman","","","","null","","","",""
"null","<img src=""stim_listA/shout5.gif""style=""height:400px;""></stim_listA>","","html-keyboard-response","227","972559","0.0-15.0-1.19","56197","List1A","black","woman","","","","null","","","",""
"null","is shouting at","","html-keyboard-response","228","974567","0.0-15.0-2.19","56197","List1A","black","woman","","","","null","","","",""
"6162","","","survey-text","229","980736","0.0-15.0-3.19","56197","List1A","black","woman","","","","","{""Q0"":""Luke is shouting at fred""}","<img src=""stim_listA/shout5.gif""style=""height:400px;""></stim_listA>","is shouting at",""
"24233","<img src='img/portrait_matrix_list1.jpg' style='width:900px;height:500px;''></img><p>If you have memorised all the portraits and names and are ready to start, press Continue.</p><p><strong>Please note: Your memory of these faces will be tested 4 times during this experiment.</strong></p>","0","html-button-response","230","1004984","0.0-16.0-0.0","56197","List1A","black","woman","","","","","","","",""
"2698","<img src=""portrait/WM1.jpg""style=""height:400px;""></img>","6","html-button-response","231","1008694","0.0-16.0-1.0","56197","List1A","black","woman","","true","6","","","","",""
"null","CORRECT","","html-keyboard-response","232","1010202","0.0-16.0-2.0-0.0","56197","List1A","black","woman","","","","null","","","",""
"2877","<img src=""portrait/BW2.jpg""style=""height:400px;""></img>","2","html-button-response","233","1013086","0.0-16.0-4.0","56197","List1A","black","woman","","true","2","","","","",""
"null","CORRECT","","html-keyboard-response","234","1014590","0.0-16.0-5.0-0.0","56197","List1A","black","woman","","","","null","","","",""
"1559","<img src=""portrait/WM2.jpg""style=""height:400px;""></img>","7","html-button-response","235","1016159","0.0-16.0-7.0","56197","List1A","black","woman","","true","7","","","","",""
"null","CORRECT","","html-keyboard-response","236","1017665","0.0-16.0-8.0-0.0","56197","List1A","black","woman","","","","null","","","",""
"2415","<img src=""portrait/BM2.jpg""style=""height:400px;""></img>","5","html-button-response","237","1020091","0.0-16.0-10.0","56197","List1A","black","woman","","true","5","","","","",""
"null","CORRECT","","html-keyboard-response","238","1021600","0.0-16.0-11.0-0.0","56197","List1A","black","woman","","","","null","","","",""
"1604","<img src=""portrait/BM1.jpg""style=""height:400px;""></img>","4","html-button-response","239","1023214","0.0-16.0-13.0","56197","List1A","black","woman","","true","4","","","","",""
"null","CORRECT","","html-keyboard-response","240","1024722","0.0-16.0-14.0-0.0","56197","List1A","black","woman","","","","null","","","",""
"2298","<img src=""portrait/BW1.jpg""style=""height:400px;""></img>","0","html-button-response","241","1027028","0.0-16.0-16.0","56197","List1A","black","woman","","true","0","","","","",""
"null","CORRECT","","html-keyboard-response","242","1028535","0.0-16.0-17.0-0.0","56197","List1A","black","woman","","","","null","","","",""
"1735","<img src=""portrait/WW2.jpg""style=""height:400px;""></img>","3","html-button-response","243","1030278","0.0-16.0-19.0","56197","List1A","black","woman","","true","3","","","","",""
"null","CORRECT","","html-keyboard-response","244","1031788","0.0-16.0-20.0-0.0","56197","List1A","black","woman","","","","null","","","",""
"1922","<img src=""portrait/WW1.jpg""style=""height:400px;""></img>","1","html-button-response","245","1033718","0.0-16.0-22.0","56197","List1A","black","woman","","true","1","","","","",""
"null","CORRECT","","html-keyboard-response","246","1035223","0.0-16.0-23.0-0.0","56197","List1A","black","woman","","","","null","","","",""
"1699","<p>You got 8 out of 8 right first time. Press Continue.</p>","0","html-button-response","247","1036927","0.0-16.0-25.0","56197","List1A","black","woman","","","","","","","",""
"null","<div style=""font-size:60px;"">+</div>","","html-keyboard-response","248","1038441","0.0-17.0-0.0","56197","List1A","black","woman","","","","null","","","",""
"null","<img src=""stim_listA/flirt6.gif""style=""height:400px;""></stim_listA>","","html-keyboard-response","249","1040449","0.0-17.0-1.0","56197","List1A","black","woman","","","","null","","","",""
"null","are flirting with each other","","html-keyboard-response","250","1042453","0.0-17.0-2.0","56197","List1A","black","woman","","","","null","","","",""
"9607","","","survey-text","251","1052063","0.0-17.0-3.0","56197","List1A","black","woman","","","","","{""Q0"":""Luke and mike are flirting with each other""}","<img src=""stim_listA/flirt6.gif""style=""height:400px;""></stim_listA>","are flirting with each other",""
"null","<div style=""font-size:60px;"">+</div>","","html-keyboard-response","252","1052566","0.0-17.0-0.1","56197","List1A","black","woman","","","","null","","","",""
"null","<img src=""stim_listA/touch2.gif""style=""height:400px;""></stim_listA>","","html-keyboard-response","253","1054574","0.0-17.0-1.1","56197","List1A","black","woman","","","","null","","","",""
"null","are touching each other","","html-keyboard-response","254","1056577","0.0-17.0-2.1","56197","List1A","black","woman","","","","null","","","",""
"10158","","","survey-text","255","1066741","0.0-17.0-3.1","56197","List1A","black","woman","","","","","{""Q0"":""Beth and fred are touching each other""}","<img src=""stim_listA/touch2.gif""style=""height:400px;""></stim_listA>","are touching each other",""
"null","<div style=""font-size:60px;"">+</div>","","html-keyboard-response","256","1067245","0.0-17.0-0.2","56197","List1A","black","woman","","","","null","","","",""
"null","<img src=""stim_listA/play1.gif""style=""height:400px;""></stim_listA>","","html-keyboard-response","257","1069253","0.0-17.0-1.2","56197","List1A","black","woman","","","","null","","","",""
"null","is playing with","","html-keyboard-response","258","1071258","0.0-17.0-2.2","56197","List1A","black","woman","","","","null","","","",""
"6770","","","survey-text","259","1078032","0.0-17.0-3.2","56197","List1A","black","woman","","","","","{""Q0"":""Mike is playing with kate""}","<img src=""stim_listA/play1.gif""style=""height:400px;""></stim_listA>","is playing with",""
"null","<div style=""font-size:60px;"">+</div>","","html-keyboard-response","260","1078537","0.0-17.0-0.3","56197","List1A","black","woman","","","","null","","","",""
"null","<img src=""stim_listA/fight3.gif""style=""height:400px;""></stim_listA>","","html-keyboard-response","261","1080542","0.0-17.0-1.3","56197","List1A","black","woman","","","","null","","","",""
"null","is fighting","","html-keyboard-response","262","1082545","0.0-17.0-2.3","56197","List1A","black","woman","","","","null","","","",""
"6048","","","survey-text","263","1088597","0.0-17.0-3.3","56197","List1A","black","woman","","","","","{""Q0"":""Dave is fighting jane""}","<img src=""stim_listA/fight3.gif""style=""height:400px;""></stim_listA>","is fighting",""
"null","<div style=""font-size:60px;"">+</div>","","html-keyboard-response","264","1089102","0.0-17.0-0.4","56197","List1A","black","woman","","","","null","","","",""
"null","<img src=""stim_listA/play7.gif""style=""height:400px;""></stim_listA>","","html-keyboard-response","265","1091107","0.0-17.0-1.4","56197","List1A","black","woman","","","","null","","","",""
"null","is playing with","","html-keyboard-response","266","1093110","0.0-17.0-2.4","56197","List1A","black","woman","","","","null","","","",""
"6711","","","survey-text","267","1099825","0.0-17.0-3.4","56197","List1A","black","woman","","","","","{""Q0"":""Kate is playing with jane""}","<img src=""stim_listA/play7.gif""style=""height:400px;""></stim_listA>","is playing with",""
"null","<div style=""font-size:60px;"">+</div>","","html-keyboard-response","268","1100330","0.0-17.0-0.5","56197","List1A","black","woman","","","","null","","","",""
"null","<img src=""stim_listA/dance2.gif""style=""height:400px;""></stim_listA>","","html-keyboard-response","269","1102335","0.0-17.0-1.5","56197","List1A","black","woman","","","","null","","","",""
"null","are dancing with each other","","html-keyboard-response","270","1104338","0.0-17.0-2.5","56197","List1A","black","woman","","","","null","","","",""
"10400","","","survey-text","271","1114746","0.0-17.0-3.5","56197","List1A","black","woman","","","","","{""Q0"":""Beth and mike are dancing with each other""}","<img src=""stim_listA/dance2.gif""style=""height:400px;""></stim_listA>","are dancing with each other",""
"null","<div style=""font-size:60px;"">+</div>","","html-keyboard-response","272","1115251","0.0-17.0-0.6","56197","List1A","black","woman","","","","null","","","",""
"null","<img src=""stim_listA/flirt2.gif""style=""height:400px;""></stim_listA>","","html-keyboard-response","273","1117258","0.0-17.0-1.6","56197","List1A","black","woman","","","","null","","","",""
"null","are flirting with each other","","html-keyboard-response","274","1119261","0.0-17.0-2.6","56197","List1A","black","woman","","","","null","","","",""
"9818","","","survey-text","275","1129084","0.0-17.0-3.6","56197","List1A","black","woman","","","","","{""Q0"":""Beth and mike are flirting with each other""}","<img src=""stim_listA/flirt2.gif""style=""height:400px;""></stim_listA>","are flirting with each other",""
"null","<div style=""font-size:60px;"">+</div>","","html-keyboard-response","276","1129588","0.0-17.0-0.7","56197","List1A","black","woman","","","","null","","","",""
"null","<img src=""stim_listA/marry4.gif""style=""height:400px;""></stim_listA>","","html-keyboard-response","277","1131593","0.0-17.0-1.7","56197","List1A","black","woman","","","","null","","","",""
"null","are marrying each other","","html-keyboard-response","278","1133597","0.0-17.0-2.7","56197","List1A","black","woman","","","","null","","","",""
"11664","","","survey-text","279","1145266","0.0-17.0-3.7","56197","List1A","black","woman","","","","","{""Q0"":""Jane and luke are marrying each other""}","<img src=""stim_listA/marry4.gif""style=""height:400px;""></stim_listA>","are marrying each other",""
"null","<div style=""font-size:60px;"">+</div>","","html-keyboard-response","280","1145771","0.0-17.0-0.8","56197","List1A","black","woman","","","","null","","","",""
"null","<img src=""stim_listA/marry5.gif""style=""height:400px;""></stim_listA>","","html-keyboard-response","281","1147776","0.0-17.0-1.8","56197","List1A","black","woman","","","","null","","","",""
"null","is marrying","","html-keyboard-response","282","1149780","0.0-17.0-2.8","56197","List1A","black","woman","","","","null","","","",""
"6563","","","survey-text","283","1156349","0.0-17.0-3.8","56197","List1A","black","woman","","","","","{""Q0"":""Luke is marrying mike""}","<img src=""stim_listA/marry5.gif""style=""height:400px;""></stim_listA>","is marrying",""
"null","<div style=""font-size:60px;"">+</div>","","html-keyboard-response","284","1156855","0.0-17.0-0.9","56197","List1A","black","woman","","","","null","","","",""
"null","<img src=""stim_listA/talk6.gif""style=""height:400px;""></stim_listA>","","html-keyboard-response","285","1158860","0.0-17.0-1.9","56197","List1A","black","woman","","","","null","","","",""
"null","are talking to each other","","html-keyboard-response","286","1160864","0.0-17.0-2.9","56197","List1A","black","woman","","","","null","","","",""
"23934","","","survey-text","287","1184803","0.0-17.0-3.9","56197","List1A","black","woman","","","","","{""Q0"":""Luke and mike are talking to each other""}","<img src=""stim_listA/talk6.gif""style=""height:400px;""></stim_listA>","are talking to each other",""
"null","<div style=""font-size:60px;"">+</div>","","html-keyboard-response","288","1185308","0.0-17.0-0.10","56197","List1A","black","woman","","","","null","","","",""
"null","<img src=""stim_listA/marry1.gif""style=""height:400px;""></stim_listA>","","html-keyboard-response","289","1187315","0.0-17.0-1.10","56197","List1A","black","woman","","","","null","","","",""
"null","is marrying","","html-keyboard-response","290","1189320","0.0-17.0-2.10","56197","List1A","black","woman","","","","null","","","",""
"11377","","","survey-text","291","1200704","0.0-17.0-3.10","56197","List1A","black","woman","","","","","{""Q0"":""Mike is marrying beth""}","<img src=""stim_listA/marry1.gif""style=""height:400px;""></stim_listA>","is marrying",""
"null","<div style=""font-size:60px;"">+</div>","","html-keyboard-response","292","1201210","0.0-17.0-0.11","56197","List1A","black","woman","","","","null","","","",""
"null","<img src=""stim_listA/talk3.gif""style=""height:400px;""></stim_listA>","","html-keyboard-response","293","1203220","0.0-17.0-1.11","56197","List1A","black","woman","","","","null","","","",""
"null","is talking to","","html-keyboard-response","294","1205223","0.0-17.0-2.11","56197","List1A","black","woman","","","","null","","","",""
"6689","","","survey-text","295","1211917","0.0-17.0-3.11","56197","List1A","black","woman","","","","","{""Q0"":""Luke is talking to jane""}","<img src=""stim_listA/talk3.gif""style=""height:400px;""></stim_listA>","is talking to",""
"null","<div style=""font-size:60px;"">+</div>","","html-keyboard-response","296","1212420","0.0-17.0-0.12","56197","List1A","black","woman","","","","null","","","",""
"null","<img src=""stim_listA/kiss7.gif""style=""height:400px;""></stim_listA>","","html-keyboard-response","297","1214425","0.0-17.0-1.12","56197","List1A","black","woman","","","","null","","","",""
"null","is kissing","","html-keyboard-response","298","1216428","0.0-17.0-2.12","56197","List1A","black","woman","","","","null","","","",""
"6608","","","survey-text","299","1223040","0.0-17.0-3.12","56197","List1A","black","woman","","","","","{""Q0"":""Ruth is kissing beth""}","<img src=""stim_listA/kiss7.gif""style=""height:400px;""></stim_listA>","is kissing",""
"null","<div style=""font-size:60px;"">+</div>","","html-keyboard-response","300","1223545","0.0-17.0-0.13","56197","List1A","black","woman","","","","null","","","",""
"null","<img src=""stim_listA/kiss6.gif""style=""height:400px;""></stim_listA>","","html-keyboard-response","301","1225551","0.0-17.0-1.13","56197","List1A","black","woman","","","","null","","","",""
"null","are kissing each other","","html-keyboard-response","302","1227554","0.0-17.0-2.13","56197","List1A","black","woman","","","","null","","","",""
"9861","","","survey-text","303","1237421","0.0-17.0-3.13","56197","List1A","black","woman","","","","","{""Q0"":""Dave and mike are kissing each other""}","<img src=""stim_listA/kiss6.gif""style=""height:400px;""></stim_listA>","are kissing each other",""
"null","<div style=""font-size:60px;"">+</div>","","html-keyboard-response","304","1237925","0.0-17.0-0.14","56197","List1A","black","woman","","","","null","","","",""
"null","<img src=""stim_listA/touch1.gif""style=""height:400px;""></stim_listA>","","html-keyboard-response","305","1239932","0.0-17.0-1.14","56197","List1A","black","woman","","","","null","","","",""
"null","is touching","","html-keyboard-response","306","1241936","0.0-17.0-2.14","56197","List1A","black","woman","","","","null","","","",""
"6292","","","survey-text","307","1248233","0.0-17.0-3.14","56197","List1A","black","woman","","","","","{""Q0"":""Kate is touching mike""}","<img src=""stim_listA/touch1.gif""style=""height:400px;""></stim_listA>","is touching",""
"null","<div style=""font-size:60px;"">+</div>","","html-keyboard-response","308","1248740","0.0-17.0-0.15","56197","List1A","black","woman","","","","null","","","",""
"null","<img src=""stim_listA/dance3.gif""style=""height:400px;""></stim_listA>","","html-keyboard-response","309","1250749","0.0-17.0-1.15","56197","List1A","black","woman","","","","null","","","",""
"null","is dancing with","","html-keyboard-response","310","1252753","0.0-17.0-2.15","56197","List1A","black","woman","","","","null","","","",""
"6702","","","survey-text","311","1259460","0.0-17.0-3.15","56197","List1A","black","woman","","","","","{""Q0"":""Luke is dancing with jane""}","<img src=""stim_listA/dance3.gif""style=""height:400px;""></stim_listA>","is dancing with",""
"null","<div style=""font-size:60px;"">+</div>","","html-keyboard-response","312","1259968","0.0-17.0-0.16","56197","List1A","black","woman","","","","null","","","",""
"null","<img src=""stim_listA/fight2.gif""style=""height:400px;""></stim_listA>","","html-keyboard-response","313","1261974","0.0-17.0-1.16","56197","List1A","black","woman","","","","null","","","",""
"null","are fighting each other","","html-keyboard-response","314","1263978","0.0-17.0-2.16","56197","List1A","black","woman","","","","null","","","",""
"10760","","","survey-text","315","1274743","0.0-17.0-3.16","56197","List1A","black","woman","","","","","{""Q0"":""Beth and fred are fighting each other""}","<img src=""stim_listA/fight2.gif""style=""height:400px;""></stim_listA>","are fighting each other",""
"null","<div style=""font-size:60px;"">+</div>","","html-keyboard-response","316","1275248","0.0-17.0-0.17","56197","List1A","black","woman","","","","null","","","",""
"null","<img src=""stim_listA/talk4.gif""style=""height:400px;""></stim_listA>","","html-keyboard-response","317","1277253","0.0-17.0-1.17","56197","List1A","black","woman","","","","null","","","",""
"null","are talking to each other","","html-keyboard-response","318","1279257","0.0-17.0-2.17","56197","List1A","black","woman","","","","null","","","",""
"9283","","","survey-text","319","1288545","0.0-17.0-3.17","56197","List1A","black","woman","","","","","{""Q0"":""Ruth and dave are talking to each othet""}","<img src=""stim_listA/talk4.gif""style=""height:400px;""></stim_listA>","are talking to each other",""
"null","<div style=""font-size:60px;"">+</div>","","html-keyboard-response","320","1289052","0.0-17.0-0.18","56197","List1A","black","woman","","","","null","","","",""
"null","<img src=""stim_listA/play2.gif""style=""height:400px;""></stim_listA>","","html-keyboard-response","321","1291057","0.0-17.0-1.18","56197","List1A","black","woman","","","","null","","","",""
"null","are playing with each other","","html-keyboard-response","322","1293061","0.0-17.0-2.18","56197","List1A","black","woman","","","","null","","","",""
"12221","","","survey-text","323","1305289","0.0-17.0-3.18","56197","List1A","black","woman","","","","","{""Q0"":""Beth and fred and playing with each other""}","<img src=""stim_listA/play2.gif""style=""height:400px;""></stim_listA>","are playing with each other",""
"null","<div style=""font-size:60px;"">+</div>","","html-keyboard-response","324","1305795","0.0-17.0-0.19","56197","List1A","black","woman","","","","null","","","",""
"null","<img src=""stim_listA/argue1.gif""style=""height:400px;""></stim_listA>","","html-keyboard-response","325","1307801","0.0-17.0-1.19","56197","List1A","black","woman","","","","null","","","",""
"null","is arguing with","","html-keyboard-response","326","1309804","0.0-17.0-2.19","56197","List1A","black","woman","","","","null","","","",""
"6989","","","survey-text","327","1316805","0.0-17.0-3.19","56197","List1A","black","woman","","","","","{""Q0"":""Beth is arguing with mike""}","<img src=""stim_listA/argue1.gif""style=""height:400px;""></stim_listA>","is arguing with",""
"3791","<img src='img/portrait_matrix_list1.jpg' style='width:900px;height:500px;''></img><p>If you have memorised all the portraits and names and are ready to start, press Continue.</p><p><strong>Please note: Your memory of these faces will be tested 4 times during this experiment.</strong></p>","0","html-button-response","328","1320603","0.0-18.0-0.0","56197","List1A","black","woman","","","","","","","",""
"2136","<img src=""portrait/WM1.jpg""style=""height:400px;""></img>","6","html-button-response","329","1323750","0.0-18.0-1.0","56197","List1A","black","woman","","true","6","","","","",""
"null","CORRECT","","html-keyboard-response","330","1325257","0.0-18.0-2.0-0.0","56197","List1A","black","woman","","","","null","","","",""
"2210","<img src=""portrait/BM2.jpg""style=""height:400px;""></img>","5","html-button-response","331","1327476","0.0-18.0-4.0","56197","List1A","black","woman","","true","5","","","","",""
"null","CORRECT","","html-keyboard-response","332","1328986","0.0-18.0-5.0-0.0","56197","List1A","black","woman","","","","null","","","",""
"1503","<img src=""portrait/WW2.jpg""style=""height:400px;""></img>","3","html-button-response","333","1330498","0.0-18.0-7.0","56197","List1A","black","woman","","true","3","","","","",""
"null","CORRECT","","html-keyboard-response","334","1332008","0.0-18.0-8.0-0.0","56197","List1A","black","woman","","","","null","","","",""
"1637","<img src=""portrait/BW1.jpg""style=""height:400px;""></img>","0","html-button-response","335","1333651","0.0-18.0-10.0","56197","List1A","black","woman","","true","0","","","","",""
"null","CORRECT","","html-keyboard-response","336","1335163","0.0-18.0-11.0-0.0","56197","List1A","black","woman","","","","null","","","",""
"2224","<img src=""portrait/WW1.jpg""style=""height:400px;""></img>","1","html-button-response","337","1337398","0.0-18.0-13.0","56197","List1A","black","woman","","true","1","","","","",""
"null","CORRECT","","html-keyboard-response","338","1338906","0.0-18.0-14.0-0.0","56197","List1A","black","woman","","","","null","","","",""
"1399","<img src=""portrait/BW2.jpg""style=""height:400px;""></img>","2","html-button-response","339","1340312","0.0-18.0-16.0","56197","List1A","black","woman","","true","2","","","","",""
"null","CORRECT","","html-keyboard-response","340","1341820","0.0-18.0-17.0-0.0","56197","List1A","black","woman","","","","null","","","",""
"1486","<img src=""portrait/WM2.jpg""style=""height:400px;""></img>","7","html-button-response","341","1343316","0.0-18.0-19.0","56197","List1A","black","woman","","true","7","","","","",""
"null","CORRECT","","html-keyboard-response","342","1344825","0.0-18.0-20.0-0.0","56197","List1A","black","woman","","","","null","","","",""
"1886","<img src=""portrait/BM1.jpg""style=""height:400px;""></img>","4","html-button-response","343","1346720","0.0-18.0-22.0","56197","List1A","black","woman","","true","4","","","","",""
"null","CORRECT","","html-keyboard-response","344","1348225","0.0-18.0-23.0-0.0","56197","List1A","black","woman","","","","null","","","",""
"1295","<p>You got 8 out of 8 right first time. Press Continue.</p>","0","html-button-response","345","1349526","0.0-18.0-25.0","56197","List1A","black","woman","","","","","","","",""
"null","<div style=""font-size:60px;"">+</div>","","html-keyboard-response","346","1351036","0.0-19.0-0.0","56197","List1A","black","woman","","","","null","","","",""
"null","<img src=""stim_listA/dance7.gif""style=""height:400px;""></stim_listA>","","html-keyboard-response","347","1353040","0.0-19.0-1.0","56197","List1A","black","woman","","","","null","","","",""
"null","is dancing with","","html-keyboard-response","348","1355044","0.0-19.0-2.0","56197","List1A","black","woman","","","","null","","","",""
"7391","","","survey-text","349","1362443","0.0-19.0-3.0","56197","List1A","black","woman","","","","","{""Q0"":""Jane is dancing with beth""}","<img src=""stim_listA/dance7.gif""style=""height:400px;""></stim_listA>","is dancing with",""
"null","<div style=""font-size:60px;"">+</div>","","html-keyboard-response","350","1362947","0.0-19.0-0.1","56197","List1A","black","woman","","","","null","","","",""
"null","<img src=""stim_listA/shout7.gif""style=""height:400px;""></stim_listA>","","html-keyboard-response","351","1364955","0.0-19.0-1.1","56197","List1A","black","woman","","","","null","","","",""
"null","is shouting at","","html-keyboard-response","352","1366958","0.0-19.0-2.1","56197","List1A","black","woman","","","","null","","","",""
"7532","","","survey-text","353","1374496","0.0-19.0-3.1","56197","List1A","black","woman","","","","","{""Q0"":""Ruth is shouting at beth""}","<img src=""stim_listA/shout7.gif""style=""height:400px;""></stim_listA>","is shouting at",""
"null","<div style=""font-size:60px;"">+</div>","","html-keyboard-response","354","1375002","0.0-19.0-0.2","56197","List1A","black","woman","","","","null","","","",""
"null","<img src=""stim_listA/argue4.gif""style=""height:400px;""></stim_listA>","","html-keyboard-response","355","1377009","0.0-19.0-1.2","56197","List1A","black","woman","","","","null","","","",""
"null","are arguing with each other","","html-keyboard-response","356","1379013","0.0-19.0-2.2","56197","List1A","black","woman","","","","null","","","",""
"10931","","","survey-text","357","1389951","0.0-19.0-3.2","56197","List1A","black","woman","","","","","{""Q0"":""Luke and jane are arguing with each other""}","<img src=""stim_listA/argue4.gif""style=""height:400px;""></stim_listA>","are arguing with each other",""
"null","<div style=""font-size:60px;"">+</div>","","html-keyboard-response","358","1390458","0.0-19.0-0.3","56197","List1A","black","woman","","","","null","","","",""
"null","<img src=""stim_listA/argue7.gif""style=""height:400px;""></stim_listA>","","html-keyboard-response","359","1392464","0.0-19.0-1.3","56197","List1A","black","woman","","","","null","","","",""
"null","is arguing with","","html-keyboard-response","360","1394468","0.0-19.0-2.3","56197","List1A","black","woman","","","","null","","","",""
"8507","","","survey-text","361","1402979","0.0-19.0-3.3","56197","List1A","black","woman","","","","","{""Q0"":""Ruth is arguing with kate""}","<img src=""stim_listA/argue7.gif""style=""height:400px;""></stim_listA>","is arguing with",""
"null","<div style=""font-size:60px;"">+</div>","","html-keyboard-response","362","1403483","0.0-19.0-0.4","56197","List1A","black","woman","","","","null","","","",""
"null","<img src=""stim_listA/kiss8.gif""style=""height:400px;""></stim_listA>","","html-keyboard-response","363","1405488","0.0-19.0-1.4","56197","List1A","black","woman","","","","null","","","",""
"null","are kissing each other","","html-keyboard-response","364","1407490","0.0-19.0-2.4","56197","List1A","black","woman","","","","null","","","",""
"10494","","","survey-text","365","1417988","0.0-19.0-3.4","56197","List1A","black","woman","","","","","{""Q0"":""Kate and jane are kissing each other""}","<img src=""stim_listA/kiss8.gif""style=""height:400px;""></stim_listA>","are kissing each other",""
"null","<div style=""font-size:60px;"">+</div>","","html-keyboard-response","366","1418495","0.0-19.0-0.5","56197","List1A","black","woman","","","","null","","","",""
"null","<img src=""stim_listA/touch3.gif""style=""height:400px;""></stim_listA>","","html-keyboard-response","367","1420502","0.0-19.0-1.5","56197","List1A","black","woman","","","","null","","","",""
"null","is touching","","html-keyboard-response","368","1422504","0.0-19.0-2.5","56197","List1A","black","woman","","","","null","","","",""
"6084","","","survey-text","369","1428593","0.0-19.0-3.5","56197","List1A","black","woman","","","","","{""Q0"":""Dave is touching jane""}","<img src=""stim_listA/touch3.gif""style=""height:400px;""></stim_listA>","is touching",""
"null","<div style=""font-size:60px;"">+</div>","","html-keyboard-response","370","1429100","0.0-19.0-0.6","56197","List1A","black","woman","","","","null","","","",""
"null","<img src=""stim_listA/dance1.gif""style=""height:400px;""></stim_listA>","","html-keyboard-response","371","1431107","0.0-19.0-1.6","56197","List1A","black","woman","","","","null","","","",""
"null","is dancing with","","html-keyboard-response","372","1433110","0.0-19.0-2.6","56197","List1A","black","woman","","","","null","","","",""
"7076","","","survey-text","373","1440191","0.0-19.0-3.6","56197","List1A","black","woman","","","","","{""Q0"":""Fred is dancing with kate""}","<img src=""stim_listA/dance1.gif""style=""height:400px;""></stim_listA>","is dancing with",""
"null","<div style=""font-size:60px;"">+</div>","","html-keyboard-response","374","1440697","0.0-19.0-0.7","56197","List1A","black","woman","","","","null","","","",""
"null","<img src=""stim_listA/shout2.gif""style=""height:400px;""></stim_listA>","","html-keyboard-response","375","1442704","0.0-19.0-1.7","56197","List1A","black","woman","","","","null","","","",""
"null","are shouting at each other","","html-keyboard-response","376","1444707","0.0-19.0-2.7","56197","List1A","black","woman","","","","null","","","",""
"11238","","","survey-text","377","1455951","0.0-19.0-3.7","56197","List1A","black","woman","","","","","{""Q0"":""Kate and mike are shouting at each other""}","<img src=""stim_listA/shout2.gif""style=""height:400px;""></stim_listA>","are shouting at each other",""
"null","<div style=""font-size:60px;"">+</div>","","html-keyboard-response","378","1456458","0.0-19.0-0.8","56197","List1A","black","woman","","","","null","","","",""
"null","<img src=""stim_listA/dance4.gif""style=""height:400px;""></stim_listA>","","html-keyboard-response","379","1458463","0.0-19.0-1.8","56197","List1A","black","woman","","","","null","","","",""
"null","are dancing with each other","","html-keyboard-response","380","1460467","0.0-19.0-2.8","56197","List1A","black","woman","","","","null","","","",""
"11984","","","survey-text","381","1472453","0.0-19.0-3.8","56197","List1A","black","woman","","","","","{""Q0"":""Dave and ruth are dancing with each other""}","<img src=""stim_listA/dance4.gif""style=""height:400px;""></stim_listA>","are dancing with each other",""
"null","<div style=""font-size:60px;"">+</div>","","html-keyboard-response","382","1472957","0.0-19.0-0.9","56197","List1A","black","woman","","","","null","","","",""
"null","<img src=""stim_listA/touch5.gif""style=""height:400px;""></stim_listA>","","html-keyboard-response","383","1474962","0.0-19.0-1.9","56197","List1A","black","woman","","","","null","","","",""
"null","is touching","","html-keyboard-response","384","1476966","0.0-19.0-2.9","56197","List1A","black","woman","","","","null","","","",""
"7042","","","survey-text","385","1484016","0.0-19.0-3.9","56197","List1A","black","woman","","","","","{""Q0"":""Mike is touching dave""}","<img src=""stim_listA/touch5.gif""style=""height:400px;""></stim_listA>","is touching",""
"null","<div style=""font-size:60px;"">+</div>","","html-keyboard-response","386","1484523","0.0-19.0-0.10","56197","List1A","black","woman","","","","null","","","",""
"null","<img src=""stim_listA/play5.gif""style=""height:400px;""></stim_listA>","","html-keyboard-response","387","1486532","0.0-19.0-1.10","56197","List1A","black","woman","","","","null","","","",""
"null","is playing with","","html-keyboard-response","388","1488535","0.0-19.0-2.10","56197","List1A","black","woman","","","","null","","","",""
"7388","","","survey-text","389","1495928","0.0-19.0-3.10","56197","List1A","black","woman","","","","","{""Q0"":""Dave is playing with mike""}","<img src=""stim_listA/play5.gif""style=""height:400px;""></stim_listA>","is playing with",""
"null","<div style=""font-size:60px;"">+</div>","","html-keyboard-response","390","1496436","0.0-19.0-0.11","56197","List1A","black","woman","","","","null","","","",""
"null","<img src=""stim_listA/fight8.gif""style=""height:400px;""></stim_listA>","","html-keyboard-response","391","1498444","0.0-19.0-1.11","56197","List1A","black","woman","","","","null","","","",""
"null","are fighting each other","","html-keyboard-response","392","1500449","0.0-19.0-2.11","56197","List1A","black","woman","","","","null","","","",""
"9875","","","survey-text","393","1510329","0.0-19.0-3.11","56197","List1A","black","woman","","","","","{""Q0"":""Ruth and jane are fighting each other""}","<img src=""stim_listA/fight8.gif""style=""height:400px;""></stim_listA>","are fighting each other",""
"null","<div style=""font-size:60px;"">+</div>","","html-keyboard-response","394","1510835","0.0-19.0-0.12","56197","List1A","black","woman","","","","null","","","",""
"null","<img src=""stim_listA/fight4.gif""style=""height:400px;""></stim_listA>","","html-keyboard-response","395","1512841","0.0-19.0-1.12","56197","List1A","black","woman","","","","null","","","",""
"null","are fighting each other","","html-keyboard-response","396","1514845","0.0-19.0-2.12","56197","List1A","black","woman","","","","null","","","",""
"9465","","","survey-text","397","1524314","0.0-19.0-3.12","56197","List1A","black","woman","","","","","{""Q0"":""Ruth and luke are fighting each other""}","<img src=""stim_listA/fight4.gif""style=""height:400px;""></stim_listA>","are fighting each other",""
"null","<div style=""font-size:60px;"">+</div>","","html-keyboard-response","398","1524818","0.0-19.0-0.13","56197","List1A","black","woman","","","","null","","","",""
"null","<img src=""stim_listA/shout8.gif""style=""height:400px;""></stim_listA>","","html-keyboard-response","399","1526824","0.0-19.0-1.13","56197","List1A","black","woman","","","","null","","","",""
"null","are shouting at each other","","html-keyboard-response","400","1528828","0.0-19.0-2.13","56197","List1A","black","woman","","","","null","","","",""
"11487","","","survey-text","401","1540338","0.0-19.0-3.13","56197","List1A","black","woman","","","","","{""Q0"":""Jane and kate are shouting at each other""}","<img src=""stim_listA/shout8.gif""style=""height:400px;""></stim_listA>","are shouting at each other",""
"null","<div style=""font-size:60px;"">+</div>","","html-keyboard-response","402","1540844","0.0-19.0-0.14","56197","List1A","black","woman","","","","null","","","",""
"null","<img src=""stim_listA/kiss5.gif""style=""height:400px;""></stim_listA>","","html-keyboard-response","403","1542850","0.0-19.0-1.14","56197","List1A","black","woman","","","","null","","","",""
"null","is kissing","","html-keyboard-response","404","1544853","0.0-19.0-2.14","56197","List1A","black","woman","","","","null","","","",""
"6927","","","survey-text","405","1551788","0.0-19.0-3.14","56197","List1A","black","woman","","","","","{""Q0"":""Fred is kissing luke""}","<img src=""stim_listA/kiss5.gif""style=""height:400px;""></stim_listA>","is kissing",""
"null","<div style=""font-size:60px;"">+</div>","","html-keyboard-response","406","1552296","0.0-19.0-0.15","56197","List1A","black","woman","","","","null","","","",""
"null","<img src=""stim_listA/shout1.gif""style=""height:400px;""></stim_listA>","","html-keyboard-response","407","1554301","0.0-19.0-1.15","56197","List1A","black","woman","","","","null","","","",""
"null","is shouting at","","html-keyboard-response","408","1556305","0.0-19.0-2.15","56197","List1A","black","woman","","","","null","","","",""
"7156","","","survey-text","409","1563468","0.0-19.0-3.15","56197","List1A","black","woman","","","","","{""Q0"":""Fred is shouting at beth""}","<img src=""stim_listA/shout1.gif""style=""height:400px;""></stim_listA>","is shouting at",""
"null","<div style=""font-size:60px;"">+</div>","","html-keyboard-response","410","1563973","0.0-19.0-0.16","56197","List1A","black","woman","","","","null","","","",""
"null","<img src=""stim_listA/argue6.gif""style=""height:400px;""></stim_listA>","","html-keyboard-response","411","1565978","0.0-19.0-1.16","56197","List1A","black","woman","","","","null","","","",""
"null","are arguing with each other","","html-keyboard-response","412","1567981","0.0-19.0-2.16","56197","List1A","black","woman","","","","null","","","",""
"12881","","","survey-text","413","1580889","0.0-19.0-3.16","56197","List1A","black","woman","","","","","{""Q0"":""Dave and fred are arguing with each other""}","<img src=""stim_listA/argue6.gif""style=""height:400px;""></stim_listA>","are arguing with each other",""
"null","<div style=""font-size:60px;"">+</div>","","html-keyboard-response","414","1581416","0.0-19.0-0.17","56197","List1A","black","woman","","","","null","","","",""
"null","<img src=""stim_listA/play6.gif""style=""height:400px;""></stim_listA>","","html-keyboard-response","415","1583448","0.0-19.0-1.17","56197","List1A","black","woman","","","","null","","","",""
"null","are playing with each other","","html-keyboard-response","416","1585452","0.0-19.0-2.17","56197","List1A","black","woman","","","","null","","","",""
"10985","","","survey-text","417","1596446","0.0-19.0-3.17","56197","List1A","black","woman","","","","","{""Q0"":""Luke and fred are playing with each other""}","<img src=""stim_listA/play6.gif""style=""height:400px;""></stim_listA>","are playing with each other",""
"null","<div style=""font-size:60px;"">+</div>","","html-keyboard-response","418","1596950","0.0-19.0-0.18","56197","List1A","black","woman","","","","null","","","",""
"null","<img src=""stim_listA/touch6.gif""style=""height:400px;""></stim_listA>","","html-keyboard-response","419","1598956","0.0-19.0-1.18","56197","List1A","black","woman","","","","null","","","",""
"null","are touching each other","","html-keyboard-response","420","1600961","0.0-19.0-2.18","56197","List1A","black","woman","","","","null","","","",""
"10166","","","survey-text","421","1611131","0.0-19.0-3.18","56197","List1A","black","woman","","","","","{""Q0"":""Luke and fred are touching each other""}","<img src=""stim_listA/touch6.gif""style=""height:400px;""></stim_listA>","are touching each other",""
"null","<div style=""font-size:60px;"">+</div>","","html-keyboard-response","422","1611636","0.0-19.0-0.19","56197","List1A","black","woman","","","","null","","","",""
"null","<img src=""stim_listA/flirt7.gif""style=""height:400px;""></stim_listA>","","html-keyboard-response","423","1613646","0.0-19.0-1.19","56197","List1A","black","woman","","","","null","","","",""
"null","is flirting with","","html-keyboard-response","424","1615651","0.0-19.0-2.19","56197","List1A","black","woman","","","","null","","","",""
"8757","","","survey-text","425","1624416","0.0-19.0-3.19","56197","List1A","black","woman","","","","","{""Q0"":""Beth is flirting with jane""}","<img src=""stim_listA/flirt7.gif""style=""height:400px;""></stim_listA>","is flirting with",""
"2836","<p>Thank you for completing that task.</p><p>The final part of this session is a short questionnaire.</p><p>Press Continue.</p>","0","html-button-response","426","1627285","0.0-20.0","56197","List1A","black","woman","","","","","","","",""
"22841","","","survey-text","427","1651142","0.0-21.0","56197","List1A","black","woman","","","","","{""Q0"":""26"",""Q1"":""English"",""Q2"":""English"",""Q3"":""United States"",""Q4"":""African American"",""Q5"":""Female""}","","","demographics"
"5976","","","survey-likert","428","1657146","0.0-22.0","56197","List1A","black","woman","","","","","{""Q0"":4}","","","likert_ESS"
"4376","","","survey-likert","429","1661537","0.0-23.0","56197","List1A","black","woman","","","","","{""Q0"":4}","","","likert_NSSAL_Q1"
"2130","","","survey-likert","430","1663677","0.0-24.0","56197","List1A","black","woman","","","","","{""Q0"":4}","","","likert_NSSAL_Q2"
"3266","","","survey-likert","431","1666956","0.0-25.0","56197","List1A","black","woman","","","","","{""Q0"":4}","","","likert_CGRS_Q1"
"2010","","","survey-likert","432","1668976","0.0-26.0","56197","List1A","black","woman","","","","","{""Q0"":4}","","","likert_CGRS_Q2"
"1813","","","survey-likert","433","1670813","0.0-27.0","56197","List1A","black","woman","","","","","{""Q0"":4}","","","likert_CGRS_Q3"
"5055","","","survey-text","434","1675895","0.0-28.0","56197","List1A","black","woman","","","","","{""Q0"":""5955a3b953910300019cdcf6""}","","","worker_id"
"56886","","","external-html","435","1732982","0.0-29.0","56197","List1A","black","woman","debrief.html","","","","","","",""
