rt,stimulus,button_pressed,trial_type,trial_index,time_elapsed,internal_node_id,subject,list,ppt_race,ppt_gender,url,first_guess,correct,key_press,responses,image_type,phrase_type,test_part
1709,Welcome to the experiment. Press Continue to begin.,0,html-button-response,0,1721,0.0-0.0,56272,List1A,black,man,,,,,,,,
9145,,,external-html,1,12036,0.0-1.0,56272,List1A,black,man,consent.html,,,,,,,
18047,"<p>On the next page, you will see portraits of 8 people and their names.</p><p>Your first task is to take a few minutes to memorise the names of these people.</p><p>You will have to recall their names during the rest of the experiment, so it is</p><p>essential that you try to memorise these people and their names as best as you can.</p><br><p><strong>You will then be tested on your memory of these names and portraits.</strong></p><br><p>The experiment will start after you have completed this memory test.</p><br><p>Ready?</p>",0,html-button-response,2,30089,0.0-2.0,56272,List1A,black,man,,,,,,,,
21336,"<img src='img/portrait_matrix_list1.jpg' style='width:900px;height:500px;''></img><p>If you have memorised all the portraits and names and are ready to start, press Continue.</p><p><strong>Please note: Your memory of these faces will be tested 4 times during this experiment.</strong></p>",0,html-button-response,3,52434,0.0-3.0-0.0,56272,List1A,black,man,,,,,,,,
6664,"<img src=""portrait/BM2.jpg""style=""height:400px;""></img>",5,html-button-response,4,60110,0.0-3.0-1.0,56272,List1A,black,man,,TRUE,5,,,,,
null,CORRECT,,html-keyboard-response,5,61621,0.0-3.0-2.0-0.0,56272,List1A,black,man,,,,null,,,,
4473,"<img src=""portrait/WW1.jpg""style=""height:400px;""></img>",1,html-button-response,6,66104,0.0-3.0-4.0,56272,List1A,black,man,,TRUE,1,,,,,
null,CORRECT,,html-keyboard-response,7,67609,0.0-3.0-5.0-0.0,56272,List1A,black,man,,,,null,,,,
8141,"<img src=""portrait/BM1.jpg""style=""height:400px;""></img>",4,html-button-response,8,75760,0.0-3.0-7.0,56272,List1A,black,man,,TRUE,4,,,,,
null,CORRECT,,html-keyboard-response,9,77265,0.0-3.0-8.0-0.0,56272,List1A,black,man,,,,null,,,,
2976,"<img src=""portrait/WW2.jpg""style=""height:400px;""></img>",2,html-button-response,10,80250,0.0-3.0-10.0,56272,List1A,black,man,,TRUE,3,,,,,
7792,"<img src=""portrait/WW2.jpg""style=""height:400px;""></img>",3,html-button-response,11,89051,0.0-3.0-12.0-0.0,56272,List1A,black,man,,FALSE,3,,,,,
null,CORRECT,,html-keyboard-response,12,90559,0.0-3.0-12.0-1.0-0.0,56272,List1A,black,man,,,,null,,,,
5092,"<img src=""portrait/WM2.jpg""style=""height:400px;""></img>",7,html-button-response,13,95659,0.0-3.0-13.0,56272,List1A,black,man,,TRUE,7,,,,,
null,CORRECT,,html-keyboard-response,14,97164,0.0-3.0-14.0-0.0,56272,List1A,black,man,,,,null,,,,
3652,"<img src=""portrait/BW2.jpg""style=""height:400px;""></img>",0,html-button-response,15,100823,0.0-3.0-16.0,56272,List1A,black,man,,TRUE,2,,,,,
2157,"<img src=""portrait/BW2.jpg""style=""height:400px;""></img>",2,html-button-response,16,103989,0.0-3.0-18.0-0.0,56272,List1A,black,man,,FALSE,2,,,,,
null,CORRECT,,html-keyboard-response,17,105498,0.0-3.0-18.0-1.0-0.0,56272,List1A,black,man,,,,null,,,,
2775,"<img src=""portrait/WM1.jpg""style=""height:400px;""></img>",6,html-button-response,18,108280,0.0-3.0-19.0,56272,List1A,black,man,,TRUE,6,,,,,
null,CORRECT,,html-keyboard-response,19,109784,0.0-3.0-20.0-0.0,56272,List1A,black,man,,,,null,,,,
4502,"<img src=""portrait/BW1.jpg""style=""height:400px;""></img>",0,html-button-response,20,114294,0.0-3.0-22.0,56272,List1A,black,man,,TRUE,0,,,,,
null,CORRECT,,html-keyboard-response,21,115798,0.0-3.0-23.0-0.0,56272,List1A,black,man,,,,null,,,,
1927,<p>You got 6 out of 8 right first time. Press Continue.</p>,0,html-button-response,22,117733,0.0-3.0-25.0,56272,List1A,black,man,,,,,,,,
4536,"As you did not score 100%, the memory game will repeat. Press Continue.",0,html-button-response,23,123275,0.0-3.0-26.0-0.0,56272,List1A,black,man,,,,,,,,
13362,"<img src='img/portrait_matrix_list1.jpg' style='width:900px;height:500px;''></img><p>If you have memorised all the portraits and names and are ready to start, press Continue.</p><p><strong>Please note: Your memory of these faces will be tested 4 times during this experiment.</strong></p>",0,html-button-response,24,137645,0.0-3.1-0.1,56272,List1A,black,man,,,,,,,,
2783,"<img src=""portrait/BM2.jpg""style=""height:400px;""></img>",5,html-button-response,25,141439,0.0-3.1-1.1,56272,List1A,black,man,,TRUE,5,,,,,
null,CORRECT,,html-keyboard-response,26,142944,0.0-3.1-2.1-0.1,56272,List1A,black,man,,,,null,,,,
6081,"<img src=""portrait/WW1.jpg""style=""height:400px;""></img>",1,html-button-response,27,149032,0.0-3.1-4.1,56272,List1A,black,man,,TRUE,1,,,,,
null,CORRECT,,html-keyboard-response,28,150537,0.0-3.1-5.1-0.1,56272,List1A,black,man,,,,null,,,,
2299,"<img src=""portrait/BM1.jpg""style=""height:400px;""></img>",4,html-button-response,29,152843,0.0-3.1-7.1,56272,List1A,black,man,,TRUE,4,,,,,
null,CORRECT,,html-keyboard-response,30,154347,0.0-3.1-8.1-0.1,56272,List1A,black,man,,,,null,,,,
3232,"<img src=""portrait/WW2.jpg""style=""height:400px;""></img>",2,html-button-response,31,157585,0.0-3.1-10.1,56272,List1A,black,man,,TRUE,3,,,,,
1697,"<img src=""portrait/WW2.jpg""style=""height:400px;""></img>",3,html-button-response,32,160292,0.0-3.1-12.1-0.1,56272,List1A,black,man,,FALSE,3,,,,,
null,CORRECT,,html-keyboard-response,33,161796,0.0-3.1-12.1-1.1-0.1,56272,List1A,black,man,,,,null,,,,
6731,"<img src=""portrait/WM2.jpg""style=""height:400px;""></img>",7,html-button-response,34,168536,0.0-3.1-13.1,56272,List1A,black,man,,TRUE,7,,,,,
null,CORRECT,,html-keyboard-response,35,170042,0.0-3.1-14.1-0.1,56272,List1A,black,man,,,,null,,,,
3017,"<img src=""portrait/BW2.jpg""style=""height:400px;""></img>",2,html-button-response,36,173065,0.0-3.1-16.1,56272,List1A,black,man,,TRUE,2,,,,,
null,CORRECT,,html-keyboard-response,37,174570,0.0-3.1-17.1-0.1,56272,List1A,black,man,,,,null,,,,
2112,"<img src=""portrait/WM1.jpg""style=""height:400px;""></img>",6,html-button-response,38,176691,0.0-3.1-19.1,56272,List1A,black,man,,TRUE,6,,,,,
null,CORRECT,,html-keyboard-response,39,178196,0.0-3.1-20.1-0.1,56272,List1A,black,man,,,,null,,,,
1853,"<img src=""portrait/BW1.jpg""style=""height:400px;""></img>",0,html-button-response,40,180057,0.0-3.1-22.1,56272,List1A,black,man,,TRUE,0,,,,,
null,CORRECT,,html-keyboard-response,41,181561,0.0-3.1-23.1-0.1,56272,List1A,black,man,,,,null,,,,
1417,<p>You got 7 out of 8 right first time. Press Continue.</p>,0,html-button-response,42,182986,0.0-3.1-25.1,56272,List1A,black,man,,,,,,,,
1653,"As you did not score 100%, the memory game will repeat. Press Continue.",0,html-button-response,43,185645,0.0-3.1-26.1-0.1,56272,List1A,black,man,,,,,,,,
10006,"<img src='img/portrait_matrix_list1.jpg' style='width:900px;height:500px;''></img><p>If you have memorised all the portraits and names and are ready to start, press Continue.</p><p><strong>Please note: Your memory of these faces will be tested 4 times during this experiment.</strong></p>",0,html-button-response,44,196659,0.0-3.2-0.2,56272,List1A,black,man,,,,,,,,
2361,"<img src=""portrait/BM2.jpg""style=""height:400px;""></img>",5,html-button-response,45,200030,0.0-3.2-1.2,56272,List1A,black,man,,TRUE,5,,,,,
null,CORRECT,,html-keyboard-response,46,201534,0.0-3.2-2.2-0.2,56272,List1A,black,man,,,,null,,,,
6121,"<img src=""portrait/WW1.jpg""style=""height:400px;""></img>",1,html-button-response,47,207663,0.0-3.2-4.2,56272,List1A,black,man,,TRUE,1,,,,,
null,CORRECT,,html-keyboard-response,48,209167,0.0-3.2-5.2-0.2,56272,List1A,black,man,,,,null,,,,
1848,"<img src=""portrait/BM1.jpg""style=""height:400px;""></img>",4,html-button-response,49,211023,0.0-3.2-7.2,56272,List1A,black,man,,TRUE,4,,,,,
null,CORRECT,,html-keyboard-response,50,212527,0.0-3.2-8.2-0.2,56272,List1A,black,man,,,,null,,,,
3613,"<img src=""portrait/WW2.jpg""style=""height:400px;""></img>",3,html-button-response,51,216148,0.0-3.2-10.2,56272,List1A,black,man,,TRUE,3,,,,,
null,CORRECT,,html-keyboard-response,52,217655,0.0-3.2-11.2-0.2,56272,List1A,black,man,,,,null,,,,
3061,"<img src=""portrait/WM2.jpg""style=""height:400px;""></img>",7,html-button-response,53,220732,0.0-3.2-13.2,56272,List1A,black,man,,TRUE,7,,,,,
null,CORRECT,,html-keyboard-response,54,222245,0.0-3.2-14.2-0.2,56272,List1A,black,man,,,,null,,,,
2451,"<img src=""portrait/BW2.jpg""style=""height:400px;""></img>",2,html-button-response,55,224701,0.0-3.2-16.2,56272,List1A,black,man,,TRUE,2,,,,,
null,CORRECT,,html-keyboard-response,56,226206,0.0-3.2-17.2-0.2,56272,List1A,black,man,,,,null,,,,
1752,"<img src=""portrait/WM1.jpg""style=""height:400px;""></img>",6,html-button-response,57,227966,0.0-3.2-19.2,56272,List1A,black,man,,TRUE,6,,,,,
null,CORRECT,,html-keyboard-response,58,229470,0.0-3.2-20.2-0.2,56272,List1A,black,man,,,,null,,,,
1642,"<img src=""portrait/BW1.jpg""style=""height:400px;""></img>",0,html-button-response,59,231119,0.0-3.2-22.2,56272,List1A,black,man,,TRUE,0,,,,,
null,CORRECT,,html-keyboard-response,60,232624,0.0-3.2-23.2-0.2,56272,List1A,black,man,,,,null,,,,
1541,<p>You got 8 out of 8 right first time. Press Continue.</p>,0,html-button-response,61,234171,0.0-3.2-25.2,56272,List1A,black,man,,,,,,,,
28805,"<p>In this experiment, you will view photographs of the people from the memory game interacting.</p><p>By using the <strong>exact</strong> phrase given <i>after</i> the photograph appears and recalling the correct names of the people in the photographs, form a sentence describing the interaction. You do not need to capitalise names.</p><p>Type your answer in the space provided. Please complete every sentence before moving onto the next trial.</p><p>You will only have a few seconds to memorise each given photograph and phrase before you can respond, so try your best to focus.</p><p>An example is given below. Press 'Continue' when you are ready.</p><img src='img/speaking_example.jpg' style='width:800px;height:460px;''></img>",0,html-button-response,62,263983,0.0-4.0,56272,List1A,black,man,,,,,,,,
2515,"<p>Before the experiment starts, you will watch two example trials. Press 'Continue'.</p>",0,html-button-response,63,267502,0.0-5.0,56272,List1A,black,man,,,,,,,,
null,<img src='img/meet_eg.gif' style='height:400px;''></img>,,html-keyboard-response,64,270509,0.0-6.0,56272,List1A,black,man,,,,null,,,,
null,<p>is meeting</p>,,html-keyboard-response,65,272513,0.0-7.0,56272,List1A,black,man,,,,null,,,,
3532,<p><b>Answer:</b> kate is meeting beth</p>,0,html-button-response,66,276051,0.0-8.0,56272,List1A,black,man,,,,,,,,
null,<img src='img/look_eg.gif' style='height:400px;''></img>,,html-keyboard-response,67,279062,0.0-9.0,56272,List1A,black,man,,,,null,,,,
null,<p>are looking at each other</p>,,html-keyboard-response,68,281065,0.0-10.0,56272,List1A,black,man,,,,null,,,,
3084,<p><b>Answer:</b> luke and dave are looking at each other</p>,0,html-button-response,69,284154,0.0-11.0,56272,List1A,black,man,,,,,,,,
3314,"<p>Ready to start the experiment?</p><br><p><strong>Remember to describe the picture using a full sentence,</strong></p><p><strong>that combines the names of the people with the <i>exact</i> phrase given.</strong></p><p><strong>To receive full payment you must do this correctly.</strong></p><p><strong> You do not need to capitalise names or use punctuation.</strong></p><br><p>Press 'Continue' to begin.</p>",0,html-button-response,70,288475,0.0-12.0,56272,List1A,black,man,,,,,,,,
null,"<div style=""font-size:60px;"">+</div>",,html-keyboard-response,71,289980,0.0-13.0-0.0,56272,List1A,black,man,,,,null,,,,
null,"<img src=""stim_listA/argue3.gif""style=""height:400px;""></stim_listA>",,html-keyboard-response,72,291992,0.0-13.0-1.0,56272,List1A,black,man,,,,null,,,,
null,is arguing with,,html-keyboard-response,73,293999,0.0-13.0-2.0,56272,List1A,black,man,,,,null,,,,
17622,,,survey-text,74,311629,0.0-13.0-3.0,56272,List1A,black,man,,,,,"{""Q0"":""Dave is arguing with Ruth.""}","<img src=""stim_listA/argue3.gif""style=""height:400px;""></stim_listA>",is arguing with,
null,"<div style=""font-size:60px;"">+</div>",,html-keyboard-response,75,312137,0.0-13.0-0.1,56272,List1A,black,man,,,,null,,,,
null,"<img src=""stim_listA/argue6.gif""style=""height:400px;""></stim_listA>",,html-keyboard-response,76,314141,0.0-13.0-1.1,56272,List1A,black,man,,,,null,,,,
null,are arguing with each other,,html-keyboard-response,77,316144,0.0-13.0-2.1,56272,List1A,black,man,,,,null,,,,
12332,,,survey-text,78,328481,0.0-13.0-3.1,56272,List1A,black,man,,,,,"{""Q0"":""Dave is arguing with Fred.""}","<img src=""stim_listA/argue6.gif""style=""height:400px;""></stim_listA>",are arguing with each other,
null,"<div style=""font-size:60px;"">+</div>",,html-keyboard-response,79,328986,0.0-13.0-0.2,56272,List1A,black,man,,,,null,,,,
null,"<img src=""stim_listA/fight4.gif""style=""height:400px;""></stim_listA>",,html-keyboard-response,80,330991,0.0-13.0-1.2,56272,List1A,black,man,,,,null,,,,
null,are fighting each other,,html-keyboard-response,81,332995,0.0-13.0-2.2,56272,List1A,black,man,,,,null,,,,
13900,,,survey-text,82,346898,0.0-13.0-3.2,56272,List1A,black,man,,,,,"{""Q0"":""Luke is fighting with Ruth.""}","<img src=""stim_listA/fight4.gif""style=""height:400px;""></stim_listA>",are fighting each other,
null,"<div style=""font-size:60px;"">+</div>",,html-keyboard-response,83,347401,0.0-13.0-0.3,56272,List1A,black,man,,,,null,,,,
null,"<img src=""stim_listA/flirt8.gif""style=""height:400px;""></stim_listA>",,html-keyboard-response,84,349409,0.0-13.0-1.3,56272,List1A,black,man,,,,null,,,,
null,are flirting with each other,,html-keyboard-response,85,351412,0.0-13.0-2.3,56272,List1A,black,man,,,,null,,,,
14852,,,survey-text,86,366275,0.0-13.0-3.3,56272,List1A,black,man,,,,,"{""Q0"":""Ruth is flirting with Kate.""}","<img src=""stim_listA/flirt8.gif""style=""height:400px;""></stim_listA>",are flirting with each other,
null,"<div style=""font-size:60px;"">+</div>",,html-keyboard-response,87,366778,0.0-13.0-0.4,56272,List1A,black,man,,,,null,,,,
null,"<img src=""stim_listA/dance3.gif""style=""height:400px;""></stim_listA>",,html-keyboard-response,88,368791,0.0-13.0-1.4,56272,List1A,black,man,,,,null,,,,
null,is dancing with,,html-keyboard-response,89,370795,0.0-13.0-2.4,56272,List1A,black,man,,,,null,,,,
12236,,,survey-text,90,383036,0.0-13.0-3.4,56272,List1A,black,man,,,,,"{""Q0"":""Luke is dancing with Jane.""}","<img src=""stim_listA/dance3.gif""style=""height:400px;""></stim_listA>",is dancing with,
null,"<div style=""font-size:60px;"">+</div>",,html-keyboard-response,91,383539,0.0-13.0-0.5,56272,List1A,black,man,,,,null,,,,
null,"<img src=""stim_listA/argue7.gif""style=""height:400px;""></stim_listA>",,html-keyboard-response,92,385545,0.0-13.0-1.5,56272,List1A,black,man,,,,null,,,,
null,is arguing with,,html-keyboard-response,93,387550,0.0-13.0-2.5,56272,List1A,black,man,,,,null,,,,
15980,,,survey-text,94,403534,0.0-13.0-3.5,56272,List1A,black,man,,,,,"{""Q0"":""Ruth is arguing with Kate.""}","<img src=""stim_listA/argue7.gif""style=""height:400px;""></stim_listA>",is arguing with,
null,"<div style=""font-size:60px;"">+</div>",,html-keyboard-response,95,404037,0.0-13.0-0.6,56272,List1A,black,man,,,,null,,,,
null,"<img src=""stim_listA/touch6.gif""style=""height:400px;""></stim_listA>",,html-keyboard-response,96,406044,0.0-13.0-1.6,56272,List1A,black,man,,,,null,,,,
null,are touching each other,,html-keyboard-response,97,408048,0.0-13.0-2.6,56272,List1A,black,man,,,,null,,,,
11657,,,survey-text,98,419710,0.0-13.0-3.6,56272,List1A,black,man,,,,,"{""Q0"":""Luke is touching Fred.""}","<img src=""stim_listA/touch6.gif""style=""height:400px;""></stim_listA>",are touching each other,
null,"<div style=""font-size:60px;"">+</div>",,html-keyboard-response,99,420213,0.0-13.0-0.7,56272,List1A,black,man,,,,null,,,,
null,"<img src=""stim_listA/argue1.gif""style=""height:400px;""></stim_listA>",,html-keyboard-response,100,422219,0.0-13.0-1.7,56272,List1A,black,man,,,,null,,,,
null,is arguing with,,html-keyboard-response,101,424223,0.0-13.0-2.7,56272,List1A,black,man,,,,null,,,,
12192,,,survey-text,102,436420,0.0-13.0-3.7,56272,List1A,black,man,,,,,"{""Q0"":""Beth is arguing with mike.""}","<img src=""stim_listA/argue1.gif""style=""height:400px;""></stim_listA>",is arguing with,
null,"<div style=""font-size:60px;"">+</div>",,html-keyboard-response,103,436923,0.0-13.0-0.8,56272,List1A,black,man,,,,null,,,,
null,"<img src=""stim_listA/marry5.gif""style=""height:400px;""></stim_listA>",,html-keyboard-response,104,438934,0.0-13.0-1.8,56272,List1A,black,man,,,,null,,,,
null,is marrying,,html-keyboard-response,105,440945,0.0-13.0-2.8,56272,List1A,black,man,,,,null,,,,
9196,,,survey-text,106,450147,0.0-13.0-3.8,56272,List1A,black,man,,,,,"{""Q0"":""Mike is marrying luke. ""}","<img src=""stim_listA/marry5.gif""style=""height:400px;""></stim_listA>",is marrying,
null,"<div style=""font-size:60px;"">+</div>",,html-keyboard-response,107,450652,0.0-13.0-0.9,56272,List1A,black,man,,,,null,,,,
null,"<img src=""stim_listA/play4.gif""style=""height:400px;""></stim_listA>",,html-keyboard-response,108,452657,0.0-13.0-1.9,56272,List1A,black,man,,,,null,,,,
null,are playing with each other,,html-keyboard-response,109,454660,0.0-13.0-2.9,56272,List1A,black,man,,,,null,,,,
10982,,,survey-text,110,465646,0.0-13.0-3.9,56272,List1A,black,man,,,,,"{""Q0"":""Luke is playing with Ruth.""}","<img src=""stim_listA/play4.gif""style=""height:400px;""></stim_listA>",are playing with each other,
null,"<div style=""font-size:60px;"">+</div>",,html-keyboard-response,111,466149,0.0-13.0-0.10,56272,List1A,black,man,,,,null,,,,
null,"<img src=""stim_listA/touch3.gif""style=""height:400px;""></stim_listA>",,html-keyboard-response,112,468156,0.0-13.0-1.10,56272,List1A,black,man,,,,null,,,,
null,is touching,,html-keyboard-response,113,470166,0.0-13.0-2.10,56272,List1A,black,man,,,,null,,,,
13523,,,survey-text,114,483693,0.0-13.0-3.10,56272,List1A,black,man,,,,,"{""Q0"":""Dave and Jane are touching.""}","<img src=""stim_listA/touch3.gif""style=""height:400px;""></stim_listA>",is touching,
null,"<div style=""font-size:60px;"">+</div>",,html-keyboard-response,115,484196,0.0-13.0-0.11,56272,List1A,black,man,,,,null,,,,
null,"<img src=""stim_listA/flirt1.gif""style=""height:400px;""></stim_listA>",,html-keyboard-response,116,486204,0.0-13.0-1.11,56272,List1A,black,man,,,,null,,,,
null,is flirting with,,html-keyboard-response,117,488218,0.0-13.0-2.11,56272,List1A,black,man,,,,null,,,,
12411,,,survey-text,118,500634,0.0-13.0-3.11,56272,List1A,black,man,,,,,"{""Q0"":""Kate is flirting with Fred.""}","<img src=""stim_listA/flirt1.gif""style=""height:400px;""></stim_listA>",is flirting with,
null,"<div style=""font-size:60px;"">+</div>",,html-keyboard-response,119,501138,0.0-13.0-0.12,56272,List1A,black,man,,,,null,,,,
null,"<img src=""stim_listA/kiss5.gif""style=""height:400px;""></stim_listA>",,html-keyboard-response,120,503144,0.0-13.0-1.12,56272,List1A,black,man,,,,null,,,,
null,is kissing,,html-keyboard-response,121,505148,0.0-13.0-2.12,56272,List1A,black,man,,,,null,,,,
10935,,,survey-text,122,516089,0.0-13.0-3.12,56272,List1A,black,man,,,,,"{""Q0"":""Luke and Fred are kissing.""}","<img src=""stim_listA/kiss5.gif""style=""height:400px;""></stim_listA>",is kissing,
null,"<div style=""font-size:60px;"">+</div>",,html-keyboard-response,123,516594,0.0-13.0-0.13,56272,List1A,black,man,,,,null,,,,
null,"<img src=""stim_listA/argue8.gif""style=""height:400px;""></stim_listA>",,html-keyboard-response,124,518600,0.0-13.0-1.13,56272,List1A,black,man,,,,null,,,,
null,are arguing with each other,,html-keyboard-response,125,520606,0.0-13.0-2.13,56272,List1A,black,man,,,,null,,,,
12828,,,survey-text,126,533453,0.0-13.0-3.13,56272,List1A,black,man,,,,,"{""Q0"":""Jane and Beth are arguing.""}","<img src=""stim_listA/argue8.gif""style=""height:400px;""></stim_listA>",are arguing with each other,
null,"<div style=""font-size:60px;"">+</div>",,html-keyboard-response,127,533958,0.0-13.0-0.14,56272,List1A,black,man,,,,null,,,,
null,"<img src=""stim_listA/play3.gif""style=""height:400px;""></stim_listA>",,html-keyboard-response,128,535964,0.0-13.0-1.14,56272,List1A,black,man,,,,null,,,,
null,is playing with,,html-keyboard-response,129,537970,0.0-13.0-2.14,56272,List1A,black,man,,,,null,,,,
12640,,,survey-text,130,550615,0.0-13.0-3.14,56272,List1A,black,man,,,,,"{""Q0"":""Dave and Jane are playing.""}","<img src=""stim_listA/play3.gif""style=""height:400px;""></stim_listA>",is playing with,
null,"<div style=""font-size:60px;"">+</div>",,html-keyboard-response,131,551118,0.0-13.0-0.15,56272,List1A,black,man,,,,null,,,,
null,"<img src=""stim_listA/kiss7.gif""style=""height:400px;""></stim_listA>",,html-keyboard-response,132,553126,0.0-13.0-1.15,56272,List1A,black,man,,,,null,,,,
null,is kissing,,html-keyboard-response,133,555131,0.0-13.0-2.15,56272,List1A,black,man,,,,null,,,,
10598,,,survey-text,134,565733,0.0-13.0-3.15,56272,List1A,black,man,,,,,"{""Q0"":""Ruth and Beth are kissing.""}","<img src=""stim_listA/kiss7.gif""style=""height:400px;""></stim_listA>",is kissing,
null,"<div style=""font-size:60px;"">+</div>",,html-keyboard-response,135,566237,0.0-13.0-0.16,56272,List1A,black,man,,,,null,,,,
null,"<img src=""stim_listA/talk7.gif""style=""height:400px;""></stim_listA>",,html-keyboard-response,136,568243,0.0-13.0-1.16,56272,List1A,black,man,,,,null,,,,
null,is talking to,,html-keyboard-response,137,570245,0.0-13.0-2.16,56272,List1A,black,man,,,,null,,,,
15802,,,survey-text,138,586051,0.0-13.0-3.16,56272,List1A,black,man,,,,,"{""Q0"":""Beth is talking to Jane.""}","<img src=""stim_listA/talk7.gif""style=""height:400px;""></stim_listA>",is talking to,
null,"<div style=""font-size:60px;"">+</div>",,html-keyboard-response,139,586556,0.0-13.0-0.17,56272,List1A,black,man,,,,null,,,,
null,"<img src=""stim_listA/touch2.gif""style=""height:400px;""></stim_listA>",,html-keyboard-response,140,588566,0.0-13.0-1.17,56272,List1A,black,man,,,,null,,,,
null,are touching each other,,html-keyboard-response,141,590577,0.0-13.0-2.17,56272,List1A,black,man,,,,null,,,,
14896,,,survey-text,142,605480,0.0-13.0-3.17,56272,List1A,black,man,,,,,"{""Q0"":""Beth and Fred are touching each other.""}","<img src=""stim_listA/touch2.gif""style=""height:400px;""></stim_listA>",are touching each other,
null,"<div style=""font-size:60px;"">+</div>",,html-keyboard-response,143,605985,0.0-13.0-0.18,56272,List1A,black,man,,,,null,,,,
null,"<img src=""stim_listA/fight2.gif""style=""height:400px;""></stim_listA>",,html-keyboard-response,144,607995,0.0-13.0-1.18,56272,List1A,black,man,,,,null,,,,
null,are fighting each other,,html-keyboard-response,145,610007,0.0-13.0-2.18,56272,List1A,black,man,,,,null,,,,
12229,,,survey-text,146,622240,0.0-13.0-3.18,56272,List1A,black,man,,,,,"{""Q0"":""Beth and Fred are fighting.""}","<img src=""stim_listA/fight2.gif""style=""height:400px;""></stim_listA>",are fighting each other,
null,"<div style=""font-size:60px;"">+</div>",,html-keyboard-response,147,622743,0.0-13.0-0.19,56272,List1A,black,man,,,,null,,,,
null,"<img src=""stim_listA/talk4.gif""style=""height:400px;""></stim_listA>",,html-keyboard-response,148,624759,0.0-13.0-1.19,56272,List1A,black,man,,,,null,,,,
null,are talking to each other,,html-keyboard-response,149,626764,0.0-13.0-2.19,56272,List1A,black,man,,,,null,,,,
12242,,,survey-text,150,639010,0.0-13.0-3.19,56272,List1A,black,man,,,,,"{""Q0"":""Ruth and Dave are talking.""}","<img src=""stim_listA/talk4.gif""style=""height:400px;""></stim_listA>",are talking to each other,
14464,"<img src='img/portrait_matrix_list1.jpg' style='width:900px;height:500px;''></img><p>If you have memorised all the portraits and names and are ready to start, press Continue.</p><p><strong>Please note: Your memory of these faces will be tested 4 times during this experiment.</strong></p>",0,html-button-response,151,653482,0.0-14.0-0.0,56272,List1A,black,man,,,,,,,,
3896,"<img src=""portrait/BM2.jpg""style=""height:400px;""></img>",5,html-button-response,152,658392,0.0-14.0-1.0,56272,List1A,black,man,,TRUE,5,,,,,
null,CORRECT,,html-keyboard-response,153,659903,0.0-14.0-2.0-0.0,56272,List1A,black,man,,,,null,,,,
2430,"<img src=""portrait/BM1.jpg""style=""height:400px;""></img>",4,html-button-response,154,662343,0.0-14.0-4.0,56272,List1A,black,man,,TRUE,4,,,,,
null,CORRECT,,html-keyboard-response,155,663847,0.0-14.0-5.0-0.0,56272,List1A,black,man,,,,null,,,,
2051,"<img src=""portrait/WW1.jpg""style=""height:400px;""></img>",1,html-button-response,156,665906,0.0-14.0-7.0,56272,List1A,black,man,,TRUE,1,,,,,
null,CORRECT,,html-keyboard-response,157,667410,0.0-14.0-8.0-0.0,56272,List1A,black,man,,,,null,,,,
2452,"<img src=""portrait/WM1.jpg""style=""height:400px;""></img>",6,html-button-response,158,669872,0.0-14.0-10.0,56272,List1A,black,man,,TRUE,6,,,,,
null,CORRECT,,html-keyboard-response,159,671377,0.0-14.0-11.0-0.0,56272,List1A,black,man,,,,null,,,,
2016,"<img src=""portrait/WM2.jpg""style=""height:400px;""></img>",7,html-button-response,160,673400,0.0-14.0-13.0,56272,List1A,black,man,,TRUE,7,,,,,
null,CORRECT,,html-keyboard-response,161,674904,0.0-14.0-14.0-0.0,56272,List1A,black,man,,,,null,,,,
1721,"<img src=""portrait/BW2.jpg""style=""height:400px;""></img>",2,html-button-response,162,676633,0.0-14.0-16.0,56272,List1A,black,man,,TRUE,2,,,,,
null,CORRECT,,html-keyboard-response,163,678138,0.0-14.0-17.0-0.0,56272,List1A,black,man,,,,null,,,,
2049,"<img src=""portrait/BW1.jpg""style=""height:400px;""></img>",0,html-button-response,164,680194,0.0-14.0-19.0,56272,List1A,black,man,,TRUE,0,,,,,
null,CORRECT,,html-keyboard-response,165,681699,0.0-14.0-20.0-0.0,56272,List1A,black,man,,,,null,,,,
3114,"<img src=""portrait/WW2.jpg""style=""height:400px;""></img>",3,html-button-response,166,684820,0.0-14.0-22.0,56272,List1A,black,man,,TRUE,3,,,,,
null,CORRECT,,html-keyboard-response,167,686325,0.0-14.0-23.0-0.0,56272,List1A,black,man,,,,null,,,,
1725,<p>You got 8 out of 8 right first time. Press Continue.</p>,0,html-button-response,168,688057,0.0-14.0-25.0,56272,List1A,black,man,,,,,,,,
null,"<div style=""font-size:60px;"">+</div>",,html-keyboard-response,169,689563,0.0-15.0-0.0,56272,List1A,black,man,,,,null,,,,
null,"<img src=""stim_listA/kiss2.gif""style=""height:400px;""></stim_listA>",,html-keyboard-response,170,691568,0.0-15.0-1.0,56272,List1A,black,man,,,,null,,,,
null,are kissing each other,,html-keyboard-response,171,693571,0.0-15.0-2.0,56272,List1A,black,man,,,,null,,,,
10174,,,survey-text,172,703751,0.0-15.0-3.0,56272,List1A,black,man,,,,,"{""Q0"":""Mike and Kate are kissing.""}","<img src=""stim_listA/kiss2.gif""style=""height:400px;""></stim_listA>",are kissing each other,
null,"<div style=""font-size:60px;"">+</div>",,html-keyboard-response,173,704255,0.0-15.0-0.1,56272,List1A,black,man,,,,null,,,,
null,"<img src=""stim_listA/kiss1.gif""style=""height:400px;""></stim_listA>",,html-keyboard-response,174,706262,0.0-15.0-1.1,56272,List1A,black,man,,,,null,,,,
null,is kissing,,html-keyboard-response,175,708266,0.0-15.0-2.1,56272,List1A,black,man,,,,null,,,,
12353,,,survey-text,176,720632,0.0-15.0-3.1,56272,List1A,black,man,,,,,"{""Q0"":""Fred and Beth are kissing.""}","<img src=""stim_listA/kiss1.gif""style=""height:400px;""></stim_listA>",is kissing,
null,"<div style=""font-size:60px;"">+</div>",,html-keyboard-response,177,721137,0.0-15.0-0.2,56272,List1A,black,man,,,,null,,,,
null,"<img src=""stim_listA/flirt3.gif""style=""height:400px;""></stim_listA>",,html-keyboard-response,178,723144,0.0-15.0-1.2,56272,List1A,black,man,,,,null,,,,
null,is flirting with,,html-keyboard-response,179,725147,0.0-15.0-2.2,56272,List1A,black,man,,,,null,,,,
13783,,,survey-text,180,738944,0.0-15.0-3.2,56272,List1A,black,man,,,,,"{""Q0"":""Luke and Jane are flirting.""}","<img src=""stim_listA/flirt3.gif""style=""height:400px;""></stim_listA>",is flirting with,
null,"<div style=""font-size:60px;"">+</div>",,html-keyboard-response,181,739447,0.0-15.0-0.3,56272,List1A,black,man,,,,null,,,,
null,"<img src=""stim_listA/argue2.gif""style=""height:400px;""></stim_listA>",,html-keyboard-response,182,741466,0.0-15.0-1.3,56272,List1A,black,man,,,,null,,,,
null,are arguing with each other,,html-keyboard-response,183,743478,0.0-15.0-2.3,56272,List1A,black,man,,,,null,,,,
12379,,,survey-text,184,755862,0.0-15.0-3.3,56272,List1A,black,man,,,,,"{""Q0"":""Kate and Fred are arguing.""}","<img src=""stim_listA/argue2.gif""style=""height:400px;""></stim_listA>",are arguing with each other,
null,"<div style=""font-size:60px;"">+</div>",,html-keyboard-response,185,756366,0.0-15.0-0.4,56272,List1A,black,man,,,,null,,,,
null,"<img src=""stim_listA/dance7.gif""style=""height:400px;""></stim_listA>",,html-keyboard-response,186,758374,0.0-15.0-1.4,56272,List1A,black,man,,,,null,,,,
null,is dancing with,,html-keyboard-response,187,760377,0.0-15.0-2.4,56272,List1A,black,man,,,,null,,,,
11783,,,survey-text,188,772166,0.0-15.0-3.4,56272,List1A,black,man,,,,,"{""Q0"":""Jane and Beth are dancing.""}","<img src=""stim_listA/dance7.gif""style=""height:400px;""></stim_listA>",is dancing with,
null,"<div style=""font-size:60px;"">+</div>",,html-keyboard-response,189,772669,0.0-15.0-0.5,56272,List1A,black,man,,,,null,,,,
null,"<img src=""stim_listA/shout4.gif""style=""height:400px;""></stim_listA>",,html-keyboard-response,190,774679,0.0-15.0-1.5,56272,List1A,black,man,,,,null,,,,
null,are shouting at each other,,html-keyboard-response,191,776683,0.0-15.0-2.5,56272,List1A,black,man,,,,null,,,,
13162,,,survey-text,192,789865,0.0-15.0-3.5,56272,List1A,black,man,,,,,"{""Q0"":""Dave and Jane are shouting.""}","<img src=""stim_listA/shout4.gif""style=""height:400px;""></stim_listA>",are shouting at each other,
null,"<div style=""font-size:60px;"">+</div>",,html-keyboard-response,193,790370,0.0-15.0-0.6,56272,List1A,black,man,,,,null,,,,
null,"<img src=""stim_listA/dance4.gif""style=""height:400px;""></stim_listA>",,html-keyboard-response,194,792376,0.0-15.0-1.6,56272,List1A,black,man,,,,null,,,,
null,are dancing with each other,,html-keyboard-response,195,794379,0.0-15.0-2.6,56272,List1A,black,man,,,,null,,,,
14065,,,survey-text,196,808466,0.0-15.0-3.6,56272,List1A,black,man,,,,,"{""Q0"":""Dave and Ruth are dancing.""}","<img src=""stim_listA/dance4.gif""style=""height:400px;""></stim_listA>",are dancing with each other,
null,"<div style=""font-size:60px;"">+</div>",,html-keyboard-response,197,808969,0.0-15.0-0.7,56272,List1A,black,man,,,,null,,,,
null,"<img src=""stim_listA/fight5.gif""style=""height:400px;""></stim_listA>",,html-keyboard-response,198,810976,0.0-15.0-1.7,56272,List1A,black,man,,,,null,,,,
null,is fighting,,html-keyboard-response,199,812980,0.0-15.0-2.7,56272,List1A,black,man,,,,null,,,,
11064,,,survey-text,200,824049,0.0-15.0-3.7,56272,List1A,black,man,,,,,"{""Q0"":""Dave and Mike are fighting.""}","<img src=""stim_listA/fight5.gif""style=""height:400px;""></stim_listA>",is fighting,
null,"<div style=""font-size:60px;"">+</div>",,html-keyboard-response,201,824554,0.0-15.0-0.8,56272,List1A,black,man,,,,null,,,,
null,"<img src=""stim_listA/play2.gif""style=""height:400px;""></stim_listA>",,html-keyboard-response,202,826560,0.0-15.0-1.8,56272,List1A,black,man,,,,null,,,,
null,are playing with each other,,html-keyboard-response,203,828564,0.0-15.0-2.8,56272,List1A,black,man,,,,null,,,,
9504,,,survey-text,204,838073,0.0-15.0-3.8,56272,List1A,black,man,,,,,"{""Q0"":""Beth and Fred are playing.""}","<img src=""stim_listA/play2.gif""style=""height:400px;""></stim_listA>",are playing with each other,
null,"<div style=""font-size:60px;"">+</div>",,html-keyboard-response,205,838577,0.0-15.0-0.9,56272,List1A,black,man,,,,null,,,,
null,"<img src=""stim_listA/marry4.gif""style=""height:400px;""></stim_listA>",,html-keyboard-response,206,840605,0.0-15.0-1.9,56272,List1A,black,man,,,,null,,,,
null,are marrying each other,,html-keyboard-response,207,842662,0.0-15.0-2.9,56272,List1A,black,man,,,,null,,,,
18330,,,survey-text,208,861002,0.0-15.0-3.9,56272,List1A,black,man,,,,,"{""Q0"":""Jane and luke are marrying each other.""}","<img src=""stim_listA/marry4.gif""style=""height:400px;""></stim_listA>",are marrying each other,
null,"<div style=""font-size:60px;"">+</div>",,html-keyboard-response,209,861505,0.0-15.0-0.10,56272,List1A,black,man,,,,null,,,,
null,"<img src=""stim_listA/kiss3.gif""style=""height:400px;""></stim_listA>",,html-keyboard-response,210,863512,0.0-15.0-1.10,56272,List1A,black,man,,,,null,,,,
null,is kissing,,html-keyboard-response,211,865526,0.0-15.0-2.10,56272,List1A,black,man,,,,null,,,,
10485,,,survey-text,212,876016,0.0-15.0-3.10,56272,List1A,black,man,,,,,"{""Q0"":""Luke and Ruth are kissing.""}","<img src=""stim_listA/kiss3.gif""style=""height:400px;""></stim_listA>",is kissing,
null,"<div style=""font-size:60px;"">+</div>",,html-keyboard-response,213,876519,0.0-15.0-0.11,56272,List1A,black,man,,,,null,,,,
null,"<img src=""stim_listA/shout8.gif""style=""height:400px;""></stim_listA>",,html-keyboard-response,214,878543,0.0-15.0-1.11,56272,List1A,black,man,,,,null,,,,
null,are shouting at each other,,html-keyboard-response,215,880546,0.0-15.0-2.11,56272,List1A,black,man,,,,null,,,,
14327,,,survey-text,216,894880,0.0-15.0-3.11,56272,List1A,black,man,,,,,"{""Q0"":""Jane and Kate are arguing.""}","<img src=""stim_listA/shout8.gif""style=""height:400px;""></stim_listA>",are shouting at each other,
null,"<div style=""font-size:60px;"">+</div>",,html-keyboard-response,217,895383,0.0-15.0-0.12,56272,List1A,black,man,,,,null,,,,
null,"<img src=""stim_listA/touch1.gif""style=""height:400px;""></stim_listA>",,html-keyboard-response,218,897400,0.0-15.0-1.12,56272,List1A,black,man,,,,null,,,,
null,is touching,,html-keyboard-response,219,899403,0.0-15.0-2.12,56272,List1A,black,man,,,,null,,,,
13174,,,survey-text,220,912591,0.0-15.0-3.12,56272,List1A,black,man,,,,,"{""Q0"":""Mike are kate are touching.""}","<img src=""stim_listA/touch1.gif""style=""height:400px;""></stim_listA>",is touching,
null,"<div style=""font-size:60px;"">+</div>",,html-keyboard-response,221,913095,0.0-15.0-0.13,56272,List1A,black,man,,,,null,,,,
null,"<img src=""stim_listA/shout2.gif""style=""height:400px;""></stim_listA>",,html-keyboard-response,222,915103,0.0-15.0-1.13,56272,List1A,black,man,,,,null,,,,
null,are shouting at each other,,html-keyboard-response,223,917106,0.0-15.0-2.13,56272,List1A,black,man,,,,null,,,,
14969,,,survey-text,224,932082,0.0-15.0-3.13,56272,List1A,black,man,,,,,"{""Q0"":""Kate and Mike are shouting.""}","<img src=""stim_listA/shout2.gif""style=""height:400px;""></stim_listA>",are shouting at each other,
null,"<div style=""font-size:60px;"">+</div>",,html-keyboard-response,225,932587,0.0-15.0-0.14,56272,List1A,black,man,,,,null,,,,
null,"<img src=""stim_listA/talk3.gif""style=""height:400px;""></stim_listA>",,html-keyboard-response,226,934593,0.0-15.0-1.14,56272,List1A,black,man,,,,null,,,,
null,is talking to,,html-keyboard-response,227,936605,0.0-15.0-2.14,56272,List1A,black,man,,,,null,,,,
12230,,,survey-text,228,948842,0.0-15.0-3.14,56272,List1A,black,man,,,,,"{""Q0"":""Jane and Luke are talking.""}","<img src=""stim_listA/talk3.gif""style=""height:400px;""></stim_listA>",is talking to,
null,"<div style=""font-size:60px;"">+</div>",,html-keyboard-response,229,949346,0.0-15.0-0.15,56272,List1A,black,man,,,,null,,,,
null,"<img src=""stim_listA/shout3.gif""style=""height:400px;""></stim_listA>",,html-keyboard-response,230,951357,0.0-15.0-1.15,56272,List1A,black,man,,,,null,,,,
null,is shouting at,,html-keyboard-response,231,953372,0.0-15.0-2.15,56272,List1A,black,man,,,,null,,,,
13577,,,survey-text,232,966952,0.0-15.0-3.15,56272,List1A,black,man,,,,,"{""Q0"":""Luke is shouting at Ruth.""}","<img src=""stim_listA/shout3.gif""style=""height:400px;""></stim_listA>",is shouting at,
null,"<div style=""font-size:60px;"">+</div>",,html-keyboard-response,233,967456,0.0-15.0-0.16,56272,List1A,black,man,,,,null,,,,
null,"<img src=""stim_listA/shout6.gif""style=""height:400px;""></stim_listA>",,html-keyboard-response,234,969462,0.0-15.0-1.16,56272,List1A,black,man,,,,null,,,,
null,are shouting at each other,,html-keyboard-response,235,971466,0.0-15.0-2.16,56272,List1A,black,man,,,,null,,,,
9039,,,survey-text,236,980518,0.0-15.0-3.16,56272,List1A,black,man,,,,,"{""Q0"":""Dave and Mike are shouting.""}","<img src=""stim_listA/shout6.gif""style=""height:400px;""></stim_listA>",are shouting at each other,
null,"<div style=""font-size:60px;"">+</div>",,html-keyboard-response,237,981022,0.0-15.0-0.17,56272,List1A,black,man,,,,null,,,,
null,"<img src=""stim_listA/argue4.gif""style=""height:400px;""></stim_listA>",,html-keyboard-response,238,983030,0.0-15.0-1.17,56272,List1A,black,man,,,,null,,,,
null,are arguing with each other,,html-keyboard-response,239,985034,0.0-15.0-2.17,56272,List1A,black,man,,,,null,,,,
12034,,,survey-text,240,997089,0.0-15.0-3.17,56272,List1A,black,man,,,,,"{""Q0"":""Jane and Luke are shouting.""}","<img src=""stim_listA/argue4.gif""style=""height:400px;""></stim_listA>",are arguing with each other,
null,"<div style=""font-size:60px;"">+</div>",,html-keyboard-response,241,997593,0.0-15.0-0.18,56272,List1A,black,man,,,,null,,,,
null,"<img src=""stim_listA/kiss4.gif""style=""height:400px;""></stim_listA>",,html-keyboard-response,242,999600,0.0-15.0-1.18,56272,List1A,black,man,,,,null,,,,
null,are kissing each other,,html-keyboard-response,243,1001604,0.0-15.0-2.18,56272,List1A,black,man,,,,null,,,,
10988,,,survey-text,244,1012596,0.0-15.0-3.18,56272,List1A,black,man,,,,,"{""Q0"":""Dave and Jane are kissing.""}","<img src=""stim_listA/kiss4.gif""style=""height:400px;""></stim_listA>",are kissing each other,
null,"<div style=""font-size:60px;"">+</div>",,html-keyboard-response,245,1013100,0.0-15.0-0.19,56272,List1A,black,man,,,,null,,,,
null,"<img src=""stim_listA/marry6.gif""style=""height:400px;""></stim_listA>",,html-keyboard-response,246,1015107,0.0-15.0-1.19,56272,List1A,black,man,,,,null,,,,
null,are marrying each other,,html-keyboard-response,247,1017111,0.0-15.0-2.19,56272,List1A,black,man,,,,null,,,,
13572,,,survey-text,248,1030689,0.0-15.0-3.19,56272,List1A,black,man,,,,,"{""Q0"":""Dave and Fred are marrying each other.""}","<img src=""stim_listA/marry6.gif""style=""height:400px;""></stim_listA>",are marrying each other,
11292,"<img src='img/portrait_matrix_list1.jpg' style='width:900px;height:500px;''></img><p>If you have memorised all the portraits and names and are ready to start, press Continue.</p><p><strong>Please note: Your memory of these faces will be tested 4 times during this experiment.</strong></p>",0,html-button-response,249,1042014,0.0-16.0-0.0,56272,List1A,black,man,,,,,,,,
3402,"<img src=""portrait/BM1.jpg""style=""height:400px;""></img>",4,html-button-response,250,1046424,0.0-16.0-1.0,56272,List1A,black,man,,TRUE,4,,,,,
null,CORRECT,,html-keyboard-response,251,1047936,0.0-16.0-2.0-0.0,56272,List1A,black,man,,,,null,,,,
3568,"<img src=""portrait/WW2.jpg""style=""height:400px;""></img>",3,html-button-response,252,1051513,0.0-16.0-4.0,56272,List1A,black,man,,TRUE,3,,,,,
null,CORRECT,,html-keyboard-response,253,1053019,0.0-16.0-5.0-0.0,56272,List1A,black,man,,,,null,,,,
1866,"<img src=""portrait/WM2.jpg""style=""height:400px;""></img>",7,html-button-response,254,1054896,0.0-16.0-7.0,56272,List1A,black,man,,TRUE,7,,,,,
null,CORRECT,,html-keyboard-response,255,1056402,0.0-16.0-8.0-0.0,56272,List1A,black,man,,,,null,,,,
2447,"<img src=""portrait/WM1.jpg""style=""height:400px;""></img>",6,html-button-response,256,1058856,0.0-16.0-10.0,56272,List1A,black,man,,TRUE,6,,,,,
null,CORRECT,,html-keyboard-response,257,1060362,0.0-16.0-11.0-0.0,56272,List1A,black,man,,,,null,,,,
1673,"<img src=""portrait/BW2.jpg""style=""height:400px;""></img>",2,html-button-response,258,1062044,0.0-16.0-13.0,56272,List1A,black,man,,TRUE,2,,,,,
null,CORRECT,,html-keyboard-response,259,1063550,0.0-16.0-14.0-0.0,56272,List1A,black,man,,,,null,,,,
3764,"<img src=""portrait/BM2.jpg""style=""height:400px;""></img>",5,html-button-response,260,1067321,0.0-16.0-16.0,56272,List1A,black,man,,TRUE,5,,,,,
null,CORRECT,,html-keyboard-response,261,1068825,0.0-16.0-17.0-0.0,56272,List1A,black,man,,,,null,,,,
1851,"<img src=""portrait/WW1.jpg""style=""height:400px;""></img>",1,html-button-response,262,1070683,0.0-16.0-19.0,56272,List1A,black,man,,TRUE,1,,,,,
null,CORRECT,,html-keyboard-response,263,1072187,0.0-16.0-20.0-0.0,56272,List1A,black,man,,,,null,,,,
1590,"<img src=""portrait/BW1.jpg""style=""height:400px;""></img>",0,html-button-response,264,1073784,0.0-16.0-22.0,56272,List1A,black,man,,TRUE,0,,,,,
null,CORRECT,,html-keyboard-response,265,1075289,0.0-16.0-23.0-0.0,56272,List1A,black,man,,,,null,,,,
1655,<p>You got 8 out of 8 right first time. Press Continue.</p>,0,html-button-response,266,1076953,0.0-16.0-25.0,56272,List1A,black,man,,,,,,,,
null,"<div style=""font-size:60px;"">+</div>",,html-keyboard-response,267,1078465,0.0-17.0-0.0,56272,List1A,black,man,,,,null,,,,
null,"<img src=""stim_listA/touch8.gif""style=""height:400px;""></stim_listA>",,html-keyboard-response,268,1080470,0.0-17.0-1.0,56272,List1A,black,man,,,,null,,,,
null,are touching each other,,html-keyboard-response,269,1082474,0.0-17.0-2.0,56272,List1A,black,man,,,,null,,,,
21322,,,survey-text,270,1103801,0.0-17.0-3.0,56272,List1A,black,man,,,,,"{""Q0"":""Ruth and Beth are touching.""}","<img src=""stim_listA/touch8.gif""style=""height:400px;""></stim_listA>",are touching each other,
null,"<div style=""font-size:60px;"">+</div>",,html-keyboard-response,271,1104305,0.0-17.0-0.1,56272,List1A,black,man,,,,null,,,,
null,"<img src=""stim_listA/talk6.gif""style=""height:400px;""></stim_listA>",,html-keyboard-response,272,1106312,0.0-17.0-1.1,56272,List1A,black,man,,,,null,,,,
null,are talking to each other,,html-keyboard-response,273,1108315,0.0-17.0-2.1,56272,List1A,black,man,,,,null,,,,
11793,,,survey-text,274,1120117,0.0-17.0-3.1,56272,List1A,black,man,,,,,"{""Q0"":""Luke and Mike are talking.""}","<img src=""stim_listA/talk6.gif""style=""height:400px;""></stim_listA>",are talking to each other,
null,"<div style=""font-size:60px;"">+</div>",,html-keyboard-response,275,1120622,0.0-17.0-0.2,56272,List1A,black,man,,,,null,,,,
null,"<img src=""stim_listA/kiss8.gif""style=""height:400px;""></stim_listA>",,html-keyboard-response,276,1122629,0.0-17.0-1.2,56272,List1A,black,man,,,,null,,,,
null,are kissing each other,,html-keyboard-response,277,1124633,0.0-17.0-2.2,56272,List1A,black,man,,,,null,,,,
9744,,,survey-text,278,1134382,0.0-17.0-3.2,56272,List1A,black,man,,,,,"{""Q0"":""Jane and Kate are kissing.""}","<img src=""stim_listA/kiss8.gif""style=""height:400px;""></stim_listA>",are kissing each other,
null,"<div style=""font-size:60px;"">+</div>",,html-keyboard-response,279,1134887,0.0-17.0-0.3,56272,List1A,black,man,,,,null,,,,
null,"<img src=""stim_listA/marry8.gif""style=""height:400px;""></stim_listA>",,html-keyboard-response,280,1136896,0.0-17.0-1.3,56272,List1A,black,man,,,,null,,,,
null,are marrying each other,,html-keyboard-response,281,1138902,0.0-17.0-2.3,56272,List1A,black,man,,,,null,,,,
14184,,,survey-text,282,1153090,0.0-17.0-3.3,56272,List1A,black,man,,,,,"{""Q0"":""Jane and Beth are marrying each other.""}","<img src=""stim_listA/marry8.gif""style=""height:400px;""></stim_listA>",are marrying each other,
null,"<div style=""font-size:60px;"">+</div>",,html-keyboard-response,283,1153594,0.0-17.0-0.4,56272,List1A,black,man,,,,null,,,,
null,"<img src=""stim_listA/dance8.gif""style=""height:400px;""></stim_listA>",,html-keyboard-response,284,1155603,0.0-17.0-1.4,56272,List1A,black,man,,,,null,,,,
null,are dancing with each other,,html-keyboard-response,285,1157615,0.0-17.0-2.4,56272,List1A,black,man,,,,null,,,,
11658,,,survey-text,286,1169278,0.0-17.0-3.4,56272,List1A,black,man,,,,,"{""Q0"":""Ruth and Kate are dancing.""}","<img src=""stim_listA/dance8.gif""style=""height:400px;""></stim_listA>",are dancing with each other,
null,"<div style=""font-size:60px;"">+</div>",,html-keyboard-response,287,1169782,0.0-17.0-0.5,56272,List1A,black,man,,,,null,,,,
null,"<img src=""stim_listA/flirt4.gif""style=""height:400px;""></stim_listA>",,html-keyboard-response,288,1171788,0.0-17.0-1.5,56272,List1A,black,man,,,,null,,,,
null,are flirting with each other,,html-keyboard-response,289,1173792,0.0-17.0-2.5,56272,List1A,black,man,,,,null,,,,
20164,,,survey-text,290,1193962,0.0-17.0-3.5,56272,List1A,black,man,,,,,"{""Q0"":""Ruth and Dave are flirting with each other.""}","<img src=""stim_listA/flirt4.gif""style=""height:400px;""></stim_listA>",are flirting with each other,
null,"<div style=""font-size:60px;"">+</div>",,html-keyboard-response,291,1194466,0.0-17.0-0.6,56272,List1A,black,man,,,,null,,,,
null,"<img src=""stim_listA/touch4.gif""style=""height:400px;""></stim_listA>",,html-keyboard-response,292,1196473,0.0-17.0-1.6,56272,List1A,black,man,,,,null,,,,
null,are touching each other,,html-keyboard-response,293,1198487,0.0-17.0-2.6,56272,List1A,black,man,,,,null,,,,
10964,,,survey-text,294,1209469,0.0-17.0-3.6,56272,List1A,black,man,,,,,"{""Q0"":""Luke and Ruth are touching.""}","<img src=""stim_listA/touch4.gif""style=""height:400px;""></stim_listA>",are touching each other,
null,"<div style=""font-size:60px;"">+</div>",,html-keyboard-response,295,1209974,0.0-17.0-0.7,56272,List1A,black,man,,,,null,,,,
null,"<img src=""stim_listA/fight1.gif""style=""height:400px;""></stim_listA>",,html-keyboard-response,296,1211980,0.0-17.0-1.7,56272,List1A,black,man,,,,null,,,,
null,is fighting,,html-keyboard-response,297,1213999,0.0-17.0-2.7,56272,List1A,black,man,,,,null,,,,
12537,,,survey-text,298,1226539,0.0-17.0-3.7,56272,List1A,black,man,,,,,"{""Q0"":""Mike and Kate are fighting.""}","<img src=""stim_listA/fight1.gif""style=""height:400px;""></stim_listA>",is fighting,
null,"<div style=""font-size:60px;"">+</div>",,html-keyboard-response,299,1227044,0.0-17.0-0.8,56272,List1A,black,man,,,,null,,,,
null,"<img src=""stim_listA/fight6.gif""style=""height:400px;""></stim_listA>",,html-keyboard-response,300,1229051,0.0-17.0-1.8,56272,List1A,black,man,,,,null,,,,
null,are fighting each other,,html-keyboard-response,301,1231055,0.0-17.0-2.8,56272,List1A,black,man,,,,null,,,,
13820,,,survey-text,302,1244881,0.0-17.0-3.8,56272,List1A,black,man,,,,,"{""Q0"":""Luke and Fred are fighting.""}","<img src=""stim_listA/fight6.gif""style=""height:400px;""></stim_listA>",are fighting each other,
null,"<div style=""font-size:60px;"">+</div>",,html-keyboard-response,303,1245385,0.0-17.0-0.9,56272,List1A,black,man,,,,null,,,,
null,"<img src=""stim_listA/talk8.gif""style=""height:400px;""></stim_listA>",,html-keyboard-response,304,1247392,0.0-17.0-1.9,56272,List1A,black,man,,,,null,,,,
null,are talking to each other,,html-keyboard-response,305,1249400,0.0-17.0-2.9,56272,List1A,black,man,,,,null,,,,
11508,,,survey-text,306,1260914,0.0-17.0-3.9,56272,List1A,black,man,,,,,"{""Q0"":""Ruth and Kate are talking.""}","<img src=""stim_listA/talk8.gif""style=""height:400px;""></stim_listA>",are talking to each other,
null,"<div style=""font-size:60px;"">+</div>",,html-keyboard-response,307,1261418,0.0-17.0-0.10,56272,List1A,black,man,,,,null,,,,
null,"<img src=""stim_listA/dance2.gif""style=""height:400px;""></stim_listA>",,html-keyboard-response,308,1263426,0.0-17.0-1.10,56272,List1A,black,man,,,,null,,,,
null,are dancing with each other,,html-keyboard-response,309,1265430,0.0-17.0-2.10,56272,List1A,black,man,,,,null,,,,
8658,,,survey-text,310,1274092,0.0-17.0-3.10,56272,List1A,black,man,,,,,"{""Q0"":""Fred and Beth are dancing.""}","<img src=""stim_listA/dance2.gif""style=""height:400px;""></stim_listA>",are dancing with each other,
null,"<div style=""font-size:60px;"">+</div>",,html-keyboard-response,311,1274596,0.0-17.0-0.11,56272,List1A,black,man,,,,null,,,,
null,"<img src=""stim_listA/touch5.gif""style=""height:400px;""></stim_listA>",,html-keyboard-response,312,1276603,0.0-17.0-1.11,56272,List1A,black,man,,,,null,,,,
null,is touching,,html-keyboard-response,313,1278609,0.0-17.0-2.11,56272,List1A,black,man,,,,null,,,,
11907,,,survey-text,314,1290520,0.0-17.0-3.11,56272,List1A,black,man,,,,,"{""Q0"":""Dave and Mike are touching.""}","<img src=""stim_listA/touch5.gif""style=""height:400px;""></stim_listA>",is touching,
null,"<div style=""font-size:60px;"">+</div>",,html-keyboard-response,315,1291024,0.0-17.0-0.12,56272,List1A,black,man,,,,null,,,,
null,"<img src=""stim_listA/argue5.gif""style=""height:400px;""></stim_listA>",,html-keyboard-response,316,1293031,0.0-17.0-1.12,56272,List1A,black,man,,,,null,,,,
null,is arguing with,,html-keyboard-response,317,1295035,0.0-17.0-2.12,56272,List1A,black,man,,,,null,,,,
12931,,,survey-text,318,1307970,0.0-17.0-3.12,56272,List1A,black,man,,,,,"{""Q0"":""Luke and Mike are arguing.""}","<img src=""stim_listA/argue5.gif""style=""height:400px;""></stim_listA>",is arguing with,
null,"<div style=""font-size:60px;"">+</div>",,html-keyboard-response,319,1308473,0.0-17.0-0.13,56272,List1A,black,man,,,,null,,,,
null,"<img src=""stim_listA/kiss6.gif""style=""height:400px;""></stim_listA>",,html-keyboard-response,320,1310481,0.0-17.0-1.13,56272,List1A,black,man,,,,null,,,,
null,are kissing each other,,html-keyboard-response,321,1312485,0.0-17.0-2.13,56272,List1A,black,man,,,,null,,,,
12668,,,survey-text,322,1325158,0.0-17.0-3.13,56272,List1A,black,man,,,,,"{""Q0"":""Dave and Mike are kissing.""}","<img src=""stim_listA/kiss6.gif""style=""height:400px;""></stim_listA>",are kissing each other,
null,"<div style=""font-size:60px;"">+</div>",,html-keyboard-response,323,1325661,0.0-17.0-0.14,56272,List1A,black,man,,,,null,,,,
null,"<img src=""stim_listA/talk1.gif""style=""height:400px;""></stim_listA>",,html-keyboard-response,324,1327665,0.0-17.0-1.14,56272,List1A,black,man,,,,null,,,,
null,is talking to,,html-keyboard-response,325,1329669,0.0-17.0-2.14,56272,List1A,black,man,,,,null,,,,
12441,,,survey-text,326,1342114,0.0-17.0-3.14,56272,List1A,black,man,,,,,"{""Q0"":""Fred is talking to Kate.""}","<img src=""stim_listA/talk1.gif""style=""height:400px;""></stim_listA>",is talking to,
null,"<div style=""font-size:60px;"">+</div>",,html-keyboard-response,327,1342620,0.0-17.0-0.15,56272,List1A,black,man,,,,null,,,,
null,"<img src=""stim_listA/marry3.gif""style=""height:400px;""></stim_listA>",,html-keyboard-response,328,1344629,0.0-17.0-1.15,56272,List1A,black,man,,,,null,,,,
null,is marrying,,html-keyboard-response,329,1346652,0.0-17.0-2.15,56272,List1A,black,man,,,,null,,,,
11602,,,survey-text,330,1358259,0.0-17.0-3.15,56272,List1A,black,man,,,,,"{""Q0"":""Dave is marrying Ruth.""}","<img src=""stim_listA/marry3.gif""style=""height:400px;""></stim_listA>",is marrying,
null,"<div style=""font-size:60px;"">+</div>",,html-keyboard-response,331,1358762,0.0-17.0-0.16,56272,List1A,black,man,,,,null,,,,
null,"<img src=""stim_listA/touch7.gif""style=""height:400px;""></stim_listA>",,html-keyboard-response,332,1360769,0.0-17.0-1.16,56272,List1A,black,man,,,,null,,,,
null,is touching,,html-keyboard-response,333,1362774,0.0-17.0-2.16,56272,List1A,black,man,,,,null,,,,
14040,,,survey-text,334,1376822,0.0-17.0-3.16,56272,List1A,black,man,,,,,"{""Q0"":""Kate and Jane are touching.""}","<img src=""stim_listA/touch7.gif""style=""height:400px;""></stim_listA>",is touching,
null,"<div style=""font-size:60px;"">+</div>",,html-keyboard-response,335,1377326,0.0-17.0-0.17,56272,List1A,black,man,,,,null,,,,
null,"<img src=""stim_listA/flirt5.gif""style=""height:400px;""></stim_listA>",,html-keyboard-response,336,1379333,0.0-17.0-1.17,56272,List1A,black,man,,,,null,,,,
null,is flirting with,,html-keyboard-response,337,1381336,0.0-17.0-2.17,56272,List1A,black,man,,,,null,,,,
11784,,,survey-text,338,1393126,0.0-17.0-3.17,56272,List1A,black,man,,,,,"{""Q0"":""Fred is flirting with Dave.""}","<img src=""stim_listA/flirt5.gif""style=""height:400px;""></stim_listA>",is flirting with,
null,"<div style=""font-size:60px;"">+</div>",,html-keyboard-response,339,1393629,0.0-17.0-0.18,56272,List1A,black,man,,,,null,,,,
null,"<img src=""stim_listA/play8.gif""style=""height:400px;""></stim_listA>",,html-keyboard-response,340,1395638,0.0-17.0-1.18,56272,List1A,black,man,,,,null,,,,
null,are playing with each other,,html-keyboard-response,341,1397644,0.0-17.0-2.18,56272,List1A,black,man,,,,null,,,,
17881,,,survey-text,342,1415545,0.0-17.0-3.18,56272,List1A,black,man,,,,,"{""Q0"":""Ruth and Beth are playing with each other.""}","<img src=""stim_listA/play8.gif""style=""height:400px;""></stim_listA>",are playing with each other,
null,"<div style=""font-size:60px;"">+</div>",,html-keyboard-response,343,1416048,0.0-17.0-0.19,56272,List1A,black,man,,,,null,,,,
null,"<img src=""stim_listA/fight3.gif""style=""height:400px;""></stim_listA>",,html-keyboard-response,344,1418055,0.0-17.0-1.19,56272,List1A,black,man,,,,null,,,,
null,is fighting,,html-keyboard-response,345,1420058,0.0-17.0-2.19,56272,List1A,black,man,,,,null,,,,
15173,,,survey-text,346,1435235,0.0-17.0-3.19,56272,List1A,black,man,,,,,"{""Q0"":""Dave and Jane are fighting.""}","<img src=""stim_listA/fight3.gif""style=""height:400px;""></stim_listA>",is fighting,
17487,"<img src='img/portrait_matrix_list1.jpg' style='width:900px;height:500px;''></img><p>If you have memorised all the portraits and names and are ready to start, press Continue.</p><p><strong>Please note: Your memory of these faces will be tested 4 times during this experiment.</strong></p>",0,html-button-response,347,1452764,0.0-18.0-0.0,56272,List1A,black,man,,,,,,,,
1910,"<img src=""portrait/WM2.jpg""style=""height:400px;""></img>",7,html-button-response,348,1455683,0.0-18.0-1.0,56272,List1A,black,man,,TRUE,7,,,,,
null,CORRECT,,html-keyboard-response,349,1457203,0.0-18.0-2.0-0.0,56272,List1A,black,man,,,,null,,,,
2225,"<img src=""portrait/WW2.jpg""style=""height:400px;""></img>",3,html-button-response,350,1459438,0.0-18.0-4.0,56272,List1A,black,man,,TRUE,3,,,,,
null,CORRECT,,html-keyboard-response,351,1460943,0.0-18.0-5.0-0.0,56272,List1A,black,man,,,,null,,,,
1844,"<img src=""portrait/BM1.jpg""style=""height:400px;""></img>",4,html-button-response,352,1462795,0.0-18.0-7.0,56272,List1A,black,man,,TRUE,4,,,,,
null,CORRECT,,html-keyboard-response,353,1464301,0.0-18.0-8.0-0.0,56272,List1A,black,man,,,,null,,,,
1576,"<img src=""portrait/BW2.jpg""style=""height:400px;""></img>",2,html-button-response,354,1465885,0.0-18.0-10.0,56272,List1A,black,man,,TRUE,2,,,,,
null,CORRECT,,html-keyboard-response,355,1467390,0.0-18.0-11.0-0.0,56272,List1A,black,man,,,,null,,,,
1788,"<img src=""portrait/BW1.jpg""style=""height:400px;""></img>",0,html-button-response,356,1469187,0.0-18.0-13.0,56272,List1A,black,man,,TRUE,0,,,,,
null,CORRECT,,html-keyboard-response,357,1470693,0.0-18.0-14.0-0.0,56272,List1A,black,man,,,,null,,,,
1576,"<img src=""portrait/WM1.jpg""style=""height:400px;""></img>",6,html-button-response,358,1472277,0.0-18.0-16.0,56272,List1A,black,man,,TRUE,6,,,,,
null,CORRECT,,html-keyboard-response,359,1473782,0.0-18.0-17.0-0.0,56272,List1A,black,man,,,,null,,,,
2412,"<img src=""portrait/BM2.jpg""style=""height:400px;""></img>",5,html-button-response,360,1476202,0.0-18.0-19.0,56272,List1A,black,man,,TRUE,5,,,,,
null,CORRECT,,html-keyboard-response,361,1477709,0.0-18.0-20.0-0.0,56272,List1A,black,man,,,,null,,,,
2009,"<img src=""portrait/WW1.jpg""style=""height:400px;""></img>",1,html-button-response,362,1479727,0.0-18.0-22.0,56272,List1A,black,man,,TRUE,1,,,,,
null,CORRECT,,html-keyboard-response,363,1481231,0.0-18.0-23.0-0.0,56272,List1A,black,man,,,,null,,,,
2245,<p>You got 8 out of 8 right first time. Press Continue.</p>,0,html-button-response,364,1483486,0.0-18.0-25.0,56272,List1A,black,man,,,,,,,,
null,"<div style=""font-size:60px;"">+</div>",,html-keyboard-response,365,1485000,0.0-19.0-0.0,56272,List1A,black,man,,,,null,,,,
null,"<img src=""stim_listA/flirt6.gif""style=""height:400px;""></stim_listA>",,html-keyboard-response,366,1487005,0.0-19.0-1.0,56272,List1A,black,man,,,,null,,,,
null,are flirting with each other,,html-keyboard-response,367,1489010,0.0-19.0-2.0,56272,List1A,black,man,,,,null,,,,
15676,,,survey-text,368,1504691,0.0-19.0-3.0,56272,List1A,black,man,,,,,"{""Q0"":""Luke and Mike are flirting.""}","<img src=""stim_listA/flirt6.gif""style=""height:400px;""></stim_listA>",are flirting with each other,
null,"<div style=""font-size:60px;"">+</div>",,html-keyboard-response,369,1505208,0.0-19.0-0.1,56272,List1A,black,man,,,,null,,,,
null,"<img src=""stim_listA/talk2.gif""style=""height:400px;""></stim_listA>",,html-keyboard-response,370,1507222,0.0-19.0-1.1,56272,List1A,black,man,,,,null,,,,
null,are talking to each other,,html-keyboard-response,371,1509226,0.0-19.0-2.1,56272,List1A,black,man,,,,null,,,,
11773,,,survey-text,372,1521004,0.0-19.0-3.1,56272,List1A,black,man,,,,,"{""Q0"":""Beth and Mike are talking.""}","<img src=""stim_listA/talk2.gif""style=""height:400px;""></stim_listA>",are talking to each other,
null,"<div style=""font-size:60px;"">+</div>",,html-keyboard-response,373,1521508,0.0-19.0-0.2,56272,List1A,black,man,,,,null,,,,
null,"<img src=""stim_listA/marry7.gif""style=""height:400px;""></stim_listA>",,html-keyboard-response,374,1523521,0.0-19.0-1.2,56272,List1A,black,man,,,,null,,,,
null,is marrying,,html-keyboard-response,375,1525526,0.0-19.0-2.2,56272,List1A,black,man,,,,null,,,,
12534,,,survey-text,376,1538065,0.0-19.0-3.2,56272,List1A,black,man,,,,,"{""Q0"":""Ruth and Kate are marrying.""}","<img src=""stim_listA/marry7.gif""style=""height:400px;""></stim_listA>",is marrying,
null,"<div style=""font-size:60px;"">+</div>",,html-keyboard-response,377,1538569,0.0-19.0-0.3,56272,List1A,black,man,,,,null,,,,
null,"<img src=""stim_listA/marry2.gif""style=""height:400px;""></stim_listA>",,html-keyboard-response,378,1540576,0.0-19.0-1.3,56272,List1A,black,man,,,,null,,,,
null,are marrying each other,,html-keyboard-response,379,1542585,0.0-19.0-2.3,56272,List1A,black,man,,,,null,,,,
10329,,,survey-text,380,1552920,0.0-19.0-3.3,56272,List1A,black,man,,,,,"{""Q0"":""Kate and Fred are marrying each other.""}","<img src=""stim_listA/marry2.gif""style=""height:400px;""></stim_listA>",are marrying each other,
null,"<div style=""font-size:60px;"">+</div>",,html-keyboard-response,381,1553425,0.0-19.0-0.4,56272,List1A,black,man,,,,null,,,,
null,"<img src=""stim_listA/talk5.gif""style=""height:400px;""></stim_listA>",,html-keyboard-response,382,1555432,0.0-19.0-1.4,56272,List1A,black,man,,,,null,,,,
null,is talking to,,html-keyboard-response,383,1557436,0.0-19.0-2.4,56272,List1A,black,man,,,,null,,,,
14025,,,survey-text,384,1571466,0.0-19.0-3.4,56272,List1A,black,man,,,,,"{""Q0"":""Fred is talking to Dave.""}","<img src=""stim_listA/talk5.gif""style=""height:400px;""></stim_listA>",is talking to,
null,"<div style=""font-size:60px;"">+</div>",,html-keyboard-response,385,1571969,0.0-19.0-0.5,56272,List1A,black,man,,,,null,,,,
null,"<img src=""stim_listA/fight8.gif""style=""height:400px;""></stim_listA>",,html-keyboard-response,386,1573976,0.0-19.0-1.5,56272,List1A,black,man,,,,null,,,,
null,are fighting each other,,html-keyboard-response,387,1575980,0.0-19.0-2.5,56272,List1A,black,man,,,,null,,,,
11464,,,survey-text,388,1587449,0.0-19.0-3.5,56272,List1A,black,man,,,,,"{""Q0"":""Ruth and Beth are fighting.""}","<img src=""stim_listA/fight8.gif""style=""height:400px;""></stim_listA>",are fighting each other,
null,"<div style=""font-size:60px;"">+</div>",,html-keyboard-response,389,1587953,0.0-19.0-0.6,56272,List1A,black,man,,,,null,,,,
null,"<img src=""stim_listA/play7.gif""style=""height:400px;""></stim_listA>",,html-keyboard-response,390,1589962,0.0-19.0-1.6,56272,List1A,black,man,,,,null,,,,
null,is playing with,,html-keyboard-response,391,1591965,0.0-19.0-2.6,56272,List1A,black,man,,,,null,,,,
13077,,,survey-text,392,1605049,0.0-19.0-3.6,56272,List1A,black,man,,,,,"{""Q0"":""Kate is playing with Jane.""}","<img src=""stim_listA/play7.gif""style=""height:400px;""></stim_listA>",is playing with,
null,"<div style=""font-size:60px;"">+</div>",,html-keyboard-response,393,1605552,0.0-19.0-0.7,56272,List1A,black,man,,,,null,,,,
null,"<img src=""stim_listA/play6.gif""style=""height:400px;""></stim_listA>",,html-keyboard-response,394,1607560,0.0-19.0-1.7,56272,List1A,black,man,,,,null,,,,
null,are playing with each other,,html-keyboard-response,395,1609565,0.0-19.0-2.7,56272,List1A,black,man,,,,null,,,,
11378,,,survey-text,396,1620952,0.0-19.0-3.7,56272,List1A,black,man,,,,,"{""Q0"":""Luke and Fred are playing.""}","<img src=""stim_listA/play6.gif""style=""height:400px;""></stim_listA>",are playing with each other,
null,"<div style=""font-size:60px;"">+</div>",,html-keyboard-response,397,1621457,0.0-19.0-0.8,56272,List1A,black,man,,,,null,,,,
null,"<img src=""stim_listA/dance5.gif""style=""height:400px;""></stim_listA>",,html-keyboard-response,398,1623463,0.0-19.0-1.8,56272,List1A,black,man,,,,null,,,,
null,is dancing with,,html-keyboard-response,399,1625466,0.0-19.0-2.8,56272,List1A,black,man,,,,null,,,,
15159,,,survey-text,400,1640629,0.0-19.0-3.8,56272,List1A,black,man,,,,,"{""Q0"":""Dave and Fred are dancing.""}","<img src=""stim_listA/dance5.gif""style=""height:400px;""></stim_listA>",is dancing with,
null,"<div style=""font-size:60px;"">+</div>",,html-keyboard-response,401,1641142,0.0-19.0-0.9,56272,List1A,black,man,,,,null,,,,
null,"<img src=""stim_listA/shout7.gif""style=""height:400px;""></stim_listA>",,html-keyboard-response,402,1643149,0.0-19.0-1.9,56272,List1A,black,man,,,,null,,,,
null,is shouting at,,html-keyboard-response,403,1645154,0.0-19.0-2.9,56272,List1A,black,man,,,,null,,,,
9582,,,survey-text,404,1654740,0.0-19.0-3.9,56272,List1A,black,man,,,,,"{""Q0"":""Beth is shouting at Ruth.""}","<img src=""stim_listA/shout7.gif""style=""height:400px;""></stim_listA>",is shouting at,
null,"<div style=""font-size:60px;"">+</div>",,html-keyboard-response,405,1655244,0.0-19.0-0.10,56272,List1A,black,man,,,,null,,,,
null,"<img src=""stim_listA/flirt7.gif""style=""height:400px;""></stim_listA>",,html-keyboard-response,406,1657250,0.0-19.0-1.10,56272,List1A,black,man,,,,null,,,,
null,is flirting with,,html-keyboard-response,407,1659255,0.0-19.0-2.10,56272,List1A,black,man,,,,null,,,,
14455,,,survey-text,408,1673717,0.0-19.0-3.10,56272,List1A,black,man,,,,,"{""Q0"":""Beth is flirting with Jane.""}","<img src=""stim_listA/flirt7.gif""style=""height:400px;""></stim_listA>",is flirting with,
null,"<div style=""font-size:60px;"">+</div>",,html-keyboard-response,409,1674222,0.0-19.0-0.11,56272,List1A,black,man,,,,null,,,,
null,"<img src=""stim_listA/marry1.gif""style=""height:400px;""></stim_listA>",,html-keyboard-response,410,1676227,0.0-19.0-1.11,56272,List1A,black,man,,,,null,,,,
null,is marrying,,html-keyboard-response,411,1678231,0.0-19.0-2.11,56272,List1A,black,man,,,,null,,,,
10008,,,survey-text,412,1688252,0.0-19.0-3.11,56272,List1A,black,man,,,,,"{""Q0"":""Beth is marrying Mike.""}","<img src=""stim_listA/marry1.gif""style=""height:400px;""></stim_listA>",is marrying,
null,"<div style=""font-size:60px;"">+</div>",,html-keyboard-response,413,1688756,0.0-19.0-0.12,56272,List1A,black,man,,,,null,,,,
null,"<img src=""stim_listA/shout5.gif""style=""height:400px;""></stim_listA>",,html-keyboard-response,414,1690763,0.0-19.0-1.12,56272,List1A,black,man,,,,null,,,,
null,is shouting at,,html-keyboard-response,415,1692768,0.0-19.0-2.12,56272,List1A,black,man,,,,null,,,,
9449,,,survey-text,416,1702222,0.0-19.0-3.12,56272,List1A,black,man,,,,,"{""Q0"":""Luke is shouting at Fred.""}","<img src=""stim_listA/shout5.gif""style=""height:400px;""></stim_listA>",is shouting at,
null,"<div style=""font-size:60px;"">+</div>",,html-keyboard-response,417,1702735,0.0-19.0-0.13,56272,List1A,black,man,,,,null,,,,
null,"<img src=""stim_listA/dance6.gif""style=""height:400px;""></stim_listA>",,html-keyboard-response,418,1704744,0.0-19.0-1.13,56272,List1A,black,man,,,,null,,,,
null,are dancing with each other,,html-keyboard-response,419,1706748,0.0-19.0-2.13,56272,List1A,black,man,,,,null,,,,
10820,,,survey-text,420,1717573,0.0-19.0-3.13,56272,List1A,black,man,,,,,"{""Q0"":""Luke and Mike are dancing.""}","<img src=""stim_listA/dance6.gif""style=""height:400px;""></stim_listA>",are dancing with each other,
null,"<div style=""font-size:60px;"">+</div>",,html-keyboard-response,421,1718078,0.0-19.0-0.14,56272,List1A,black,man,,,,null,,,,
null,"<img src=""stim_listA/shout1.gif""style=""height:400px;""></stim_listA>",,html-keyboard-response,422,1720084,0.0-19.0-1.14,56272,List1A,black,man,,,,null,,,,
null,is shouting at,,html-keyboard-response,423,1722087,0.0-19.0-2.14,56272,List1A,black,man,,,,null,,,,
12207,,,survey-text,424,1734299,0.0-19.0-3.14,56272,List1A,black,man,,,,,"{""Q0"":""Fred is shouting at Beth.""}","<img src=""stim_listA/shout1.gif""style=""height:400px;""></stim_listA>",is shouting at,
null,"<div style=""font-size:60px;"">+</div>",,html-keyboard-response,425,1734802,0.0-19.0-0.15,56272,List1A,black,man,,,,null,,,,
null,"<img src=""stim_listA/fight7.gif""style=""height:400px;""></stim_listA>",,html-keyboard-response,426,1736816,0.0-19.0-1.15,56272,List1A,black,man,,,,null,,,,
null,is fighting,,html-keyboard-response,427,1738821,0.0-19.0-2.15,56272,List1A,black,man,,,,null,,,,
13398,,,survey-text,428,1752223,0.0-19.0-3.15,56272,List1A,black,man,,,,,"{""Q0"":""Jane and Kate is fighting.""}","<img src=""stim_listA/fight7.gif""style=""height:400px;""></stim_listA>",is fighting,
null,"<div style=""font-size:60px;"">+</div>",,html-keyboard-response,429,1752727,0.0-19.0-0.16,56272,List1A,black,man,,,,null,,,,
null,"<img src=""stim_listA/play1.gif""style=""height:400px;""></stim_listA>",,html-keyboard-response,430,1754749,0.0-19.0-1.16,56272,List1A,black,man,,,,null,,,,
null,is playing with,,html-keyboard-response,431,1756752,0.0-19.0-2.16,56272,List1A,black,man,,,,null,,,,
16477,,,survey-text,432,1773234,0.0-19.0-3.16,56272,List1A,black,man,,,,,"{""Q0"":""Mike and Kate are playing.""}","<img src=""stim_listA/play1.gif""style=""height:400px;""></stim_listA>",is playing with,
null,"<div style=""font-size:60px;"">+</div>",,html-keyboard-response,433,1773738,0.0-19.0-0.17,56272,List1A,black,man,,,,null,,,,
null,"<img src=""stim_listA/flirt2.gif""style=""height:400px;""></stim_listA>",,html-keyboard-response,434,1775745,0.0-19.0-1.17,56272,List1A,black,man,,,,null,,,,
null,are flirting with each other,,html-keyboard-response,435,1777749,0.0-19.0-2.17,56272,List1A,black,man,,,,null,,,,
9662,,,survey-text,436,1787416,0.0-19.0-3.17,56272,List1A,black,man,,,,,"{""Q0"":""Mike and Beth are flirting.""}","<img src=""stim_listA/flirt2.gif""style=""height:400px;""></stim_listA>",are flirting with each other,
null,"<div style=""font-size:60px;"">+</div>",,html-keyboard-response,437,1787919,0.0-19.0-0.18,56272,List1A,black,man,,,,null,,,,
null,"<img src=""stim_listA/play5.gif""style=""height:400px;""></stim_listA>",,html-keyboard-response,438,1789926,0.0-19.0-1.18,56272,List1A,black,man,,,,null,,,,
null,is playing with,,html-keyboard-response,439,1791931,0.0-19.0-2.18,56272,List1A,black,man,,,,null,,,,
14759,,,survey-text,440,1806696,0.0-19.0-3.18,56272,List1A,black,man,,,,,"{""Q0"":""Mike is playing with Dave.""}","<img src=""stim_listA/play5.gif""style=""height:400px;""></stim_listA>",is playing with,
null,"<div style=""font-size:60px;"">+</div>",,html-keyboard-response,441,1807209,0.0-19.0-0.19,56272,List1A,black,man,,,,null,,,,
null,"<img src=""stim_listA/dance1.gif""style=""height:400px;""></stim_listA>",,html-keyboard-response,442,1809225,0.0-19.0-1.19,56272,List1A,black,man,,,,null,,,,
null,is dancing with,,html-keyboard-response,443,1811229,0.0-19.0-2.19,56272,List1A,black,man,,,,null,,,,
14184,,,survey-text,444,1825418,0.0-19.0-3.19,56272,List1A,black,man,,,,,"{""Q0"":""Fred is dancing with Kate.""}","<img src=""stim_listA/dance1.gif""style=""height:400px;""></stim_listA>",is dancing with,
4096,<p>Thank you for completing that task.</p><p>The final part of this session is a short questionnaire.</p><p>Press Continue.</p>,0,html-button-response,445,1829543,0.0-20.0,56272,List1A,black,man,,,,,,,,
33569,,,survey-text,446,1864121,0.0-21.0,56272,List1A,black,man,,,,,"{""Q0"":""35"",""Q1"":""English"",""Q2"":""English"",""Q3"":""Usa"",""Q4"":""Black"",""Q5"":""Male""}",,,demographics
11416,,,survey-likert,447,1875561,0.0-22.0,56272,List1A,black,man,,,,,"{""Q0"":1}",,,likert_ESS
9427,,,survey-likert,448,1884995,0.0-23.0,56272,List1A,black,man,,,,,"{""Q0"":0}",,,likert_NSSAL_Q1
4766,,,survey-likert,449,1889767,0.0-24.0,56272,List1A,black,man,,,,,"{""Q0"":0}",,,likert_NSSAL_Q2
9498,,,survey-likert,450,1899272,0.0-25.0,56272,List1A,black,man,,,,,"{""Q0"":1}",,,likert_CGRS_Q1
5800,,,survey-likert,451,1905078,0.0-26.0,56272,List1A,black,man,,,,,"{""Q0"":0}",,,likert_CGRS_Q2
4900,,,survey-likert,452,1909984,0.0-27.0,56272,List1A,black,man,,,,,"{""Q0"":0}",,,likert_CGRS_Q3
8715,,,survey-text,453,1918707,0.0-28.0,56272,List1A,black,man,,,,,"{""Q0"":""ccc""}",,,worker_id
5111,,,external-html,454,1924156,0.0-29.0,56272,List1A,black,man,debrief.html,,,,,,,
