rt,stimulus,button_pressed,trial_type,trial_index,time_elapsed,internal_node_id,subject,list,ppt_race,ppt_gender,url,first_guess,correct,key_press,responses,image_type,phrase_type,test_part
2281,Welcome to the experiment. Press Continue to begin.,0,html-button-response,0,2284,0.0-0.0,5640,List2A,black,man,,,,,,,,
84463,,,external-html,1,87894,0.0-1.0,5640,List2A,black,man,consent.html,,,,,,,
25987,"<p>On the next page, you will see portraits of 8 people and their names.</p><p>Your first task is to take a few minutes to memorise the names of these people.</p><p>You will have to recall their names during the rest of the experiment, so it is</p><p>essential that you try to memorise these people and their names as best as you can.</p><br><p><strong>You will then be tested on your memory of these names and portraits.</strong></p><br><p>The experiment will start after you have completed this memory test.</p><br><p>Ready?</p>",0,html-button-response,2,113883,0.0-2.0,5640,List2A,black,man,,,,,,,,
199347,"<img src='img/portrait_matrix_list2.jpg' style='width:900px;height:500px;''></img><p>If you have memorised all the portraits and names and are ready to start, press Continue.</p><p><strong>Please note: Your memory of these faces will be tested 4 times during this experiment.</strong></p>",0,html-button-response,3,314233,0.0-3.0-0.0,5640,List2A,black,man,,,,,,,,
3822,"<img src=""portrait/BW2.jpg""style=""height:400px;""></img>",2,html-button-response,4,319057,0.0-3.0-1.0,5640,List2A,black,man,,TRUE,2,,,,,
null,CORRECT,,html-keyboard-response,5,320561,0.0-3.0-2.0-0.0,5640,List2A,black,man,,,,null,,,,
2439,"<img src=""portrait/WW2.jpg""style=""height:400px;""></img>",3,html-button-response,6,323002,0.0-3.0-4.0,5640,List2A,black,man,,TRUE,3,,,,,
null,CORRECT,,html-keyboard-response,7,324504,0.0-3.0-5.0-0.0,5640,List2A,black,man,,,,null,,,,
5511,"<img src=""portrait/WW1.jpg""style=""height:400px;""></img>",1,html-button-response,8,330017,0.0-3.0-7.0,5640,List2A,black,man,,TRUE,1,,,,,
null,CORRECT,,html-keyboard-response,9,331518,0.0-3.0-8.0-0.0,5640,List2A,black,man,,,,null,,,,
7857,"<img src=""portrait/BM1.jpg""style=""height:400px;""></img>",4,html-button-response,10,339377,0.0-3.0-10.0,5640,List2A,black,man,,TRUE,4,,,,,
null,CORRECT,,html-keyboard-response,11,340879,0.0-3.0-11.0-0.0,5640,List2A,black,man,,,,null,,,,
4209,"<img src=""portrait/WM2.jpg""style=""height:400px;""></img>",7,html-button-response,12,345090,0.0-3.0-13.0,5640,List2A,black,man,,TRUE,7,,,,,
null,CORRECT,,html-keyboard-response,13,346592,0.0-3.0-14.0-0.0,5640,List2A,black,man,,,,null,,,,
4024,"<img src=""portrait/BW1.jpg""style=""height:400px;""></img>",0,html-button-response,14,350618,0.0-3.0-16.0,5640,List2A,black,man,,TRUE,0,,,,,
null,CORRECT,,html-keyboard-response,15,352120,0.0-3.0-17.0-0.0,5640,List2A,black,man,,,,null,,,,
3791,"<img src=""portrait/BM2.jpg""style=""height:400px;""></img>",5,html-button-response,16,355913,0.0-3.0-19.0,5640,List2A,black,man,,TRUE,5,,,,,
null,CORRECT,,html-keyboard-response,17,357415,0.0-3.0-20.0-0.0,5640,List2A,black,man,,,,null,,,,
4368,"<img src=""portrait/WM1.jpg""style=""height:400px;""></img>",6,html-button-response,18,361785,0.0-3.0-22.0,5640,List2A,black,man,,TRUE,6,,,,,
null,CORRECT,,html-keyboard-response,19,363287,0.0-3.0-23.0-0.0,5640,List2A,black,man,,,,null,,,,
2296,<p>You got 8 out of 8 right first time. Press Continue.</p>,0,html-button-response,20,365585,0.0-3.0-25.0,5640,List2A,black,man,,,,,,,,
57181,"<p>In this experiment, you will view photographs of the people from the memory game interacting.</p><p>By using the <strong>exact</strong> phrase given <i>after</i> the photograph appears and recalling the correct names of the people in the photographs, form a sentence describing the interaction. You do not need to capitalise names.</p><p>Type your answer in the space provided. Please complete every sentence before moving onto the next trial.</p><p>You will only have a few seconds to memorise each given photograph and phrase before you can respond, so try your best to focus.</p><p>An example is given below. Press 'Continue' when you are ready.</p><img src='img/speaking_example.jpg' style='width:800px;height:460px;''></img>",0,html-button-response,21,423769,0.0-4.0,5640,List2A,black,man,,,,,,,,
4486,"<p>Before the experiment starts, you will watch two example trials. Press 'Continue'.</p>",0,html-button-response,22,429256,0.0-5.0,5640,List2A,black,man,,,,,,,,
null,<img src='img/meet_eg.gif' style='height:400px;''></img>,,html-keyboard-response,23,432258,0.0-6.0,5640,List2A,black,man,,,,null,,,,
null,<p>is meeting</p>,,html-keyboard-response,24,434260,0.0-7.0,5640,List2A,black,man,,,,null,,,,
7180,<p><b>Answer:</b> jane is meeting ruth</p>,0,html-button-response,25,441441,0.0-8.0,5640,List2A,black,man,,,,,,,,
null,<img src='img/look_eg.gif' style='height:400px;''></img>,,html-keyboard-response,26,444442,0.0-9.0,5640,List2A,black,man,,,,null,,,,
null,<p>are looking at each other</p>,,html-keyboard-response,27,446443,0.0-10.0,5640,List2A,black,man,,,,null,,,,
3068,<p><b>Answer:</b> fred and mike are looking at each other</p>,0,html-button-response,28,449513,0.0-11.0,5640,List2A,black,man,,,,,,,,
12525,"<p>Ready to start the experiment?</p><br><p><strong>Remember to describe the picture using a full sentence,</strong></p><p><strong>that combines the names of the people with the <i>exact</i> phrase given.</strong></p><p><strong>To receive full payment you must do this correctly.</strong></p><p><strong> You do not need to capitalise names or use punctuation.</strong></p><br><p>Press 'Continue' to begin.</p>",0,html-button-response,29,463040,0.0-12.0,5640,List2A,black,man,,,,,,,,
null,"<div style=""font-size:60px;"">+</div>",,html-keyboard-response,30,464542,0.0-13.0-0.0,5640,List2A,black,man,,,,null,,,,
null,"<img src=""stim_listA/flirt7.gif""style=""height:400px;""></stim_listA>",,html-keyboard-response,31,466544,0.0-13.0-1.0,5640,List2A,black,man,,,,null,,,,
null,is flirting with,,html-keyboard-response,32,468545,0.0-13.0-2.0,5640,List2A,black,man,,,,null,,,,
15509,,,survey-text,33,484056,0.0-13.0-3.0,5640,List2A,black,man,,,,,"{""Q0"":""kate is flirting with ruth""}","<img src=""stim_listA/flirt7.gif""style=""height:400px;""></stim_listA>",is flirting with,
null,"<div style=""font-size:60px;"">+</div>",,html-keyboard-response,34,484557,0.0-13.0-0.1,5640,List2A,black,man,,,,null,,,,
null,"<img src=""stim_listA/talk1.gif""style=""height:400px;""></stim_listA>",,html-keyboard-response,35,486559,0.0-13.0-1.1,5640,List2A,black,man,,,,null,,,,
null,is talking to,,html-keyboard-response,36,488559,0.0-13.0-2.1,5640,List2A,black,man,,,,null,,,,
11063,,,survey-text,37,499624,0.0-13.0-3.1,5640,List2A,black,man,,,,,"{""Q0"":""luke is talking to jane""}","<img src=""stim_listA/talk1.gif""style=""height:400px;""></stim_listA>",is talking to,
null,"<div style=""font-size:60px;"">+</div>",,html-keyboard-response,38,500125,0.0-13.0-0.2,5640,List2A,black,man,,,,null,,,,
null,"<img src=""stim_listA/dance5.gif""style=""height:400px;""></stim_listA>",,html-keyboard-response,39,502127,0.0-13.0-1.2,5640,List2A,black,man,,,,null,,,,
null,is dancing with,,html-keyboard-response,40,504128,0.0-13.0-2.2,5640,List2A,black,man,,,,null,,,,
12438,,,survey-text,41,516567,0.0-13.0-3.2,5640,List2A,black,man,,,,,"{""Q0"":""mike is dancing with luke""}","<img src=""stim_listA/dance5.gif""style=""height:400px;""></stim_listA>",is dancing with,
null,"<div style=""font-size:60px;"">+</div>",,html-keyboard-response,42,517068,0.0-13.0-0.3,5640,List2A,black,man,,,,null,,,,
null,"<img src=""stim_listA/fight1.gif""style=""height:400px;""></stim_listA>",,html-keyboard-response,43,519070,0.0-13.0-1.3,5640,List2A,black,man,,,,null,,,,
null,is fighting,,html-keyboard-response,44,521071,0.0-13.0-2.3,5640,List2A,black,man,,,,null,,,,
16583,,,survey-text,45,537655,0.0-13.0-3.3,5640,List2A,black,man,,,,,"{""Q0"":""jane is fighting dave""}","<img src=""stim_listA/fight1.gif""style=""height:400px;""></stim_listA>",is fighting,
null,"<div style=""font-size:60px;"">+</div>",,html-keyboard-response,46,538156,0.0-13.0-0.4,5640,List2A,black,man,,,,null,,,,
null,"<img src=""stim_listA/flirt4.gif""style=""height:400px;""></stim_listA>",,html-keyboard-response,47,540158,0.0-13.0-1.4,5640,List2A,black,man,,,,null,,,,
null,are flirting with each other,,html-keyboard-response,48,542159,0.0-13.0-2.4,5640,List2A,black,man,,,,null,,,,
26926,,,survey-text,49,569087,0.0-13.0-3.4,5640,List2A,black,man,,,,,"{""Q0"":""mike is looking at kate""}","<img src=""stim_listA/flirt4.gif""style=""height:400px;""></stim_listA>",are flirting with each other,
null,"<div style=""font-size:60px;"">+</div>",,html-keyboard-response,50,569588,0.0-13.0-0.5,5640,List2A,black,man,,,,null,,,,
null,"<img src=""stim_listA/argue7.gif""style=""height:400px;""></stim_listA>",,html-keyboard-response,51,571590,0.0-13.0-1.5,5640,List2A,black,man,,,,null,,,,
null,is arguing with,,html-keyboard-response,52,573591,0.0-13.0-2.5,5640,List2A,black,man,,,,null,,,,
21006,,,survey-text,53,594599,0.0-13.0-3.5,5640,List2A,black,man,,,,,"{""Q0"":""kate is arguing with ruth""}","<img src=""stim_listA/argue7.gif""style=""height:400px;""></stim_listA>",is arguing with,
null,"<div style=""font-size:60px;"">+</div>",,html-keyboard-response,54,595100,0.0-13.0-0.6,5640,List2A,black,man,,,,null,,,,
null,"<img src=""stim_listA/touch2.gif""style=""height:400px;""></stim_listA>",,html-keyboard-response,55,597102,0.0-13.0-1.6,5640,List2A,black,man,,,,null,,,,
null,are touching each other,,html-keyboard-response,56,599103,0.0-13.0-2.6,5640,List2A,black,man,,,,null,,,,
18223,,,survey-text,57,617327,0.0-13.0-3.6,5640,List2A,black,man,,,,,"{""Q0"":""luke and ruth are touching each other""}","<img src=""stim_listA/touch2.gif""style=""height:400px;""></stim_listA>",are touching each other,
null,"<div style=""font-size:60px;"">+</div>",,html-keyboard-response,58,617828,0.0-13.0-0.7,5640,List2A,black,man,,,,null,,,,
null,"<img src=""stim_listA/dance4.gif""style=""height:400px;""></stim_listA>",,html-keyboard-response,59,619830,0.0-13.0-1.7,5640,List2A,black,man,,,,null,,,,
null,are dancing with each other,,html-keyboard-response,60,621831,0.0-13.0-2.7,5640,List2A,black,man,,,,null,,,,
16167,,,survey-text,61,637998,0.0-13.0-3.7,5640,List2A,black,man,,,,,"{""Q0"":""mike and beth are dancing with each other""}","<img src=""stim_listA/dance4.gif""style=""height:400px;""></stim_listA>",are dancing with each other,
null,"<div style=""font-size:60px;"">+</div>",,html-keyboard-response,62,638499,0.0-13.0-0.8,5640,List2A,black,man,,,,null,,,,
null,"<img src=""stim_listA/kiss5.gif""style=""height:400px;""></stim_listA>",,html-keyboard-response,63,640501,0.0-13.0-1.8,5640,List2A,black,man,,,,null,,,,
null,is kissing,,html-keyboard-response,64,642502,0.0-13.0-2.8,5640,List2A,black,man,,,,null,,,,
17447,,,survey-text,65,659950,0.0-13.0-3.8,5640,List2A,black,man,,,,,"{""Q0"":""luke is kissing fred""}","<img src=""stim_listA/kiss5.gif""style=""height:400px;""></stim_listA>",is kissing,
null,"<div style=""font-size:60px;"">+</div>",,html-keyboard-response,66,660452,0.0-13.0-0.9,5640,List2A,black,man,,,,null,,,,
null,"<img src=""stim_listA/touch8.gif""style=""height:400px;""></stim_listA>",,html-keyboard-response,67,662454,0.0-13.0-1.9,5640,List2A,black,man,,,,null,,,,
null,are touching each other,,html-keyboard-response,68,664455,0.0-13.0-2.9,5640,List2A,black,man,,,,null,,,,
13437,,,survey-text,69,677894,0.0-13.0-3.9,5640,List2A,black,man,,,,,"{""Q0"":""beth and ruth are touching each other""}","<img src=""stim_listA/touch8.gif""style=""height:400px;""></stim_listA>",are touching each other,
null,"<div style=""font-size:60px;"">+</div>",,html-keyboard-response,70,678395,0.0-13.0-0.10,5640,List2A,black,man,,,,null,,,,
null,"<img src=""stim_listA/fight6.gif""style=""height:400px;""></stim_listA>",,html-keyboard-response,71,680397,0.0-13.0-1.10,5640,List2A,black,man,,,,null,,,,
null,are fighting each other,,html-keyboard-response,72,682398,0.0-13.0-2.10,5640,List2A,black,man,,,,null,,,,
20104,,,survey-text,73,702502,0.0-13.0-3.10,5640,List2A,black,man,,,,,"{""Q0"":""luke and dave are fighting each other""}","<img src=""stim_listA/fight6.gif""style=""height:400px;""></stim_listA>",are fighting each other,
null,"<div style=""font-size:60px;"">+</div>",,html-keyboard-response,74,703003,0.0-13.0-0.11,5640,List2A,black,man,,,,null,,,,
null,"<img src=""stim_listA/argue2.gif""style=""height:400px;""></stim_listA>",,html-keyboard-response,75,705005,0.0-13.0-1.11,5640,List2A,black,man,,,,null,,,,
null,are arguing with each other,,html-keyboard-response,76,707006,0.0-13.0-2.11,5640,List2A,black,man,,,,null,,,,
13342,,,survey-text,77,720350,0.0-13.0-3.11,5640,List2A,black,man,,,,,"{""Q0"":""jane and luke are arguing with each other""}","<img src=""stim_listA/argue2.gif""style=""height:400px;""></stim_listA>",are arguing with each other,
null,"<div style=""font-size:60px;"">+</div>",,html-keyboard-response,78,720851,0.0-13.0-0.12,5640,List2A,black,man,,,,null,,,,
null,"<img src=""stim_listA/dance6.gif""style=""height:400px;""></stim_listA>",,html-keyboard-response,79,722853,0.0-13.0-1.12,5640,List2A,black,man,,,,null,,,,
null,are dancing with each other,,html-keyboard-response,80,724854,0.0-13.0-2.12,5640,List2A,black,man,,,,null,,,,
19479,,,survey-text,81,744334,0.0-13.0-3.12,5640,List2A,black,man,,,,,"{""Q0"":""dave and fred are dancing with each other""}","<img src=""stim_listA/dance6.gif""style=""height:400px;""></stim_listA>",are dancing with each other,
null,"<div style=""font-size:60px;"">+</div>",,html-keyboard-response,82,744835,0.0-13.0-0.13,5640,List2A,black,man,,,,null,,,,
null,"<img src=""stim_listA/fight3.gif""style=""height:400px;""></stim_listA>",,html-keyboard-response,83,746836,0.0-13.0-1.13,5640,List2A,black,man,,,,null,,,,
null,is fighting,,html-keyboard-response,84,748837,0.0-13.0-2.13,5640,List2A,black,man,,,,null,,,,
10495,,,survey-text,85,759333,0.0-13.0-3.13,5640,List2A,black,man,,,,,"{""Q0"":""beth is fighting mike""}","<img src=""stim_listA/fight3.gif""style=""height:400px;""></stim_listA>",is fighting,
null,"<div style=""font-size:60px;"">+</div>",,html-keyboard-response,86,759834,0.0-13.0-0.14,5640,List2A,black,man,,,,null,,,,
null,"<img src=""stim_listA/touch3.gif""style=""height:400px;""></stim_listA>",,html-keyboard-response,87,761836,0.0-13.0-1.14,5640,List2A,black,man,,,,null,,,,
null,is touching,,html-keyboard-response,88,763837,0.0-13.0-2.14,5640,List2A,black,man,,,,null,,,,
10455,,,survey-text,89,774294,0.0-13.0-3.14,5640,List2A,black,man,,,,,"{""Q0"":""beth is touching mike""}","<img src=""stim_listA/touch3.gif""style=""height:400px;""></stim_listA>",is touching,
null,"<div style=""font-size:60px;"">+</div>",,html-keyboard-response,90,774795,0.0-13.0-0.15,5640,List2A,black,man,,,,null,,,,
null,"<img src=""stim_listA/fight7.gif""style=""height:400px;""></stim_listA>",,html-keyboard-response,91,776797,0.0-13.0-1.15,5640,List2A,black,man,,,,null,,,,
null,is fighting,,html-keyboard-response,92,778798,0.0-13.0-2.15,5640,List2A,black,man,,,,null,,,,
9063,,,survey-text,93,787861,0.0-13.0-3.15,5640,List2A,black,man,,,,,"{""Q0"":""jane is fighting beth""}","<img src=""stim_listA/fight7.gif""style=""height:400px;""></stim_listA>",is fighting,
null,"<div style=""font-size:60px;"">+</div>",,html-keyboard-response,94,788363,0.0-13.0-0.16,5640,List2A,black,man,,,,null,,,,
null,"<img src=""stim_listA/kiss8.gif""style=""height:400px;""></stim_listA>",,html-keyboard-response,95,790365,0.0-13.0-1.16,5640,List2A,black,man,,,,null,,,,
null,are kissing each other,,html-keyboard-response,96,792366,0.0-13.0-2.16,5640,List2A,black,man,,,,null,,,,
11726,,,survey-text,97,804093,0.0-13.0-3.16,5640,List2A,black,man,,,,,"{""Q0"":""beth and jane are kissing each other""}","<img src=""stim_listA/kiss8.gif""style=""height:400px;""></stim_listA>",are kissing each other,
null,"<div style=""font-size:60px;"">+</div>",,html-keyboard-response,98,804594,0.0-13.0-0.17,5640,List2A,black,man,,,,null,,,,
null,"<img src=""stim_listA/touch5.gif""style=""height:400px;""></stim_listA>",,html-keyboard-response,99,806596,0.0-13.0-1.17,5640,List2A,black,man,,,,null,,,,
null,is touching,,html-keyboard-response,100,808597,0.0-13.0-2.17,5640,List2A,black,man,,,,null,,,,
11879,,,survey-text,101,820477,0.0-13.0-3.17,5640,List2A,black,man,,,,,"{""Q0"":""dave is touching mike""}","<img src=""stim_listA/touch5.gif""style=""height:400px;""></stim_listA>",is touching,
null,"<div style=""font-size:60px;"">+</div>",,html-keyboard-response,102,820978,0.0-13.0-0.18,5640,List2A,black,man,,,,null,,,,
null,"<img src=""stim_listA/flirt8.gif""style=""height:400px;""></stim_listA>",,html-keyboard-response,103,822980,0.0-13.0-1.18,5640,List2A,black,man,,,,null,,,,
null,are flirting with each other,,html-keyboard-response,104,824981,0.0-13.0-2.18,5640,List2A,black,man,,,,null,,,,
14943,,,survey-text,105,839925,0.0-13.0-3.18,5640,List2A,black,man,,,,,"{""Q0"":""beth and jane are flirting with each other""}","<img src=""stim_listA/flirt8.gif""style=""height:400px;""></stim_listA>",are flirting with each other,
null,"<div style=""font-size:60px;"">+</div>",,html-keyboard-response,106,840426,0.0-13.0-0.19,5640,List2A,black,man,,,,null,,,,
null,"<img src=""stim_listA/dance3.gif""style=""height:400px;""></stim_listA>",,html-keyboard-response,107,842428,0.0-13.0-1.19,5640,List2A,black,man,,,,null,,,,
null,is dancing with,,html-keyboard-response,108,844429,0.0-13.0-2.19,5640,List2A,black,man,,,,null,,,,
9559,,,survey-text,109,853989,0.0-13.0-3.19,5640,List2A,black,man,,,,,"{""Q0"":""beth is dancing with fred""}","<img src=""stim_listA/dance3.gif""style=""height:400px;""></stim_listA>",is dancing with,
13968,"<img src='img/portrait_matrix_list2.jpg' style='width:900px;height:500px;''></img><p>If you have memorised all the portraits and names and are ready to start, press Continue.</p><p><strong>Please note: Your memory of these faces will be tested 4 times during this experiment.</strong></p>",0,html-button-response,110,867957,0.0-14.0-0.0,5640,List2A,black,man,,,,,,,,
2758,"<img src=""portrait/WW2.jpg""style=""height:400px;""></img>",3,html-button-response,111,871717,0.0-14.0-1.0,5640,List2A,black,man,,TRUE,3,,,,,
null,CORRECT,,html-keyboard-response,112,873219,0.0-14.0-2.0-0.0,5640,List2A,black,man,,,,null,,,,
7080,"<img src=""portrait/BW2.jpg""style=""height:400px;""></img>",2,html-button-response,113,880301,0.0-14.0-4.0,5640,List2A,black,man,,TRUE,2,,,,,
null,CORRECT,,html-keyboard-response,114,881803,0.0-14.0-5.0-0.0,5640,List2A,black,man,,,,null,,,,
1913,"<img src=""portrait/WM2.jpg""style=""height:400px;""></img>",7,html-button-response,115,883718,0.0-14.0-7.0,5640,List2A,black,man,,TRUE,7,,,,,
null,CORRECT,,html-keyboard-response,116,885220,0.0-14.0-8.0-0.0,5640,List2A,black,man,,,,null,,,,
2783,"<img src=""portrait/WW1.jpg""style=""height:400px;""></img>",1,html-button-response,117,888005,0.0-14.0-10.0,5640,List2A,black,man,,TRUE,1,,,,,
null,CORRECT,,html-keyboard-response,118,889506,0.0-14.0-11.0-0.0,5640,List2A,black,man,,,,null,,,,
4369,"<img src=""portrait/BW1.jpg""style=""height:400px;""></img>",0,html-button-response,119,893876,0.0-14.0-13.0,5640,List2A,black,man,,TRUE,0,,,,,
null,CORRECT,,html-keyboard-response,120,895378,0.0-14.0-14.0-0.0,5640,List2A,black,man,,,,null,,,,
2345,"<img src=""portrait/WM1.jpg""style=""height:400px;""></img>",6,html-button-response,121,897724,0.0-14.0-16.0,5640,List2A,black,man,,TRUE,6,,,,,
null,CORRECT,,html-keyboard-response,122,899226,0.0-14.0-17.0-0.0,5640,List2A,black,man,,,,null,,,,
1882,"<img src=""portrait/BM2.jpg""style=""height:400px;""></img>",5,html-button-response,123,901110,0.0-14.0-19.0,5640,List2A,black,man,,TRUE,5,,,,,
null,CORRECT,,html-keyboard-response,124,902611,0.0-14.0-20.0-0.0,5640,List2A,black,man,,,,null,,,,
4320,"<img src=""portrait/BM1.jpg""style=""height:400px;""></img>",4,html-button-response,125,906933,0.0-14.0-22.0,5640,List2A,black,man,,TRUE,4,,,,,
null,CORRECT,,html-keyboard-response,126,908435,0.0-14.0-23.0-0.0,5640,List2A,black,man,,,,null,,,,
2600,<p>You got 8 out of 8 right first time. Press Continue.</p>,0,html-button-response,127,911037,0.0-14.0-25.0,5640,List2A,black,man,,,,,,,,
null,"<div style=""font-size:60px;"">+</div>",,html-keyboard-response,128,912538,0.0-15.0-0.0,5640,List2A,black,man,,,,null,,,,
null,"<img src=""stim_listA/shout3.gif""style=""height:400px;""></stim_listA>",,html-keyboard-response,129,914540,0.0-15.0-1.0,5640,List2A,black,man,,,,null,,,,
null,is shouting at,,html-keyboard-response,130,916541,0.0-15.0-2.0,5640,List2A,black,man,,,,null,,,,
21574,,,survey-text,131,938117,0.0-15.0-3.0,5640,List2A,black,man,,,,,"{""Q0"":""beth is shouting at fred""}","<img src=""stim_listA/shout3.gif""style=""height:400px;""></stim_listA>",is shouting at,
null,"<div style=""font-size:60px;"">+</div>",,html-keyboard-response,132,938618,0.0-15.0-0.1,5640,List2A,black,man,,,,null,,,,
null,"<img src=""stim_listA/touch6.gif""style=""height:400px;""></stim_listA>",,html-keyboard-response,133,940620,0.0-15.0-1.1,5640,List2A,black,man,,,,null,,,,
null,are touching each other,,html-keyboard-response,134,942621,0.0-15.0-2.1,5640,List2A,black,man,,,,null,,,,
15671,,,survey-text,135,958293,0.0-15.0-3.1,5640,List2A,black,man,,,,,"{""Q0"":""fred and luke are touching each other""}","<img src=""stim_listA/touch6.gif""style=""height:400px;""></stim_listA>",are touching each other,
null,"<div style=""font-size:60px;"">+</div>",,html-keyboard-response,136,958794,0.0-15.0-0.2,5640,List2A,black,man,,,,null,,,,
null,"<img src=""stim_listA/argue5.gif""style=""height:400px;""></stim_listA>",,html-keyboard-response,137,960796,0.0-15.0-1.2,5640,List2A,black,man,,,,null,,,,
null,is arguing with,,html-keyboard-response,138,962797,0.0-15.0-2.2,5640,List2A,black,man,,,,null,,,,
16949,,,survey-text,139,979748,0.0-15.0-3.2,5640,List2A,black,man,,,,,"{""Q0"":""dave and fred are touching each other""}","<img src=""stim_listA/argue5.gif""style=""height:400px;""></stim_listA>",is arguing with,
null,"<div style=""font-size:60px;"">+</div>",,html-keyboard-response,140,980249,0.0-15.0-0.3,5640,List2A,black,man,,,,null,,,,
null,"<img src=""stim_listA/kiss1.gif""style=""height:400px;""></stim_listA>",,html-keyboard-response,141,982251,0.0-15.0-1.3,5640,List2A,black,man,,,,null,,,,
null,is kissing,,html-keyboard-response,142,984252,0.0-15.0-2.3,5640,List2A,black,man,,,,null,,,,
10783,,,survey-text,143,995036,0.0-15.0-3.3,5640,List2A,black,man,,,,,"{""Q0"":""luke is kissing ruth""}","<img src=""stim_listA/kiss1.gif""style=""height:400px;""></stim_listA>",is kissing,
null,"<div style=""font-size:60px;"">+</div>",,html-keyboard-response,144,995537,0.0-15.0-0.4,5640,List2A,black,man,,,,null,,,,
null,"<img src=""stim_listA/marry1.gif""style=""height:400px;""></stim_listA>",,html-keyboard-response,145,997538,0.0-15.0-1.4,5640,List2A,black,man,,,,null,,,,
null,is marrying,,html-keyboard-response,146,999539,0.0-15.0-2.4,5640,List2A,black,man,,,,null,,,,
9367,,,survey-text,147,1008908,0.0-15.0-3.4,5640,List2A,black,man,,,,,"{""Q0"":""dave is marrying ruth""}","<img src=""stim_listA/marry1.gif""style=""height:400px;""></stim_listA>",is marrying,
null,"<div style=""font-size:60px;"">+</div>",,html-keyboard-response,148,1009409,0.0-15.0-0.5,5640,List2A,black,man,,,,null,,,,
null,"<img src=""stim_listA/talk3.gif""style=""height:400px;""></stim_listA>",,html-keyboard-response,149,1011411,0.0-15.0-1.5,5640,List2A,black,man,,,,null,,,,
null,is talking to,,html-keyboard-response,150,1013412,0.0-15.0-2.5,5640,List2A,black,man,,,,null,,,,
9799,,,survey-text,151,1023211,0.0-15.0-3.5,5640,List2A,black,man,,,,,"{""Q0"":""kate is talking to fred""}","<img src=""stim_listA/talk3.gif""style=""height:400px;""></stim_listA>",is talking to,
null,"<div style=""font-size:60px;"">+</div>",,html-keyboard-response,152,1023712,0.0-15.0-0.6,5640,List2A,black,man,,,,null,,,,
null,"<img src=""stim_listA/marry7.gif""style=""height:400px;""></stim_listA>",,html-keyboard-response,153,1025714,0.0-15.0-1.6,5640,List2A,black,man,,,,null,,,,
null,is marrying,,html-keyboard-response,154,1027715,0.0-15.0-2.6,5640,List2A,black,man,,,,null,,,,
50647,,,survey-text,155,1078363,0.0-15.0-3.6,5640,List2A,black,man,,,,,"{""Q0"":""beth is marrying jane""}","<img src=""stim_listA/marry7.gif""style=""height:400px;""></stim_listA>",is marrying,
null,"<div style=""font-size:60px;"">+</div>",,html-keyboard-response,156,1078864,0.0-15.0-0.7,5640,List2A,black,man,,,,null,,,,
null,"<img src=""stim_listA/talk5.gif""style=""height:400px;""></stim_listA>",,html-keyboard-response,157,1080866,0.0-15.0-1.7,5640,List2A,black,man,,,,null,,,,
null,is talking to,,html-keyboard-response,158,1082867,0.0-15.0-2.7,5640,List2A,black,man,,,,null,,,,
7878,,,survey-text,159,1090747,0.0-15.0-3.7,5640,List2A,black,man,,,,,"{""Q0"":""luke is talking to mike""}","<img src=""stim_listA/talk5.gif""style=""height:400px;""></stim_listA>",is talking to,
null,"<div style=""font-size:60px;"">+</div>",,html-keyboard-response,160,1091248,0.0-15.0-0.8,5640,List2A,black,man,,,,null,,,,
null,"<img src=""stim_listA/marry2.gif""style=""height:400px;""></stim_listA>",,html-keyboard-response,161,1093250,0.0-15.0-1.8,5640,List2A,black,man,,,,null,,,,
null,are marrying each other,,html-keyboard-response,162,1095251,0.0-15.0-2.8,5640,List2A,black,man,,,,null,,,,
11262,,,survey-text,163,1106515,0.0-15.0-3.8,5640,List2A,black,man,,,,,"{""Q0"":""jane and luke are marrying each other""}","<img src=""stim_listA/marry2.gif""style=""height:400px;""></stim_listA>",are marrying each other,
null,"<div style=""font-size:60px;"">+</div>",,html-keyboard-response,164,1107016,0.0-15.0-0.9,5640,List2A,black,man,,,,null,,,,
null,"<img src=""stim_listA/touch4.gif""style=""height:400px;""></stim_listA>",,html-keyboard-response,165,1109019,0.0-15.0-1.9,5640,List2A,black,man,,,,null,,,,
null,are touching each other,,html-keyboard-response,166,1111020,0.0-15.0-2.9,5640,List2A,black,man,,,,null,,,,
13069,,,survey-text,167,1124091,0.0-15.0-3.9,5640,List2A,black,man,,,,,"{""Q0"":""fred and beth are touching each other""}","<img src=""stim_listA/touch4.gif""style=""height:400px;""></stim_listA>",are touching each other,
null,"<div style=""font-size:60px;"">+</div>",,html-keyboard-response,168,1124592,0.0-15.0-0.10,5640,List2A,black,man,,,,null,,,,
null,"<img src=""stim_listA/talk2.gif""style=""height:400px;""></stim_listA>",,html-keyboard-response,169,1126594,0.0-15.0-1.10,5640,List2A,black,man,,,,null,,,,
null,are talking to each other,,html-keyboard-response,170,1128595,0.0-15.0-2.10,5640,List2A,black,man,,,,null,,,,
10214,,,survey-text,171,1138810,0.0-15.0-3.10,5640,List2A,black,man,,,,,"{""Q0"":""ruth and dave are talking to each other""}","<img src=""stim_listA/talk2.gif""style=""height:400px;""></stim_listA>",are talking to each other,
null,"<div style=""font-size:60px;"">+</div>",,html-keyboard-response,172,1139311,0.0-15.0-0.11,5640,List2A,black,man,,,,null,,,,
null,"<img src=""stim_listA/dance2.gif""style=""height:400px;""></stim_listA>",,html-keyboard-response,173,1141313,0.0-15.0-1.11,5640,List2A,black,man,,,,null,,,,
null,are dancing with each other,,html-keyboard-response,174,1143314,0.0-15.0-2.11,5640,List2A,black,man,,,,null,,,,
13255,,,survey-text,175,1156570,0.0-15.0-3.11,5640,List2A,black,man,,,,,"{""Q0"":""ruth and dave are dancing with each other""}","<img src=""stim_listA/dance2.gif""style=""height:400px;""></stim_listA>",are dancing with each other,
null,"<div style=""font-size:60px;"">+</div>",,html-keyboard-response,176,1157071,0.0-15.0-0.12,5640,List2A,black,man,,,,null,,,,
null,"<img src=""stim_listA/flirt1.gif""style=""height:400px;""></stim_listA>",,html-keyboard-response,177,1159073,0.0-15.0-1.12,5640,List2A,black,man,,,,null,,,,
null,is flirting with,,html-keyboard-response,178,1161074,0.0-15.0-2.12,5640,List2A,black,man,,,,null,,,,
10295,,,survey-text,179,1171370,0.0-15.0-3.12,5640,List2A,black,man,,,,,"{""Q0"":""jane is flirting with luke""}","<img src=""stim_listA/flirt1.gif""style=""height:400px;""></stim_listA>",is flirting with,
null,"<div style=""font-size:60px;"">+</div>",,html-keyboard-response,180,1171871,0.0-15.0-0.13,5640,List2A,black,man,,,,null,,,,
null,"<img src=""stim_listA/shout7.gif""style=""height:400px;""></stim_listA>",,html-keyboard-response,181,1173873,0.0-15.0-1.13,5640,List2A,black,man,,,,null,,,,
null,is shouting at,,html-keyboard-response,182,1175874,0.0-15.0-2.13,5640,List2A,black,man,,,,null,,,,
10207,,,survey-text,183,1186082,0.0-15.0-3.13,5640,List2A,black,man,,,,,"{""Q0"":""ruth is shouting at beth""}","<img src=""stim_listA/shout7.gif""style=""height:400px;""></stim_listA>",is shouting at,
null,"<div style=""font-size:60px;"">+</div>",,html-keyboard-response,184,1186583,0.0-15.0-0.14,5640,List2A,black,man,,,,null,,,,
null,"<img src=""stim_listA/argue4.gif""style=""height:400px;""></stim_listA>",,html-keyboard-response,185,1188585,0.0-15.0-1.14,5640,List2A,black,man,,,,null,,,,
null,are arguing with each other,,html-keyboard-response,186,1190586,0.0-15.0-2.14,5640,List2A,black,man,,,,null,,,,
13206,,,survey-text,187,1203794,0.0-15.0-3.14,5640,List2A,black,man,,,,,"{""Q0"":""kate and fred are arguing with each other""}","<img src=""stim_listA/argue4.gif""style=""height:400px;""></stim_listA>",are arguing with each other,
null,"<div style=""font-size:60px;"">+</div>",,html-keyboard-response,188,1204295,0.0-15.0-0.15,5640,List2A,black,man,,,,null,,,,
null,"<img src=""stim_listA/dance1.gif""style=""height:400px;""></stim_listA>",,html-keyboard-response,189,1206298,0.0-15.0-1.15,5640,List2A,black,man,,,,null,,,,
null,is dancing with,,html-keyboard-response,190,1208299,0.0-15.0-2.15,5640,List2A,black,man,,,,null,,,,
13430,,,survey-text,191,1221730,0.0-15.0-3.15,5640,List2A,black,man,,,,,"{""Q0"":""luke is dancing with jane""}","<img src=""stim_listA/dance1.gif""style=""height:400px;""></stim_listA>",is dancing with,
null,"<div style=""font-size:60px;"">+</div>",,html-keyboard-response,192,1222232,0.0-15.0-0.16,5640,List2A,black,man,,,,null,,,,
null,"<img src=""stim_listA/touch7.gif""style=""height:400px;""></stim_listA>",,html-keyboard-response,193,1224233,0.0-15.0-1.16,5640,List2A,black,man,,,,null,,,,
null,is touching,,html-keyboard-response,194,1226235,0.0-15.0-2.16,5640,List2A,black,man,,,,null,,,,
10750,,,survey-text,195,1236986,0.0-15.0-3.16,5640,List2A,black,man,,,,,"{""Q0"":""kate is touching jane""}","<img src=""stim_listA/touch7.gif""style=""height:400px;""></stim_listA>",is touching,
null,"<div style=""font-size:60px;"">+</div>",,html-keyboard-response,196,1237487,0.0-15.0-0.17,5640,List2A,black,man,,,,null,,,,
null,"<img src=""stim_listA/kiss7.gif""style=""height:400px;""></stim_listA>",,html-keyboard-response,197,1239489,0.0-15.0-1.17,5640,List2A,black,man,,,,null,,,,
null,is kissing,,html-keyboard-response,198,1241490,0.0-15.0-2.17,5640,List2A,black,man,,,,null,,,,
9918,,,survey-text,199,1251410,0.0-15.0-3.17,5640,List2A,black,man,,,,,"{""Q0"":""ruth is kissing beth""}","<img src=""stim_listA/kiss7.gif""style=""height:400px;""></stim_listA>",is kissing,
null,"<div style=""font-size:60px;"">+</div>",,html-keyboard-response,200,1251911,0.0-15.0-0.18,5640,List2A,black,man,,,,null,,,,
null,"<img src=""stim_listA/marry4.gif""style=""height:400px;""></stim_listA>",,html-keyboard-response,201,1253913,0.0-15.0-1.18,5640,List2A,black,man,,,,null,,,,
null,are marrying each other,,html-keyboard-response,202,1255914,0.0-15.0-2.18,5640,List2A,black,man,,,,null,,,,
10998,,,survey-text,203,1266914,0.0-15.0-3.18,5640,List2A,black,man,,,,,"{""Q0"":""kate and fred are marrying each other""}","<img src=""stim_listA/marry4.gif""style=""height:400px;""></stim_listA>",are marrying each other,
null,"<div style=""font-size:60px;"">+</div>",,html-keyboard-response,204,1267415,0.0-15.0-0.19,5640,List2A,black,man,,,,null,,,,
null,"<img src=""stim_listA/play2.gif""style=""height:400px;""></stim_listA>",,html-keyboard-response,205,1269417,0.0-15.0-1.19,5640,List2A,black,man,,,,null,,,,
null,are playing with each other,,html-keyboard-response,206,1271418,0.0-15.0-2.19,5640,List2A,black,man,,,,null,,,,
14711,,,survey-text,207,1286129,0.0-15.0-3.19,5640,List2A,black,man,,,,,"{""Q0"":""luke and ruth are playing with each other""}","<img src=""stim_listA/play2.gif""style=""height:400px;""></stim_listA>",are playing with each other,
18319,"<img src='img/portrait_matrix_list2.jpg' style='width:900px;height:500px;''></img><p>If you have memorised all the portraits and names and are ready to start, press Continue.</p><p><strong>Please note: Your memory of these faces will be tested 4 times during this experiment.</strong></p>",0,html-button-response,208,1304450,0.0-16.0-0.0,5640,List2A,black,man,,,,,,,,
2703,"<img src=""portrait/BW1.jpg""style=""height:400px;""></img>",0,html-button-response,209,1308155,0.0-16.0-1.0,5640,List2A,black,man,,TRUE,0,,,,,
null,CORRECT,,html-keyboard-response,210,1309656,0.0-16.0-2.0-0.0,5640,List2A,black,man,,,,null,,,,
1688,"<img src=""portrait/WW2.jpg""style=""height:400px;""></img>",3,html-button-response,211,1311346,0.0-16.0-4.0,5640,List2A,black,man,,TRUE,3,,,,,
null,CORRECT,,html-keyboard-response,212,1312847,0.0-16.0-5.0-0.0,5640,List2A,black,man,,,,null,,,,
2001,"<img src=""portrait/BM2.jpg""style=""height:400px;""></img>",5,html-button-response,213,1314850,0.0-16.0-7.0,5640,List2A,black,man,,TRUE,5,,,,,
null,CORRECT,,html-keyboard-response,214,1316352,0.0-16.0-8.0-0.0,5640,List2A,black,man,,,,null,,,,
2104,"<img src=""portrait/WM2.jpg""style=""height:400px;""></img>",7,html-button-response,215,1318458,0.0-16.0-10.0,5640,List2A,black,man,,TRUE,7,,,,,
null,CORRECT,,html-keyboard-response,216,1319960,0.0-16.0-11.0-0.0,5640,List2A,black,man,,,,null,,,,
2568,"<img src=""portrait/WW1.jpg""style=""height:400px;""></img>",1,html-button-response,217,1322529,0.0-16.0-13.0,5640,List2A,black,man,,TRUE,1,,,,,
null,CORRECT,,html-keyboard-response,218,1324031,0.0-16.0-14.0-0.0,5640,List2A,black,man,,,,null,,,,
2593,"<img src=""portrait/WM1.jpg""style=""height:400px;""></img>",6,html-button-response,219,1326626,0.0-16.0-16.0,5640,List2A,black,man,,TRUE,6,,,,,
null,CORRECT,,html-keyboard-response,220,1328128,0.0-16.0-17.0-0.0,5640,List2A,black,man,,,,null,,,,
3880,"<img src=""portrait/BW2.jpg""style=""height:400px;""></img>",2,html-button-response,221,1332010,0.0-16.0-19.0,5640,List2A,black,man,,TRUE,2,,,,,
null,CORRECT,,html-keyboard-response,222,1333511,0.0-16.0-20.0-0.0,5640,List2A,black,man,,,,null,,,,
3105,"<img src=""portrait/BM1.jpg""style=""height:400px;""></img>",4,html-button-response,223,1336618,0.0-16.0-22.0,5640,List2A,black,man,,TRUE,4,,,,,
null,CORRECT,,html-keyboard-response,224,1338120,0.0-16.0-23.0-0.0,5640,List2A,black,man,,,,null,,,,
3648,<p>You got 8 out of 8 right first time. Press Continue.</p>,0,html-button-response,225,1341770,0.0-16.0-25.0,5640,List2A,black,man,,,,,,,,
null,"<div style=""font-size:60px;"">+</div>",,html-keyboard-response,226,1343272,0.0-17.0-0.0,5640,List2A,black,man,,,,null,,,,
null,"<img src=""stim_listA/argue6.gif""style=""height:400px;""></stim_listA>",,html-keyboard-response,227,1345274,0.0-17.0-1.0,5640,List2A,black,man,,,,null,,,,
null,are arguing with each other,,html-keyboard-response,228,1347276,0.0-17.0-2.0,5640,List2A,black,man,,,,null,,,,
13675,,,survey-text,229,1360953,0.0-17.0-3.0,5640,List2A,black,man,,,,,"{""Q0"":""mike and luke are arguing with each other""}","<img src=""stim_listA/argue6.gif""style=""height:400px;""></stim_listA>",are arguing with each other,
null,"<div style=""font-size:60px;"">+</div>",,html-keyboard-response,230,1361454,0.0-17.0-0.1,5640,List2A,black,man,,,,null,,,,
null,"<img src=""stim_listA/play1.gif""style=""height:400px;""></stim_listA>",,html-keyboard-response,231,1363456,0.0-17.0-1.1,5640,List2A,black,man,,,,null,,,,
null,is playing with,,html-keyboard-response,232,1365457,0.0-17.0-2.1,5640,List2A,black,man,,,,null,,,,
13327,,,survey-text,233,1378785,0.0-17.0-3.1,5640,List2A,black,man,,,,,"{""Q0"":""dave is playing with jane""}","<img src=""stim_listA/play1.gif""style=""height:400px;""></stim_listA>",is playing with,
null,"<div style=""font-size:60px;"">+</div>",,html-keyboard-response,234,1379286,0.0-17.0-0.2,5640,List2A,black,man,,,,null,,,,
null,"<img src=""stim_listA/talk4.gif""style=""height:400px;""></stim_listA>",,html-keyboard-response,235,1381287,0.0-17.0-1.2,5640,List2A,black,man,,,,null,,,,
null,are talking to each other,,html-keyboard-response,236,1383288,0.0-17.0-2.2,5640,List2A,black,man,,,,null,,,,
11663,,,survey-text,237,1394953,0.0-17.0-3.2,5640,List2A,black,man,,,,,"{""Q0"":""beth and mike are talking to each other""}","<img src=""stim_listA/talk4.gif""style=""height:400px;""></stim_listA>",are talking to each other,
null,"<div style=""font-size:60px;"">+</div>",,html-keyboard-response,238,1395454,0.0-17.0-0.3,5640,List2A,black,man,,,,null,,,,
null,"<img src=""stim_listA/flirt2.gif""style=""height:400px;""></stim_listA>",,html-keyboard-response,239,1397456,0.0-17.0-1.3,5640,List2A,black,man,,,,null,,,,
null,are flirting with each other,,html-keyboard-response,240,1399457,0.0-17.0-2.3,5640,List2A,black,man,,,,null,,,,
12126,,,survey-text,241,1411585,0.0-17.0-3.3,5640,List2A,black,man,,,,,"{""Q0"":""ruth and dave are flirting with each other""}","<img src=""stim_listA/flirt2.gif""style=""height:400px;""></stim_listA>",are flirting with each other,
null,"<div style=""font-size:60px;"">+</div>",,html-keyboard-response,242,1412086,0.0-17.0-0.4,5640,List2A,black,man,,,,null,,,,
null,"<img src=""stim_listA/dance7.gif""style=""height:400px;""></stim_listA>",,html-keyboard-response,243,1414088,0.0-17.0-1.4,5640,List2A,black,man,,,,null,,,,
null,is dancing with,,html-keyboard-response,244,1416089,0.0-17.0-2.4,5640,List2A,black,man,,,,null,,,,
11022,,,survey-text,245,1427112,0.0-17.0-3.4,5640,List2A,black,man,,,,,"{""Q0"":""ruth is dancing with kate""}","<img src=""stim_listA/dance7.gif""style=""height:400px;""></stim_listA>",is dancing with,
null,"<div style=""font-size:60px;"">+</div>",,html-keyboard-response,246,1427613,0.0-17.0-0.5,5640,List2A,black,man,,,,null,,,,
null,"<img src=""stim_listA/flirt6.gif""style=""height:400px;""></stim_listA>",,html-keyboard-response,247,1429615,0.0-17.0-1.5,5640,List2A,black,man,,,,null,,,,
null,are flirting with each other,,html-keyboard-response,248,1431617,0.0-17.0-2.5,5640,List2A,black,man,,,,null,,,,
10742,,,survey-text,249,1442361,0.0-17.0-3.5,5640,List2A,black,man,,,,,"{""Q0"":""fred and dave are flirting with each other""}","<img src=""stim_listA/flirt6.gif""style=""height:400px;""></stim_listA>",are flirting with each other,
null,"<div style=""font-size:60px;"">+</div>",,html-keyboard-response,250,1442862,0.0-17.0-0.6,5640,List2A,black,man,,,,null,,,,
null,"<img src=""stim_listA/argue3.gif""style=""height:400px;""></stim_listA>",,html-keyboard-response,251,1444864,0.0-17.0-1.6,5640,List2A,black,man,,,,null,,,,
null,is arguing with,,html-keyboard-response,252,1446864,0.0-17.0-2.6,5640,List2A,black,man,,,,null,,,,
8631,,,survey-text,253,1455497,0.0-17.0-3.6,5640,List2A,black,man,,,,,"{""Q0"":""mike is arguing with beth""}","<img src=""stim_listA/argue3.gif""style=""height:400px;""></stim_listA>",is arguing with,
null,"<div style=""font-size:60px;"">+</div>",,html-keyboard-response,254,1455998,0.0-17.0-0.7,5640,List2A,black,man,,,,null,,,,
null,"<img src=""stim_listA/talk6.gif""style=""height:400px;""></stim_listA>",,html-keyboard-response,255,1458000,0.0-17.0-1.7,5640,List2A,black,man,,,,null,,,,
null,are talking to each other,,html-keyboard-response,256,1460001,0.0-17.0-2.7,5640,List2A,black,man,,,,null,,,,
19807,,,survey-text,257,1479808,0.0-17.0-3.7,5640,List2A,black,man,,,,,"{""Q0"":""fred and dave are talking with each other""}","<img src=""stim_listA/talk6.gif""style=""height:400px;""></stim_listA>",are talking to each other,
null,"<div style=""font-size:60px;"">+</div>",,html-keyboard-response,258,1480309,0.0-17.0-0.8,5640,List2A,black,man,,,,null,,,,
null,"<img src=""stim_listA/shout2.gif""style=""height:400px;""></stim_listA>",,html-keyboard-response,259,1482311,0.0-17.0-1.8,5640,List2A,black,man,,,,null,,,,
null,are shouting at each other,,html-keyboard-response,260,1484312,0.0-17.0-2.8,5640,List2A,black,man,,,,null,,,,
19207,,,survey-text,261,1503520,0.0-17.0-3.8,5640,List2A,black,man,,,,,"{""Q0"":""dave and jane are shouting at each other""}","<img src=""stim_listA/shout2.gif""style=""height:400px;""></stim_listA>",are shouting at each other,
null,"<div style=""font-size:60px;"">+</div>",,html-keyboard-response,262,1504021,0.0-17.0-0.9,5640,List2A,black,man,,,,null,,,,
null,"<img src=""stim_listA/play6.gif""style=""height:400px;""></stim_listA>",,html-keyboard-response,263,1506023,0.0-17.0-1.9,5640,List2A,black,man,,,,null,,,,
null,are playing with each other,,html-keyboard-response,264,1508024,0.0-17.0-2.9,5640,List2A,black,man,,,,null,,,,
13679,,,survey-text,265,1521704,0.0-17.0-3.9,5640,List2A,black,man,,,,,"{""Q0"":""fred and luke are playing with each other""}","<img src=""stim_listA/play6.gif""style=""height:400px;""></stim_listA>",are playing with each other,
null,"<div style=""font-size:60px;"">+</div>",,html-keyboard-response,266,1522205,0.0-17.0-0.10,5640,List2A,black,man,,,,null,,,,
null,"<img src=""stim_listA/dance8.gif""style=""height:400px;""></stim_listA>",,html-keyboard-response,267,1524207,0.0-17.0-1.10,5640,List2A,black,man,,,,null,,,,
null,are dancing with each other,,html-keyboard-response,268,1526208,0.0-17.0-2.10,5640,List2A,black,man,,,,null,,,,
10351,,,survey-text,269,1536560,0.0-17.0-3.10,5640,List2A,black,man,,,,,"{""Q0"":""jane and beth are dancing with each other""}","<img src=""stim_listA/dance8.gif""style=""height:400px;""></stim_listA>",are dancing with each other,
null,"<div style=""font-size:60px;"">+</div>",,html-keyboard-response,270,1537061,0.0-17.0-0.11,5640,List2A,black,man,,,,null,,,,
null,"<img src=""stim_listA/play8.gif""style=""height:400px;""></stim_listA>",,html-keyboard-response,271,1539063,0.0-17.0-1.11,5640,List2A,black,man,,,,null,,,,
null,are playing with each other,,html-keyboard-response,272,1541064,0.0-17.0-2.11,5640,List2A,black,man,,,,null,,,,
10503,,,survey-text,273,1551568,0.0-17.0-3.11,5640,List2A,black,man,,,,,"{""Q0"":""beth and ruth are playing with each other""}","<img src=""stim_listA/play8.gif""style=""height:400px;""></stim_listA>",are playing with each other,
null,"<div style=""font-size:60px;"">+</div>",,html-keyboard-response,274,1552069,0.0-17.0-0.12,5640,List2A,black,man,,,,null,,,,
null,"<img src=""stim_listA/fight8.gif""style=""height:400px;""></stim_listA>",,html-keyboard-response,275,1554071,0.0-17.0-1.12,5640,List2A,black,man,,,,null,,,,
null,are fighting each other,,html-keyboard-response,276,1556072,0.0-17.0-2.12,5640,List2A,black,man,,,,null,,,,
15382,,,survey-text,277,1571456,0.0-17.0-3.12,5640,List2A,black,man,,,,,"{""Q0"":""beth and ruth are fighting each other""}","<img src=""stim_listA/fight8.gif""style=""height:400px;""></stim_listA>",are fighting each other,
null,"<div style=""font-size:60px;"">+</div>",,html-keyboard-response,278,1571957,0.0-17.0-0.13,5640,List2A,black,man,,,,null,,,,
null,"<img src=""stim_listA/fight5.gif""style=""height:400px;""></stim_listA>",,html-keyboard-response,279,1573959,0.0-17.0-1.13,5640,List2A,black,man,,,,null,,,,
null,is fighting,,html-keyboard-response,280,1575960,0.0-17.0-2.13,5640,List2A,black,man,,,,null,,,,
9438,,,survey-text,281,1585400,0.0-17.0-3.13,5640,List2A,black,man,,,,,"{""Q0"":""dave is fighting mike""}","<img src=""stim_listA/fight5.gif""style=""height:400px;""></stim_listA>",is fighting,
null,"<div style=""font-size:60px;"">+</div>",,html-keyboard-response,282,1585901,0.0-17.0-0.14,5640,List2A,black,man,,,,null,,,,
null,"<img src=""stim_listA/marry8.gif""style=""height:400px;""></stim_listA>",,html-keyboard-response,283,1587902,0.0-17.0-1.14,5640,List2A,black,man,,,,null,,,,
null,are marrying each other,,html-keyboard-response,284,1589903,0.0-17.0-2.14,5640,List2A,black,man,,,,null,,,,
15975,,,survey-text,285,1605880,0.0-17.0-3.14,5640,List2A,black,man,,,,,"{""Q0"":""kate and ruth are marrying each other""}","<img src=""stim_listA/marry8.gif""style=""height:400px;""></stim_listA>",are marrying each other,
null,"<div style=""font-size:60px;"">+</div>",,html-keyboard-response,286,1606381,0.0-17.0-0.15,5640,List2A,black,man,,,,null,,,,
null,"<img src=""stim_listA/marry3.gif""style=""height:400px;""></stim_listA>",,html-keyboard-response,287,1608383,0.0-17.0-1.15,5640,List2A,black,man,,,,null,,,,
null,is marrying,,html-keyboard-response,288,1610384,0.0-17.0-2.15,5640,List2A,black,man,,,,null,,,,
9687,,,survey-text,289,1620072,0.0-17.0-3.15,5640,List2A,black,man,,,,,"{""Q0"":""mike is marrying beth""}","<img src=""stim_listA/marry3.gif""style=""height:400px;""></stim_listA>",is marrying,
null,"<div style=""font-size:60px;"">+</div>",,html-keyboard-response,290,1620573,0.0-17.0-0.16,5640,List2A,black,man,,,,null,,,,
null,"<img src=""stim_listA/kiss2.gif""style=""height:400px;""></stim_listA>",,html-keyboard-response,291,1622575,0.0-17.0-1.16,5640,List2A,black,man,,,,null,,,,
null,are kissing each other,,html-keyboard-response,292,1624576,0.0-17.0-2.16,5640,List2A,black,man,,,,null,,,,
14919,,,survey-text,293,1639496,0.0-17.0-3.16,5640,List2A,black,man,,,,,"{""Q0"":""jane and dave are kissing each other""}","<img src=""stim_listA/kiss2.gif""style=""height:400px;""></stim_listA>",are kissing each other,
null,"<div style=""font-size:60px;"">+</div>",,html-keyboard-response,294,1639997,0.0-17.0-0.17,5640,List2A,black,man,,,,null,,,,
null,"<img src=""stim_listA/touch1.gif""style=""height:400px;""></stim_listA>",,html-keyboard-response,295,1641999,0.0-17.0-1.17,5640,List2A,black,man,,,,null,,,,
null,is touching,,html-keyboard-response,296,1644000,0.0-17.0-2.17,5640,List2A,black,man,,,,null,,,,
13094,,,survey-text,297,1657095,0.0-17.0-3.17,5640,List2A,black,man,,,,,"{""Q0"":""dave is touching jane""}","<img src=""stim_listA/touch1.gif""style=""height:400px;""></stim_listA>",is touching,
null,"<div style=""font-size:60px;"">+</div>",,html-keyboard-response,298,1657597,0.0-17.0-0.18,5640,List2A,black,man,,,,null,,,,
null,"<img src=""stim_listA/play4.gif""style=""height:400px;""></stim_listA>",,html-keyboard-response,299,1659599,0.0-17.0-1.18,5640,List2A,black,man,,,,null,,,,
null,are playing with each other,,html-keyboard-response,300,1661600,0.0-17.0-2.18,5640,List2A,black,man,,,,null,,,,
13966,,,survey-text,301,1675567,0.0-17.0-3.18,5640,List2A,black,man,,,,,"{""Q0"":""beth and fred are playing with each other""}","<img src=""stim_listA/play4.gif""style=""height:400px;""></stim_listA>",are playing with each other,
null,"<div style=""font-size:60px;"">+</div>",,html-keyboard-response,302,1676068,0.0-17.0-0.19,5640,List2A,black,man,,,,null,,,,
null,"<img src=""stim_listA/argue1.gif""style=""height:400px;""></stim_listA>",,html-keyboard-response,303,1678070,0.0-17.0-1.19,5640,List2A,black,man,,,,null,,,,
null,is arguing with,,html-keyboard-response,304,1680071,0.0-17.0-2.19,5640,List2A,black,man,,,,null,,,,
12038,,,survey-text,305,1692111,0.0-17.0-3.19,5640,List2A,black,man,,,,,"{""Q0"":""ruth is arguing with dave""}","<img src=""stim_listA/argue1.gif""style=""height:400px;""></stim_listA>",is arguing with,
12455,"<img src='img/portrait_matrix_list2.jpg' style='width:900px;height:500px;''></img><p>If you have memorised all the portraits and names and are ready to start, press Continue.</p><p><strong>Please note: Your memory of these faces will be tested 4 times during this experiment.</strong></p>",0,html-button-response,306,1704568,0.0-18.0-0.0,5640,List2A,black,man,,,,,,,,
2797,"<img src=""portrait/WM2.jpg""style=""height:400px;""></img>",7,html-button-response,307,1708367,0.0-18.0-1.0,5640,List2A,black,man,,TRUE,7,,,,,
null,CORRECT,,html-keyboard-response,308,1709869,0.0-18.0-2.0-0.0,5640,List2A,black,man,,,,null,,,,
2265,"<img src=""portrait/BW2.jpg""style=""height:400px;""></img>",2,html-button-response,309,1712136,0.0-18.0-4.0,5640,List2A,black,man,,TRUE,2,,,,,
null,CORRECT,,html-keyboard-response,310,1713638,0.0-18.0-5.0-0.0,5640,List2A,black,man,,,,null,,,,
1936,"<img src=""portrait/BW1.jpg""style=""height:400px;""></img>",0,html-button-response,311,1715576,0.0-18.0-7.0,5640,List2A,black,man,,TRUE,0,,,,,
null,CORRECT,,html-keyboard-response,312,1717077,0.0-18.0-8.0-0.0,5640,List2A,black,man,,,,null,,,,
1912,"<img src=""portrait/WW2.jpg""style=""height:400px;""></img>",3,html-button-response,313,1718992,0.0-18.0-10.0,5640,List2A,black,man,,TRUE,3,,,,,
null,CORRECT,,html-keyboard-response,314,1720493,0.0-18.0-11.0-0.0,5640,List2A,black,man,,,,null,,,,
2073,"<img src=""portrait/BM1.jpg""style=""height:400px;""></img>",4,html-button-response,315,1722567,0.0-18.0-13.0,5640,List2A,black,man,,TRUE,4,,,,,
null,CORRECT,,html-keyboard-response,316,1724069,0.0-18.0-14.0-0.0,5640,List2A,black,man,,,,null,,,,
2248,"<img src=""portrait/WM1.jpg""style=""height:400px;""></img>",6,html-button-response,317,1726319,0.0-18.0-16.0,5640,List2A,black,man,,TRUE,6,,,,,
null,CORRECT,,html-keyboard-response,318,1727820,0.0-18.0-17.0-0.0,5640,List2A,black,man,,,,null,,,,
2225,"<img src=""portrait/WW1.jpg""style=""height:400px;""></img>",1,html-button-response,319,1730047,0.0-18.0-19.0,5640,List2A,black,man,,TRUE,1,,,,,
null,CORRECT,,html-keyboard-response,320,1731549,0.0-18.0-20.0-0.0,5640,List2A,black,man,,,,null,,,,
2249,"<img src=""portrait/BM2.jpg""style=""height:400px;""></img>",5,html-button-response,321,1733800,0.0-18.0-22.0,5640,List2A,black,man,,TRUE,5,,,,,
null,CORRECT,,html-keyboard-response,322,1735301,0.0-18.0-23.0-0.0,5640,List2A,black,man,,,,null,,,,
3793,<p>You got 8 out of 8 right first time. Press Continue.</p>,0,html-button-response,323,1739096,0.0-18.0-25.0,5640,List2A,black,man,,,,,,,,
null,"<div style=""font-size:60px;"">+</div>",,html-keyboard-response,324,1740598,0.0-19.0-0.0,5640,List2A,black,man,,,,null,,,,
null,"<img src=""stim_listA/kiss3.gif""style=""height:400px;""></stim_listA>",,html-keyboard-response,325,1742600,0.0-19.0-1.0,5640,List2A,black,man,,,,null,,,,
null,is kissing,,html-keyboard-response,326,1744601,0.0-19.0-2.0,5640,List2A,black,man,,,,null,,,,
10812,,,survey-text,327,1755415,0.0-19.0-3.0,5640,List2A,black,man,,,,,"{""Q0"":""fred is kissing beth""}","<img src=""stim_listA/kiss3.gif""style=""height:400px;""></stim_listA>",is kissing,
null,"<div style=""font-size:60px;"">+</div>",,html-keyboard-response,328,1755916,0.0-19.0-0.1,5640,List2A,black,man,,,,null,,,,
null,"<img src=""stim_listA/fight4.gif""style=""height:400px;""></stim_listA>",,html-keyboard-response,329,1757917,0.0-19.0-1.1,5640,List2A,black,man,,,,null,,,,
null,are fighting each other,,html-keyboard-response,330,1759918,0.0-19.0-2.1,5640,List2A,black,man,,,,null,,,,
11567,,,survey-text,331,1771487,0.0-19.0-3.1,5640,List2A,black,man,,,,,"{""Q0"":""fred and beth are fighting each other""}","<img src=""stim_listA/fight4.gif""style=""height:400px;""></stim_listA>",are fighting each other,
null,"<div style=""font-size:60px;"">+</div>",,html-keyboard-response,332,1771988,0.0-19.0-0.2,5640,List2A,black,man,,,,null,,,,
null,"<img src=""stim_listA/shout5.gif""style=""height:400px;""></stim_listA>",,html-keyboard-response,333,1773989,0.0-19.0-1.2,5640,List2A,black,man,,,,null,,,,
null,is shouting at,,html-keyboard-response,334,1775991,0.0-19.0-2.2,5640,List2A,black,man,,,,null,,,,
10135,,,survey-text,335,1786126,0.0-19.0-3.2,5640,List2A,black,man,,,,,"{""Q0"":""fred is shouting at luke""}","<img src=""stim_listA/shout5.gif""style=""height:400px;""></stim_listA>",is shouting at,
null,"<div style=""font-size:60px;"">+</div>",,html-keyboard-response,336,1786627,0.0-19.0-0.3,5640,List2A,black,man,,,,null,,,,
null,"<img src=""stim_listA/play7.gif""style=""height:400px;""></stim_listA>",,html-keyboard-response,337,1788629,0.0-19.0-1.3,5640,List2A,black,man,,,,null,,,,
null,is playing with,,html-keyboard-response,338,1790630,0.0-19.0-2.3,5640,List2A,black,man,,,,null,,,,
10311,,,survey-text,339,1800943,0.0-19.0-3.3,5640,List2A,black,man,,,,,"{""Q0"":""jane is playing with kate""}","<img src=""stim_listA/play7.gif""style=""height:400px;""></stim_listA>",is playing with,
null,"<div style=""font-size:60px;"">+</div>",,html-keyboard-response,340,1801444,0.0-19.0-0.4,5640,List2A,black,man,,,,null,,,,
null,"<img src=""stim_listA/kiss4.gif""style=""height:400px;""></stim_listA>",,html-keyboard-response,341,1803446,0.0-19.0-1.4,5640,List2A,black,man,,,,null,,,,
null,are kissing each other,,html-keyboard-response,342,1805447,0.0-19.0-2.4,5640,List2A,black,man,,,,null,,,,
14758,,,survey-text,343,1820206,0.0-19.0-3.4,5640,List2A,black,man,,,,,"{""Q0"":""kate and mike are kissing each other""}","<img src=""stim_listA/kiss4.gif""style=""height:400px;""></stim_listA>",are kissing each other,
null,"<div style=""font-size:60px;"">+</div>",,html-keyboard-response,344,1820707,0.0-19.0-0.5,5640,List2A,black,man,,,,null,,,,
null,"<img src=""stim_listA/kiss6.gif""style=""height:400px;""></stim_listA>",,html-keyboard-response,345,1822709,0.0-19.0-1.5,5640,List2A,black,man,,,,null,,,,
null,are kissing each other,,html-keyboard-response,346,1824710,0.0-19.0-2.5,5640,List2A,black,man,,,,null,,,,
13439,,,survey-text,347,1838150,0.0-19.0-3.5,5640,List2A,black,man,,,,,"{""Q0"":""mike and dave are kissing each other""}","<img src=""stim_listA/kiss6.gif""style=""height:400px;""></stim_listA>",are kissing each other,
null,"<div style=""font-size:60px;"">+</div>",,html-keyboard-response,348,1838651,0.0-19.0-0.6,5640,List2A,black,man,,,,null,,,,
null,"<img src=""stim_listA/play5.gif""style=""height:400px;""></stim_listA>",,html-keyboard-response,349,1840653,0.0-19.0-1.6,5640,List2A,black,man,,,,null,,,,
null,is playing with,,html-keyboard-response,350,1842654,0.0-19.0-2.6,5640,List2A,black,man,,,,null,,,,
8631,,,survey-text,351,1851286,0.0-19.0-3.6,5640,List2A,black,man,,,,,"{""Q0"":""dave is playing with mike""}","<img src=""stim_listA/play5.gif""style=""height:400px;""></stim_listA>",is playing with,
null,"<div style=""font-size:60px;"">+</div>",,html-keyboard-response,352,1851787,0.0-19.0-0.7,5640,List2A,black,man,,,,null,,,,
null,"<img src=""stim_listA/flirt5.gif""style=""height:400px;""></stim_listA>",,html-keyboard-response,353,1853789,0.0-19.0-1.7,5640,List2A,black,man,,,,null,,,,
null,is flirting with,,html-keyboard-response,354,1855790,0.0-19.0-2.7,5640,List2A,black,man,,,,null,,,,
11439,,,survey-text,355,1867231,0.0-19.0-3.7,5640,List2A,black,man,,,,,"{""Q0"":""mike is flirting with luke""}","<img src=""stim_listA/flirt5.gif""style=""height:400px;""></stim_listA>",is flirting with,
null,"<div style=""font-size:60px;"">+</div>",,html-keyboard-response,356,1867732,0.0-19.0-0.8,5640,List2A,black,man,,,,null,,,,
null,"<img src=""stim_listA/talk7.gif""style=""height:400px;""></stim_listA>",,html-keyboard-response,357,1869734,0.0-19.0-1.8,5640,List2A,black,man,,,,null,,,,
null,is talking to,,html-keyboard-response,358,1871735,0.0-19.0-2.8,5640,List2A,black,man,,,,null,,,,
9493,,,survey-text,359,1881230,0.0-19.0-3.8,5640,List2A,black,man,,,,,"{""Q0"":""ruth is talking to kate""}","<img src=""stim_listA/talk7.gif""style=""height:400px;""></stim_listA>",is talking to,
null,"<div style=""font-size:60px;"">+</div>",,html-keyboard-response,360,1881731,0.0-19.0-0.9,5640,List2A,black,man,,,,null,,,,
null,"<img src=""stim_listA/marry5.gif""style=""height:400px;""></stim_listA>",,html-keyboard-response,361,1883733,0.0-19.0-1.9,5640,List2A,black,man,,,,null,,,,
null,is marrying,,html-keyboard-response,362,1885734,0.0-19.0-2.9,5640,List2A,black,man,,,,null,,,,
12862,,,survey-text,363,1898598,0.0-19.0-3.9,5640,List2A,black,man,,,,,"{""Q0"":""dave is marrying fred""}","<img src=""stim_listA/marry5.gif""style=""height:400px;""></stim_listA>",is marrying,
null,"<div style=""font-size:60px;"">+</div>",,html-keyboard-response,364,1899099,0.0-19.0-0.10,5640,List2A,black,man,,,,null,,,,
null,"<img src=""stim_listA/play3.gif""style=""height:400px;""></stim_listA>",,html-keyboard-response,365,1901101,0.0-19.0-1.10,5640,List2A,black,man,,,,null,,,,
null,is playing with,,html-keyboard-response,366,1903102,0.0-19.0-2.10,5640,List2A,black,man,,,,null,,,,
8239,,,survey-text,367,1911342,0.0-19.0-3.10,5640,List2A,black,man,,,,,"{""Q0"":""kate is playing with mike""}","<img src=""stim_listA/play3.gif""style=""height:400px;""></stim_listA>",is playing with,
null,"<div style=""font-size:60px;"">+</div>",,html-keyboard-response,368,1911843,0.0-19.0-0.11,5640,List2A,black,man,,,,null,,,,
null,"<img src=""stim_listA/flirt3.gif""style=""height:400px;""></stim_listA>",,html-keyboard-response,369,1913845,0.0-19.0-1.11,5640,List2A,black,man,,,,null,,,,
null,is flirting with,,html-keyboard-response,370,1915846,0.0-19.0-2.11,5640,List2A,black,man,,,,null,,,,
11550,,,survey-text,371,1927398,0.0-19.0-3.11,5640,List2A,black,man,,,,,"{""Q0"":""fred is flirting with kate""}","<img src=""stim_listA/flirt3.gif""style=""height:400px;""></stim_listA>",is flirting with,
null,"<div style=""font-size:60px;"">+</div>",,html-keyboard-response,372,1927899,0.0-19.0-0.12,5640,List2A,black,man,,,,null,,,,
null,"<img src=""stim_listA/fight2.gif""style=""height:400px;""></stim_listA>",,html-keyboard-response,373,1929901,0.0-19.0-1.12,5640,List2A,black,man,,,,null,,,,
null,are fighting each other,,html-keyboard-response,374,1931902,0.0-19.0-2.12,5640,List2A,black,man,,,,null,,,,
12999,,,survey-text,375,1944902,0.0-19.0-3.12,5640,List2A,black,man,,,,,"{""Q0"":""ruth and luke are fighting each other""}","<img src=""stim_listA/fight2.gif""style=""height:400px;""></stim_listA>",are fighting each other,
null,"<div style=""font-size:60px;"">+</div>",,html-keyboard-response,376,1945403,0.0-19.0-0.13,5640,List2A,black,man,,,,null,,,,
null,"<img src=""stim_listA/shout1.gif""style=""height:400px;""></stim_listA>",,html-keyboard-response,377,1947404,0.0-19.0-1.13,5640,List2A,black,man,,,,null,,,,
null,is shouting at,,html-keyboard-response,378,1949405,0.0-19.0-2.13,5640,List2A,black,man,,,,null,,,,
9527,,,survey-text,379,1958933,0.0-19.0-3.13,5640,List2A,black,man,,,,,"{""Q0"":""ruth is shouting at luke""}","<img src=""stim_listA/shout1.gif""style=""height:400px;""></stim_listA>",is shouting at,
null,"<div style=""font-size:60px;"">+</div>",,html-keyboard-response,380,1959434,0.0-19.0-0.14,5640,List2A,black,man,,,,null,,,,
null,"<img src=""stim_listA/marry6.gif""style=""height:400px;""></stim_listA>",,html-keyboard-response,381,1961436,0.0-19.0-1.14,5640,List2A,black,man,,,,null,,,,
null,are marrying each other,,html-keyboard-response,382,1963437,0.0-19.0-2.14,5640,List2A,black,man,,,,null,,,,
13191,,,survey-text,383,1976630,0.0-19.0-3.14,5640,List2A,black,man,,,,,"{""Q0"":""mike and luke are marrying each other""}","<img src=""stim_listA/marry6.gif""style=""height:400px;""></stim_listA>",are marrying each other,
null,"<div style=""font-size:60px;"">+</div>",,html-keyboard-response,384,1977131,0.0-19.0-0.15,5640,List2A,black,man,,,,null,,,,
null,"<img src=""stim_listA/shout4.gif""style=""height:400px;""></stim_listA>",,html-keyboard-response,385,1979133,0.0-19.0-1.15,5640,List2A,black,man,,,,null,,,,
null,are shouting at each other,,html-keyboard-response,386,1981134,0.0-19.0-2.15,5640,List2A,black,man,,,,null,,,,
14214,,,survey-text,387,1995349,0.0-19.0-3.15,5640,List2A,black,man,,,,,"{""Q0"":""kate and mike are shouting at each other""}","<img src=""stim_listA/shout4.gif""style=""height:400px;""></stim_listA>",are shouting at each other,
null,"<div style=""font-size:60px;"">+</div>",,html-keyboard-response,388,1995850,0.0-19.0-0.16,5640,List2A,black,man,,,,null,,,,
null,"<img src=""stim_listA/shout8.gif""style=""height:400px;""></stim_listA>",,html-keyboard-response,389,1997852,0.0-19.0-1.16,5640,List2A,black,man,,,,null,,,,
null,are shouting at each other,,html-keyboard-response,390,1999853,0.0-19.0-2.16,5640,List2A,black,man,,,,null,,,,
11991,,,survey-text,391,2011845,0.0-19.0-3.16,5640,List2A,black,man,,,,,"{""Q0"":""jane and kate are shouting at each other""}","<img src=""stim_listA/shout8.gif""style=""height:400px;""></stim_listA>",are shouting at each other,
null,"<div style=""font-size:60px;"">+</div>",,html-keyboard-response,392,2012346,0.0-19.0-0.17,5640,List2A,black,man,,,,null,,,,
null,"<img src=""stim_listA/argue8.gif""style=""height:400px;""></stim_listA>",,html-keyboard-response,393,2014348,0.0-19.0-1.17,5640,List2A,black,man,,,,null,,,,
null,are arguing with each other,,html-keyboard-response,394,2016349,0.0-19.0-2.17,5640,List2A,black,man,,,,null,,,,
13367,,,survey-text,395,2029717,0.0-19.0-3.17,5640,List2A,black,man,,,,,"{""Q0"":""kate and ruth are arguing with each other""}","<img src=""stim_listA/argue8.gif""style=""height:400px;""></stim_listA>",are arguing with each other,
null,"<div style=""font-size:60px;"">+</div>",,html-keyboard-response,396,2030218,0.0-19.0-0.18,5640,List2A,black,man,,,,null,,,,
null,"<img src=""stim_listA/talk8.gif""style=""height:400px;""></stim_listA>",,html-keyboard-response,397,2032220,0.0-19.0-1.18,5640,List2A,black,man,,,,null,,,,
null,are talking to each other,,html-keyboard-response,398,2034221,0.0-19.0-2.18,5640,List2A,black,man,,,,null,,,,
13502,,,survey-text,399,2047725,0.0-19.0-3.18,5640,List2A,black,man,,,,,"{""Q0"":""beth and jane are talking to each other""}","<img src=""stim_listA/talk8.gif""style=""height:400px;""></stim_listA>",are talking to each other,
null,"<div style=""font-size:60px;"">+</div>",,html-keyboard-response,400,2048226,0.0-19.0-0.19,5640,List2A,black,man,,,,null,,,,
null,"<img src=""stim_listA/shout6.gif""style=""height:400px;""></stim_listA>",,html-keyboard-response,401,2050228,0.0-19.0-1.19,5640,List2A,black,man,,,,null,,,,
null,are shouting at each other,,html-keyboard-response,402,2052229,0.0-19.0-2.19,5640,List2A,black,man,,,,null,,,,
15094,,,survey-text,403,2067325,0.0-19.0-3.19,5640,List2A,black,man,,,,,"{""Q0"":""mike and dave are shouting at each other""}","<img src=""stim_listA/shout6.gif""style=""height:400px;""></stim_listA>",are shouting at each other,
5064,<p>Thank you for completing that task.</p><p>The final part of this session is a short questionnaire.</p><p>Press Continue.</p>,0,html-button-response,404,2072390,0.0-20.0,5640,List2A,black,man,,,,,,,,
29325,,,survey-text,405,2102717,0.0-21.0,5640,List2A,black,man,,,,,"{""Q0"":""52"",""Q1"":""English"",""Q2"":""English"",""Q3"":""United States of America"",""Q4"":""Black"",""Q5"":""Male""}",,,demographics
33838,,,survey-likert,406,2136558,0.0-22.0,5640,List2A,black,man,,,,,"{""Q0"":3}",,,likert_ESS
10709,,,survey-likert,407,2147270,0.0-23.0,5640,List2A,black,man,,,,,"{""Q0"":0}",,,likert_NSSAL_Q1
9396,,,survey-likert,408,2156669,0.0-24.0,5640,List2A,black,man,,,,,"{""Q0"":0}",,,likert_NSSAL_Q2
8548,,,survey-likert,409,2165222,0.0-25.0,5640,List2A,black,man,,,,,"{""Q0"":4}",,,likert_CGRS_Q1
7380,,,survey-likert,410,2172605,0.0-26.0,5640,List2A,black,man,,,,,"{""Q0"":4}",,,likert_CGRS_Q2
5781,,,survey-likert,411,2178388,0.0-27.0,5640,List2A,black,man,,,,,"{""Q0"":4}",,,likert_CGRS_Q3
8742,,,survey-text,412,2187133,0.0-28.0,5640,List2A,black,man,,,,,"{""Q0"":""ccc""}",,,worker_id
39433,,,external-html,413,2226828,0.0-29.0,5640,List2A,black,man,debrief.html,,,,,,,
