rt,stimulus,button_pressed,trial_type,trial_index,time_elapsed,internal_node_id,subject,list,ppt_race,ppt_gender,url,first_guess,correct,key_press,responses,image_type,phrase_type,test_part
15563,Welcome to the experiment. Press Continue to begin.,0,html-button-response,0,15570,0.0-0.0,56626,List2A,black,woman,,,,,,,,
33991,,,external-html,1,50691,0.0-1.0,56626,List2A,black,woman,consent.html,,,,,,,
40247,"<p>On the next page, you will see portraits of 8 people and their names.</p><p>Your first task is to take a few minutes to memorise the names of these people.</p><p>You will have to recall their names during the rest of the experiment, so it is</p><p>essential that you try to memorise these people and their names as best as you can.</p><br><p><strong>You will then be tested on your memory of these names and portraits.</strong></p><br><p>The experiment will start after you have completed this memory test.</p><br><p>Ready?</p>",0,html-button-response,2,90943,0.0-2.0,56626,List2A,black,woman,,,,,,,,
63338,"<img src='img/portrait_matrix_list2.jpg' style='width:900px;height:500px;''></img><p>If you have memorised all the portraits and names and are ready to start, press Continue.</p><p><strong>Please note: Your memory of these faces will be tested 4 times during this experiment.</strong></p>",0,html-button-response,3,155286,0.0-3.0-0.0,56626,List2A,black,woman,,,,,,,,
6232,"<img src=""portrait/WM2.jpg""style=""height:400px;""></img>",7,html-button-response,4,162528,0.0-3.0-1.0,56626,List2A,black,woman,,TRUE,7,,,,,
null,CORRECT,,html-keyboard-response,5,164042,0.0-3.0-2.0-0.0,56626,List2A,black,woman,,,,null,,,,
3595,"<img src=""portrait/BW1.jpg""style=""height:400px;""></img>",0,html-button-response,6,167644,0.0-3.0-4.0,56626,List2A,black,woman,,TRUE,0,,,,,
null,CORRECT,,html-keyboard-response,7,169153,0.0-3.0-5.0-0.0,56626,List2A,black,woman,,,,null,,,,
3039,"<img src=""portrait/WM1.jpg""style=""height:400px;""></img>",6,html-button-response,8,172199,0.0-3.0-7.0,56626,List2A,black,woman,,TRUE,6,,,,,
null,CORRECT,,html-keyboard-response,9,173710,0.0-3.0-8.0-0.0,56626,List2A,black,woman,,,,null,,,,
5290,"<img src=""portrait/WW1.jpg""style=""height:400px;""></img>",3,html-button-response,10,179005,0.0-3.0-10.0,56626,List2A,black,woman,,TRUE,1,,,,,
3177,"<img src=""portrait/WW1.jpg""style=""height:400px;""></img>",1,html-button-response,11,183192,0.0-3.0-12.0-0.0,56626,List2A,black,woman,,FALSE,1,,,,,
null,CORRECT,,html-keyboard-response,12,184702,0.0-3.0-12.0-1.0-0.0,56626,List2A,black,woman,,,,null,,,,
1846,"<img src=""portrait/BM2.jpg""style=""height:400px;""></img>",5,html-button-response,13,186552,0.0-3.0-13.0,56626,List2A,black,woman,,TRUE,5,,,,,
null,CORRECT,,html-keyboard-response,14,188060,0.0-3.0-14.0-0.0,56626,List2A,black,woman,,,,null,,,,
1821,"<img src=""portrait/WW2.jpg""style=""height:400px;""></img>",3,html-button-response,15,189886,0.0-3.0-16.0,56626,List2A,black,woman,,TRUE,3,,,,,
null,CORRECT,,html-keyboard-response,16,191398,0.0-3.0-17.0-0.0,56626,List2A,black,woman,,,,null,,,,
3885,"<img src=""portrait/BW2.jpg""style=""height:400px;""></img>",2,html-button-response,17,195287,0.0-3.0-19.0,56626,List2A,black,woman,,TRUE,2,,,,,
null,CORRECT,,html-keyboard-response,18,196796,0.0-3.0-20.0-0.0,56626,List2A,black,woman,,,,null,,,,
11421,"<img src=""portrait/BM1.jpg""style=""height:400px;""></img>",4,html-button-response,19,208221,0.0-3.0-22.0,56626,List2A,black,woman,,TRUE,4,,,,,
null,CORRECT,,html-keyboard-response,20,209732,0.0-3.0-23.0-0.0,56626,List2A,black,woman,,,,null,,,,
4001,<p>You got 7 out of 8 right first time. Press Continue.</p>,0,html-button-response,21,213735,0.0-3.0-25.0,56626,List2A,black,woman,,,,,,,,
10567,"As you did not score 100%, the memory game will repeat. Press Continue.",0,html-button-response,22,225306,0.0-3.0-26.0-0.0,56626,List2A,black,woman,,,,,,,,
2733,"<img src='img/portrait_matrix_list2.jpg' style='width:900px;height:500px;''></img><p>If you have memorised all the portraits and names and are ready to start, press Continue.</p><p><strong>Please note: Your memory of these faces will be tested 4 times during this experiment.</strong></p>",0,html-button-response,23,229080,0.0-3.1-0.1,56626,List2A,black,woman,,,,,,,,
2180,"<img src=""portrait/WM2.jpg""style=""height:400px;""></img>",7,html-button-response,24,232268,0.0-3.1-1.1,56626,List2A,black,woman,,TRUE,7,,,,,
null,CORRECT,,html-keyboard-response,25,233779,0.0-3.1-2.1-0.1,56626,List2A,black,woman,,,,null,,,,
2405,"<img src=""portrait/BW1.jpg""style=""height:400px;""></img>",0,html-button-response,26,236189,0.0-3.1-4.1,56626,List2A,black,woman,,TRUE,0,,,,,
null,CORRECT,,html-keyboard-response,27,237701,0.0-3.1-5.1-0.1,56626,List2A,black,woman,,,,null,,,,
2312,"<img src=""portrait/WM1.jpg""style=""height:400px;""></img>",6,html-button-response,28,240018,0.0-3.1-7.1,56626,List2A,black,woman,,TRUE,6,,,,,
null,CORRECT,,html-keyboard-response,29,241523,0.0-3.1-8.1-0.1,56626,List2A,black,woman,,,,null,,,,
2279,"<img src=""portrait/WW1.jpg""style=""height:400px;""></img>",1,html-button-response,30,243806,0.0-3.1-10.1,56626,List2A,black,woman,,TRUE,1,,,,,
null,CORRECT,,html-keyboard-response,31,245317,0.0-3.1-11.1-0.1,56626,List2A,black,woman,,,,null,,,,
2545,"<img src=""portrait/BM2.jpg""style=""height:400px;""></img>",5,html-button-response,32,247866,0.0-3.1-13.1,56626,List2A,black,woman,,TRUE,5,,,,,
null,CORRECT,,html-keyboard-response,33,249374,0.0-3.1-14.1-0.1,56626,List2A,black,woman,,,,null,,,,
2062,"<img src=""portrait/WW2.jpg""style=""height:400px;""></img>",3,html-button-response,34,251442,0.0-3.1-16.1,56626,List2A,black,woman,,TRUE,3,,,,,
null,CORRECT,,html-keyboard-response,35,252972,0.0-3.1-17.1-0.1,56626,List2A,black,woman,,,,null,,,,
5453,"<img src=""portrait/BW2.jpg""style=""height:400px;""></img>",2,html-button-response,36,258431,0.0-3.1-19.1,56626,List2A,black,woman,,TRUE,2,,,,,
null,CORRECT,,html-keyboard-response,37,259958,0.0-3.1-20.1-0.1,56626,List2A,black,woman,,,,null,,,,
3335,"<img src=""portrait/BM1.jpg""style=""height:400px;""></img>",4,html-button-response,38,263298,0.0-3.1-22.1,56626,List2A,black,woman,,TRUE,4,,,,,
null,CORRECT,,html-keyboard-response,39,264817,0.0-3.1-23.1-0.1,56626,List2A,black,woman,,,,null,,,,
1651,<p>You got 8 out of 8 right first time. Press Continue.</p>,0,html-button-response,40,266474,0.0-3.1-25.1,56626,List2A,black,woman,,,,,,,,
109320,"<p>In this experiment, you will view photographs of the people from the memory game interacting.</p><p>By using the <strong>exact</strong> phrase given <i>after</i> the photograph appears and recalling the correct names of the people in the photographs, form a sentence describing the interaction. You do not need to capitalise names.</p><p>Type your answer in the space provided. Please complete every sentence before moving onto the next trial.</p><p>You will only have a few seconds to memorise each given photograph and phrase before you can respond, so try your best to focus.</p><p>An example is given below. Press 'Continue' when you are ready.</p><img src='img/speaking_example.jpg' style='width:800px;height:460px;''></img>",0,html-button-response,41,376816,0.0-4.0,56626,List2A,black,woman,,,,,,,,
2127,"<p>Before the experiment starts, you will watch two example trials. Press 'Continue'.</p>",0,html-button-response,42,379951,0.0-5.0,56626,List2A,black,woman,,,,,,,,
null,<img src='img/meet_eg.gif' style='height:400px;''></img>,,html-keyboard-response,43,382959,0.0-6.0,56626,List2A,black,woman,,,,null,,,,
null,<p>is meeting</p>,,html-keyboard-response,44,384966,0.0-7.0,56626,List2A,black,woman,,,,null,,,,
3331,<p><b>Answer:</b> jane is meeting ruth</p>,0,html-button-response,45,388300,0.0-8.0,56626,List2A,black,woman,,,,,,,,
null,<img src='img/look_eg.gif' style='height:400px;''></img>,,html-keyboard-response,46,391310,0.0-9.0,56626,List2A,black,woman,,,,null,,,,
null,<p>are looking at each other</p>,,html-keyboard-response,47,393314,0.0-10.0,56626,List2A,black,woman,,,,null,,,,
1449,<p><b>Answer:</b> fred and mike are looking at each other</p>,0,html-button-response,48,394766,0.0-11.0,56626,List2A,black,woman,,,,,,,,
5715,"<p>Ready to start the experiment?</p><br><p><strong>Remember to describe the picture using a full sentence,</strong></p><p><strong>that combines the names of the people with the <i>exact</i> phrase given.</strong></p><p><strong>To receive full payment you must do this correctly.</strong></p><p><strong> You do not need to capitalise names or use punctuation.</strong></p><br><p>Press 'Continue' to begin.</p>",0,html-button-response,49,401489,0.0-12.0,56626,List2A,black,woman,,,,,,,,
null,"<div style=""font-size:60px;"">+</div>",,html-keyboard-response,50,402998,0.0-13.0-0.0,56626,List2A,black,woman,,,,null,,,,
null,"<img src=""stim_listA/dance6.gif""style=""height:400px;""></stim_listA>",,html-keyboard-response,51,405004,0.0-13.0-1.0,56626,List2A,black,woman,,,,null,,,,
null,are dancing with each other,,html-keyboard-response,52,407008,0.0-13.0-2.0,56626,List2A,black,woman,,,,null,,,,
92712,,,survey-text,53,499725,0.0-13.0-3.0,56626,List2A,black,woman,,,,,"{""Q0"":""Fred and Dave are dancing with each other. ""}","<img src=""stim_listA/dance6.gif""style=""height:400px;""></stim_listA>",are dancing with each other,
null,"<div style=""font-size:60px;"">+</div>",,html-keyboard-response,54,500236,0.0-13.0-0.1,56626,List2A,black,woman,,,,null,,,,
null,"<img src=""stim_listA/flirt2.gif""style=""height:400px;""></stim_listA>",,html-keyboard-response,55,502239,0.0-13.0-1.1,56626,List2A,black,woman,,,,null,,,,
null,are flirting with each other,,html-keyboard-response,56,504260,0.0-13.0-2.1,56626,List2A,black,woman,,,,null,,,,
9992,,,survey-text,57,514256,0.0-13.0-3.1,56626,List2A,black,woman,,,,,"{""Q0"":""Ruth and Dave are flirting with each other. ""}","<img src=""stim_listA/flirt2.gif""style=""height:400px;""></stim_listA>",are flirting with each other,
null,"<div style=""font-size:60px;"">+</div>",,html-keyboard-response,58,514763,0.0-13.0-0.2,56626,List2A,black,woman,,,,null,,,,
null,"<img src=""stim_listA/kiss8.gif""style=""height:400px;""></stim_listA>",,html-keyboard-response,59,516791,0.0-13.0-1.2,56626,List2A,black,woman,,,,null,,,,
null,are kissing each other,,html-keyboard-response,60,518796,0.0-13.0-2.2,56626,List2A,black,woman,,,,null,,,,
13721,,,survey-text,61,532519,0.0-13.0-3.2,56626,List2A,black,woman,,,,,"{""Q0"":""Ruth and Kate are kissing with each other. ""}","<img src=""stim_listA/kiss8.gif""style=""height:400px;""></stim_listA>",are kissing each other,
null,"<div style=""font-size:60px;"">+</div>",,html-keyboard-response,62,533030,0.0-13.0-0.3,56626,List2A,black,woman,,,,null,,,,
null,"<img src=""stim_listA/shout7.gif""style=""height:400px;""></stim_listA>",,html-keyboard-response,63,535050,0.0-13.0-1.3,56626,List2A,black,woman,,,,null,,,,
null,is shouting at,,html-keyboard-response,64,537054,0.0-13.0-2.3,56626,List2A,black,woman,,,,null,,,,
29925,,,survey-text,65,566982,0.0-13.0-3.3,56626,List2A,black,woman,,,,,"{""Q0"":""Ruth is shouting at Beth.""}","<img src=""stim_listA/shout7.gif""style=""height:400px;""></stim_listA>",is shouting at,
null,"<div style=""font-size:60px;"">+</div>",,html-keyboard-response,66,567499,0.0-13.0-0.4,56626,List2A,black,woman,,,,null,,,,
null,"<img src=""stim_listA/shout8.gif""style=""height:400px;""></stim_listA>",,html-keyboard-response,67,569520,0.0-13.0-1.4,56626,List2A,black,woman,,,,null,,,,
null,are shouting at each other,,html-keyboard-response,68,571532,0.0-13.0-2.4,56626,List2A,black,woman,,,,null,,,,
95166,,,survey-text,69,666700,0.0-13.0-3.4,56626,List2A,black,woman,,,,,"{""Q0"":""Jane is shouting at Kate. ""}","<img src=""stim_listA/shout8.gif""style=""height:400px;""></stim_listA>",are shouting at each other,
null,"<div style=""font-size:60px;"">+</div>",,html-keyboard-response,70,667206,0.0-13.0-0.5,56626,List2A,black,woman,,,,null,,,,
null,"<img src=""stim_listA/dance3.gif""style=""height:400px;""></stim_listA>",,html-keyboard-response,71,669222,0.0-13.0-1.5,56626,List2A,black,woman,,,,null,,,,
null,is dancing with,,html-keyboard-response,72,671232,0.0-13.0-2.5,56626,List2A,black,woman,,,,null,,,,
13088,,,survey-text,73,684325,0.0-13.0-3.5,56626,List2A,black,woman,,,,,"{""Q0"":""Beth is dancing with Fred. ""}","<img src=""stim_listA/dance3.gif""style=""height:400px;""></stim_listA>",is dancing with,
null,"<div style=""font-size:60px;"">+</div>",,html-keyboard-response,74,684830,0.0-13.0-0.6,56626,List2A,black,woman,,,,null,,,,
null,"<img src=""stim_listA/play5.gif""style=""height:400px;""></stim_listA>",,html-keyboard-response,75,686834,0.0-13.0-1.6,56626,List2A,black,woman,,,,null,,,,
null,is playing with,,html-keyboard-response,76,688838,0.0-13.0-2.6,56626,List2A,black,woman,,,,null,,,,
8235,,,survey-text,77,697077,0.0-13.0-3.6,56626,List2A,black,woman,,,,,"{""Q0"":""Mike is playing with Luke.""}","<img src=""stim_listA/play5.gif""style=""height:400px;""></stim_listA>",is playing with,
null,"<div style=""font-size:60px;"">+</div>",,html-keyboard-response,78,697582,0.0-13.0-0.7,56626,List2A,black,woman,,,,null,,,,
null,"<img src=""stim_listA/argue5.gif""style=""height:400px;""></stim_listA>",,html-keyboard-response,79,699586,0.0-13.0-1.7,56626,List2A,black,woman,,,,null,,,,
null,is arguing with,,html-keyboard-response,80,701592,0.0-13.0-2.7,56626,List2A,black,woman,,,,null,,,,
10519,,,survey-text,81,712114,0.0-13.0-3.7,56626,List2A,black,woman,,,,,"{""Q0"":""Dave is arguing with Fred. ""}","<img src=""stim_listA/argue5.gif""style=""height:400px;""></stim_listA>",is arguing with,
null,"<div style=""font-size:60px;"">+</div>",,html-keyboard-response,82,712620,0.0-13.0-0.8,56626,List2A,black,woman,,,,null,,,,
null,"<img src=""stim_listA/flirt4.gif""style=""height:400px;""></stim_listA>",,html-keyboard-response,83,714632,0.0-13.0-1.8,56626,List2A,black,woman,,,,null,,,,
null,are flirting with each other,,html-keyboard-response,84,716637,0.0-13.0-2.8,56626,List2A,black,woman,,,,null,,,,
43277,,,survey-text,85,759919,0.0-13.0-3.8,56626,List2A,black,woman,,,,,"{""Q0"":""Mike and Kate are flirting with each other. ""}","<img src=""stim_listA/flirt4.gif""style=""height:400px;""></stim_listA>",are flirting with each other,
null,"<div style=""font-size:60px;"">+</div>",,html-keyboard-response,86,760429,0.0-13.0-0.9,56626,List2A,black,woman,,,,null,,,,
null,"<img src=""stim_listA/argue7.gif""style=""height:400px;""></stim_listA>",,html-keyboard-response,87,762435,0.0-13.0-1.9,56626,List2A,black,woman,,,,null,,,,
null,is arguing with,,html-keyboard-response,88,764440,0.0-13.0-2.9,56626,List2A,black,woman,,,,null,,,,
14166,,,survey-text,89,778609,0.0-13.0-3.9,56626,List2A,black,woman,,,,,"{""Q0"":""Beth is arguing with Jane.""}","<img src=""stim_listA/argue7.gif""style=""height:400px;""></stim_listA>",is arguing with,
null,"<div style=""font-size:60px;"">+</div>",,html-keyboard-response,90,779116,0.0-13.0-0.10,56626,List2A,black,woman,,,,null,,,,
null,"<img src=""stim_listA/dance2.gif""style=""height:400px;""></stim_listA>",,html-keyboard-response,91,781121,0.0-13.0-1.10,56626,List2A,black,woman,,,,null,,,,
null,are dancing with each other,,html-keyboard-response,92,783126,0.0-13.0-2.10,56626,List2A,black,woman,,,,null,,,,
16294,,,survey-text,93,799424,0.0-13.0-3.10,56626,List2A,black,woman,,,,,"{""Q0"":""Dave and Ruth are dancing with each other.""}","<img src=""stim_listA/dance2.gif""style=""height:400px;""></stim_listA>",are dancing with each other,
null,"<div style=""font-size:60px;"">+</div>",,html-keyboard-response,94,799932,0.0-13.0-0.11,56626,List2A,black,woman,,,,null,,,,
null,"<img src=""stim_listA/fight5.gif""style=""height:400px;""></stim_listA>",,html-keyboard-response,95,801937,0.0-13.0-1.11,56626,List2A,black,woman,,,,null,,,,
null,is fighting,,html-keyboard-response,96,803940,0.0-13.0-2.11,56626,List2A,black,woman,,,,null,,,,
6809,,,survey-text,97,810753,0.0-13.0-3.11,56626,List2A,black,woman,,,,,"{""Q0"":""Mike is fighting Dave.""}","<img src=""stim_listA/fight5.gif""style=""height:400px;""></stim_listA>",is fighting,
null,"<div style=""font-size:60px;"">+</div>",,html-keyboard-response,98,811260,0.0-13.0-0.12,56626,List2A,black,woman,,,,null,,,,
null,"<img src=""stim_listA/play8.gif""style=""height:400px;""></stim_listA>",,html-keyboard-response,99,813271,0.0-13.0-1.12,56626,List2A,black,woman,,,,null,,,,
null,are playing with each other,,html-keyboard-response,100,815277,0.0-13.0-2.12,56626,List2A,black,woman,,,,null,,,,
19906,,,survey-text,101,835187,0.0-13.0-3.12,56626,List2A,black,woman,,,,,"{""Q0"":""Ruth and Kate are playing with each other. ""}","<img src=""stim_listA/play8.gif""style=""height:400px;""></stim_listA>",are playing with each other,
null,"<div style=""font-size:60px;"">+</div>",,html-keyboard-response,102,835691,0.0-13.0-0.13,56626,List2A,black,woman,,,,null,,,,
null,"<img src=""stim_listA/dance4.gif""style=""height:400px;""></stim_listA>",,html-keyboard-response,103,837693,0.0-13.0-1.13,56626,List2A,black,woman,,,,null,,,,
null,are dancing with each other,,html-keyboard-response,104,839695,0.0-13.0-2.13,56626,List2A,black,woman,,,,null,,,,
14110,,,survey-text,105,853808,0.0-13.0-3.13,56626,List2A,black,woman,,,,,"{""Q0"":""Mike and Kate are dancing with each other. ""}","<img src=""stim_listA/dance4.gif""style=""height:400px;""></stim_listA>",are dancing with each other,
null,"<div style=""font-size:60px;"">+</div>",,html-keyboard-response,106,854312,0.0-13.0-0.14,56626,List2A,black,woman,,,,null,,,,
null,"<img src=""stim_listA/touch8.gif""style=""height:400px;""></stim_listA>",,html-keyboard-response,107,856319,0.0-13.0-1.14,56626,List2A,black,woman,,,,null,,,,
null,are touching each other,,html-keyboard-response,108,858322,0.0-13.0-2.14,56626,List2A,black,woman,,,,null,,,,
35885,,,survey-text,109,894209,0.0-13.0-3.14,56626,List2A,black,woman,,,,,"{""Q0"":""Error - I didn't see any people. I just saw the words are looking at each other. ""}","<img src=""stim_listA/touch8.gif""style=""height:400px;""></stim_listA>",are touching each other,
null,"<div style=""font-size:60px;"">+</div>",,html-keyboard-response,110,894717,0.0-13.0-0.15,56626,List2A,black,woman,,,,null,,,,
null,"<img src=""stim_listA/touch3.gif""style=""height:400px;""></stim_listA>",,html-keyboard-response,111,896723,0.0-13.0-1.15,56626,List2A,black,woman,,,,null,,,,
null,is touching,,html-keyboard-response,112,898730,0.0-13.0-2.15,56626,List2A,black,woman,,,,null,,,,
11273,,,survey-text,113,910007,0.0-13.0-3.15,56626,List2A,black,woman,,,,,"{""Q0"":""Beth and Mike are touching.""}","<img src=""stim_listA/touch3.gif""style=""height:400px;""></stim_listA>",is touching,
null,"<div style=""font-size:60px;"">+</div>",,html-keyboard-response,114,910512,0.0-13.0-0.16,56626,List2A,black,woman,,,,null,,,,
null,"<img src=""stim_listA/fight1.gif""style=""height:400px;""></stim_listA>",,html-keyboard-response,115,912518,0.0-13.0-1.16,56626,List2A,black,woman,,,,null,,,,
null,is fighting,,html-keyboard-response,116,914521,0.0-13.0-2.16,56626,List2A,black,woman,,,,null,,,,
31922,,,survey-text,117,946448,0.0-13.0-3.16,56626,List2A,black,woman,,,,,"{""Q0"":""Dave is fighting Jane.""}","<img src=""stim_listA/fight1.gif""style=""height:400px;""></stim_listA>",is fighting,
null,"<div style=""font-size:60px;"">+</div>",,html-keyboard-response,118,946955,0.0-13.0-0.17,56626,List2A,black,woman,,,,null,,,,
null,"<img src=""stim_listA/dance5.gif""style=""height:400px;""></stim_listA>",,html-keyboard-response,119,948961,0.0-13.0-1.17,56626,List2A,black,woman,,,,null,,,,
null,is dancing with,,html-keyboard-response,120,950965,0.0-13.0-2.17,56626,List2A,black,woman,,,,null,,,,
6592,,,survey-text,121,957563,0.0-13.0-3.17,56626,List2A,black,woman,,,,,"{""Q0"":""Mike is dancing with Luke.""}","<img src=""stim_listA/dance5.gif""style=""height:400px;""></stim_listA>",is dancing with,
null,"<div style=""font-size:60px;"">+</div>",,html-keyboard-response,122,958067,0.0-13.0-0.18,56626,List2A,black,woman,,,,null,,,,
null,"<img src=""stim_listA/shout2.gif""style=""height:400px;""></stim_listA>",,html-keyboard-response,123,960072,0.0-13.0-1.18,56626,List2A,black,woman,,,,null,,,,
null,are shouting at each other,,html-keyboard-response,124,962078,0.0-13.0-2.18,56626,List2A,black,woman,,,,null,,,,
11012,,,survey-text,125,973095,0.0-13.0-3.18,56626,List2A,black,woman,,,,,"{""Q0"":""Dave and Jane are shouting at each other.""}","<img src=""stim_listA/shout2.gif""style=""height:400px;""></stim_listA>",are shouting at each other,
null,"<div style=""font-size:60px;"">+</div>",,html-keyboard-response,126,973602,0.0-13.0-0.19,56626,List2A,black,woman,,,,null,,,,
null,"<img src=""stim_listA/marry7.gif""style=""height:400px;""></stim_listA>",,html-keyboard-response,127,975623,0.0-13.0-1.19,56626,List2A,black,woman,,,,null,,,,
null,is marrying,,html-keyboard-response,128,977627,0.0-13.0-2.19,56626,List2A,black,woman,,,,null,,,,
9516,,,survey-text,129,987146,0.0-13.0-3.19,56626,List2A,black,woman,,,,,"{""Q0"":""Kate is marrying Beth.""}","<img src=""stim_listA/marry7.gif""style=""height:400px;""></stim_listA>",is marrying,
9714,"<img src='img/portrait_matrix_list2.jpg' style='width:900px;height:500px;''></img><p>If you have memorised all the portraits and names and are ready to start, press Continue.</p><p><strong>Please note: Your memory of these faces will be tested 4 times during this experiment.</strong></p>",0,html-button-response,130,996865,0.0-14.0-0.0,56626,List2A,black,woman,,,,,,,,
10393,"<img src=""portrait/WW1.jpg""style=""height:400px;""></img>",1,html-button-response,131,1008268,0.0-14.0-1.0,56626,List2A,black,woman,,TRUE,1,,,,,
null,CORRECT,,html-keyboard-response,132,1009795,0.0-14.0-2.0-0.0,56626,List2A,black,woman,,,,null,,,,
1559,"<img src=""portrait/BM2.jpg""style=""height:400px;""></img>",5,html-button-response,133,1011360,0.0-14.0-4.0,56626,List2A,black,woman,,TRUE,5,,,,,
null,CORRECT,,html-keyboard-response,134,1012867,0.0-14.0-5.0-0.0,56626,List2A,black,woman,,,,null,,,,
2170,"<img src=""portrait/BW2.jpg""style=""height:400px;""></img>",0,html-button-response,135,1015041,0.0-14.0-7.0,56626,List2A,black,woman,,TRUE,2,,,,,
3378,"<img src=""portrait/BW2.jpg""style=""height:400px;""></img>",2,html-button-response,136,1019427,0.0-14.0-9.0-0.0,56626,List2A,black,woman,,FALSE,2,,,,,
null,CORRECT,,html-keyboard-response,137,1020938,0.0-14.0-9.0-1.0-0.0,56626,List2A,black,woman,,,,null,,,,
12984,"<img src=""portrait/BM1.jpg""style=""height:400px;""></img>",4,html-button-response,138,1033929,0.0-14.0-10.0,56626,List2A,black,woman,,TRUE,4,,,,,
null,CORRECT,,html-keyboard-response,139,1035468,0.0-14.0-11.0-0.0,56626,List2A,black,woman,,,,null,,,,
5767,"<img src=""portrait/WW2.jpg""style=""height:400px;""></img>",3,html-button-response,140,1041241,0.0-14.0-13.0,56626,List2A,black,woman,,TRUE,3,,,,,
null,CORRECT,,html-keyboard-response,141,1042757,0.0-14.0-14.0-0.0,56626,List2A,black,woman,,,,null,,,,
5015,"<img src=""portrait/WM2.jpg""style=""height:400px;""></img>",7,html-button-response,142,1047775,0.0-14.0-16.0,56626,List2A,black,woman,,TRUE,7,,,,,
null,CORRECT,,html-keyboard-response,143,1049284,0.0-14.0-17.0-0.0,56626,List2A,black,woman,,,,null,,,,
468,"<img src=""portrait/WM1.jpg""style=""height:400px;""></img>",7,html-button-response,144,1049758,0.0-14.0-19.0,56626,List2A,black,woman,,TRUE,6,,,,,
21839,"<img src=""portrait/WM1.jpg""style=""height:400px;""></img>",6,html-button-response,145,1072608,0.0-14.0-21.0-0.0,56626,List2A,black,woman,,FALSE,6,,,,,
null,CORRECT,,html-keyboard-response,146,1074133,0.0-14.0-21.0-1.0-0.0,56626,List2A,black,woman,,,,null,,,,
3879,"<img src=""portrait/BW1.jpg""style=""height:400px;""></img>",0,html-button-response,147,1078015,0.0-14.0-22.0,56626,List2A,black,woman,,TRUE,0,,,,,
null,CORRECT,,html-keyboard-response,148,1079539,0.0-14.0-23.0-0.0,56626,List2A,black,woman,,,,null,,,,
1533,<p>You got 6 out of 8 right first time. Press Continue.</p>,0,html-button-response,149,1081077,0.0-14.0-25.0,56626,List2A,black,woman,,,,,,,,
2286,"As you did not score 100%, the memory game will repeat. Press Continue.",0,html-button-response,150,1084371,0.0-14.0-26.0-0.0,56626,List2A,black,woman,,,,,,,,
1867,"<img src='img/portrait_matrix_list2.jpg' style='width:900px;height:500px;''></img><p>If you have memorised all the portraits and names and are ready to start, press Continue.</p><p><strong>Please note: Your memory of these faces will be tested 4 times during this experiment.</strong></p>",0,html-button-response,151,1087245,0.0-14.1-0.1,56626,List2A,black,woman,,,,,,,,
2568,"<img src=""portrait/WW1.jpg""style=""height:400px;""></img>",1,html-button-response,152,1090826,0.0-14.1-1.1,56626,List2A,black,woman,,TRUE,1,,,,,
null,CORRECT,,html-keyboard-response,153,1092349,0.0-14.1-2.1-0.1,56626,List2A,black,woman,,,,null,,,,
1599,"<img src=""portrait/BM2.jpg""style=""height:400px;""></img>",5,html-button-response,154,1093954,0.0-14.1-4.1,56626,List2A,black,woman,,TRUE,5,,,,,
null,CORRECT,,html-keyboard-response,155,1095462,0.0-14.1-5.1-0.1,56626,List2A,black,woman,,,,null,,,,
2409,"<img src=""portrait/BW2.jpg""style=""height:400px;""></img>",0,html-button-response,156,1097876,0.0-14.1-7.1,56626,List2A,black,woman,,TRUE,2,,,,,
2029,"<img src=""portrait/BW2.jpg""style=""height:400px;""></img>",2,html-button-response,157,1100924,0.0-14.1-9.1-0.1,56626,List2A,black,woman,,FALSE,2,,,,,
null,CORRECT,,html-keyboard-response,158,1102433,0.0-14.1-9.1-1.1-0.1,56626,List2A,black,woman,,,,null,,,,
2319,"<img src=""portrait/BM1.jpg""style=""height:400px;""></img>",4,html-button-response,159,1104757,0.0-14.1-10.1,56626,List2A,black,woman,,TRUE,4,,,,,
null,CORRECT,,html-keyboard-response,160,1106279,0.0-14.1-11.1-0.1,56626,List2A,black,woman,,,,null,,,,
3255,"<img src=""portrait/WW2.jpg""style=""height:400px;""></img>",3,html-button-response,161,1109539,0.0-14.1-13.1,56626,List2A,black,woman,,TRUE,3,,,,,
null,CORRECT,,html-keyboard-response,162,1111051,0.0-14.1-14.1-0.1,56626,List2A,black,woman,,,,null,,,,
2199,"<img src=""portrait/WM2.jpg""style=""height:400px;""></img>",7,html-button-response,163,1113255,0.0-14.1-16.1,56626,List2A,black,woman,,TRUE,7,,,,,
null,CORRECT,,html-keyboard-response,164,1114762,0.0-14.1-17.1-0.1,56626,List2A,black,woman,,,,null,,,,
657,"<img src=""portrait/WM1.jpg""style=""height:400px;""></img>",6,html-button-response,165,1115422,0.0-14.1-19.1,56626,List2A,black,woman,,TRUE,6,,,,,
null,CORRECT,,html-keyboard-response,166,1116932,0.0-14.1-20.1-0.1,56626,List2A,black,woman,,,,null,,,,
5229,"<img src=""portrait/BW1.jpg""style=""height:400px;""></img>",0,html-button-response,167,1122166,0.0-14.1-22.1,56626,List2A,black,woman,,TRUE,0,,,,,
null,CORRECT,,html-keyboard-response,168,1123676,0.0-14.1-23.1-0.1,56626,List2A,black,woman,,,,null,,,,
1025,<p>You got 7 out of 8 right first time. Press Continue.</p>,0,html-button-response,169,1124704,0.0-14.1-25.1,56626,List2A,black,woman,,,,,,,,
1067,"As you did not score 100%, the memory game will repeat. Press Continue.",0,html-button-response,170,1126776,0.0-14.1-26.1-0.1,56626,List2A,black,woman,,,,,,,,
2285,"<img src='img/portrait_matrix_list2.jpg' style='width:900px;height:500px;''></img><p>If you have memorised all the portraits and names and are ready to start, press Continue.</p><p><strong>Please note: Your memory of these faces will be tested 4 times during this experiment.</strong></p>",0,html-button-response,171,1130071,0.0-14.2-0.2,56626,List2A,black,woman,,,,,,,,
5891,"<img src=""portrait/WW1.jpg""style=""height:400px;""></img>",1,html-button-response,172,1136972,0.0-14.2-1.2,56626,List2A,black,woman,,TRUE,1,,,,,
null,CORRECT,,html-keyboard-response,173,1138482,0.0-14.2-2.2-0.2,56626,List2A,black,woman,,,,null,,,,
1768,"<img src=""portrait/BM2.jpg""style=""height:400px;""></img>",5,html-button-response,174,1140256,0.0-14.2-4.2,56626,List2A,black,woman,,TRUE,5,,,,,
null,CORRECT,,html-keyboard-response,175,1141765,0.0-14.2-5.2-0.2,56626,List2A,black,woman,,,,null,,,,
3750,"<img src=""portrait/BW2.jpg""style=""height:400px;""></img>",2,html-button-response,176,1145521,0.0-14.2-7.2,56626,List2A,black,woman,,TRUE,2,,,,,
null,CORRECT,,html-keyboard-response,177,1147040,0.0-14.2-8.2-0.2,56626,List2A,black,woman,,,,null,,,,
5231,"<img src=""portrait/BM1.jpg""style=""height:400px;""></img>",4,html-button-response,178,1152276,0.0-14.2-10.2,56626,List2A,black,woman,,TRUE,4,,,,,
null,CORRECT,,html-keyboard-response,179,1153786,0.0-14.2-11.2-0.2,56626,List2A,black,woman,,,,null,,,,
2660,"<img src=""portrait/WW2.jpg""style=""height:400px;""></img>",3,html-button-response,180,1156451,0.0-14.2-13.2,56626,List2A,black,woman,,TRUE,3,,,,,
null,CORRECT,,html-keyboard-response,181,1157957,0.0-14.2-14.2-0.2,56626,List2A,black,woman,,,,null,,,,
3624,"<img src=""portrait/WM2.jpg""style=""height:400px;""></img>",7,html-button-response,182,1161587,0.0-14.2-16.2,56626,List2A,black,woman,,TRUE,7,,,,,
null,CORRECT,,html-keyboard-response,183,1163110,0.0-14.2-17.2-0.2,56626,List2A,black,woman,,,,null,,,,
4501,"<img src=""portrait/WM1.jpg""style=""height:400px;""></img>",6,html-button-response,184,1167618,0.0-14.2-19.2,56626,List2A,black,woman,,TRUE,6,,,,,
null,CORRECT,,html-keyboard-response,185,1169127,0.0-14.2-20.2-0.2,56626,List2A,black,woman,,,,null,,,,
4681,"<img src=""portrait/BW1.jpg""style=""height:400px;""></img>",0,html-button-response,186,1173812,0.0-14.2-22.2,56626,List2A,black,woman,,TRUE,0,,,,,
null,CORRECT,,html-keyboard-response,187,1175320,0.0-14.2-23.2-0.2,56626,List2A,black,woman,,,,null,,,,
1649,<p>You got 8 out of 8 right first time. Press Continue.</p>,0,html-button-response,188,1176974,0.0-14.2-25.2,56626,List2A,black,woman,,,,,,,,
null,"<div style=""font-size:60px;"">+</div>",,html-keyboard-response,189,1178486,0.0-15.0-0.0,56626,List2A,black,woman,,,,null,,,,
null,"<img src=""stim_listA/shout3.gif""style=""height:400px;""></stim_listA>",,html-keyboard-response,190,1180489,0.0-15.0-1.0,56626,List2A,black,woman,,,,null,,,,
null,is shouting at,,html-keyboard-response,191,1182492,0.0-15.0-2.0,56626,List2A,black,woman,,,,null,,,,
8312,,,survey-text,192,1190808,0.0-15.0-3.0,56626,List2A,black,woman,,,,,"{""Q0"":""Beth is shouting at Fred. ""}","<img src=""stim_listA/shout3.gif""style=""height:400px;""></stim_listA>",is shouting at,
null,"<div style=""font-size:60px;"">+</div>",,html-keyboard-response,193,1191332,0.0-15.0-0.1,56626,List2A,black,woman,,,,null,,,,
null,"<img src=""stim_listA/play7.gif""style=""height:400px;""></stim_listA>",,html-keyboard-response,194,1193340,0.0-15.0-1.1,56626,List2A,black,woman,,,,null,,,,
null,is playing with,,html-keyboard-response,195,1195344,0.0-15.0-2.1,56626,List2A,black,woman,,,,null,,,,
10247,,,survey-text,196,1205593,0.0-15.0-3.1,56626,List2A,black,woman,,,,,"{""Q0"":""Kate is playing with Jane.""}","<img src=""stim_listA/play7.gif""style=""height:400px;""></stim_listA>",is playing with,
null,"<div style=""font-size:60px;"">+</div>",,html-keyboard-response,197,1206110,0.0-15.0-0.2,56626,List2A,black,woman,,,,null,,,,
null,"<img src=""stim_listA/flirt8.gif""style=""height:400px;""></stim_listA>",,html-keyboard-response,198,1208120,0.0-15.0-1.2,56626,List2A,black,woman,,,,null,,,,
null,are flirting with each other,,html-keyboard-response,199,1210125,0.0-15.0-2.2,56626,List2A,black,woman,,,,null,,,,
12587,,,survey-text,200,1222715,0.0-15.0-3.2,56626,List2A,black,woman,,,,,"{""Q0"":""Beth and Jane are flirting with each other.""}","<img src=""stim_listA/flirt8.gif""style=""height:400px;""></stim_listA>",are flirting with each other,
null,"<div style=""font-size:60px;"">+</div>",,html-keyboard-response,201,1223221,0.0-15.0-0.3,56626,List2A,black,woman,,,,null,,,,
null,"<img src=""stim_listA/marry8.gif""style=""height:400px;""></stim_listA>",,html-keyboard-response,202,1225225,0.0-15.0-1.3,56626,List2A,black,woman,,,,null,,,,
null,are marrying each other,,html-keyboard-response,203,1227230,0.0-15.0-2.3,56626,List2A,black,woman,,,,null,,,,
17425,,,survey-text,204,1244658,0.0-15.0-3.3,56626,List2A,black,woman,,,,,"{""Q0"":""Ruth and Kate are marrying each other. ""}","<img src=""stim_listA/marry8.gif""style=""height:400px;""></stim_listA>",are marrying each other,
null,"<div style=""font-size:60px;"">+</div>",,html-keyboard-response,205,1245166,0.0-15.0-0.4,56626,List2A,black,woman,,,,null,,,,
null,"<img src=""stim_listA/talk4.gif""style=""height:400px;""></stim_listA>",,html-keyboard-response,206,1247173,0.0-15.0-1.4,56626,List2A,black,woman,,,,null,,,,
null,are talking to each other,,html-keyboard-response,207,1249175,0.0-15.0-2.4,56626,List2A,black,woman,,,,null,,,,
7571,,,survey-text,208,1256751,0.0-15.0-3.4,56626,List2A,black,woman,,,,,"{""Q0"":""Mike and beth are talking to each other.""}","<img src=""stim_listA/talk4.gif""style=""height:400px;""></stim_listA>",are talking to each other,
null,"<div style=""font-size:60px;"">+</div>",,html-keyboard-response,209,1257261,0.0-15.0-0.5,56626,List2A,black,woman,,,,null,,,,
null,"<img src=""stim_listA/argue4.gif""style=""height:400px;""></stim_listA>",,html-keyboard-response,210,1259270,0.0-15.0-1.5,56626,List2A,black,woman,,,,null,,,,
null,are arguing with each other,,html-keyboard-response,211,1261275,0.0-15.0-2.5,56626,List2A,black,woman,,,,null,,,,
14470,,,survey-text,212,1275749,0.0-15.0-3.5,56626,List2A,black,woman,,,,,"{""Q0"":""beth and fred are arguing with each other.""}","<img src=""stim_listA/argue4.gif""style=""height:400px;""></stim_listA>",are arguing with each other,
null,"<div style=""font-size:60px;"">+</div>",,html-keyboard-response,213,1276255,0.0-15.0-0.6,56626,List2A,black,woman,,,,null,,,,
null,"<img src=""stim_listA/talk8.gif""style=""height:400px;""></stim_listA>",,html-keyboard-response,214,1278270,0.0-15.0-1.6,56626,List2A,black,woman,,,,null,,,,
null,are talking to each other,,html-keyboard-response,215,1280276,0.0-15.0-2.6,56626,List2A,black,woman,,,,null,,,,
9997,,,survey-text,216,1290277,0.0-15.0-3.6,56626,List2A,black,woman,,,,,"{""Q0"":""Beth and jane are talking to each other.""}","<img src=""stim_listA/talk8.gif""style=""height:400px;""></stim_listA>",are talking to each other,
null,"<div style=""font-size:60px;"">+</div>",,html-keyboard-response,217,1290785,0.0-15.0-0.7,56626,List2A,black,woman,,,,null,,,,
null,"<img src=""stim_listA/shout6.gif""style=""height:400px;""></stim_listA>",,html-keyboard-response,218,1292790,0.0-15.0-1.7,56626,List2A,black,woman,,,,null,,,,
null,are shouting at each other,,html-keyboard-response,219,1294794,0.0-15.0-2.7,56626,List2A,black,woman,,,,null,,,,
11315,,,survey-text,220,1306113,0.0-15.0-3.7,56626,List2A,black,woman,,,,,"{""Q0"":""mike and dave are shouting at each other.""}","<img src=""stim_listA/shout6.gif""style=""height:400px;""></stim_listA>",are shouting at each other,
null,"<div style=""font-size:60px;"">+</div>",,html-keyboard-response,221,1306620,0.0-15.0-0.8,56626,List2A,black,woman,,,,null,,,,
null,"<img src=""stim_listA/kiss4.gif""style=""height:400px;""></stim_listA>",,html-keyboard-response,222,1308627,0.0-15.0-1.8,56626,List2A,black,woman,,,,null,,,,
null,are kissing each other,,html-keyboard-response,223,1310631,0.0-15.0-2.8,56626,List2A,black,woman,,,,null,,,,
9899,,,survey-text,224,1320534,0.0-15.0-3.8,56626,List2A,black,woman,,,,,"{""Q0"":""mike and kate are kissing each other.""}","<img src=""stim_listA/kiss4.gif""style=""height:400px;""></stim_listA>",are kissing each other,
null,"<div style=""font-size:60px;"">+</div>",,html-keyboard-response,225,1321038,0.0-15.0-0.9,56626,List2A,black,woman,,,,null,,,,
null,"<img src=""stim_listA/kiss3.gif""style=""height:400px;""></stim_listA>",,html-keyboard-response,226,1323046,0.0-15.0-1.9,56626,List2A,black,woman,,,,null,,,,
null,is kissing,,html-keyboard-response,227,1325052,0.0-15.0-2.9,56626,List2A,black,woman,,,,null,,,,
5740,,,survey-text,228,1330794,0.0-15.0-3.9,56626,List2A,black,woman,,,,,"{""Q0"":""fred is kissing beth.""}","<img src=""stim_listA/kiss3.gif""style=""height:400px;""></stim_listA>",is kissing,
null,"<div style=""font-size:60px;"">+</div>",,html-keyboard-response,229,1331300,0.0-15.0-0.10,56626,List2A,black,woman,,,,null,,,,
null,"<img src=""stim_listA/dance1.gif""style=""height:400px;""></stim_listA>",,html-keyboard-response,230,1333307,0.0-15.0-1.10,56626,List2A,black,woman,,,,null,,,,
null,is dancing with,,html-keyboard-response,231,1335315,0.0-15.0-2.10,56626,List2A,black,woman,,,,null,,,,
6411,,,survey-text,232,1341729,0.0-15.0-3.10,56626,List2A,black,woman,,,,,"{""Q0"":""luke is dancing with jane.""}","<img src=""stim_listA/dance1.gif""style=""height:400px;""></stim_listA>",is dancing with,
null,"<div style=""font-size:60px;"">+</div>",,html-keyboard-response,233,1342247,0.0-15.0-0.11,56626,List2A,black,woman,,,,null,,,,
null,"<img src=""stim_listA/flirt5.gif""style=""height:400px;""></stim_listA>",,html-keyboard-response,234,1344254,0.0-15.0-1.11,56626,List2A,black,woman,,,,null,,,,
null,is flirting with,,html-keyboard-response,235,1346259,0.0-15.0-2.11,56626,List2A,black,woman,,,,null,,,,
6201,,,survey-text,236,1352463,0.0-15.0-3.11,56626,List2A,black,woman,,,,,"{""Q0"":""mike is flirting with luke.""}","<img src=""stim_listA/flirt5.gif""style=""height:400px;""></stim_listA>",is flirting with,
null,"<div style=""font-size:60px;"">+</div>",,html-keyboard-response,237,1352970,0.0-15.0-0.12,56626,List2A,black,woman,,,,null,,,,
null,"<img src=""stim_listA/fight7.gif""style=""height:400px;""></stim_listA>",,html-keyboard-response,238,1354976,0.0-15.0-1.12,56626,List2A,black,woman,,,,null,,,,
null,is fighting,,html-keyboard-response,239,1356981,0.0-15.0-2.12,56626,List2A,black,woman,,,,null,,,,
8012,,,survey-text,240,1364996,0.0-15.0-3.12,56626,List2A,black,woman,,,,,"{""Q0"":""Jane is fighting with kate.""}","<img src=""stim_listA/fight7.gif""style=""height:400px;""></stim_listA>",is fighting,
null,"<div style=""font-size:60px;"">+</div>",,html-keyboard-response,241,1365504,0.0-15.0-0.13,56626,List2A,black,woman,,,,null,,,,
null,"<img src=""stim_listA/touch1.gif""style=""height:400px;""></stim_listA>",,html-keyboard-response,242,1367512,0.0-15.0-1.13,56626,List2A,black,woman,,,,null,,,,
null,is touching,,html-keyboard-response,243,1369515,0.0-15.0-2.13,56626,List2A,black,woman,,,,null,,,,
9708,,,survey-text,244,1379227,0.0-15.0-3.13,56626,List2A,black,woman,,,,,"{""Q0"":""dave is touching jane.""}","<img src=""stim_listA/touch1.gif""style=""height:400px;""></stim_listA>",is touching,
null,"<div style=""font-size:60px;"">+</div>",,html-keyboard-response,245,1379732,0.0-15.0-0.14,56626,List2A,black,woman,,,,null,,,,
null,"<img src=""stim_listA/talk3.gif""style=""height:400px;""></stim_listA>",,html-keyboard-response,246,1381738,0.0-15.0-1.14,56626,List2A,black,woman,,,,null,,,,
null,is talking to,,html-keyboard-response,247,1383742,0.0-15.0-2.14,56626,List2A,black,woman,,,,null,,,,
7477,,,survey-text,248,1391224,0.0-15.0-3.14,56626,List2A,black,woman,,,,,"{""Q0"":""Kate is talking to fred.""}","<img src=""stim_listA/talk3.gif""style=""height:400px;""></stim_listA>",is talking to,
null,"<div style=""font-size:60px;"">+</div>",,html-keyboard-response,249,1391733,0.0-15.0-0.15,56626,List2A,black,woman,,,,null,,,,
null,"<img src=""stim_listA/kiss1.gif""style=""height:400px;""></stim_listA>",,html-keyboard-response,250,1393737,0.0-15.0-1.15,56626,List2A,black,woman,,,,null,,,,
null,is kissing,,html-keyboard-response,251,1395741,0.0-15.0-2.15,56626,List2A,black,woman,,,,null,,,,
5696,,,survey-text,252,1401442,0.0-15.0-3.15,56626,List2A,black,woman,,,,,"{""Q0"":""luke is kissing ruth""}","<img src=""stim_listA/kiss1.gif""style=""height:400px;""></stim_listA>",is kissing,
null,"<div style=""font-size:60px;"">+</div>",,html-keyboard-response,253,1401948,0.0-15.0-0.16,56626,List2A,black,woman,,,,null,,,,
null,"<img src=""stim_listA/marry6.gif""style=""height:400px;""></stim_listA>",,html-keyboard-response,254,1403971,0.0-15.0-1.16,56626,List2A,black,woman,,,,null,,,,
null,are marrying each other,,html-keyboard-response,255,1405978,0.0-15.0-2.16,56626,List2A,black,woman,,,,null,,,,
12252,,,survey-text,256,1418234,0.0-15.0-3.16,56626,List2A,black,woman,,,,,"{""Q0"":""mike and luke are marrying each other.""}","<img src=""stim_listA/marry6.gif""style=""height:400px;""></stim_listA>",are marrying each other,
null,"<div style=""font-size:60px;"">+</div>",,html-keyboard-response,257,1418741,0.0-15.0-0.17,56626,List2A,black,woman,,,,null,,,,
null,"<img src=""stim_listA/touch2.gif""style=""height:400px;""></stim_listA>",,html-keyboard-response,258,1420747,0.0-15.0-1.17,56626,List2A,black,woman,,,,null,,,,
null,are touching each other,,html-keyboard-response,259,1422751,0.0-15.0-2.17,56626,List2A,black,woman,,,,null,,,,
8616,,,survey-text,260,1431369,0.0-15.0-3.17,56626,List2A,black,woman,,,,,"{""Q0"":""luke and ruth are touching each other.""}","<img src=""stim_listA/touch2.gif""style=""height:400px;""></stim_listA>",are touching each other,
null,"<div style=""font-size:60px;"">+</div>",,html-keyboard-response,261,1431876,0.0-15.0-0.18,56626,List2A,black,woman,,,,null,,,,
null,"<img src=""stim_listA/fight8.gif""style=""height:400px;""></stim_listA>",,html-keyboard-response,262,1433881,0.0-15.0-1.18,56626,List2A,black,woman,,,,null,,,,
null,are fighting each other,,html-keyboard-response,263,1435886,0.0-15.0-2.18,56626,List2A,black,woman,,,,null,,,,
8244,,,survey-text,264,1444133,0.0-15.0-3.18,56626,List2A,black,woman,,,,,"{""Q0"":""beth and ruth are fighting each other.""}","<img src=""stim_listA/fight8.gif""style=""height:400px;""></stim_listA>",are fighting each other,
null,"<div style=""font-size:60px;"">+</div>",,html-keyboard-response,265,1444640,0.0-15.0-0.19,56626,List2A,black,woman,,,,null,,,,
null,"<img src=""stim_listA/talk6.gif""style=""height:400px;""></stim_listA>",,html-keyboard-response,266,1446646,0.0-15.0-1.19,56626,List2A,black,woman,,,,null,,,,
null,are talking to each other,,html-keyboard-response,267,1448651,0.0-15.0-2.19,56626,List2A,black,woman,,,,null,,,,
7323,,,survey-text,268,1455978,0.0-15.0-3.19,56626,List2A,black,woman,,,,,"{""Q0"":""fred and dave are talking to each other.""}","<img src=""stim_listA/talk6.gif""style=""height:400px;""></stim_listA>",are talking to each other,
3358,"<img src='img/portrait_matrix_list2.jpg' style='width:900px;height:500px;''></img><p>If you have memorised all the portraits and names and are ready to start, press Continue.</p><p><strong>Please note: Your memory of these faces will be tested 4 times during this experiment.</strong></p>",0,html-button-response,269,1459341,0.0-16.0-0.0,56626,List2A,black,woman,,,,,,,,
2468,"<img src=""portrait/BW1.jpg""style=""height:400px;""></img>",0,html-button-response,270,1462833,0.0-16.0-1.0,56626,List2A,black,woman,,TRUE,0,,,,,
null,CORRECT,,html-keyboard-response,271,1464343,0.0-16.0-2.0-0.0,56626,List2A,black,woman,,,,null,,,,
1367,"<img src=""portrait/BM2.jpg""style=""height:400px;""></img>",5,html-button-response,272,1465716,0.0-16.0-4.0,56626,List2A,black,woman,,TRUE,5,,,,,
null,CORRECT,,html-keyboard-response,273,1467241,0.0-16.0-5.0-0.0,56626,List2A,black,woman,,,,null,,,,
4061,"<img src=""portrait/BW2.jpg""style=""height:400px;""></img>",2,html-button-response,274,1471307,0.0-16.0-7.0,56626,List2A,black,woman,,TRUE,2,,,,,
null,CORRECT,,html-keyboard-response,275,1472816,0.0-16.0-8.0-0.0,56626,List2A,black,woman,,,,null,,,,
5312,"<img src=""portrait/BM1.jpg""style=""height:400px;""></img>",4,html-button-response,276,1478132,0.0-16.0-10.0,56626,List2A,black,woman,,TRUE,4,,,,,
null,CORRECT,,html-keyboard-response,277,1479646,0.0-16.0-11.0-0.0,56626,List2A,black,woman,,,,null,,,,
2632,"<img src=""portrait/WM2.jpg""style=""height:400px;""></img>",7,html-button-response,278,1482285,0.0-16.0-13.0,56626,List2A,black,woman,,TRUE,7,,,,,
null,CORRECT,,html-keyboard-response,279,1483796,0.0-16.0-14.0-0.0,56626,List2A,black,woman,,,,null,,,,
1889,"<img src=""portrait/WW1.jpg""style=""height:400px;""></img>",1,html-button-response,280,1485690,0.0-16.0-16.0,56626,List2A,black,woman,,TRUE,1,,,,,
null,CORRECT,,html-keyboard-response,281,1487198,0.0-16.0-17.0-0.0,56626,List2A,black,woman,,,,null,,,,
2128,"<img src=""portrait/WW2.jpg""style=""height:400px;""></img>",3,html-button-response,282,1489331,0.0-16.0-19.0,56626,List2A,black,woman,,TRUE,3,,,,,
null,CORRECT,,html-keyboard-response,283,1490839,0.0-16.0-20.0-0.0,56626,List2A,black,woman,,,,null,,,,
3126,"<img src=""portrait/WM1.jpg""style=""height:400px;""></img>",6,html-button-response,284,1493972,0.0-16.0-22.0,56626,List2A,black,woman,,TRUE,6,,,,,
null,CORRECT,,html-keyboard-response,285,1495501,0.0-16.0-23.0-0.0,56626,List2A,black,woman,,,,null,,,,
1280,<p>You got 8 out of 8 right first time. Press Continue.</p>,0,html-button-response,286,1496787,0.0-16.0-25.0,56626,List2A,black,woman,,,,,,,,
null,"<div style=""font-size:60px;"">+</div>",,html-keyboard-response,287,1498310,0.0-17.0-0.0,56626,List2A,black,woman,,,,null,,,,
null,"<img src=""stim_listA/play1.gif""style=""height:400px;""></stim_listA>",,html-keyboard-response,288,1500317,0.0-17.0-1.0,56626,List2A,black,woman,,,,null,,,,
null,is playing with,,html-keyboard-response,289,1502323,0.0-17.0-2.0,56626,List2A,black,woman,,,,null,,,,
7557,,,survey-text,290,1509885,0.0-17.0-3.0,56626,List2A,black,woman,,,,,"{""Q0"":""jane is playing with dave""}","<img src=""stim_listA/play1.gif""style=""height:400px;""></stim_listA>",is playing with,
null,"<div style=""font-size:60px;"">+</div>",,html-keyboard-response,291,1510400,0.0-17.0-0.1,56626,List2A,black,woman,,,,null,,,,
null,"<img src=""stim_listA/flirt3.gif""style=""height:400px;""></stim_listA>",,html-keyboard-response,292,1512421,0.0-17.0-1.1,56626,List2A,black,woman,,,,null,,,,
null,is flirting with,,html-keyboard-response,293,1514426,0.0-17.0-2.1,56626,List2A,black,woman,,,,null,,,,
6874,,,survey-text,294,1521304,0.0-17.0-3.1,56626,List2A,black,woman,,,,,"{""Q0"":""fred is flirting with kate""}","<img src=""stim_listA/flirt3.gif""style=""height:400px;""></stim_listA>",is flirting with,
null,"<div style=""font-size:60px;"">+</div>",,html-keyboard-response,295,1521810,0.0-17.0-0.2,56626,List2A,black,woman,,,,null,,,,
null,"<img src=""stim_listA/touch7.gif""style=""height:400px;""></stim_listA>",,html-keyboard-response,296,1523816,0.0-17.0-1.2,56626,List2A,black,woman,,,,null,,,,
null,is touching,,html-keyboard-response,297,1525821,0.0-17.0-2.2,56626,List2A,black,woman,,,,null,,,,
7143,,,survey-text,298,1532968,0.0-17.0-3.2,56626,List2A,black,woman,,,,,"{""Q0"":""kate is touching jane""}","<img src=""stim_listA/touch7.gif""style=""height:400px;""></stim_listA>",is touching,
null,"<div style=""font-size:60px;"">+</div>",,html-keyboard-response,299,1533474,0.0-17.0-0.3,56626,List2A,black,woman,,,,null,,,,
null,"<img src=""stim_listA/marry3.gif""style=""height:400px;""></stim_listA>",,html-keyboard-response,300,1535481,0.0-17.0-1.3,56626,List2A,black,woman,,,,null,,,,
null,is marrying,,html-keyboard-response,301,1537484,0.0-17.0-2.3,56626,List2A,black,woman,,,,null,,,,
8766,,,survey-text,302,1546252,0.0-17.0-3.3,56626,List2A,black,woman,,,,,"{""Q0"":""mike is marrying beth""}","<img src=""stim_listA/marry3.gif""style=""height:400px;""></stim_listA>",is marrying,
null,"<div style=""font-size:60px;"">+</div>",,html-keyboard-response,303,1546758,0.0-17.0-0.4,56626,List2A,black,woman,,,,null,,,,
null,"<img src=""stim_listA/touch6.gif""style=""height:400px;""></stim_listA>",,html-keyboard-response,304,1548765,0.0-17.0-1.4,56626,List2A,black,woman,,,,null,,,,
null,are touching each other,,html-keyboard-response,305,1550767,0.0-17.0-2.4,56626,List2A,black,woman,,,,null,,,,
9970,,,survey-text,306,1560740,0.0-17.0-3.4,56626,List2A,black,woman,,,,,"{""Q0"":""fred and luke are touching each other""}","<img src=""stim_listA/touch6.gif""style=""height:400px;""></stim_listA>",are touching each other,
null,"<div style=""font-size:60px;"">+</div>",,html-keyboard-response,307,1561245,0.0-17.0-0.5,56626,List2A,black,woman,,,,null,,,,
null,"<img src=""stim_listA/play6.gif""style=""height:400px;""></stim_listA>",,html-keyboard-response,308,1563269,0.0-17.0-1.5,56626,List2A,black,woman,,,,null,,,,
null,are playing with each other,,html-keyboard-response,309,1565274,0.0-17.0-2.5,56626,List2A,black,woman,,,,null,,,,
7915,,,survey-text,310,1573192,0.0-17.0-3.5,56626,List2A,black,woman,,,,,"{""Q0"":""luke and fred are playing with each other""}","<img src=""stim_listA/play6.gif""style=""height:400px;""></stim_listA>",are playing with each other,
null,"<div style=""font-size:60px;"">+</div>",,html-keyboard-response,311,1573701,0.0-17.0-0.6,56626,List2A,black,woman,,,,null,,,,
null,"<img src=""stim_listA/argue3.gif""style=""height:400px;""></stim_listA>",,html-keyboard-response,312,1575709,0.0-17.0-1.6,56626,List2A,black,woman,,,,null,,,,
null,is arguing with,,html-keyboard-response,313,1577716,0.0-17.0-2.6,56626,List2A,black,woman,,,,null,,,,
5730,,,survey-text,314,1583451,0.0-17.0-3.6,56626,List2A,black,woman,,,,,"{""Q0"":""mike is arguing with beth.""}","<img src=""stim_listA/argue3.gif""style=""height:400px;""></stim_listA>",is arguing with,
null,"<div style=""font-size:60px;"">+</div>",,html-keyboard-response,315,1583958,0.0-17.0-0.7,56626,List2A,black,woman,,,,null,,,,
null,"<img src=""stim_listA/dance7.gif""style=""height:400px;""></stim_listA>",,html-keyboard-response,316,1585979,0.0-17.0-1.7,56626,List2A,black,woman,,,,null,,,,
null,is dancing with,,html-keyboard-response,317,1587981,0.0-17.0-2.7,56626,List2A,black,woman,,,,null,,,,
11462,,,survey-text,318,1599447,0.0-17.0-3.7,56626,List2A,black,woman,,,,,"{""Q0"":""ruth is dancing with kate""}","<img src=""stim_listA/dance7.gif""style=""height:400px;""></stim_listA>",is dancing with,
null,"<div style=""font-size:60px;"">+</div>",,html-keyboard-response,319,1599952,0.0-17.0-0.8,56626,List2A,black,woman,,,,null,,,,
null,"<img src=""stim_listA/fight2.gif""style=""height:400px;""></stim_listA>",,html-keyboard-response,320,1601969,0.0-17.0-1.8,56626,List2A,black,woman,,,,null,,,,
null,are fighting each other,,html-keyboard-response,321,1603988,0.0-17.0-2.8,56626,List2A,black,woman,,,,null,,,,
9673,,,survey-text,322,1613664,0.0-17.0-3.8,56626,List2A,black,woman,,,,,"{""Q0"":""luke and ruth are fighting with each other.""}","<img src=""stim_listA/fight2.gif""style=""height:400px;""></stim_listA>",are fighting each other,
null,"<div style=""font-size:60px;"">+</div>",,html-keyboard-response,323,1614169,0.0-17.0-0.9,56626,List2A,black,woman,,,,null,,,,
null,"<img src=""stim_listA/talk7.gif""style=""height:400px;""></stim_listA>",,html-keyboard-response,324,1616176,0.0-17.0-1.9,56626,List2A,black,woman,,,,null,,,,
null,is talking to,,html-keyboard-response,325,1618186,0.0-17.0-2.9,56626,List2A,black,woman,,,,null,,,,
9005,,,survey-text,326,1627196,0.0-17.0-3.9,56626,List2A,black,woman,,,,,"{""Q0"":""ruth is talking to kate.""}","<img src=""stim_listA/talk7.gif""style=""height:400px;""></stim_listA>",is talking to,
null,"<div style=""font-size:60px;"">+</div>",,html-keyboard-response,327,1627701,0.0-17.0-0.10,56626,List2A,black,woman,,,,null,,,,
null,"<img src=""stim_listA/marry2.gif""style=""height:400px;""></stim_listA>",,html-keyboard-response,328,1629711,0.0-17.0-1.10,56626,List2A,black,woman,,,,null,,,,
null,are marrying each other,,html-keyboard-response,329,1631720,0.0-17.0-2.10,56626,List2A,black,woman,,,,null,,,,
19798,,,survey-text,330,1651522,0.0-17.0-3.10,56626,List2A,black,woman,,,,,"{""Q0"":""luke and jane are marrying each other.""}","<img src=""stim_listA/marry2.gif""style=""height:400px;""></stim_listA>",are marrying each other,
null,"<div style=""font-size:60px;"">+</div>",,html-keyboard-response,331,1652029,0.0-17.0-0.11,56626,List2A,black,woman,,,,null,,,,
null,"<img src=""stim_listA/talk1.gif""style=""height:400px;""></stim_listA>",,html-keyboard-response,332,1654050,0.0-17.0-1.11,56626,List2A,black,woman,,,,null,,,,
null,is talking to,,html-keyboard-response,333,1656060,0.0-17.0-2.11,56626,List2A,black,woman,,,,null,,,,
7955,,,survey-text,334,1664017,0.0-17.0-3.11,56626,List2A,black,woman,,,,,"{""Q0"":""luke is talking to jane""}","<img src=""stim_listA/talk1.gif""style=""height:400px;""></stim_listA>",is talking to,
null,"<div style=""font-size:60px;"">+</div>",,html-keyboard-response,335,1664525,0.0-17.0-0.12,56626,List2A,black,woman,,,,null,,,,
null,"<img src=""stim_listA/fight3.gif""style=""height:400px;""></stim_listA>",,html-keyboard-response,336,1666533,0.0-17.0-1.12,56626,List2A,black,woman,,,,null,,,,
null,is fighting,,html-keyboard-response,337,1668537,0.0-17.0-2.12,56626,List2A,black,woman,,,,null,,,,
12792,,,survey-text,338,1681333,0.0-17.0-3.12,56626,List2A,black,woman,,,,,"{""Q0"":""mike is fighting kate""}","<img src=""stim_listA/fight3.gif""style=""height:400px;""></stim_listA>",is fighting,
null,"<div style=""font-size:60px;"">+</div>",,html-keyboard-response,339,1681840,0.0-17.0-0.13,56626,List2A,black,woman,,,,null,,,,
null,"<img src=""stim_listA/touch4.gif""style=""height:400px;""></stim_listA>",,html-keyboard-response,340,1683847,0.0-17.0-1.13,56626,List2A,black,woman,,,,null,,,,
null,are touching each other,,html-keyboard-response,341,1685849,0.0-17.0-2.13,56626,List2A,black,woman,,,,null,,,,
13338,,,survey-text,342,1699193,0.0-17.0-3.13,56626,List2A,black,woman,,,,,"{""Q0"":""beth and fred are touching each other.""}","<img src=""stim_listA/touch4.gif""style=""height:400px;""></stim_listA>",are touching each other,
null,"<div style=""font-size:60px;"">+</div>",,html-keyboard-response,343,1699699,0.0-17.0-0.14,56626,List2A,black,woman,,,,null,,,,
null,"<img src=""stim_listA/kiss6.gif""style=""height:400px;""></stim_listA>",,html-keyboard-response,344,1701706,0.0-17.0-1.14,56626,List2A,black,woman,,,,null,,,,
null,are kissing each other,,html-keyboard-response,345,1703712,0.0-17.0-2.14,56626,List2A,black,woman,,,,null,,,,
7453,,,survey-text,346,1711168,0.0-17.0-3.14,56626,List2A,black,woman,,,,,"{""Q0"":""mike and dave are kissing each other""}","<img src=""stim_listA/kiss6.gif""style=""height:400px;""></stim_listA>",are kissing each other,
null,"<div style=""font-size:60px;"">+</div>",,html-keyboard-response,347,1711675,0.0-17.0-0.15,56626,List2A,black,woman,,,,null,,,,
null,"<img src=""stim_listA/shout5.gif""style=""height:400px;""></stim_listA>",,html-keyboard-response,348,1713681,0.0-17.0-1.15,56626,List2A,black,woman,,,,null,,,,
null,is shouting at,,html-keyboard-response,349,1715683,0.0-17.0-2.15,56626,List2A,black,woman,,,,null,,,,
6207,,,survey-text,350,1721894,0.0-17.0-3.15,56626,List2A,black,woman,,,,,"{""Q0"":""luke is shouting at fred""}","<img src=""stim_listA/shout5.gif""style=""height:400px;""></stim_listA>",is shouting at,
null,"<div style=""font-size:60px;"">+</div>",,html-keyboard-response,351,1722399,0.0-17.0-0.16,56626,List2A,black,woman,,,,null,,,,
null,"<img src=""stim_listA/argue2.gif""style=""height:400px;""></stim_listA>",,html-keyboard-response,352,1724405,0.0-17.0-1.16,56626,List2A,black,woman,,,,null,,,,
null,are arguing with each other,,html-keyboard-response,353,1726408,0.0-17.0-2.16,56626,List2A,black,woman,,,,null,,,,
7810,,,survey-text,354,1734222,0.0-17.0-3.16,56626,List2A,black,woman,,,,,"{""Q0"":""dave and jane are arguing with each other""}","<img src=""stim_listA/argue2.gif""style=""height:400px;""></stim_listA>",are arguing with each other,
null,"<div style=""font-size:60px;"">+</div>",,html-keyboard-response,355,1734731,0.0-17.0-0.17,56626,List2A,black,woman,,,,null,,,,
null,"<img src=""stim_listA/argue6.gif""style=""height:400px;""></stim_listA>",,html-keyboard-response,356,1736738,0.0-17.0-1.17,56626,List2A,black,woman,,,,null,,,,
null,are arguing with each other,,html-keyboard-response,357,1738746,0.0-17.0-2.17,56626,List2A,black,woman,,,,null,,,,
7974,,,survey-text,358,1746724,0.0-17.0-3.17,56626,List2A,black,woman,,,,,"{""Q0"":""mike and luke are arguing with each other""}","<img src=""stim_listA/argue6.gif""style=""height:400px;""></stim_listA>",are arguing with each other,
null,"<div style=""font-size:60px;"">+</div>",,html-keyboard-response,359,1747229,0.0-17.0-0.18,56626,List2A,black,woman,,,,null,,,,
null,"<img src=""stim_listA/play2.gif""style=""height:400px;""></stim_listA>",,html-keyboard-response,360,1749236,0.0-17.0-1.18,56626,List2A,black,woman,,,,null,,,,
null,are playing with each other,,html-keyboard-response,361,1751241,0.0-17.0-2.18,56626,List2A,black,woman,,,,null,,,,
8625,,,survey-text,362,1759869,0.0-17.0-3.18,56626,List2A,black,woman,,,,,"{""Q0"":""luke and ruth are playing with each other""}","<img src=""stim_listA/play2.gif""style=""height:400px;""></stim_listA>",are playing with each other,
null,"<div style=""font-size:60px;"">+</div>",,html-keyboard-response,363,1760377,0.0-17.0-0.19,56626,List2A,black,woman,,,,null,,,,
null,"<img src=""stim_listA/fight6.gif""style=""height:400px;""></stim_listA>",,html-keyboard-response,364,1762401,0.0-17.0-1.19,56626,List2A,black,woman,,,,null,,,,
null,are fighting each other,,html-keyboard-response,365,1764406,0.0-17.0-2.19,56626,List2A,black,woman,,,,null,,,,
12267,,,survey-text,366,1776676,0.0-17.0-3.19,56626,List2A,black,woman,,,,,"{""Q0"":""fred and luke are fighting with each other""}","<img src=""stim_listA/fight6.gif""style=""height:400px;""></stim_listA>",are fighting each other,
22036,"<img src='img/portrait_matrix_list2.jpg' style='width:900px;height:500px;''></img><p>If you have memorised all the portraits and names and are ready to start, press Continue.</p><p><strong>Please note: Your memory of these faces will be tested 4 times during this experiment.</strong></p>",0,html-button-response,367,1798716,0.0-18.0-0.0,56626,List2A,black,woman,,,,,,,,
1811,"<img src=""portrait/BW1.jpg""style=""height:400px;""></img>",0,html-button-response,368,1801540,0.0-18.0-1.0,56626,List2A,black,woman,,TRUE,0,,,,,
null,CORRECT,,html-keyboard-response,369,1803050,0.0-18.0-2.0-0.0,56626,List2A,black,woman,,,,null,,,,
1529,"<img src=""portrait/WM2.jpg""style=""height:400px;""></img>",7,html-button-response,370,1804587,0.0-18.0-4.0,56626,List2A,black,woman,,TRUE,7,,,,,
null,CORRECT,,html-keyboard-response,371,1806116,0.0-18.0-5.0-0.0,56626,List2A,black,woman,,,,null,,,,
1503,"<img src=""portrait/BM1.jpg""style=""height:400px;""></img>",4,html-button-response,372,1807625,0.0-18.0-7.0,56626,List2A,black,woman,,TRUE,4,,,,,
null,CORRECT,,html-keyboard-response,373,1809137,0.0-18.0-8.0-0.0,56626,List2A,black,woman,,,,null,,,,
1299,"<img src=""portrait/WW2.jpg""style=""height:400px;""></img>",3,html-button-response,374,1810441,0.0-18.0-10.0,56626,List2A,black,woman,,TRUE,3,,,,,
null,CORRECT,,html-keyboard-response,375,1811962,0.0-18.0-11.0-0.0,56626,List2A,black,woman,,,,null,,,,
1421,"<img src=""portrait/WW1.jpg""style=""height:400px;""></img>",1,html-button-response,376,1813389,0.0-18.0-13.0,56626,List2A,black,woman,,TRUE,1,,,,,
null,CORRECT,,html-keyboard-response,377,1814900,0.0-18.0-14.0-0.0,56626,List2A,black,woman,,,,null,,,,
2298,"<img src=""portrait/WM1.jpg""style=""height:400px;""></img>",6,html-button-response,378,1817216,0.0-18.0-16.0,56626,List2A,black,woman,,TRUE,6,,,,,
null,CORRECT,,html-keyboard-response,379,1818730,0.0-18.0-17.0-0.0,56626,List2A,black,woman,,,,null,,,,
5299,"<img src=""portrait/BM2.jpg""style=""height:400px;""></img>",5,html-button-response,380,1824033,0.0-18.0-19.0,56626,List2A,black,woman,,TRUE,5,,,,,
null,CORRECT,,html-keyboard-response,381,1825539,0.0-18.0-20.0-0.0,56626,List2A,black,woman,,,,null,,,,
2991,"<img src=""portrait/BW2.jpg""style=""height:400px;""></img>",2,html-button-response,382,1828533,0.0-18.0-22.0,56626,List2A,black,woman,,TRUE,2,,,,,
null,CORRECT,,html-keyboard-response,383,1830045,0.0-18.0-23.0-0.0,56626,List2A,black,woman,,,,null,,,,
1323,<p>You got 8 out of 8 right first time. Press Continue.</p>,0,html-button-response,384,1831372,0.0-18.0-25.0,56626,List2A,black,woman,,,,,,,,
null,"<div style=""font-size:60px;"">+</div>",,html-keyboard-response,385,1832883,0.0-19.0-0.0,56626,List2A,black,woman,,,,null,,,,
null,"<img src=""stim_listA/marry1.gif""style=""height:400px;""></stim_listA>",,html-keyboard-response,386,1834891,0.0-19.0-1.0,56626,List2A,black,woman,,,,null,,,,
null,is marrying,,html-keyboard-response,387,1836895,0.0-19.0-2.0,56626,List2A,black,woman,,,,null,,,,
7914,,,survey-text,388,1844813,0.0-19.0-3.0,56626,List2A,black,woman,,,,,"{""Q0"":""ruth is marrying dave""}","<img src=""stim_listA/marry1.gif""style=""height:400px;""></stim_listA>",is marrying,
null,"<div style=""font-size:60px;"">+</div>",,html-keyboard-response,389,1845319,0.0-19.0-0.1,56626,List2A,black,woman,,,,null,,,,
null,"<img src=""stim_listA/fight4.gif""style=""height:400px;""></stim_listA>",,html-keyboard-response,390,1847326,0.0-19.0-1.1,56626,List2A,black,woman,,,,null,,,,
null,are fighting each other,,html-keyboard-response,391,1849332,0.0-19.0-2.1,56626,List2A,black,woman,,,,null,,,,
10846,,,survey-text,392,1860181,0.0-19.0-3.1,56626,List2A,black,woman,,,,,"{""Q0"":""beth and fred are fighting each other""}","<img src=""stim_listA/fight4.gif""style=""height:400px;""></stim_listA>",are fighting each other,
null,"<div style=""font-size:60px;"">+</div>",,html-keyboard-response,393,1860690,0.0-19.0-0.2,56626,List2A,black,woman,,,,null,,,,
null,"<img src=""stim_listA/touch5.gif""style=""height:400px;""></stim_listA>",,html-keyboard-response,394,1862698,0.0-19.0-1.2,56626,List2A,black,woman,,,,null,,,,
null,is touching,,html-keyboard-response,395,1864704,0.0-19.0-2.2,56626,List2A,black,woman,,,,null,,,,
5458,,,survey-text,396,1870165,0.0-19.0-3.2,56626,List2A,black,woman,,,,,"{""Q0"":""mike is touching dave""}","<img src=""stim_listA/touch5.gif""style=""height:400px;""></stim_listA>",is touching,
null,"<div style=""font-size:60px;"">+</div>",,html-keyboard-response,397,1870674,0.0-19.0-0.3,56626,List2A,black,woman,,,,null,,,,
null,"<img src=""stim_listA/flirt6.gif""style=""height:400px;""></stim_listA>",,html-keyboard-response,398,1872700,0.0-19.0-1.3,56626,List2A,black,woman,,,,null,,,,
null,are flirting with each other,,html-keyboard-response,399,1874704,0.0-19.0-2.3,56626,List2A,black,woman,,,,null,,,,
8752,,,survey-text,400,1883460,0.0-19.0-3.3,56626,List2A,black,woman,,,,,"{""Q0"":""fred and dave are flirting with each other""}","<img src=""stim_listA/flirt6.gif""style=""height:400px;""></stim_listA>",are flirting with each other,
null,"<div style=""font-size:60px;"">+</div>",,html-keyboard-response,401,1883968,0.0-19.0-0.4,56626,List2A,black,woman,,,,null,,,,
null,"<img src=""stim_listA/marry5.gif""style=""height:400px;""></stim_listA>",,html-keyboard-response,402,1885974,0.0-19.0-1.4,56626,List2A,black,woman,,,,null,,,,
null,is marrying,,html-keyboard-response,403,1887979,0.0-19.0-2.4,56626,List2A,black,woman,,,,null,,,,
5238,,,survey-text,404,1893221,0.0-19.0-3.4,56626,List2A,black,woman,,,,,"{""Q0"":""fred is marrying dave""}","<img src=""stim_listA/marry5.gif""style=""height:400px;""></stim_listA>",is marrying,
null,"<div style=""font-size:60px;"">+</div>",,html-keyboard-response,405,1893729,0.0-19.0-0.5,56626,List2A,black,woman,,,,null,,,,
null,"<img src=""stim_listA/argue8.gif""style=""height:400px;""></stim_listA>",,html-keyboard-response,406,1895735,0.0-19.0-1.5,56626,List2A,black,woman,,,,null,,,,
null,are arguing with each other,,html-keyboard-response,407,1897742,0.0-19.0-2.5,56626,List2A,black,woman,,,,null,,,,
17049,,,survey-text,408,1914794,0.0-19.0-3.5,56626,List2A,black,woman,,,,,"{""Q0"":""kate and ruth are arguing with each other""}","<img src=""stim_listA/argue8.gif""style=""height:400px;""></stim_listA>",are arguing with each other,
null,"<div style=""font-size:60px;"">+</div>",,html-keyboard-response,409,1915304,0.0-19.0-0.6,56626,List2A,black,woman,,,,null,,,,
null,"<img src=""stim_listA/play4.gif""style=""height:400px;""></stim_listA>",,html-keyboard-response,410,1917309,0.0-19.0-1.6,56626,List2A,black,woman,,,,null,,,,
null,are playing with each other,,html-keyboard-response,411,1919314,0.0-19.0-2.6,56626,List2A,black,woman,,,,null,,,,
9474,,,survey-text,412,1928792,0.0-19.0-3.6,56626,List2A,black,woman,,,,,"{""Q0"":""fred and beth are playing with each other""}","<img src=""stim_listA/play4.gif""style=""height:400px;""></stim_listA>",are playing with each other,
null,"<div style=""font-size:60px;"">+</div>",,html-keyboard-response,413,1929310,0.0-19.0-0.7,56626,List2A,black,woman,,,,null,,,,
null,"<img src=""stim_listA/flirt7.gif""style=""height:400px;""></stim_listA>",,html-keyboard-response,414,1931330,0.0-19.0-1.7,56626,List2A,black,woman,,,,null,,,,
null,is flirting with,,html-keyboard-response,415,1933340,0.0-19.0-2.7,56626,List2A,black,woman,,,,null,,,,
20061,,,survey-text,416,1953404,0.0-19.0-3.7,56626,List2A,black,woman,,,,,"{""Q0"":""is flirting with (picture didn't show up)""}","<img src=""stim_listA/flirt7.gif""style=""height:400px;""></stim_listA>",is flirting with,
null,"<div style=""font-size:60px;"">+</div>",,html-keyboard-response,417,1953913,0.0-19.0-0.8,56626,List2A,black,woman,,,,null,,,,
null,"<img src=""stim_listA/shout1.gif""style=""height:400px;""></stim_listA>",,html-keyboard-response,418,1955942,0.0-19.0-1.8,56626,List2A,black,woman,,,,null,,,,
null,is shouting at,,html-keyboard-response,419,1957946,0.0-19.0-2.8,56626,List2A,black,woman,,,,null,,,,
6414,,,survey-text,420,1964364,0.0-19.0-3.8,56626,List2A,black,woman,,,,,"{""Q0"":""ruth is shouting at luke""}","<img src=""stim_listA/shout1.gif""style=""height:400px;""></stim_listA>",is shouting at,
null,"<div style=""font-size:60px;"">+</div>",,html-keyboard-response,421,1964870,0.0-19.0-0.9,56626,List2A,black,woman,,,,null,,,,
null,"<img src=""stim_listA/shout4.gif""style=""height:400px;""></stim_listA>",,html-keyboard-response,422,1966891,0.0-19.0-1.9,56626,List2A,black,woman,,,,null,,,,
null,are shouting at each other,,html-keyboard-response,423,1968894,0.0-19.0-2.9,56626,List2A,black,woman,,,,null,,,,
9377,,,survey-text,424,1978274,0.0-19.0-3.9,56626,List2A,black,woman,,,,,"{""Q0"":""kate and mike are shouting at each other""}","<img src=""stim_listA/shout4.gif""style=""height:400px;""></stim_listA>",are shouting at each other,
null,"<div style=""font-size:60px;"">+</div>",,html-keyboard-response,425,1978780,0.0-19.0-0.10,56626,List2A,black,woman,,,,null,,,,
null,"<img src=""stim_listA/talk2.gif""style=""height:400px;""></stim_listA>",,html-keyboard-response,426,1980785,0.0-19.0-1.10,56626,List2A,black,woman,,,,null,,,,
null,are talking to each other,,html-keyboard-response,427,1982790,0.0-19.0-2.10,56626,List2A,black,woman,,,,null,,,,
8734,,,survey-text,428,1991527,0.0-19.0-3.10,56626,List2A,black,woman,,,,,"{""Q0"":""ruth and dave are talking to each other""}","<img src=""stim_listA/talk2.gif""style=""height:400px;""></stim_listA>",are talking to each other,
null,"<div style=""font-size:60px;"">+</div>",,html-keyboard-response,429,1992050,0.0-19.0-0.11,56626,List2A,black,woman,,,,null,,,,
null,"<img src=""stim_listA/kiss2.gif""style=""height:400px;""></stim_listA>",,html-keyboard-response,430,1994058,0.0-19.0-1.11,56626,List2A,black,woman,,,,null,,,,
null,are kissing each other,,html-keyboard-response,431,1996066,0.0-19.0-2.11,56626,List2A,black,woman,,,,null,,,,
11075,,,survey-text,432,2007146,0.0-19.0-3.11,56626,List2A,black,woman,,,,,"{""Q0"":""jane and dave are kissing each other""}","<img src=""stim_listA/kiss2.gif""style=""height:400px;""></stim_listA>",are kissing each other,
null,"<div style=""font-size:60px;"">+</div>",,html-keyboard-response,433,2007652,0.0-19.0-0.12,56626,List2A,black,woman,,,,null,,,,
null,"<img src=""stim_listA/kiss7.gif""style=""height:400px;""></stim_listA>",,html-keyboard-response,434,2009661,0.0-19.0-1.12,56626,List2A,black,woman,,,,null,,,,
null,is kissing,,html-keyboard-response,435,2011667,0.0-19.0-2.12,56626,List2A,black,woman,,,,null,,,,
6110,,,survey-text,436,2017781,0.0-19.0-3.12,56626,List2A,black,woman,,,,,"{""Q0"":""ruth is kissing beth""}","<img src=""stim_listA/kiss7.gif""style=""height:400px;""></stim_listA>",is kissing,
null,"<div style=""font-size:60px;"">+</div>",,html-keyboard-response,437,2018286,0.0-19.0-0.13,56626,List2A,black,woman,,,,null,,,,
null,"<img src=""stim_listA/kiss5.gif""style=""height:400px;""></stim_listA>",,html-keyboard-response,438,2020294,0.0-19.0-1.13,56626,List2A,black,woman,,,,null,,,,
null,is kissing,,html-keyboard-response,439,2022298,0.0-19.0-2.13,56626,List2A,black,woman,,,,null,,,,
5520,,,survey-text,440,2027822,0.0-19.0-3.13,56626,List2A,black,woman,,,,,"{""Q0"":""luke is kissing fred""}","<img src=""stim_listA/kiss5.gif""style=""height:400px;""></stim_listA>",is kissing,
null,"<div style=""font-size:60px;"">+</div>",,html-keyboard-response,441,2028333,0.0-19.0-0.14,56626,List2A,black,woman,,,,null,,,,
null,"<img src=""stim_listA/flirt1.gif""style=""height:400px;""></stim_listA>",,html-keyboard-response,442,2030340,0.0-19.0-1.14,56626,List2A,black,woman,,,,null,,,,
null,is flirting with,,html-keyboard-response,443,2032345,0.0-19.0-2.14,56626,List2A,black,woman,,,,null,,,,
30104,,,survey-text,444,2062451,0.0-19.0-3.14,56626,List2A,black,woman,,,,,"{""Q0"":""luke is flirting with jane""}","<img src=""stim_listA/flirt1.gif""style=""height:400px;""></stim_listA>",is flirting with,
null,"<div style=""font-size:60px;"">+</div>",,html-keyboard-response,445,2062965,0.0-19.0-0.15,56626,List2A,black,woman,,,,null,,,,
null,"<img src=""stim_listA/play3.gif""style=""height:400px;""></stim_listA>",,html-keyboard-response,446,2064973,0.0-19.0-1.15,56626,List2A,black,woman,,,,null,,,,
null,is playing with,,html-keyboard-response,447,2066980,0.0-19.0-2.15,56626,List2A,black,woman,,,,null,,,,
10174,,,survey-text,448,2077157,0.0-19.0-3.15,56626,List2A,black,woman,,,,,"{""Q0"":""mike is playing with kate""}","<img src=""stim_listA/play3.gif""style=""height:400px;""></stim_listA>",is playing with,
null,"<div style=""font-size:60px;"">+</div>",,html-keyboard-response,449,2077662,0.0-19.0-0.16,56626,List2A,black,woman,,,,null,,,,
null,"<img src=""stim_listA/marry4.gif""style=""height:400px;""></stim_listA>",,html-keyboard-response,450,2079667,0.0-19.0-1.16,56626,List2A,black,woman,,,,null,,,,
null,are marrying each other,,html-keyboard-response,451,2081672,0.0-19.0-2.16,56626,List2A,black,woman,,,,null,,,,
8467,,,survey-text,452,2090143,0.0-19.0-3.16,56626,List2A,black,woman,,,,,"{""Q0"":""fred and kate are marrying each other""}","<img src=""stim_listA/marry4.gif""style=""height:400px;""></stim_listA>",are marrying each other,
null,"<div style=""font-size:60px;"">+</div>",,html-keyboard-response,453,2090650,0.0-19.0-0.17,56626,List2A,black,woman,,,,null,,,,
null,"<img src=""stim_listA/dance8.gif""style=""height:400px;""></stim_listA>",,html-keyboard-response,454,2092657,0.0-19.0-1.17,56626,List2A,black,woman,,,,null,,,,
null,are dancing with each other,,html-keyboard-response,455,2094668,0.0-19.0-2.17,56626,List2A,black,woman,,,,null,,,,
8170,,,survey-text,456,2102842,0.0-19.0-3.17,56626,List2A,black,woman,,,,,"{""Q0"":""beth and jane are dancing with each other""}","<img src=""stim_listA/dance8.gif""style=""height:400px;""></stim_listA>",are dancing with each other,
null,"<div style=""font-size:60px;"">+</div>",,html-keyboard-response,457,2103350,0.0-19.0-0.18,56626,List2A,black,woman,,,,null,,,,
null,"<img src=""stim_listA/talk5.gif""style=""height:400px;""></stim_listA>",,html-keyboard-response,458,2105358,0.0-19.0-1.18,56626,List2A,black,woman,,,,null,,,,
null,is talking to,,html-keyboard-response,459,2107362,0.0-19.0-2.18,56626,List2A,black,woman,,,,null,,,,
7904,,,survey-text,460,2115271,0.0-19.0-3.18,56626,List2A,black,woman,,,,,"{""Q0"":""mike is talking to luke""}","<img src=""stim_listA/talk5.gif""style=""height:400px;""></stim_listA>",is talking to,
null,"<div style=""font-size:60px;"">+</div>",,html-keyboard-response,461,2115788,0.0-19.0-0.19,56626,List2A,black,woman,,,,null,,,,
null,"<img src=""stim_listA/argue1.gif""style=""height:400px;""></stim_listA>",,html-keyboard-response,462,2117795,0.0-19.0-1.19,56626,List2A,black,woman,,,,null,,,,
null,is arguing with,,html-keyboard-response,463,2119803,0.0-19.0-2.19,56626,List2A,black,woman,,,,null,,,,
6271,,,survey-text,464,2126076,0.0-19.0-3.19,56626,List2A,black,woman,,,,,"{""Q0"":""ruth is arguing with dave""}","<img src=""stim_listA/argue1.gif""style=""height:400px;""></stim_listA>",is arguing with,
2024,<p>Thank you for completing that task.</p><p>The final part of this session is a short questionnaire.</p><p>Press Continue.</p>,0,html-button-response,465,2128105,0.0-20.0,56626,List2A,black,woman,,,,,,,,
17245,,,survey-text,466,2146358,0.0-21.0,56626,List2A,black,woman,,,,,"{""Q0"":""27"",""Q1"":""English"",""Q2"":""English"",""Q3"":""England"",""Q4"":""Black"",""Q5"":""Female""}",,,demographics
7858,,,survey-likert,467,2154233,0.0-22.0,56626,List2A,black,woman,,,,,"{""Q0"":3}",,,likert_ESS
12821,,,survey-likert,468,2167121,0.0-23.0,56626,List2A,black,woman,,,,,"{""Q0"":2}",,,likert_NSSAL_Q1
4414,,,survey-likert,469,2171671,0.0-24.0,56626,List2A,black,woman,,,,,"{""Q0"":3}",,,likert_NSSAL_Q2
3906,,,survey-likert,470,2175661,0.0-25.0,56626,List2A,black,woman,,,,,"{""Q0"":3}",,,likert_CGRS_Q1
7186,,,survey-likert,471,2182986,0.0-26.0,56626,List2A,black,woman,,,,,"{""Q0"":3}",,,likert_CGRS_Q2
6176,,,survey-likert,472,2189254,0.0-27.0,56626,List2A,black,woman,,,,,"{""Q0"":3}",,,likert_CGRS_Q3
4445,,,survey-text,473,2193832,0.0-28.0,56626,List2A,black,woman,,,,,"{""Q0"":""ccc""}",,,worker_id
16998,,,external-html,474,2210982,0.0-29.0,56626,List2A,black,woman,debrief.html,,,,,,,
