"rt","stimulus","button_pressed","trial_type","trial_index","time_elapsed","internal_node_id","subject","list","ppt_race","ppt_gender","url","first_guess","correct","key_press","responses","image_type","phrase_type","test_part"
"5895","Welcome to the experiment. Press Continue to begin.","0","html-button-response","0","5896","0.0-0.0","57082","List1A","black","woman","","","","","","","",""
"321581","","","external-html","1","328506","0.0-1.0","57082","List1A","black","woman","consent.html","","","","","","",""
"29368","<p>On the next page, you will see portraits of 8 people and their names.</p><p>Your first task is to take a few minutes to memorise the names of these people.</p><p>You will have to recall their names during the rest of the experiment, so it is</p><p>essential that you try to memorise these people and their names as best as you can.</p><br><p><strong>You will then be tested on your memory of these names and portraits.</strong></p><br><p>The experiment will start after you have completed this memory test.</p><br><p>Ready?</p>","0","html-button-response","2","357876","0.0-2.0","57082","List1A","black","woman","","","","","","","",""
"121660","<img src='img/portrait_matrix_list1.jpg' style='width:900px;height:500px;''></img><p>If you have memorised all the portraits and names and are ready to start, press Continue.</p><p><strong>Please note: Your memory of these faces will be tested 4 times during this experiment.</strong></p>","0","html-button-response","3","480538","0.0-3.0-0.0","57082","List1A","black","woman","","","","","","","",""
"1822","<img src=""portrait/BW2.jpg""style=""height:400px;""></img>","2","html-button-response","4","483362","0.0-3.0-1.0","57082","List1A","black","woman","","true","2","","","","",""
"null","CORRECT","","html-keyboard-response","5","484878","0.0-3.0-2.0-0.0","57082","List1A","black","woman","","","","null","","","",""
"2722","<img src=""portrait/BW1.jpg""style=""height:400px;""></img>","0","html-button-response","6","487602","0.0-3.0-4.0","57082","List1A","black","woman","","true","0","","","","",""
"null","CORRECT","","html-keyboard-response","7","489120","0.0-3.0-5.0-0.0","57082","List1A","black","woman","","","","null","","","",""
"1824","<img src=""portrait/BM1.jpg""style=""height:400px;""></img>","4","html-button-response","8","490946","0.0-3.0-7.0","57082","List1A","black","woman","","true","4","","","","",""
"null","CORRECT","","html-keyboard-response","9","492448","0.0-3.0-8.0-0.0","57082","List1A","black","woman","","","","null","","","",""
"1858","<img src=""portrait/BM2.jpg""style=""height:400px;""></img>","5","html-button-response","10","494306","0.0-3.0-10.0","57082","List1A","black","woman","","true","5","","","","",""
"null","CORRECT","","html-keyboard-response","11","495826","0.0-3.0-11.0-0.0","57082","List1A","black","woman","","","","null","","","",""
"2078","<img src=""portrait/WM1.jpg""style=""height:400px;""></img>","6","html-button-response","12","497906","0.0-3.0-13.0","57082","List1A","black","woman","","true","6","","","","",""
"null","CORRECT","","html-keyboard-response","13","499430","0.0-3.0-14.0-0.0","57082","List1A","black","woman","","","","null","","","",""
"1636","<img src=""portrait/WW1.jpg""style=""height:400px;""></img>","1","html-button-response","14","501066","0.0-3.0-16.0","57082","List1A","black","woman","","true","1","","","","",""
"null","CORRECT","","html-keyboard-response","15","502576","0.0-3.0-17.0-0.0","57082","List1A","black","woman","","","","null","","","",""
"1593","<img src=""portrait/WM2.jpg""style=""height:400px;""></img>","7","html-button-response","16","504170","0.0-3.0-19.0","57082","List1A","black","woman","","true","7","","","","",""
"null","CORRECT","","html-keyboard-response","17","505694","0.0-3.0-20.0-0.0","57082","List1A","black","woman","","","","null","","","",""
"4267","<img src=""portrait/WW2.jpg""style=""height:400px;""></img>","3","html-button-response","18","509962","0.0-3.0-22.0","57082","List1A","black","woman","","true","3","","","","",""
"null","CORRECT","","html-keyboard-response","19","511469","0.0-3.0-23.0-0.0","57082","List1A","black","woman","","","","null","","","",""
"2300","<p>You got 8 out of 8 right first time. Press Continue.</p>","0","html-button-response","20","513770","0.0-3.0-25.0","57082","List1A","black","woman","","","","","","","",""
"89520","<p>In this experiment, you will view photographs of the people from the memory game interacting.</p><p>By using the <strong>exact</strong> phrase given <i>after</i> the photograph appears and recalling the correct names of the people in the photographs, form a sentence describing the interaction. You do not need to capitalise names.</p><p>Type your answer in the space provided. Please complete every sentence before moving onto the next trial.</p><p>You will only have a few seconds to memorise each given photograph and phrase before you can respond, so try your best to focus.</p><p>An example is given below. Press 'Continue' when you are ready.</p><img src='img/speaking_example.jpg' style='width:800px;height:460px;''></img>","0","html-button-response","21","604303","0.0-4.0","57082","List1A","black","woman","","","","","","","",""
"7906","<p>Before the experiment starts, you will watch two example trials. Press 'Continue'.</p>","0","html-button-response","22","613223","0.0-5.0","57082","List1A","black","woman","","","","","","","",""
"null","<img src='img/meet_eg.gif' style='height:400px;''></img>","","html-keyboard-response","23","616240","0.0-6.0","57082","List1A","black","woman","","","","null","","","",""
"null","<p>is meeting</p>","","html-keyboard-response","24","618247","0.0-7.0","57082","List1A","black","woman","","","","null","","","",""
"6975","<p><b>Answer:</b> kate is meeting beth</p>","0","html-button-response","25","625223","0.0-8.0","57082","List1A","black","woman","","","","","","","",""
"null","<img src='img/look_eg.gif' style='height:400px;''></img>","","html-keyboard-response","26","628227","0.0-9.0","57082","List1A","black","woman","","","","null","","","",""
"null","<p>are looking at each other</p>","","html-keyboard-response","27","630228","0.0-10.0","57082","List1A","black","woman","","","","null","","","",""
"3386","<p><b>Answer:</b> luke and dave are looking at each other</p>","0","html-button-response","28","633615","0.0-11.0","57082","List1A","black","woman","","","","","","","",""
"22118","<p>Ready to start the experiment?</p><br><p><strong>Remember to describe the picture using a full sentence,</strong></p><p><strong>that combines the names of the people with the <i>exact</i> phrase given.</strong></p><p><strong>To receive full payment you must do this correctly.</strong></p><p><strong> You do not need to capitalise names or use punctuation.</strong></p><br><p>Press 'Continue' to begin.</p>","0","html-button-response","29","656743","0.0-12.0","57082","List1A","black","woman","","","","","","","",""
"null","<div style=""font-size:60px;"">+</div>","","html-keyboard-response","30","658263","0.0-13.0-0.0","57082","List1A","black","woman","","","","null","","","",""
"null","<img src=""stim_listA/shout4.gif""style=""height:400px;""></stim_listA>","","html-keyboard-response","31","660268","0.0-13.0-1.0","57082","List1A","black","woman","","","","null","","","",""
"null","are shouting at each other","","html-keyboard-response","32","662276","0.0-13.0-2.0","57082","List1A","black","woman","","","","null","","","",""
"20021","","","survey-text","33","682298","0.0-13.0-3.0","57082","List1A","black","woman","","","","","{""Q0"":""Dave and Jane are shouting at each other""}","<img src=""stim_listA/shout4.gif""style=""height:400px;""></stim_listA>","are shouting at each other",""
"null","<div style=""font-size:60px;"">+</div>","","html-keyboard-response","34","682814","0.0-13.0-0.1","57082","List1A","black","woman","","","","null","","","",""
"null","<img src=""stim_listA/shout2.gif""style=""height:400px;""></stim_listA>","","html-keyboard-response","35","684816","0.0-13.0-1.1","57082","List1A","black","woman","","","","null","","","",""
"null","are shouting at each other","","html-keyboard-response","36","686818","0.0-13.0-2.1","57082","List1A","black","woman","","","","null","","","",""
"15927","","","survey-text","37","702745","0.0-13.0-3.1","57082","List1A","black","woman","","","","","{""Q0"":""Mike and Kate are shouting at each other""}","<img src=""stim_listA/shout2.gif""style=""height:400px;""></stim_listA>","are shouting at each other",""
"null","<div style=""font-size:60px;"">+</div>","","html-keyboard-response","38","703251","0.0-13.0-0.2","57082","List1A","black","woman","","","","null","","","",""
"null","<img src=""stim_listA/argue3.gif""style=""height:400px;""></stim_listA>","","html-keyboard-response","39","705252","0.0-13.0-1.2","57082","List1A","black","woman","","","","null","","","",""
"null","is arguing with","","html-keyboard-response","40","707258","0.0-13.0-2.2","57082","List1A","black","woman","","","","null","","","",""
"26923","","","survey-text","41","734182","0.0-13.0-3.2","57082","List1A","black","woman","","","","","{""Q0"":""Dave is arguing with Ruth""}","<img src=""stim_listA/argue3.gif""style=""height:400px;""></stim_listA>","is arguing with",""
"null","<div style=""font-size:60px;"">+</div>","","html-keyboard-response","42","734683","0.0-13.0-0.3","57082","List1A","black","woman","","","","null","","","",""
"null","<img src=""stim_listA/play2.gif""style=""height:400px;""></stim_listA>","","html-keyboard-response","43","736689","0.0-13.0-1.3","57082","List1A","black","woman","","","","null","","","",""
"null","are playing with each other","","html-keyboard-response","44","738691","0.0-13.0-2.3","57082","List1A","black","woman","","","","null","","","",""
"22746","","","survey-text","45","761438","0.0-13.0-3.3","57082","List1A","black","woman","","","","","{""Q0"":""Fred and Beth are playing with each other""}","<img src=""stim_listA/play2.gif""style=""height:400px;""></stim_listA>","are playing with each other",""
"null","<div style=""font-size:60px;"">+</div>","","html-keyboard-response","46","761939","0.0-13.0-0.4","57082","List1A","black","woman","","","","null","","","",""
"null","<img src=""stim_listA/kiss4.gif""style=""height:400px;""></stim_listA>","","html-keyboard-response","47","763950","0.0-13.0-1.4","57082","List1A","black","woman","","","","null","","","",""
"null","are kissing each other","","html-keyboard-response","48","765951","0.0-13.0-2.4","57082","List1A","black","woman","","","","null","","","",""
"18103","","","survey-text","49","784054","0.0-13.0-3.4","57082","List1A","black","woman","","","","","{""Q0"":""Dave and Jane are kissing each other""}","<img src=""stim_listA/kiss4.gif""style=""height:400px;""></stim_listA>","are kissing each other",""
"null","<div style=""font-size:60px;"">+</div>","","html-keyboard-response","50","784555","0.0-13.0-0.5","57082","List1A","black","woman","","","","null","","","",""
"null","<img src=""stim_listA/argue4.gif""style=""height:400px;""></stim_listA>","","html-keyboard-response","51","786562","0.0-13.0-1.5","57082","List1A","black","woman","","","","null","","","",""
"null","are arguing with each other","","html-keyboard-response","52","788563","0.0-13.0-2.5","57082","List1A","black","woman","","","","null","","","",""
"17191","","","survey-text","53","805755","0.0-13.0-3.5","57082","List1A","black","woman","","","","","{""Q0"":""Luke and Jane are arguing with each other""}","<img src=""stim_listA/argue4.gif""style=""height:400px;""></stim_listA>","are arguing with each other",""
"null","<div style=""font-size:60px;"">+</div>","","html-keyboard-response","54","806256","0.0-13.0-0.6","57082","List1A","black","woman","","","","null","","","",""
"null","<img src=""stim_listA/argue1.gif""style=""height:400px;""></stim_listA>","","html-keyboard-response","55","808259","0.0-13.0-1.6","57082","List1A","black","woman","","","","null","","","",""
"null","is arguing with","","html-keyboard-response","56","810260","0.0-13.0-2.6","57082","List1A","black","woman","","","","null","","","",""
"13230","","","survey-text","57","823491","0.0-13.0-3.6","57082","List1A","black","woman","","","","","{""Q0"":""Mike is arguing with Beth""}","<img src=""stim_listA/argue1.gif""style=""height:400px;""></stim_listA>","is arguing with",""
"null","<div style=""font-size:60px;"">+</div>","","html-keyboard-response","58","824001","0.0-13.0-0.7","57082","List1A","black","woman","","","","null","","","",""
"null","<img src=""stim_listA/touch6.gif""style=""height:400px;""></stim_listA>","","html-keyboard-response","59","826003","0.0-13.0-1.7","57082","List1A","black","woman","","","","null","","","",""
"null","are touching each other","","html-keyboard-response","60","828004","0.0-13.0-2.7","57082","List1A","black","woman","","","","null","","","",""
"14039","","","survey-text","61","842043","0.0-13.0-3.7","57082","List1A","black","woman","","","","","{""Q0"":""Luke and Fred are touching each other""}","<img src=""stim_listA/touch6.gif""style=""height:400px;""></stim_listA>","are touching each other",""
"null","<div style=""font-size:60px;"">+</div>","","html-keyboard-response","62","842548","0.0-13.0-0.8","57082","List1A","black","woman","","","","null","","","",""
"null","<img src=""stim_listA/marry5.gif""style=""height:400px;""></stim_listA>","","html-keyboard-response","63","844557","0.0-13.0-1.8","57082","List1A","black","woman","","","","null","","","",""
"null","is marrying","","html-keyboard-response","64","846563","0.0-13.0-2.8","57082","List1A","black","woman","","","","null","","","",""
"15719","","","survey-text","65","862283","0.0-13.0-3.8","57082","List1A","black","woman","","","","","{""Q0"":""Luke is marrying Mike""}","<img src=""stim_listA/marry5.gif""style=""height:400px;""></stim_listA>","is marrying",""
"null","<div style=""font-size:60px;"">+</div>","","html-keyboard-response","66","862797","0.0-13.0-0.9","57082","List1A","black","woman","","","","null","","","",""
"null","<img src=""stim_listA/shout1.gif""style=""height:400px;""></stim_listA>","","html-keyboard-response","67","864798","0.0-13.0-1.9","57082","List1A","black","woman","","","","null","","","",""
"null","is shouting at","","html-keyboard-response","68","866800","0.0-13.0-2.9","57082","List1A","black","woman","","","","null","","","",""
"14530","","","survey-text","69","881332","0.0-13.0-3.9","57082","List1A","black","woman","","","","","{""Q0"":""Beth is shouting at Fred""}","<img src=""stim_listA/shout1.gif""style=""height:400px;""></stim_listA>","is shouting at",""
"null","<div style=""font-size:60px;"">+</div>","","html-keyboard-response","70","881832","0.0-13.0-0.10","57082","List1A","black","woman","","","","null","","","",""
"null","<img src=""stim_listA/fight8.gif""style=""height:400px;""></stim_listA>","","html-keyboard-response","71","883848","0.0-13.0-1.10","57082","List1A","black","woman","","","","null","","","",""
"null","are fighting each other","","html-keyboard-response","72","885849","0.0-13.0-2.10","57082","List1A","black","woman","","","","null","","","",""
"19450","","","survey-text","73","905300","0.0-13.0-3.10","57082","List1A","black","woman","","","","","{""Q0"":""Beth and Ruth are fighting each other""}","<img src=""stim_listA/fight8.gif""style=""height:400px;""></stim_listA>","are fighting each other",""
"null","<div style=""font-size:60px;"">+</div>","","html-keyboard-response","74","905802","0.0-13.0-0.11","57082","List1A","black","woman","","","","null","","","",""
"null","<img src=""stim_listA/flirt4.gif""style=""height:400px;""></stim_listA>","","html-keyboard-response","75","907805","0.0-13.0-1.11","57082","List1A","black","woman","","","","null","","","",""
"null","are flirting with each other","","html-keyboard-response","76","909806","0.0-13.0-2.11","57082","List1A","black","woman","","","","null","","","",""
"17668","","","survey-text","77","927476","0.0-13.0-3.11","57082","List1A","black","woman","","","","","{""Q0"":""Ruth and Dave are flirting with each other""}","<img src=""stim_listA/flirt4.gif""style=""height:400px;""></stim_listA>","are flirting with each other",""
"null","<div style=""font-size:60px;"">+</div>","","html-keyboard-response","78","927979","0.0-13.0-0.12","57082","List1A","black","woman","","","","null","","","",""
"null","<img src=""stim_listA/dance2.gif""style=""height:400px;""></stim_listA>","","html-keyboard-response","79","929981","0.0-13.0-1.12","57082","List1A","black","woman","","","","null","","","",""
"null","are dancing with each other","","html-keyboard-response","80","931982","0.0-13.0-2.12","57082","List1A","black","woman","","","","null","","","",""
"13149","","","survey-text","81","945132","0.0-13.0-3.12","57082","List1A","black","woman","","","","","{""Q0"":""Beth and Mike are dancing with each other""}","<img src=""stim_listA/dance2.gif""style=""height:400px;""></stim_listA>","are dancing with each other",""
"null","<div style=""font-size:60px;"">+</div>","","html-keyboard-response","82","945640","0.0-13.0-0.13","57082","List1A","black","woman","","","","null","","","",""
"null","<img src=""stim_listA/fight3.gif""style=""height:400px;""></stim_listA>","","html-keyboard-response","83","947642","0.0-13.0-1.13","57082","List1A","black","woman","","","","null","","","",""
"null","is fighting","","html-keyboard-response","84","949644","0.0-13.0-2.13","57082","List1A","black","woman","","","","null","","","",""
"9016","","","survey-text","85","958660","0.0-13.0-3.13","57082","List1A","black","woman","","","","","{""Q0"":""Dave is fighting Jane""}","<img src=""stim_listA/fight3.gif""style=""height:400px;""></stim_listA>","is fighting",""
"null","<div style=""font-size:60px;"">+</div>","","html-keyboard-response","86","959163","0.0-13.0-0.14","57082","List1A","black","woman","","","","null","","","",""
"null","<img src=""stim_listA/fight6.gif""style=""height:400px;""></stim_listA>","","html-keyboard-response","87","961165","0.0-13.0-1.14","57082","List1A","black","woman","","","","null","","","",""
"null","are fighting each other","","html-keyboard-response","88","963172","0.0-13.0-2.14","57082","List1A","black","woman","","","","null","","","",""
"10835","","","survey-text","89","974008","0.0-13.0-3.14","57082","List1A","black","woman","","","","","{""Q0"":""Luke and Fred are fighting each other""}","<img src=""stim_listA/fight6.gif""style=""height:400px;""></stim_listA>","are fighting each other",""
"null","<div style=""font-size:60px;"">+</div>","","html-keyboard-response","90","974515","0.0-13.0-0.15","57082","List1A","black","woman","","","","null","","","",""
"null","<img src=""stim_listA/shout3.gif""style=""height:400px;""></stim_listA>","","html-keyboard-response","91","976517","0.0-13.0-1.15","57082","List1A","black","woman","","","","null","","","",""
"null","is shouting at","","html-keyboard-response","92","978518","0.0-13.0-2.15","57082","List1A","black","woman","","","","null","","","",""
"11394","","","survey-text","93","989912","0.0-13.0-3.15","57082","List1A","black","woman","","","","","{""Q0"":""Ruth is shouting at Luke ""}","<img src=""stim_listA/shout3.gif""style=""height:400px;""></stim_listA>","is shouting at",""
"null","<div style=""font-size:60px;"">+</div>","","html-keyboard-response","94","990414","0.0-13.0-0.16","57082","List1A","black","woman","","","","null","","","",""
"null","<img src=""stim_listA/kiss2.gif""style=""height:400px;""></stim_listA>","","html-keyboard-response","95","992417","0.0-13.0-1.16","57082","List1A","black","woman","","","","null","","","",""
"null","are kissing each other","","html-keyboard-response","96","994429","0.0-13.0-2.16","57082","List1A","black","woman","","","","null","","","",""
"14603","","","survey-text","97","1009032","0.0-13.0-3.16","57082","List1A","black","woman","","","","","{""Q0"":""Kate and Mike are kissing each other""}","<img src=""stim_listA/kiss2.gif""style=""height:400px;""></stim_listA>","are kissing each other",""
"null","<div style=""font-size:60px;"">+</div>","","html-keyboard-response","98","1009546","0.0-13.0-0.17","57082","List1A","black","woman","","","","null","","","",""
"null","<img src=""stim_listA/play6.gif""style=""height:400px;""></stim_listA>","","html-keyboard-response","99","1011549","0.0-13.0-1.17","57082","List1A","black","woman","","","","null","","","",""
"null","are playing with each other","","html-keyboard-response","100","1013551","0.0-13.0-2.17","57082","List1A","black","woman","","","","null","","","",""
"15312","","","survey-text","101","1028863","0.0-13.0-3.17","57082","List1A","black","woman","","","","","{""Q0"":""Fred and Luke are playing with each other""}","<img src=""stim_listA/play6.gif""style=""height:400px;""></stim_listA>","are playing with each other",""
"null","<div style=""font-size:60px;"">+</div>","","html-keyboard-response","102","1029366","0.0-13.0-0.18","57082","List1A","black","woman","","","","null","","","",""
"null","<img src=""stim_listA/marry8.gif""style=""height:400px;""></stim_listA>","","html-keyboard-response","103","1031370","0.0-13.0-1.18","57082","List1A","black","woman","","","","null","","","",""
"null","are marrying each other","","html-keyboard-response","104","1033381","0.0-13.0-2.18","57082","List1A","black","woman","","","","null","","","",""
"15146","","","survey-text","105","1048527","0.0-13.0-3.18","57082","List1A","black","woman","","","","","{""Q0"":""Jane and Beth are marrying each other""}","<img src=""stim_listA/marry8.gif""style=""height:400px;""></stim_listA>","are marrying each other",""
"null","<div style=""font-size:60px;"">+</div>","","html-keyboard-response","106","1049036","0.0-13.0-0.19","57082","List1A","black","woman","","","","null","","","",""
"null","<img src=""stim_listA/kiss6.gif""style=""height:400px;""></stim_listA>","","html-keyboard-response","107","1051037","0.0-13.0-1.19","57082","List1A","black","woman","","","","null","","","",""
"null","are kissing each other","","html-keyboard-response","108","1053038","0.0-13.0-2.19","57082","List1A","black","woman","","","","null","","","",""
"13904","","","survey-text","109","1066943","0.0-13.0-3.19","57082","List1A","black","woman","","","","","{""Q0"":""Dave and Mike are kissing each other""}","<img src=""stim_listA/kiss6.gif""style=""height:400px;""></stim_listA>","are kissing each other",""
"29408","<img src='img/portrait_matrix_list1.jpg' style='width:900px;height:500px;''></img><p>If you have memorised all the portraits and names and are ready to start, press Continue.</p><p><strong>Please note: Your memory of these faces will be tested 4 times during this experiment.</strong></p>","0","html-button-response","110","1096353","0.0-14.0-0.0","57082","List1A","black","woman","","","","","","","",""
"4084","<img src=""portrait/WM2.jpg""style=""height:400px;""></img>","7","html-button-response","111","1101450","0.0-14.0-1.0","57082","List1A","black","woman","","true","7","","","","",""
"null","CORRECT","","html-keyboard-response","112","1102979","0.0-14.0-2.0-0.0","57082","List1A","black","woman","","","","null","","","",""
"3676","<img src=""portrait/BM1.jpg""style=""height:400px;""></img>","4","html-button-response","113","1106656","0.0-14.0-4.0","57082","List1A","black","woman","","true","4","","","","",""
"null","CORRECT","","html-keyboard-response","114","1108179","0.0-14.0-5.0-0.0","57082","List1A","black","woman","","","","null","","","",""
"1950","<img src=""portrait/BM2.jpg""style=""height:400px;""></img>","5","html-button-response","115","1110129","0.0-14.0-7.0","57082","List1A","black","woman","","true","5","","","","",""
"null","CORRECT","","html-keyboard-response","116","1111644","0.0-14.0-8.0-0.0","57082","List1A","black","woman","","","","null","","","",""
"1859","<img src=""portrait/BW2.jpg""style=""height:400px;""></img>","2","html-button-response","117","1113505","0.0-14.0-10.0","57082","List1A","black","woman","","true","2","","","","",""
"null","CORRECT","","html-keyboard-response","118","1115021","0.0-14.0-11.0-0.0","57082","List1A","black","woman","","","","null","","","",""
"1482","<img src=""portrait/WW2.jpg""style=""height:400px;""></img>","3","html-button-response","119","1116505","0.0-14.0-13.0","57082","List1A","black","woman","","true","3","","","","",""
"null","CORRECT","","html-keyboard-response","120","1118008","0.0-14.0-14.0-0.0","57082","List1A","black","woman","","","","null","","","",""
"2415","<img src=""portrait/WM1.jpg""style=""height:400px;""></img>","6","html-button-response","121","1120425","0.0-14.0-16.0","57082","List1A","black","woman","","true","6","","","","",""
"null","CORRECT","","html-keyboard-response","122","1121935","0.0-14.0-17.0-0.0","57082","List1A","black","woman","","","","null","","","",""
"1609","<img src=""portrait/BW1.jpg""style=""height:400px;""></img>","0","html-button-response","123","1123545","0.0-14.0-19.0","57082","List1A","black","woman","","true","0","","","","",""
"null","CORRECT","","html-keyboard-response","124","1125047","0.0-14.0-20.0-0.0","57082","List1A","black","woman","","","","null","","","",""
"1497","<img src=""portrait/WW1.jpg""style=""height:400px;""></img>","1","html-button-response","125","1126545","0.0-14.0-22.0","57082","List1A","black","woman","","true","1","","","","",""
"null","CORRECT","","html-keyboard-response","126","1128065","0.0-14.0-23.0-0.0","57082","List1A","black","woman","","","","null","","","",""
"2383","<p>You got 8 out of 8 right first time. Press Continue.</p>","0","html-button-response","127","1130449","0.0-14.0-25.0","57082","List1A","black","woman","","","","","","","",""
"null","<div style=""font-size:60px;"">+</div>","","html-keyboard-response","128","1131952","0.0-15.0-0.0","57082","List1A","black","woman","","","","null","","","",""
"null","<img src=""stim_listA/marry1.gif""style=""height:400px;""></stim_listA>","","html-keyboard-response","129","1133968","0.0-15.0-1.0","57082","List1A","black","woman","","","","null","","","",""
"null","is marrying","","html-keyboard-response","130","1135974","0.0-15.0-2.0","57082","List1A","black","woman","","","","null","","","",""
"12498","","","survey-text","131","1148473","0.0-15.0-3.0","57082","List1A","black","woman","","","","","{""Q0"":""Beth is marrying Mike""}","<img src=""stim_listA/marry1.gif""style=""height:400px;""></stim_listA>","is marrying",""
"null","<div style=""font-size:60px;"">+</div>","","html-keyboard-response","132","1148974","0.0-15.0-0.1","57082","List1A","black","woman","","","","null","","","",""
"null","<img src=""stim_listA/talk7.gif""style=""height:400px;""></stim_listA>","","html-keyboard-response","133","1150975","0.0-15.0-1.1","57082","List1A","black","woman","","","","null","","","",""
"null","is talking to","","html-keyboard-response","134","1152976","0.0-15.0-2.1","57082","List1A","black","woman","","","","null","","","",""
"8733","","","survey-text","135","1161709","0.0-15.0-3.1","57082","List1A","black","woman","","","","","{""Q0"":""Jane is talking to Beth""}","<img src=""stim_listA/talk7.gif""style=""height:400px;""></stim_listA>","is talking to",""
"null","<div style=""font-size:60px;"">+</div>","","html-keyboard-response","136","1162213","0.0-15.0-0.2","57082","List1A","black","woman","","","","null","","","",""
"null","<img src=""stim_listA/play1.gif""style=""height:400px;""></stim_listA>","","html-keyboard-response","137","1164215","0.0-15.0-1.2","57082","List1A","black","woman","","","","null","","","",""
"null","is playing with","","html-keyboard-response","138","1166228","0.0-15.0-2.2","57082","List1A","black","woman","","","","null","","","",""
"7529","","","survey-text","139","1173757","0.0-15.0-3.2","57082","List1A","black","woman","","","","","{""Q0"":""Kate is playing with Mike ""}","<img src=""stim_listA/play1.gif""style=""height:400px;""></stim_listA>","is playing with",""
"null","<div style=""font-size:60px;"">+</div>","","html-keyboard-response","140","1174269","0.0-15.0-0.3","57082","List1A","black","woman","","","","null","","","",""
"null","<img src=""stim_listA/argue5.gif""style=""height:400px;""></stim_listA>","","html-keyboard-response","141","1176273","0.0-15.0-1.3","57082","List1A","black","woman","","","","null","","","",""
"null","is arguing with","","html-keyboard-response","142","1178274","0.0-15.0-2.3","57082","List1A","black","woman","","","","null","","","",""
"9043","","","survey-text","143","1187317","0.0-15.0-3.3","57082","List1A","black","woman","","","","","{""Q0"":""Luke is arguing with Mike""}","<img src=""stim_listA/argue5.gif""style=""height:400px;""></stim_listA>","is arguing with",""
"null","<div style=""font-size:60px;"">+</div>","","html-keyboard-response","144","1187818","0.0-15.0-0.4","57082","List1A","black","woman","","","","null","","","",""
"null","<img src=""stim_listA/argue2.gif""style=""height:400px;""></stim_listA>","","html-keyboard-response","145","1189823","0.0-15.0-1.4","57082","List1A","black","woman","","","","null","","","",""
"null","are arguing with each other","","html-keyboard-response","146","1191825","0.0-15.0-2.4","57082","List1A","black","woman","","","","null","","","",""
"19692","","","survey-text","147","1211517","0.0-15.0-3.4","57082","List1A","black","woman","","","","","{""Q0"":""Fred and Kate are arguing with each other""}","<img src=""stim_listA/argue2.gif""style=""height:400px;""></stim_listA>","are arguing with each other",""
"null","<div style=""font-size:60px;"">+</div>","","html-keyboard-response","148","1212018","0.0-15.0-0.5","57082","List1A","black","woman","","","","null","","","",""
"null","<img src=""stim_listA/marry6.gif""style=""height:400px;""></stim_listA>","","html-keyboard-response","149","1214033","0.0-15.0-1.5","57082","List1A","black","woman","","","","null","","","",""
"null","are marrying each other","","html-keyboard-response","150","1216034","0.0-15.0-2.5","57082","List1A","black","woman","","","","null","","","",""
"17849","","","survey-text","151","1233885","0.0-15.0-3.5","57082","List1A","black","woman","","","","","{""Q0"":""Dave and Fred are marrying each other""}","<img src=""stim_listA/marry6.gif""style=""height:400px;""></stim_listA>","are marrying each other",""
"null","<div style=""font-size:60px;"">+</div>","","html-keyboard-response","152","1234400","0.0-15.0-0.6","57082","List1A","black","woman","","","","null","","","",""
"null","<img src=""stim_listA/dance3.gif""style=""height:400px;""></stim_listA>","","html-keyboard-response","153","1236402","0.0-15.0-1.6","57082","List1A","black","woman","","","","null","","","",""
"null","is dancing with","","html-keyboard-response","154","1238417","0.0-15.0-2.6","57082","List1A","black","woman","","","","null","","","",""
"8370","","","survey-text","155","1246789","0.0-15.0-3.6","57082","List1A","black","woman","","","","","{""Q0"":""Jane is dancing with Luke""}","<img src=""stim_listA/dance3.gif""style=""height:400px;""></stim_listA>","is dancing with",""
"null","<div style=""font-size:60px;"">+</div>","","html-keyboard-response","156","1247290","0.0-15.0-0.7","57082","List1A","black","woman","","","","null","","","",""
"null","<img src=""stim_listA/dance1.gif""style=""height:400px;""></stim_listA>","","html-keyboard-response","157","1249300","0.0-15.0-1.7","57082","List1A","black","woman","","","","null","","","",""
"null","is dancing with","","html-keyboard-response","158","1251301","0.0-15.0-2.7","57082","List1A","black","woman","","","","null","","","",""
"13887","","","survey-text","159","1265189","0.0-15.0-3.7","57082","List1A","black","woman","","","","","{""Q0"":""Fred is dancing with Kate ""}","<img src=""stim_listA/dance1.gif""style=""height:400px;""></stim_listA>","is dancing with",""
"null","<div style=""font-size:60px;"">+</div>","","html-keyboard-response","160","1265692","0.0-15.0-0.8","57082","List1A","black","woman","","","","null","","","",""
"null","<img src=""stim_listA/dance7.gif""style=""height:400px;""></stim_listA>","","html-keyboard-response","161","1267694","0.0-15.0-1.8","57082","List1A","black","woman","","","","null","","","",""
"null","is dancing with","","html-keyboard-response","162","1269695","0.0-15.0-2.8","57082","List1A","black","woman","","","","null","","","",""
"181362","","","survey-text","163","1451057","0.0-15.0-3.8","57082","List1A","black","woman","","","","","{""Q0"":""Beth is dancing with Jane""}","<img src=""stim_listA/dance7.gif""style=""height:400px;""></stim_listA>","is dancing with",""
"null","<div style=""font-size:60px;"">+</div>","","html-keyboard-response","164","1451558","0.0-15.0-0.9","57082","List1A","black","woman","","","","null","","","",""
"null","<img src=""stim_listA/touch7.gif""style=""height:400px;""></stim_listA>","","html-keyboard-response","165","1453567","0.0-15.0-1.9","57082","List1A","black","woman","","","","null","","","",""
"null","is touching","","html-keyboard-response","166","1455568","0.0-15.0-2.9","57082","List1A","black","woman","","","","null","","","",""
"23488","","","survey-text","167","1479057","0.0-15.0-3.9","57082","List1A","black","woman","","","","","{""Q0"":""Kate is touching Jane""}","<img src=""stim_listA/touch7.gif""style=""height:400px;""></stim_listA>","is touching",""
"null","<div style=""font-size:60px;"">+</div>","","html-keyboard-response","168","1479559","0.0-15.0-0.10","57082","List1A","black","woman","","","","null","","","",""
"null","<img src=""stim_listA/kiss1.gif""style=""height:400px;""></stim_listA>","","html-keyboard-response","169","1481562","0.0-15.0-1.10","57082","List1A","black","woman","","","","null","","","",""
"null","is kissing","","html-keyboard-response","170","1483563","0.0-15.0-2.10","57082","List1A","black","woman","","","","null","","","",""
"9573","","","survey-text","171","1493137","0.0-15.0-3.10","57082","List1A","black","woman","","","","","{""Q0"":""Fred is kissing Beth""}","<img src=""stim_listA/kiss1.gif""style=""height:400px;""></stim_listA>","is kissing",""
"null","<div style=""font-size:60px;"">+</div>","","html-keyboard-response","172","1493651","0.0-15.0-0.11","57082","List1A","black","woman","","","","null","","","",""
"null","<img src=""stim_listA/flirt6.gif""style=""height:400px;""></stim_listA>","","html-keyboard-response","173","1495662","0.0-15.0-1.11","57082","List1A","black","woman","","","","null","","","",""
"null","are flirting with each other","","html-keyboard-response","174","1497670","0.0-15.0-2.11","57082","List1A","black","woman","","","","null","","","",""
"131063","","","survey-text","175","1628734","0.0-15.0-3.11","57082","List1A","black","woman","","","","","{""Q0"":""Luke and Mike are flirting with each other""}","<img src=""stim_listA/flirt6.gif""style=""height:400px;""></stim_listA>","are flirting with each other",""
"null","<div style=""font-size:60px;"">+</div>","","html-keyboard-response","176","1629240","0.0-15.0-0.12","57082","List1A","black","woman","","","","null","","","",""
"null","<img src=""stim_listA/play8.gif""style=""height:400px;""></stim_listA>","","html-keyboard-response","177","1631242","0.0-15.0-1.12","57082","List1A","black","woman","","","","null","","","",""
"null","are playing with each other","","html-keyboard-response","178","1633243","0.0-15.0-2.12","57082","List1A","black","woman","","","","null","","","",""
"16819","","","survey-text","179","1650062","0.0-15.0-3.12","57082","List1A","black","woman","","","","","{""Q0"":""Ruth and Beth are playing with each other""}","<img src=""stim_listA/play8.gif""style=""height:400px;""></stim_listA>","are playing with each other",""
"null","<div style=""font-size:60px;"">+</div>","","html-keyboard-response","180","1650572","0.0-15.0-0.13","57082","List1A","black","woman","","","","null","","","",""
"null","<img src=""stim_listA/flirt5.gif""style=""height:400px;""></stim_listA>","","html-keyboard-response","181","1652573","0.0-15.0-1.13","57082","List1A","black","woman","","","","null","","","",""
"null","is flirting with","","html-keyboard-response","182","1654573","0.0-15.0-2.13","57082","List1A","black","woman","","","","null","","","",""
"11584","","","survey-text","183","1666158","0.0-15.0-3.13","57082","List1A","black","woman","","","","","{""Q0"":""Fred is flirting with Dave""}","<img src=""stim_listA/flirt5.gif""style=""height:400px;""></stim_listA>","is flirting with",""
"null","<div style=""font-size:60px;"">+</div>","","html-keyboard-response","184","1666662","0.0-15.0-0.14","57082","List1A","black","woman","","","","null","","","",""
"null","<img src=""stim_listA/dance8.gif""style=""height:400px;""></stim_listA>","","html-keyboard-response","185","1668664","0.0-15.0-1.14","57082","List1A","black","woman","","","","null","","","",""
"null","are dancing with each other","","html-keyboard-response","186","1670674","0.0-15.0-2.14","57082","List1A","black","woman","","","","null","","","",""
"17124","","","survey-text","187","1687798","0.0-15.0-3.14","57082","List1A","black","woman","","","","","{""Q0"":""Kate and Ruth are dancing with each other""}","<img src=""stim_listA/dance8.gif""style=""height:400px;""></stim_listA>","are dancing with each other",""
"null","<div style=""font-size:60px;"">+</div>","","html-keyboard-response","188","1688303","0.0-15.0-0.15","57082","List1A","black","woman","","","","null","","","",""
"null","<img src=""stim_listA/argue8.gif""style=""height:400px;""></stim_listA>","","html-keyboard-response","189","1690309","0.0-15.0-1.15","57082","List1A","black","woman","","","","null","","","",""
"null","are arguing with each other","","html-keyboard-response","190","1692309","0.0-15.0-2.15","57082","List1A","black","woman","","","","null","","","",""
"15772","","","survey-text","191","1708082","0.0-15.0-3.15","57082","List1A","black","woman","","","","","{""Q0"":""Jane and Beth are arguing with each other""}","<img src=""stim_listA/argue8.gif""style=""height:400px;""></stim_listA>","are arguing with each other",""
"null","<div style=""font-size:60px;"">+</div>","","html-keyboard-response","192","1708584","0.0-15.0-0.16","57082","List1A","black","woman","","","","null","","","",""
"null","<img src=""stim_listA/dance5.gif""style=""height:400px;""></stim_listA>","","html-keyboard-response","193","1710586","0.0-15.0-1.16","57082","List1A","black","woman","","","","null","","","",""
"null","is dancing with","","html-keyboard-response","194","1712587","0.0-15.0-2.16","57082","List1A","black","woman","","","","null","","","",""
"7366","","","survey-text","195","1719955","0.0-15.0-3.16","57082","List1A","black","woman","","","","","{""Q0"":""Dave is dancing with Fred""}","<img src=""stim_listA/dance5.gif""style=""height:400px;""></stim_listA>","is dancing with",""
"null","<div style=""font-size:60px;"">+</div>","","html-keyboard-response","196","1720464","0.0-15.0-0.17","57082","List1A","black","woman","","","","null","","","",""
"null","<img src=""stim_listA/play7.gif""style=""height:400px;""></stim_listA>","","html-keyboard-response","197","1722466","0.0-15.0-1.17","57082","List1A","black","woman","","","","null","","","",""
"null","is playing with","","html-keyboard-response","198","1724482","0.0-15.0-2.17","57082","List1A","black","woman","","","","null","","","",""
"24543","","","survey-text","199","1749026","0.0-15.0-3.17","57082","List1A","black","woman","","","","","{""Q0"":""Kate is playing with Jane""}","<img src=""stim_listA/play7.gif""style=""height:400px;""></stim_listA>","is playing with",""
"null","<div style=""font-size:60px;"">+</div>","","html-keyboard-response","200","1749532","0.0-15.0-0.18","57082","List1A","black","woman","","","","null","","","",""
"null","<img src=""stim_listA/play3.gif""style=""height:400px;""></stim_listA>","","html-keyboard-response","201","1751534","0.0-15.0-1.18","57082","List1A","black","woman","","","","null","","","",""
"null","is playing with","","html-keyboard-response","202","1753534","0.0-15.0-2.18","57082","List1A","black","woman","","","","null","","","",""
"14002","","","survey-text","203","1767537","0.0-15.0-3.18","57082","List1A","black","woman","","","","","{""Q0"":""Dave is playing with Jane""}","<img src=""stim_listA/play3.gif""style=""height:400px;""></stim_listA>","is playing with",""
"null","<div style=""font-size:60px;"">+</div>","","html-keyboard-response","204","1768040","0.0-15.0-0.19","57082","List1A","black","woman","","","","null","","","",""
"null","<img src=""stim_listA/talk2.gif""style=""height:400px;""></stim_listA>","","html-keyboard-response","205","1770042","0.0-15.0-1.19","57082","List1A","black","woman","","","","null","","","",""
"null","are talking to each other","","html-keyboard-response","206","1772053","0.0-15.0-2.19","57082","List1A","black","woman","","","","null","","","",""
"16539","","","survey-text","207","1788593","0.0-15.0-3.19","57082","List1A","black","woman","","","","","{""Q0"":""Beth and Mike are talking to each other""}","<img src=""stim_listA/talk2.gif""style=""height:400px;""></stim_listA>","are talking to each other",""
"9319","<img src='img/portrait_matrix_list1.jpg' style='width:900px;height:500px;''></img><p>If you have memorised all the portraits and names and are ready to start, press Continue.</p><p><strong>Please note: Your memory of these faces will be tested 4 times during this experiment.</strong></p>","0","html-button-response","208","1797913","0.0-16.0-0.0","57082","List1A","black","woman","","","","","","","",""
"2167","<img src=""portrait/BM1.jpg""style=""height:400px;""></img>","4","html-button-response","209","1801097","0.0-16.0-1.0","57082","List1A","black","woman","","true","4","","","","",""
"null","CORRECT","","html-keyboard-response","210","1802600","0.0-16.0-2.0-0.0","57082","List1A","black","woman","","","","null","","","",""
"1416","<img src=""portrait/WW2.jpg""style=""height:400px;""></img>","3","html-button-response","211","1804017","0.0-16.0-4.0","57082","List1A","black","woman","","true","3","","","","",""
"null","CORRECT","","html-keyboard-response","212","1805521","0.0-16.0-5.0-0.0","57082","List1A","black","woman","","","","null","","","",""
"1552","<img src=""portrait/WW1.jpg""style=""height:400px;""></img>","1","html-button-response","213","1807073","0.0-16.0-7.0","57082","List1A","black","woman","","true","1","","","","",""
"null","CORRECT","","html-keyboard-response","214","1808587","0.0-16.0-8.0-0.0","57082","List1A","black","woman","","","","null","","","",""
"1203","<img src=""portrait/WM1.jpg""style=""height:400px;""></img>","6","html-button-response","215","1809791","0.0-16.0-10.0","57082","List1A","black","woman","","true","6","","","","",""
"null","CORRECT","","html-keyboard-response","216","1811297","0.0-16.0-11.0-0.0","57082","List1A","black","woman","","","","null","","","",""
"1604","<img src=""portrait/BW1.jpg""style=""height:400px;""></img>","0","html-button-response","217","1812903","0.0-16.0-13.0","57082","List1A","black","woman","","true","0","","","","",""
"null","CORRECT","","html-keyboard-response","218","1814415","0.0-16.0-14.0-0.0","57082","List1A","black","woman","","","","null","","","",""
"1175","<img src=""portrait/WM2.jpg""style=""height:400px;""></img>","7","html-button-response","219","1815591","0.0-16.0-16.0","57082","List1A","black","woman","","true","7","","","","",""
"null","CORRECT","","html-keyboard-response","220","1817102","0.0-16.0-17.0-0.0","57082","List1A","black","woman","","","","null","","","",""
"1384","<img src=""portrait/BW2.jpg""style=""height:400px;""></img>","2","html-button-response","221","1818487","0.0-16.0-19.0","57082","List1A","black","woman","","true","2","","","","",""
"null","CORRECT","","html-keyboard-response","222","1820003","0.0-16.0-20.0-0.0","57082","List1A","black","woman","","","","null","","","",""
"1972","<img src=""portrait/BM2.jpg""style=""height:400px;""></img>","5","html-button-response","223","1821975","0.0-16.0-22.0","57082","List1A","black","woman","","true","5","","","","",""
"null","CORRECT","","html-keyboard-response","224","1823478","0.0-16.0-23.0-0.0","57082","List1A","black","woman","","","","null","","","",""
"2919","<p>You got 8 out of 8 right first time. Press Continue.</p>","0","html-button-response","225","1826399","0.0-16.0-25.0","57082","List1A","black","woman","","","","","","","",""
"null","<div style=""font-size:60px;"">+</div>","","html-keyboard-response","226","1827906","0.0-17.0-0.0","57082","List1A","black","woman","","","","null","","","",""
"null","<img src=""stim_listA/talk3.gif""style=""height:400px;""></stim_listA>","","html-keyboard-response","227","1829908","0.0-17.0-1.0","57082","List1A","black","woman","","","","null","","","",""
"null","is talking to","","html-keyboard-response","228","1831913","0.0-17.0-2.0","57082","List1A","black","woman","","","","null","","","",""
"8172","","","survey-text","229","1840087","0.0-17.0-3.0","57082","List1A","black","woman","","","","","{""Q0"":""Jane is talking to Luke""}","<img src=""stim_listA/talk3.gif""style=""height:400px;""></stim_listA>","is talking to",""
"null","<div style=""font-size:60px;"">+</div>","","html-keyboard-response","230","1840588","0.0-17.0-0.1","57082","List1A","black","woman","","","","null","","","",""
"null","<img src=""stim_listA/shout6.gif""style=""height:400px;""></stim_listA>","","html-keyboard-response","231","1842589","0.0-17.0-1.1","57082","List1A","black","woman","","","","null","","","",""
"null","are shouting at each other","","html-keyboard-response","232","1844591","0.0-17.0-2.1","57082","List1A","black","woman","","","","null","","","",""
"11464","","","survey-text","233","1856055","0.0-17.0-3.1","57082","List1A","black","woman","","","","","{""Q0"":""Dave and Mike are shouting at each other""}","<img src=""stim_listA/shout6.gif""style=""height:400px;""></stim_listA>","are shouting at each other",""
"null","<div style=""font-size:60px;"">+</div>","","html-keyboard-response","234","1856556","0.0-17.0-0.2","57082","List1A","black","woman","","","","null","","","",""
"null","<img src=""stim_listA/kiss7.gif""style=""height:400px;""></stim_listA>","","html-keyboard-response","235","1858558","0.0-17.0-1.2","57082","List1A","black","woman","","","","null","","","",""
"null","is kissing","","html-keyboard-response","236","1860560","0.0-17.0-2.2","57082","List1A","black","woman","","","","null","","","",""
"7958","","","survey-text","237","1868518","0.0-17.0-3.2","57082","List1A","black","woman","","","","","{""Q0"":""Ruth is kissing Beth""}","<img src=""stim_listA/kiss7.gif""style=""height:400px;""></stim_listA>","is kissing",""
"null","<div style=""font-size:60px;"">+</div>","","html-keyboard-response","238","1869020","0.0-17.0-0.3","57082","List1A","black","woman","","","","null","","","",""
"null","<img src=""stim_listA/flirt3.gif""style=""height:400px;""></stim_listA>","","html-keyboard-response","239","1871032","0.0-17.0-1.3","57082","List1A","black","woman","","","","null","","","",""
"null","is flirting with","","html-keyboard-response","240","1873034","0.0-17.0-2.3","57082","List1A","black","woman","","","","null","","","",""
"12406","","","survey-text","241","1885440","0.0-17.0-3.3","57082","List1A","black","woman","","","","","{""Q0"":""Luke is flirting with Jane""}","<img src=""stim_listA/flirt3.gif""style=""height:400px;""></stim_listA>","is flirting with",""
"null","<div style=""font-size:60px;"">+</div>","","html-keyboard-response","242","1885945","0.0-17.0-0.4","57082","List1A","black","woman","","","","null","","","",""
"null","<img src=""stim_listA/flirt8.gif""style=""height:400px;""></stim_listA>","","html-keyboard-response","243","1887946","0.0-17.0-1.4","57082","List1A","black","woman","","","","null","","","",""
"null","are flirting with each other","","html-keyboard-response","244","1889958","0.0-17.0-2.4","57082","List1A","black","woman","","","","null","","","",""
"22322","","","survey-text","245","1912280","0.0-17.0-3.4","57082","List1A","black","woman","","","","","{""Q0"":""Ruth and Kate are flirting with each other""}","<img src=""stim_listA/flirt8.gif""style=""height:400px;""></stim_listA>","are flirting with each other",""
"null","<div style=""font-size:60px;"">+</div>","","html-keyboard-response","246","1912782","0.0-17.0-0.5","57082","List1A","black","woman","","","","null","","","",""
"null","<img src=""stim_listA/fight4.gif""style=""height:400px;""></stim_listA>","","html-keyboard-response","247","1914790","0.0-17.0-1.5","57082","List1A","black","woman","","","","null","","","",""
"null","are fighting each other","","html-keyboard-response","248","1916791","0.0-17.0-2.5","57082","List1A","black","woman","","","","null","","","",""
"12497","","","survey-text","249","1929288","0.0-17.0-3.5","57082","List1A","black","woman","","","","","{""Q0"":""Ruth and Luke are fighting each other""}","<img src=""stim_listA/fight4.gif""style=""height:400px;""></stim_listA>","are fighting each other",""
"null","<div style=""font-size:60px;"">+</div>","","html-keyboard-response","250","1929789","0.0-17.0-0.6","57082","List1A","black","woman","","","","null","","","",""
"null","<img src=""stim_listA/touch1.gif""style=""height:400px;""></stim_listA>","","html-keyboard-response","251","1931794","0.0-17.0-1.6","57082","List1A","black","woman","","","","null","","","",""
"null","is touching","","html-keyboard-response","252","1933808","0.0-17.0-2.6","57082","List1A","black","woman","","","","null","","","",""
"12287","","","survey-text","253","1946095","0.0-17.0-3.6","57082","List1A","black","woman","","","","","{""Q0"":""Mike is touching Kate ""}","<img src=""stim_listA/touch1.gif""style=""height:400px;""></stim_listA>","is touching",""
"null","<div style=""font-size:60px;"">+</div>","","html-keyboard-response","254","1946603","0.0-17.0-0.7","57082","List1A","black","woman","","","","null","","","",""
"null","<img src=""stim_listA/talk4.gif""style=""height:400px;""></stim_listA>","","html-keyboard-response","255","1948605","0.0-17.0-1.7","57082","List1A","black","woman","","","","null","","","",""
"null","are talking to each other","","html-keyboard-response","256","1950606","0.0-17.0-2.7","57082","List1A","black","woman","","","","null","","","",""
"14265","","","survey-text","257","1964871","0.0-17.0-3.7","57082","List1A","black","woman","","","","","{""Q0"":""Dave and Ruth are talking to each other""}","<img src=""stim_listA/talk4.gif""style=""height:400px;""></stim_listA>","are talking to each other",""
"null","<div style=""font-size:60px;"">+</div>","","html-keyboard-response","258","1965373","0.0-17.0-0.8","57082","List1A","black","woman","","","","null","","","",""
"null","<img src=""stim_listA/shout7.gif""style=""height:400px;""></stim_listA>","","html-keyboard-response","259","1967380","0.0-17.0-1.8","57082","List1A","black","woman","","","","null","","","",""
"null","is shouting at","","html-keyboard-response","260","1969391","0.0-17.0-2.8","57082","List1A","black","woman","","","","null","","","",""
"14511","","","survey-text","261","1983903","0.0-17.0-3.8","57082","List1A","black","woman","","","","","{""Q0"":""Beth is shouting at Ruth""}","<img src=""stim_listA/shout7.gif""style=""height:400px;""></stim_listA>","is shouting at",""
"null","<div style=""font-size:60px;"">+</div>","","html-keyboard-response","262","1984410","0.0-17.0-0.9","57082","List1A","black","woman","","","","null","","","",""
"null","<img src=""stim_listA/fight7.gif""style=""height:400px;""></stim_listA>","","html-keyboard-response","263","1986412","0.0-17.0-1.9","57082","List1A","black","woman","","","","null","","","",""
"null","is fighting","","html-keyboard-response","264","1988412","0.0-17.0-2.9","57082","List1A","black","woman","","","","null","","","",""
"8794","","","survey-text","265","1997207","0.0-17.0-3.9","57082","List1A","black","woman","","","","","{""Q0"":""Jane is fighting Kate ""}","<img src=""stim_listA/fight7.gif""style=""height:400px;""></stim_listA>","is fighting",""
"null","<div style=""font-size:60px;"">+</div>","","html-keyboard-response","266","1997709","0.0-17.0-0.10","57082","List1A","black","woman","","","","null","","","",""
"null","<img src=""stim_listA/kiss8.gif""style=""height:400px;""></stim_listA>","","html-keyboard-response","267","1999710","0.0-17.0-1.10","57082","List1A","black","woman","","","","null","","","",""
"null","are kissing each other","","html-keyboard-response","268","2001711","0.0-17.0-2.10","57082","List1A","black","woman","","","","null","","","",""
"15191","","","survey-text","269","2016903","0.0-17.0-3.10","57082","List1A","black","woman","","","","","{""Q0"":""Kate and Jane are kissing each other""}","<img src=""stim_listA/kiss8.gif""style=""height:400px;""></stim_listA>","are kissing each other",""
"null","<div style=""font-size:60px;"">+</div>","","html-keyboard-response","270","2017419","0.0-17.0-0.11","57082","List1A","black","woman","","","","null","","","",""
"null","<img src=""stim_listA/flirt2.gif""style=""height:400px;""></stim_listA>","","html-keyboard-response","271","2019421","0.0-17.0-1.11","57082","List1A","black","woman","","","","null","","","",""
"null","are flirting with each other","","html-keyboard-response","272","2021422","0.0-17.0-2.11","57082","List1A","black","woman","","","","null","","","",""
"16159","","","survey-text","273","2037583","0.0-17.0-3.11","57082","List1A","black","woman","","","","","{""Q0"":""Beth and Mike are flirting with each other""}","<img src=""stim_listA/flirt2.gif""style=""height:400px;""></stim_listA>","are flirting with each other",""
"null","<div style=""font-size:60px;"">+</div>","","html-keyboard-response","274","2038084","0.0-17.0-0.12","57082","List1A","black","woman","","","","null","","","",""
"null","<img src=""stim_listA/flirt7.gif""style=""height:400px;""></stim_listA>","","html-keyboard-response","275","2040093","0.0-17.0-1.12","57082","List1A","black","woman","","","","null","","","",""
"null","is flirting with","","html-keyboard-response","276","2042094","0.0-17.0-2.12","57082","List1A","black","woman","","","","null","","","",""
"35323","","","survey-text","277","2077419","0.0-17.0-3.12","57082","List1A","black","woman","","","","","{""Q0"":""Jane is flirting with Beth""}","<img src=""stim_listA/flirt7.gif""style=""height:400px;""></stim_listA>","is flirting with",""
"null","<div style=""font-size:60px;"">+</div>","","html-keyboard-response","278","2077920","0.0-17.0-0.13","57082","List1A","black","woman","","","","null","","","",""
"null","<img src=""stim_listA/fight5.gif""style=""height:400px;""></stim_listA>","","html-keyboard-response","279","2079924","0.0-17.0-1.13","57082","List1A","black","woman","","","","null","","","",""
"null","is fighting","","html-keyboard-response","280","2081938","0.0-17.0-2.13","57082","List1A","black","woman","","","","null","","","",""
"10464","","","survey-text","281","2092402","0.0-17.0-3.13","57082","List1A","black","woman","","","","","{""Q0"":""Mike is fighting Dave ""}","<img src=""stim_listA/fight5.gif""style=""height:400px;""></stim_listA>","is fighting",""
"null","<div style=""font-size:60px;"">+</div>","","html-keyboard-response","282","2092905","0.0-17.0-0.14","57082","List1A","black","woman","","","","null","","","",""
"null","<img src=""stim_listA/shout8.gif""style=""height:400px;""></stim_listA>","","html-keyboard-response","283","2094907","0.0-17.0-1.14","57082","List1A","black","woman","","","","null","","","",""
"null","are shouting at each other","","html-keyboard-response","284","2096914","0.0-17.0-2.14","57082","List1A","black","woman","","","","null","","","",""
"12703","","","survey-text","285","2109619","0.0-17.0-3.14","57082","List1A","black","woman","","","","","{""Q0"":""Jane and Kate are shouting at each other ""}","<img src=""stim_listA/shout8.gif""style=""height:400px;""></stim_listA>","are shouting at each other",""
"null","<div style=""font-size:60px;"">+</div>","","html-keyboard-response","286","2110120","0.0-17.0-0.15","57082","List1A","black","woman","","","","null","","","",""
"null","<img src=""stim_listA/argue6.gif""style=""height:400px;""></stim_listA>","","html-keyboard-response","287","2112135","0.0-17.0-1.15","57082","List1A","black","woman","","","","null","","","",""
"null","are arguing with each other","","html-keyboard-response","288","2114136","0.0-17.0-2.15","57082","List1A","black","woman","","","","null","","","",""
"44725","","","survey-text","289","2158862","0.0-17.0-3.15","57082","List1A","black","woman","","","","","{""Q0"":""Fred and Dave are arguing with each other""}","<img src=""stim_listA/argue6.gif""style=""height:400px;""></stim_listA>","are arguing with each other",""
"null","<div style=""font-size:60px;"">+</div>","","html-keyboard-response","290","2159365","0.0-17.0-0.16","57082","List1A","black","woman","","","","null","","","",""
"null","<img src=""stim_listA/marry4.gif""style=""height:400px;""></stim_listA>","","html-keyboard-response","291","2161372","0.0-17.0-1.16","57082","List1A","black","woman","","","","null","","","",""
"null","are marrying each other","","html-keyboard-response","292","2163373","0.0-17.0-2.16","57082","List1A","black","woman","","","","null","","","",""
"36244","","","survey-text","293","2199617","0.0-17.0-3.16","57082","List1A","black","woman","","","","","{""Q0"":""Jane and Luke are marrying each other""}","<img src=""stim_listA/marry4.gif""style=""height:400px;""></stim_listA>","are marrying each other",""
"null","<div style=""font-size:60px;"">+</div>","","html-keyboard-response","294","2200132","0.0-17.0-0.17","57082","List1A","black","woman","","","","null","","","",""
"null","<img src=""stim_listA/fight1.gif""style=""height:400px;""></stim_listA>","","html-keyboard-response","295","2202133","0.0-17.0-1.17","57082","List1A","black","woman","","","","null","","","",""
"null","is fighting","","html-keyboard-response","296","2204143","0.0-17.0-2.17","57082","List1A","black","woman","","","","null","","","",""
"18905","","","survey-text","297","2223050","0.0-17.0-3.17","57082","List1A","black","woman","","","","","{""Q0"":""Mike is fighting Kate ""}","<img src=""stim_listA/fight1.gif""style=""height:400px;""></stim_listA>","is fighting",""
"null","<div style=""font-size:60px;"">+</div>","","html-keyboard-response","298","2223551","0.0-17.0-0.18","57082","List1A","black","woman","","","","null","","","",""
"null","<img src=""stim_listA/shout5.gif""style=""height:400px;""></stim_listA>","","html-keyboard-response","299","2225552","0.0-17.0-1.18","57082","List1A","black","woman","","","","null","","","",""
"null","is shouting at","","html-keyboard-response","300","2227553","0.0-17.0-2.18","57082","List1A","black","woman","","","","null","","","",""
"9400","","","survey-text","301","2236955","0.0-17.0-3.18","57082","List1A","black","woman","","","","","{""Q0"":""Fred is shouting at Luke""}","<img src=""stim_listA/shout5.gif""style=""height:400px;""></stim_listA>","is shouting at",""
"null","<div style=""font-size:60px;"">+</div>","","html-keyboard-response","302","2237456","0.0-17.0-0.19","57082","List1A","black","woman","","","","null","","","",""
"null","<img src=""stim_listA/flirt1.gif""style=""height:400px;""></stim_listA>","","html-keyboard-response","303","2239471","0.0-17.0-1.19","57082","List1A","black","woman","","","","null","","","",""
"null","is flirting with","","html-keyboard-response","304","2241472","0.0-17.0-2.19","57082","List1A","black","woman","","","","null","","","",""
"22466","","","survey-text","305","2263939","0.0-17.0-3.19","57082","List1A","black","woman","","","","","{""Q0"":""Fred is flirting with Kate ""}","<img src=""stim_listA/flirt1.gif""style=""height:400px;""></stim_listA>","is flirting with",""
"65264","<img src='img/portrait_matrix_list1.jpg' style='width:900px;height:500px;''></img><p>If you have memorised all the portraits and names and are ready to start, press Continue.</p><p><strong>Please note: Your memory of these faces will be tested 4 times during this experiment.</strong></p>","0","html-button-response","306","2329204","0.0-18.0-0.0","57082","List1A","black","woman","","","","","","","",""
"1918","<img src=""portrait/WM1.jpg""style=""height:400px;""></img>","6","html-button-response","307","2332125","0.0-18.0-1.0","57082","List1A","black","woman","","true","6","","","","",""
"null","CORRECT","","html-keyboard-response","308","2333626","0.0-18.0-2.0-0.0","57082","List1A","black","woman","","","","null","","","",""
"1778","<img src=""portrait/WW1.jpg""style=""height:400px;""></img>","1","html-button-response","309","2335405","0.0-18.0-4.0","57082","List1A","black","woman","","true","1","","","","",""
"null","CORRECT","","html-keyboard-response","310","2336907","0.0-18.0-5.0-0.0","57082","List1A","black","woman","","","","null","","","",""
"1536","<img src=""portrait/BM1.jpg""style=""height:400px;""></img>","4","html-button-response","311","2338444","0.0-18.0-7.0","57082","List1A","black","woman","","true","4","","","","",""
"null","CORRECT","","html-keyboard-response","312","2339946","0.0-18.0-8.0-0.0","57082","List1A","black","woman","","","","null","","","",""
"1194","<img src=""portrait/BW2.jpg""style=""height:400px;""></img>","2","html-button-response","313","2341140","0.0-18.0-10.0","57082","List1A","black","woman","","true","2","","","","",""
"null","CORRECT","","html-keyboard-response","314","2342661","0.0-18.0-11.0-0.0","57082","List1A","black","woman","","","","null","","","",""
"1254","<img src=""portrait/WM2.jpg""style=""height:400px;""></img>","7","html-button-response","315","2343916","0.0-18.0-13.0","57082","List1A","black","woman","","true","7","","","","",""
"null","CORRECT","","html-keyboard-response","316","2345436","0.0-18.0-14.0-0.0","57082","List1A","black","woman","","","","null","","","",""
"1383","<img src=""portrait/WW2.jpg""style=""height:400px;""></img>","3","html-button-response","317","2346821","0.0-18.0-16.0","57082","List1A","black","woman","","true","3","","","","",""
"null","CORRECT","","html-keyboard-response","318","2348339","0.0-18.0-17.0-0.0","57082","List1A","black","woman","","","","null","","","",""
"2000","<img src=""portrait/BM2.jpg""style=""height:400px;""></img>","5","html-button-response","319","2350340","0.0-18.0-19.0","57082","List1A","black","woman","","true","5","","","","",""
"null","CORRECT","","html-keyboard-response","320","2351848","0.0-18.0-20.0-0.0","57082","List1A","black","woman","","","","null","","","",""
"1315","<img src=""portrait/BW1.jpg""style=""height:400px;""></img>","0","html-button-response","321","2353164","0.0-18.0-22.0","57082","List1A","black","woman","","true","0","","","","",""
"null","CORRECT","","html-keyboard-response","322","2354671","0.0-18.0-23.0-0.0","57082","List1A","black","woman","","","","null","","","",""
"1133","<p>You got 8 out of 8 right first time. Press Continue.</p>","0","html-button-response","323","2355804","0.0-18.0-25.0","57082","List1A","black","woman","","","","","","","",""
"null","<div style=""font-size:60px;"">+</div>","","html-keyboard-response","324","2357308","0.0-19.0-0.0","57082","List1A","black","woman","","","","null","","","",""
"null","<img src=""stim_listA/dance4.gif""style=""height:400px;""></stim_listA>","","html-keyboard-response","325","2359313","0.0-19.0-1.0","57082","List1A","black","woman","","","","null","","","",""
"null","are dancing with each other","","html-keyboard-response","326","2361315","0.0-19.0-2.0","57082","List1A","black","woman","","","","null","","","",""
"16417","","","survey-text","327","2377732","0.0-19.0-3.0","57082","List1A","black","woman","","","","","{""Q0"":""Ruth and Dave are dancing with each other""}","<img src=""stim_listA/dance4.gif""style=""height:400px;""></stim_listA>","are dancing with each other",""
"null","<div style=""font-size:60px;"">+</div>","","html-keyboard-response","328","2378236","0.0-19.0-0.1","57082","List1A","black","woman","","","","null","","","",""
"null","<img src=""stim_listA/talk5.gif""style=""height:400px;""></stim_listA>","","html-keyboard-response","329","2380238","0.0-19.0-1.1","57082","List1A","black","woman","","","","null","","","",""
"null","is talking to","","html-keyboard-response","330","2382245","0.0-19.0-2.1","57082","List1A","black","woman","","","","null","","","",""
"16027","","","survey-text","331","2398273","0.0-19.0-3.1","57082","List1A","black","woman","","","","","{""Q0"":""Fred is talking to Dave""}","<img src=""stim_listA/talk5.gif""style=""height:400px;""></stim_listA>","is talking to",""
"null","<div style=""font-size:60px;"">+</div>","","html-keyboard-response","332","2398774","0.0-19.0-0.2","57082","List1A","black","woman","","","","null","","","",""
"null","<img src=""stim_listA/argue7.gif""style=""height:400px;""></stim_listA>","","html-keyboard-response","333","2400781","0.0-19.0-1.2","57082","List1A","black","woman","","","","null","","","",""
"null","is arguing with","","html-keyboard-response","334","2402783","0.0-19.0-2.2","57082","List1A","black","woman","","","","null","","","",""
"14489","","","survey-text","335","2417273","0.0-19.0-3.2","57082","List1A","black","woman","","","","","{""Q0"":""Kate is arguing with Ruth""}","<img src=""stim_listA/argue7.gif""style=""height:400px;""></stim_listA>","is arguing with",""
"null","<div style=""font-size:60px;"">+</div>","","html-keyboard-response","336","2417782","0.0-19.0-0.3","57082","List1A","black","woman","","","","null","","","",""
"null","<img src=""stim_listA/talk1.gif""style=""height:400px;""></stim_listA>","","html-keyboard-response","337","2419783","0.0-19.0-1.3","57082","List1A","black","woman","","","","null","","","",""
"null","is talking to","","html-keyboard-response","338","2421790","0.0-19.0-2.3","57082","List1A","black","woman","","","","null","","","",""
"6801","","","survey-text","339","2428592","0.0-19.0-3.3","57082","List1A","black","woman","","","","","{""Q0"":""Fred is talking to Kate""}","<img src=""stim_listA/talk1.gif""style=""height:400px;""></stim_listA>","is talking to",""
"null","<div style=""font-size:60px;"">+</div>","","html-keyboard-response","340","2429102","0.0-19.0-0.4","57082","List1A","black","woman","","","","null","","","",""
"null","<img src=""stim_listA/marry2.gif""style=""height:400px;""></stim_listA>","","html-keyboard-response","341","2431104","0.0-19.0-1.4","57082","List1A","black","woman","","","","null","","","",""
"null","are marrying each other","","html-keyboard-response","342","2433104","0.0-19.0-2.4","57082","List1A","black","woman","","","","null","","","",""
"12207","","","survey-text","343","2445312","0.0-19.0-3.4","57082","List1A","black","woman","","","","","{""Q0"":""Kate  and Fred are marrying each other""}","<img src=""stim_listA/marry2.gif""style=""height:400px;""></stim_listA>","are marrying each other",""
"null","<div style=""font-size:60px;"">+</div>","","html-keyboard-response","344","2445823","0.0-19.0-0.5","57082","List1A","black","woman","","","","null","","","",""
"null","<img src=""stim_listA/kiss5.gif""style=""height:400px;""></stim_listA>","","html-keyboard-response","345","2447824","0.0-19.0-1.5","57082","List1A","black","woman","","","","null","","","",""
"null","is kissing","","html-keyboard-response","346","2449826","0.0-19.0-2.5","57082","List1A","black","woman","","","","null","","","",""
"8526","","","survey-text","347","2458352","0.0-19.0-3.5","57082","List1A","black","woman","","","","","{""Q0"":""Luke is kissing Fred""}","<img src=""stim_listA/kiss5.gif""style=""height:400px;""></stim_listA>","is kissing",""
"null","<div style=""font-size:60px;"">+</div>","","html-keyboard-response","348","2458866","0.0-19.0-0.6","57082","List1A","black","woman","","","","null","","","",""
"null","<img src=""stim_listA/marry7.gif""style=""height:400px;""></stim_listA>","","html-keyboard-response","349","2460869","0.0-19.0-1.6","57082","List1A","black","woman","","","","null","","","",""
"null","is marrying","","html-keyboard-response","350","2462871","0.0-19.0-2.6","57082","List1A","black","woman","","","","null","","","",""
"12833","","","survey-text","351","2475704","0.0-19.0-3.6","57082","List1A","black","woman","","","","","{""Q0"":""Kate is marrying Ruth""}","<img src=""stim_listA/marry7.gif""style=""height:400px;""></stim_listA>","is marrying",""
"null","<div style=""font-size:60px;"">+</div>","","html-keyboard-response","352","2476221","0.0-19.0-0.7","57082","List1A","black","woman","","","","null","","","",""
"null","<img src=""stim_listA/play5.gif""style=""height:400px;""></stim_listA>","","html-keyboard-response","353","2478223","0.0-19.0-1.7","57082","List1A","black","woman","","","","null","","","",""
"null","is playing with","","html-keyboard-response","354","2480231","0.0-19.0-2.7","57082","List1A","black","woman","","","","null","","","",""
"6153","","","survey-text","355","2486384","0.0-19.0-3.7","57082","List1A","black","woman","","","","","{""Q0"":""Mike is playing with Dave""}","<img src=""stim_listA/play5.gif""style=""height:400px;""></stim_listA>","is playing with",""
"null","<div style=""font-size:60px;"">+</div>","","html-keyboard-response","356","2486901","0.0-19.0-0.8","57082","List1A","black","woman","","","","null","","","",""
"null","<img src=""stim_listA/touch5.gif""style=""height:400px;""></stim_listA>","","html-keyboard-response","357","2488902","0.0-19.0-1.8","57082","List1A","black","woman","","","","null","","","",""
"null","is touching","","html-keyboard-response","358","2490912","0.0-19.0-2.8","57082","List1A","black","woman","","","","null","","","",""
"7232","","","survey-text","359","2498144","0.0-19.0-3.8","57082","List1A","black","woman","","","","","{""Q0"":""Mike is touching Dave""}","<img src=""stim_listA/touch5.gif""style=""height:400px;""></stim_listA>","is touching",""
"null","<div style=""font-size:60px;"">+</div>","","html-keyboard-response","360","2498645","0.0-19.0-0.9","57082","List1A","black","woman","","","","null","","","",""
"null","<img src=""stim_listA/talk6.gif""style=""height:400px;""></stim_listA>","","html-keyboard-response","361","2500656","0.0-19.0-1.9","57082","List1A","black","woman","","","","null","","","",""
"null","are talking to each other","","html-keyboard-response","362","2502657","0.0-19.0-2.9","57082","List1A","black","woman","","","","null","","","",""
"10575","","","survey-text","363","2513232","0.0-19.0-3.9","57082","List1A","black","woman","","","","","{""Q0"":""Luke and Mike are talking to each other""}","<img src=""stim_listA/talk6.gif""style=""height:400px;""></stim_listA>","are talking to each other",""
"null","<div style=""font-size:60px;"">+</div>","","html-keyboard-response","364","2513733","0.0-19.0-0.10","57082","List1A","black","woman","","","","null","","","",""
"null","<img src=""stim_listA/touch3.gif""style=""height:400px;""></stim_listA>","","html-keyboard-response","365","2515735","0.0-19.0-1.10","57082","List1A","black","woman","","","","null","","","",""
"null","is touching","","html-keyboard-response","366","2517736","0.0-19.0-2.10","57082","List1A","black","woman","","","","null","","","",""
"14136","","","survey-text","367","2531873","0.0-19.0-3.10","57082","List1A","black","woman","","","","","{""Q0"":""Dave is touching Jane""}","<img src=""stim_listA/touch3.gif""style=""height:400px;""></stim_listA>","is touching",""
"null","<div style=""font-size:60px;"">+</div>","","html-keyboard-response","368","2532387","0.0-19.0-0.11","57082","List1A","black","woman","","","","null","","","",""
"null","<img src=""stim_listA/talk8.gif""style=""height:400px;""></stim_listA>","","html-keyboard-response","369","2534393","0.0-19.0-1.11","57082","List1A","black","woman","","","","null","","","",""
"null","are talking to each other","","html-keyboard-response","370","2536394","0.0-19.0-2.11","57082","List1A","black","woman","","","","null","","","",""
"12430","","","survey-text","371","2548825","0.0-19.0-3.11","57082","List1A","black","woman","","","","","{""Q0"":""Ruth and Kate are talking to each other""}","<img src=""stim_listA/talk8.gif""style=""height:400px;""></stim_listA>","are talking to each other",""
"null","<div style=""font-size:60px;"">+</div>","","html-keyboard-response","372","2549342","0.0-19.0-0.12","57082","List1A","black","woman","","","","null","","","",""
"null","<img src=""stim_listA/touch2.gif""style=""height:400px;""></stim_listA>","","html-keyboard-response","373","2551347","0.0-19.0-1.12","57082","List1A","black","woman","","","","null","","","",""
"null","are touching each other","","html-keyboard-response","374","2553349","0.0-19.0-2.12","57082","List1A","black","woman","","","","null","","","",""
"12219","","","survey-text","375","2565568","0.0-19.0-3.12","57082","List1A","black","woman","","","","","{""Q0"":""Beth and Fred are touching each other""}","<img src=""stim_listA/touch2.gif""style=""height:400px;""></stim_listA>","are touching each other",""
"null","<div style=""font-size:60px;"">+</div>","","html-keyboard-response","376","2566069","0.0-19.0-0.13","57082","List1A","black","woman","","","","null","","","",""
"null","<img src=""stim_listA/touch8.gif""style=""height:400px;""></stim_listA>","","html-keyboard-response","377","2568071","0.0-19.0-1.13","57082","List1A","black","woman","","","","null","","","",""
"null","are touching each other","","html-keyboard-response","378","2570073","0.0-19.0-2.13","57082","List1A","black","woman","","","","null","","","",""
"12672","","","survey-text","379","2582746","0.0-19.0-3.13","57082","List1A","black","woman","","","","","{""Q0"":""Ruth and Beth are touching each other""}","<img src=""stim_listA/touch8.gif""style=""height:400px;""></stim_listA>","are touching each other",""
"null","<div style=""font-size:60px;"">+</div>","","html-keyboard-response","380","2583252","0.0-19.0-0.14","57082","List1A","black","woman","","","","null","","","",""
"null","<img src=""stim_listA/dance6.gif""style=""height:400px;""></stim_listA>","","html-keyboard-response","381","2585256","0.0-19.0-1.14","57082","List1A","black","woman","","","","null","","","",""
"null","are dancing with each other","","html-keyboard-response","382","2587257","0.0-19.0-2.14","57082","List1A","black","woman","","","","null","","","",""
"18096","","","survey-text","383","2605353","0.0-19.0-3.14","57082","List1A","black","woman","","","","","{""Q0"":""Mike and Luke are dancing with each other""}","<img src=""stim_listA/dance6.gif""style=""height:400px;""></stim_listA>","are dancing with each other",""
"null","<div style=""font-size:60px;"">+</div>","","html-keyboard-response","384","2605855","0.0-19.0-0.15","57082","List1A","black","woman","","","","null","","","",""
"null","<img src=""stim_listA/fight2.gif""style=""height:400px;""></stim_listA>","","html-keyboard-response","385","2607859","0.0-19.0-1.15","57082","List1A","black","woman","","","","null","","","",""
"null","are fighting each other","","html-keyboard-response","386","2609860","0.0-19.0-2.15","57082","List1A","black","woman","","","","null","","","",""
"13877","","","survey-text","387","2623737","0.0-19.0-3.15","57082","List1A","black","woman","","","","","{""Q0"":""Beth and Fred are fighting each other""}","<img src=""stim_listA/fight2.gif""style=""height:400px;""></stim_listA>","are fighting each other",""
"null","<div style=""font-size:60px;"">+</div>","","html-keyboard-response","388","2624245","0.0-19.0-0.16","57082","List1A","black","woman","","","","null","","","",""
"null","<img src=""stim_listA/touch4.gif""style=""height:400px;""></stim_listA>","","html-keyboard-response","389","2626249","0.0-19.0-1.16","57082","List1A","black","woman","","","","null","","","",""
"null","are touching each other","","html-keyboard-response","390","2628250","0.0-19.0-2.16","57082","List1A","black","woman","","","","null","","","",""
"12531","","","survey-text","391","2640782","0.0-19.0-3.16","57082","List1A","black","woman","","","","","{""Q0"":""Ruth and Luke are touching each other""}","<img src=""stim_listA/touch4.gif""style=""height:400px;""></stim_listA>","are touching each other",""
"null","<div style=""font-size:60px;"">+</div>","","html-keyboard-response","392","2641291","0.0-19.0-0.17","57082","List1A","black","woman","","","","null","","","",""
"null","<img src=""stim_listA/play4.gif""style=""height:400px;""></stim_listA>","","html-keyboard-response","393","2643292","0.0-19.0-1.17","57082","List1A","black","woman","","","","null","","","",""
"null","are playing with each other","","html-keyboard-response","394","2645305","0.0-19.0-2.17","57082","List1A","black","woman","","","","null","","","",""
"9605","","","survey-text","395","2654910","0.0-19.0-3.17","57082","List1A","black","woman","","","","","{""Q0"":""Ruth and Luke are playing with each other""}","<img src=""stim_listA/play4.gif""style=""height:400px;""></stim_listA>","are playing with each other",""
"null","<div style=""font-size:60px;"">+</div>","","html-keyboard-response","396","2655413","0.0-19.0-0.18","57082","List1A","black","woman","","","","null","","","",""
"null","<img src=""stim_listA/marry3.gif""style=""height:400px;""></stim_listA>","","html-keyboard-response","397","2657421","0.0-19.0-1.18","57082","List1A","black","woman","","","","null","","","",""
"null","is marrying","","html-keyboard-response","398","2659430","0.0-19.0-2.18","57082","List1A","black","woman","","","","null","","","",""
"9175","","","survey-text","399","2668606","0.0-19.0-3.18","57082","List1A","black","woman","","","","","{""Q0"":""Dave is marrying Ruth""}","<img src=""stim_listA/marry3.gif""style=""height:400px;""></stim_listA>","is marrying",""
"null","<div style=""font-size:60px;"">+</div>","","html-keyboard-response","400","2669115","0.0-19.0-0.19","57082","List1A","black","woman","","","","null","","","",""
"null","<img src=""stim_listA/kiss3.gif""style=""height:400px;""></stim_listA>","","html-keyboard-response","401","2671116","0.0-19.0-1.19","57082","List1A","black","woman","","","","null","","","",""
"null","is kissing","","html-keyboard-response","402","2673123","0.0-19.0-2.19","57082","List1A","black","woman","","","","null","","","",""
"8313","","","survey-text","403","2681438","0.0-19.0-3.19","57082","List1A","black","woman","","","","","{""Q0"":""Ruth is kissing Luke""}","<img src=""stim_listA/kiss3.gif""style=""height:400px;""></stim_listA>","is kissing",""
"3983","<p>Thank you for completing that task.</p><p>The final part of this session is a short questionnaire.</p><p>Press Continue.</p>","0","html-button-response","404","2685422","0.0-20.0","57082","List1A","black","woman","","","","","","","",""
"45565","","","survey-text","405","2731994","0.0-21.0","57082","List1A","black","woman","","","","","{""Q0"":""36"",""Q1"":""English"",""Q2"":""English"",""Q3"":""England"",""Q4"":""Black African Caribbean"",""Q5"":""36""}","","","demographics"
"75198","","","survey-likert","406","2807193","0.0-22.0","57082","List1A","black","woman","","","","","{""Q0"":2}","","","likert_ESS"
"13991","","","survey-likert","407","2821185","0.0-23.0","57082","List1A","black","woman","","","","","{""Q0"":0}","","","likert_NSSAL_Q1"
"7670","","","survey-likert","408","2828857","0.0-24.0","57082","List1A","black","woman","","","","","{""Q0"":0}","","","likert_NSSAL_Q2"
"7574","","","survey-likert","409","2836433","0.0-25.0","57082","List1A","black","woman","","","","","{""Q0"":4}","","","likert_CGRS_Q1"
"4830","","","survey-likert","410","2841265","0.0-26.0","57082","List1A","black","woman","","","","","{""Q0"":4}","","","likert_CGRS_Q2"
"7319","","","survey-likert","411","2848585","0.0-27.0","57082","List1A","black","woman","","","","","{""Q0"":4}","","","likert_CGRS_Q3"
"9070","","","survey-text","412","2857657","0.0-28.0","57082","List1A","black","woman","","","","","{""Q0"":""5db40672d496c8000ed780d5""}","","","worker_id"
"63241","","","external-html","413","2920929","0.0-29.0","57082","List1A","black","woman","debrief.html","","","","","","",""
