rt,stimulus,button_pressed,trial_type,trial_index,time_elapsed,internal_node_id,subject,list,ppt_race,ppt_gender,url,first_guess,correct,key_press,responses,image_type,phrase_type,test_part
18013,Welcome to the experiment. Press Continue to begin.,0,html-button-response,0,18023,0.0-0.0,57755,List2B,black,man,,,,,,,,
78487,,,external-html,1,97873,0.0-1.0,57755,List2B,black,man,consent.html,,,,,,,
28623,"<p>On the next page, you will see portraits of 8 people and their names.</p><p>Your first task is to take a few minutes to memorise the names of these people.</p><p>You will have to recall their names during the rest of the experiment, so it is</p><p>essential that you try to memorise these people and their names as best as you can.</p><br><p><strong>You will then be tested on your memory of these names and portraits.</strong></p><br><p>The experiment will start after you have completed this memory test.</p><br><p>Ready?</p>",0,html-button-response,2,126503,0.0-2.0,57755,List2B,black,man,,,,,,,,
151997,"<img src='img/portrait_matrix_list2.jpg' style='width:900px;height:500px;''></img><p>If you have memorised all the portraits and names and are ready to start, press Continue.</p><p><strong>Please note: Your memory of these faces will be tested 4 times during this experiment.</strong></p>",0,html-button-response,3,279514,0.0-3.0-0.0,57755,List2B,black,man,,,,,,,,
17596,"<img src=""portrait/WW2.jpg""style=""height:400px;""></img>",3,html-button-response,4,298121,0.0-3.0-1.0,57755,List2B,black,man,,TRUE,3,,,,,
null,CORRECT,,html-keyboard-response,5,299639,0.0-3.0-2.0-0.0,57755,List2B,black,man,,,,null,,,,
3967,"<img src=""portrait/BM1.jpg""style=""height:400px;""></img>",4,html-button-response,6,303614,0.0-3.0-4.0,57755,List2B,black,man,,TRUE,4,,,,,
null,CORRECT,,html-keyboard-response,7,305145,0.0-3.0-5.0-0.0,57755,List2B,black,man,,,,null,,,,
3761,"<img src=""portrait/BW2.jpg""style=""height:400px;""></img>",2,html-button-response,8,308911,0.0-3.0-7.0,57755,List2B,black,man,,TRUE,2,,,,,
null,CORRECT,,html-keyboard-response,9,310420,0.0-3.0-8.0-0.0,57755,List2B,black,man,,,,null,,,,
7867,"<img src=""portrait/BM2.jpg""style=""height:400px;""></img>",5,html-button-response,10,318292,0.0-3.0-10.0,57755,List2B,black,man,,TRUE,5,,,,,
null,CORRECT,,html-keyboard-response,11,319805,0.0-3.0-11.0-0.0,57755,List2B,black,man,,,,null,,,,
5216,"<img src=""portrait/WM1.jpg""style=""height:400px;""></img>",6,html-button-response,12,325028,0.0-3.0-13.0,57755,List2B,black,man,,TRUE,6,,,,,
null,CORRECT,,html-keyboard-response,13,326544,0.0-3.0-14.0-0.0,57755,List2B,black,man,,,,null,,,,
50346,"<img src=""portrait/BW1.jpg""style=""height:400px;""></img>",1,html-button-response,14,376893,0.0-3.0-16.0,57755,List2B,black,man,,TRUE,0,,,,,
10937,"<img src=""portrait/BW1.jpg""style=""height:400px;""></img>",0,html-button-response,15,388844,0.0-3.0-18.0-0.0,57755,List2B,black,man,,FALSE,0,,,,,
null,CORRECT,,html-keyboard-response,16,390356,0.0-3.0-18.0-1.0-0.0,57755,List2B,black,man,,,,null,,,,
5129,"<img src=""portrait/WW1.jpg""style=""height:400px;""></img>",1,html-button-response,17,395491,0.0-3.0-19.0,57755,List2B,black,man,,TRUE,1,,,,,
null,CORRECT,,html-keyboard-response,18,397002,0.0-3.0-20.0-0.0,57755,List2B,black,man,,,,null,,,,
7489,"<img src=""portrait/WM2.jpg""style=""height:400px;""></img>",6,html-button-response,19,404497,0.0-3.0-22.0,57755,List2B,black,man,,TRUE,7,,,,,
1794,"<img src=""portrait/WM2.jpg""style=""height:400px;""></img>",7,html-button-response,20,407303,0.0-3.0-24.0-0.0,57755,List2B,black,man,,FALSE,7,,,,,
null,CORRECT,,html-keyboard-response,21,408816,0.0-3.0-24.0-1.0-0.0,57755,List2B,black,man,,,,null,,,,
3510,<p>You got 6 out of 8 right first time. Press Continue.</p>,0,html-button-response,22,412332,0.0-3.0-25.0,57755,List2B,black,man,,,,,,,,
7180,"As you did not score 100%, the memory game will repeat. Press Continue.",0,html-button-response,23,420517,0.0-3.0-26.0-0.0,57755,List2B,black,man,,,,,,,,
81076,"<img src='img/portrait_matrix_list2.jpg' style='width:900px;height:500px;''></img><p>If you have memorised all the portraits and names and are ready to start, press Continue.</p><p><strong>Please note: Your memory of these faces will be tested 4 times during this experiment.</strong></p>",0,html-button-response,24,502610,0.0-3.1-0.1,57755,List2B,black,man,,,,,,,,
5283,"<img src=""portrait/WW2.jpg""style=""height:400px;""></img>",3,html-button-response,25,508906,0.0-3.1-1.1,57755,List2B,black,man,,TRUE,3,,,,,
null,CORRECT,,html-keyboard-response,26,510417,0.0-3.1-2.1-0.1,57755,List2B,black,man,,,,null,,,,
6864,"<img src=""portrait/BM1.jpg""style=""height:400px;""></img>",4,html-button-response,27,517287,0.0-3.1-4.1,57755,List2B,black,man,,TRUE,4,,,,,
null,CORRECT,,html-keyboard-response,28,518797,0.0-3.1-5.1-0.1,57755,List2B,black,man,,,,null,,,,
4364,"<img src=""portrait/BW2.jpg""style=""height:400px;""></img>",2,html-button-response,29,523167,0.0-3.1-7.1,57755,List2B,black,man,,TRUE,2,,,,,
null,CORRECT,,html-keyboard-response,30,524680,0.0-3.1-8.1-0.1,57755,List2B,black,man,,,,null,,,,
2890,"<img src=""portrait/BM2.jpg""style=""height:400px;""></img>",5,html-button-response,31,527576,0.0-3.1-10.1,57755,List2B,black,man,,TRUE,5,,,,,
null,CORRECT,,html-keyboard-response,32,529097,0.0-3.1-11.1-0.1,57755,List2B,black,man,,,,null,,,,
8070,"<img src=""portrait/WM1.jpg""style=""height:400px;""></img>",6,html-button-response,33,537174,0.0-3.1-13.1,57755,List2B,black,man,,TRUE,6,,,,,
null,CORRECT,,html-keyboard-response,34,538690,0.0-3.1-14.1-0.1,57755,List2B,black,man,,,,null,,,,
5179,"<img src=""portrait/BW1.jpg""style=""height:400px;""></img>",0,html-button-response,35,543876,0.0-3.1-16.1,57755,List2B,black,man,,TRUE,0,,,,,
null,CORRECT,,html-keyboard-response,36,545389,0.0-3.1-17.1-0.1,57755,List2B,black,man,,,,null,,,,
7342,"<img src=""portrait/WW1.jpg""style=""height:400px;""></img>",1,html-button-response,37,552739,0.0-3.1-19.1,57755,List2B,black,man,,TRUE,1,,,,,
null,CORRECT,,html-keyboard-response,38,554250,0.0-3.1-20.1-0.1,57755,List2B,black,man,,,,null,,,,
5655,"<img src=""portrait/WM2.jpg""style=""height:400px;""></img>",7,html-button-response,39,559912,0.0-3.1-22.1,57755,List2B,black,man,,TRUE,7,,,,,
null,CORRECT,,html-keyboard-response,40,561424,0.0-3.1-23.1-0.1,57755,List2B,black,man,,,,null,,,,
5634,<p>You got 8 out of 8 right first time. Press Continue.</p>,0,html-button-response,41,567062,0.0-3.1-25.1,57755,List2B,black,man,,,,,,,,
45063,"<p>In this experiment, you will view photographs of the people from the memory game interacting.</p><p>By using the <strong>exact</strong> phrase given <i>after</i> the photograph appears and recalling the correct names of the people in the photographs, form a sentence describing the interaction. You do not need to capitalise names.</p><p>Type your answer in the space provided. Please complete every sentence before moving onto the next trial.</p><p>You will only have a few seconds to memorise each given photograph and phrase before you can respond, so try your best to focus.</p><p>An example is given below. Press 'Continue' when you are ready.</p><img src='img/speaking_example.jpg' style='width:800px;height:460px;''></img>",0,html-button-response,42,613140,0.0-4.0,57755,List2B,black,man,,,,,,,,
7047,"<p>Before the experiment starts, you will watch two example trials. Press 'Continue'.</p>",0,html-button-response,43,621196,0.0-5.0,57755,List2B,black,man,,,,,,,,
null,<img src='img/meet_eg.gif' style='height:400px;''></img>,,html-keyboard-response,44,624211,0.0-6.0,57755,List2B,black,man,,,,null,,,,
null,<p>is meeting</p>,,html-keyboard-response,45,626217,0.0-7.0,57755,List2B,black,man,,,,null,,,,
7451,<p><b>Answer:</b> jane is meeting ruth</p>,0,html-button-response,46,633672,0.0-8.0,57755,List2B,black,man,,,,,,,,
null,<img src='img/look_eg.gif' style='height:400px;''></img>,,html-keyboard-response,47,636684,0.0-9.0,57755,List2B,black,man,,,,null,,,,
null,<p>are looking at each other</p>,,html-keyboard-response,48,638692,0.0-10.0,57755,List2B,black,man,,,,null,,,,
24685,<p><b>Answer:</b> fred and mike are looking at each other</p>,0,html-button-response,49,663379,0.0-11.0,57755,List2B,black,man,,,,,,,,
8816,"<p>Ready to start the experiment?</p><br><p><strong>Remember to describe the picture using a full sentence,</strong></p><p><strong>that combines the names of the people with the <i>exact</i> phrase given.</strong></p><p><strong>To receive full payment you must do this correctly.</strong></p><p><strong> You do not need to capitalise names or use punctuation.</strong></p><br><p>Press 'Continue' to begin.</p>",0,html-button-response,50,673201,0.0-12.0,57755,List2B,black,man,,,,,,,,
null,"<div style=""font-size:60px;"">+</div>",,html-keyboard-response,51,674717,0.0-13.0-0.0,57755,List2B,black,man,,,,null,,,,
null,"<img src=""stim_listB/dance4.gif""style=""height:400px;""></stim_listB>",,html-keyboard-response,52,676724,0.0-13.0-1.0,57755,List2B,black,man,,,,null,,,,
null,are dancing with each other,,html-keyboard-response,53,678734,0.0-13.0-2.0,57755,List2B,black,man,,,,null,,,,
32757,,,survey-text,54,711495,0.0-13.0-3.0,57755,List2B,black,man,,,,,"{""Q0"":""Mike and ruth are playing""}","<img src=""stim_listB/dance4.gif""style=""height:400px;""></stim_listB>",are dancing with each other,
null,"<div style=""font-size:60px;"">+</div>",,html-keyboard-response,55,712074,0.0-13.0-0.1,57755,List2B,black,man,,,,null,,,,
null,"<img src=""stim_listB/fight6.gif""style=""height:400px;""></stim_listB>",,html-keyboard-response,56,714085,0.0-13.0-1.1,57755,List2B,black,man,,,,null,,,,
null,are fighting each other,,html-keyboard-response,57,716090,0.0-13.0-2.1,57755,List2B,black,man,,,,null,,,,
30065,,,survey-text,58,746161,0.0-13.0-3.1,57755,List2B,black,man,,,,,"{""Q0"":""Fred and dave are about to fight.""}","<img src=""stim_listB/fight6.gif""style=""height:400px;""></stim_listB>",are fighting each other,
null,"<div style=""font-size:60px;"">+</div>",,html-keyboard-response,59,746668,0.0-13.0-0.2,57755,List2B,black,man,,,,null,,,,
null,"<img src=""stim_listB/fight3.gif""style=""height:400px;""></stim_listB>",,html-keyboard-response,60,748673,0.0-13.0-1.2,57755,List2B,black,man,,,,null,,,,
null,is fighting,,html-keyboard-response,61,750689,0.0-13.0-2.2,57755,List2B,black,man,,,,null,,,,
31245,,,survey-text,62,781936,0.0-13.0-3.2,57755,List2B,black,man,,,,,"{""Q0"":""Mike ad kate are about to fight.""}","<img src=""stim_listB/fight3.gif""style=""height:400px;""></stim_listB>",is fighting,
null,"<div style=""font-size:60px;"">+</div>",,html-keyboard-response,63,782445,0.0-13.0-0.3,57755,List2B,black,man,,,,null,,,,
null,"<img src=""stim_listB/touch8.gif""style=""height:400px;""></stim_listB>",,html-keyboard-response,64,784451,0.0-13.0-1.3,57755,List2B,black,man,,,,null,,,,
null,are touching each other,,html-keyboard-response,65,786457,0.0-13.0-2.3,57755,List2B,black,man,,,,null,,,,
42463,,,survey-text,66,828923,0.0-13.0-3.3,57755,List2B,black,man,,,,,"{""Q0"":""beth and ruth are touching each other.""}","<img src=""stim_listB/touch8.gif""style=""height:400px;""></stim_listB>",are touching each other,
null,"<div style=""font-size:60px;"">+</div>",,html-keyboard-response,67,829430,0.0-13.0-0.4,57755,List2B,black,man,,,,null,,,,
null,"<img src=""stim_listB/touch3.gif""style=""height:400px;""></stim_listB>",,html-keyboard-response,68,831435,0.0-13.0-1.4,57755,List2B,black,man,,,,null,,,,
null,is touching,,html-keyboard-response,69,833444,0.0-13.0-2.4,57755,List2B,black,man,,,,null,,,,
32529,,,survey-text,70,865977,0.0-13.0-3.4,57755,List2B,black,man,,,,,"{""Q0"":""mike and kate are touching hands.""}","<img src=""stim_listB/touch3.gif""style=""height:400px;""></stim_listB>",is touching,
null,"<div style=""font-size:60px;"">+</div>",,html-keyboard-response,71,866483,0.0-13.0-0.5,57755,List2B,black,man,,,,null,,,,
null,"<img src=""stim_listB/argue2.gif""style=""height:400px;""></stim_listB>",,html-keyboard-response,72,868489,0.0-13.0-1.5,57755,List2B,black,man,,,,null,,,,
null,are arguing with each other,,html-keyboard-response,73,870493,0.0-13.0-2.5,57755,List2B,black,man,,,,null,,,,
33922,,,survey-text,74,904419,0.0-13.0-3.5,57755,List2B,black,man,,,,,"{""Q0"":""Luke and ruth are arguing with each other.""}","<img src=""stim_listB/argue2.gif""style=""height:400px;""></stim_listB>",are arguing with each other,
null,"<div style=""font-size:60px;"">+</div>",,html-keyboard-response,75,904929,0.0-13.0-0.6,57755,List2B,black,man,,,,null,,,,
null,"<img src=""stim_listB/flirt2.gif""style=""height:400px;""></stim_listB>",,html-keyboard-response,76,906935,0.0-13.0-1.6,57755,List2B,black,man,,,,null,,,,
null,are flirting with each other,,html-keyboard-response,77,908943,0.0-13.0-2.6,57755,List2B,black,man,,,,null,,,,
38856,,,survey-text,78,947802,0.0-13.0-3.6,57755,List2B,black,man,,,,,"{""Q0"":""dave and jane are flirting with each other.""}","<img src=""stim_listB/flirt2.gif""style=""height:400px;""></stim_listB>",are flirting with each other,
null,"<div style=""font-size:60px;"">+</div>",,html-keyboard-response,79,948312,0.0-13.0-0.7,57755,List2B,black,man,,,,null,,,,
null,"<img src=""stim_listB/marry8.gif""style=""height:400px;""></stim_listB>",,html-keyboard-response,80,950317,0.0-13.0-1.7,57755,List2B,black,man,,,,null,,,,
null,are marrying each other,,html-keyboard-response,81,952324,0.0-13.0-2.7,57755,List2B,black,man,,,,null,,,,
42349,,,survey-text,82,994676,0.0-13.0-3.7,57755,List2B,black,man,,,,,"{""Q0"":""kate and jane are marrying each other ""}","<img src=""stim_listB/marry8.gif""style=""height:400px;""></stim_listB>",are marrying each other,
null,"<div style=""font-size:60px;"">+</div>",,html-keyboard-response,83,995184,0.0-13.0-0.8,57755,List2B,black,man,,,,null,,,,
null,"<img src=""stim_listB/shout5.gif""style=""height:400px;""></stim_listB>",,html-keyboard-response,84,997198,0.0-13.0-1.8,57755,List2B,black,man,,,,null,,,,
null,is shouting at,,html-keyboard-response,85,999204,0.0-13.0-2.8,57755,List2B,black,man,,,,null,,,,
37100,,,survey-text,86,1036308,0.0-13.0-3.8,57755,List2B,black,man,,,,,"{""Q0"":""Luke and fred are shouting at each other.""}","<img src=""stim_listB/shout5.gif""style=""height:400px;""></stim_listB>",is shouting at,
null,"<div style=""font-size:60px;"">+</div>",,html-keyboard-response,87,1036817,0.0-13.0-0.9,57755,List2B,black,man,,,,null,,,,
null,"<img src=""stim_listB/flirt3.gif""style=""height:400px;""></stim_listB>",,html-keyboard-response,88,1038822,0.0-13.0-1.9,57755,List2B,black,man,,,,null,,,,
null,is flirting with,,html-keyboard-response,89,1040827,0.0-13.0-2.9,57755,List2B,black,man,,,,null,,,,
29444,,,survey-text,90,1070275,0.0-13.0-3.9,57755,List2B,black,man,,,,,"{""Q0"":""Kate ad fred are flirting .""}","<img src=""stim_listB/flirt3.gif""style=""height:400px;""></stim_listB>",is flirting with,
null,"<div style=""font-size:60px;"">+</div>",,html-keyboard-response,91,1070782,0.0-13.0-0.10,57755,List2B,black,man,,,,null,,,,
null,"<img src=""stim_listB/touch4.gif""style=""height:400px;""></stim_listB>",,html-keyboard-response,92,1072788,0.0-13.0-1.10,57755,List2B,black,man,,,,null,,,,
null,are touching each other,,html-keyboard-response,93,1074795,0.0-13.0-2.10,57755,List2B,black,man,,,,null,,,,
35994,,,survey-text,94,1110794,0.0-13.0-3.10,57755,List2B,black,man,,,,,"{""Q0"":""Beth and fred are touching each other""}","<img src=""stim_listB/touch4.gif""style=""height:400px;""></stim_listB>",are touching each other,
null,"<div style=""font-size:60px;"">+</div>",,html-keyboard-response,95,1111304,0.0-13.0-0.11,57755,List2B,black,man,,,,null,,,,
null,"<img src=""stim_listB/argue4.gif""style=""height:400px;""></stim_listB>",,html-keyboard-response,96,1113309,0.0-13.0-1.11,57755,List2B,black,man,,,,null,,,,
null,are arguing with each other,,html-keyboard-response,97,1115318,0.0-13.0-2.11,57755,List2B,black,man,,,,null,,,,
37013,,,survey-text,98,1152335,0.0-13.0-3.11,57755,List2B,black,man,,,,,"{""Q0"":""kate and fred are arguing with each other ""}","<img src=""stim_listB/argue4.gif""style=""height:400px;""></stim_listB>",are arguing with each other,
null,"<div style=""font-size:60px;"">+</div>",,html-keyboard-response,99,1152844,0.0-13.0-0.12,57755,List2B,black,man,,,,null,,,,
null,"<img src=""stim_listB/shout7.gif""style=""height:400px;""></stim_listB>",,html-keyboard-response,100,1154849,0.0-13.0-1.12,57755,List2B,black,man,,,,null,,,,
null,is shouting at,,html-keyboard-response,101,1156857,0.0-13.0-2.12,57755,List2B,black,man,,,,null,,,,
46790,,,survey-text,102,1203651,0.0-13.0-3.12,57755,List2B,black,man,,,,,"{""Q0"":""ruth and kate are staring at each other ""}","<img src=""stim_listB/shout7.gif""style=""height:400px;""></stim_listB>",is shouting at,
null,"<div style=""font-size:60px;"">+</div>",,html-keyboard-response,103,1204161,0.0-13.0-0.13,57755,List2B,black,man,,,,null,,,,
null,"<img src=""stim_listB/marry6.gif""style=""height:400px;""></stim_listB>",,html-keyboard-response,104,1206166,0.0-13.0-1.13,57755,List2B,black,man,,,,null,,,,
null,are marrying each other,,html-keyboard-response,105,1208174,0.0-13.0-2.13,57755,List2B,black,man,,,,null,,,,
26614,,,survey-text,106,1234792,0.0-13.0-3.13,57755,List2B,black,man,,,,,"{""Q0"":""luke and mike are marrying each other ""}","<img src=""stim_listB/marry6.gif""style=""height:400px;""></stim_listB>",are marrying each other,
null,"<div style=""font-size:60px;"">+</div>",,html-keyboard-response,107,1235308,0.0-13.0-0.14,57755,List2B,black,man,,,,null,,,,
null,"<img src=""stim_listB/play6.gif""style=""height:400px;""></stim_listB>",,html-keyboard-response,108,1237315,0.0-13.0-1.14,57755,List2B,black,man,,,,null,,,,
null,are playing with each other,,html-keyboard-response,109,1239321,0.0-13.0-2.14,57755,List2B,black,man,,,,null,,,,
24946,,,survey-text,110,1264270,0.0-13.0-3.14,57755,List2B,black,man,,,,,"{""Q0"":""luke and fred are playing with each other.""}","<img src=""stim_listB/play6.gif""style=""height:400px;""></stim_listB>",are playing with each other,
null,"<div style=""font-size:60px;"">+</div>",,html-keyboard-response,111,1264775,0.0-13.0-0.15,57755,List2B,black,man,,,,null,,,,
null,"<img src=""stim_listB/marry2.gif""style=""height:400px;""></stim_listB>",,html-keyboard-response,112,1266782,0.0-13.0-1.15,57755,List2B,black,man,,,,null,,,,
null,are marrying each other,,html-keyboard-response,113,1268789,0.0-13.0-2.15,57755,List2B,black,man,,,,null,,,,
26530,,,survey-text,114,1295321,0.0-13.0-3.15,57755,List2B,black,man,,,,,"{""Q0"":""luke and jane are marrying each other.""}","<img src=""stim_listB/marry2.gif""style=""height:400px;""></stim_listB>",are marrying each other,
null,"<div style=""font-size:60px;"">+</div>",,html-keyboard-response,115,1295831,0.0-13.0-0.16,57755,List2B,black,man,,,,null,,,,
null,"<img src=""stim_listB/fight5.gif""style=""height:400px;""></stim_listB>",,html-keyboard-response,116,1297836,0.0-13.0-1.16,57755,List2B,black,man,,,,null,,,,
null,is fighting,,html-keyboard-response,117,1299843,0.0-13.0-2.16,57755,List2B,black,man,,,,null,,,,
27618,,,survey-text,118,1327466,0.0-13.0-3.16,57755,List2B,black,man,,,,,"{""Q0"":""mike and dave are fighting.""}","<img src=""stim_listB/fight5.gif""style=""height:400px;""></stim_listB>",is fighting,
null,"<div style=""font-size:60px;"">+</div>",,html-keyboard-response,119,1327974,0.0-13.0-0.17,57755,List2B,black,man,,,,null,,,,
null,"<img src=""stim_listB/talk7.gif""style=""height:400px;""></stim_listB>",,html-keyboard-response,120,1329982,0.0-13.0-1.17,57755,List2B,black,man,,,,null,,,,
null,is talking to,,html-keyboard-response,121,1331988,0.0-13.0-2.17,57755,List2B,black,man,,,,null,,,,
36832,,,survey-text,122,1368824,0.0-13.0-3.17,57755,List2B,black,man,,,,,"{""Q0"":""ruth and kate is talking to each other.""}","<img src=""stim_listB/talk7.gif""style=""height:400px;""></stim_listB>",is talking to,
null,"<div style=""font-size:60px;"">+</div>",,html-keyboard-response,123,1369334,0.0-13.0-0.18,57755,List2B,black,man,,,,null,,,,
null,"<img src=""stim_listB/play4.gif""style=""height:400px;""></stim_listB>",,html-keyboard-response,124,1371339,0.0-13.0-1.18,57755,List2B,black,man,,,,null,,,,
null,are playing with each other,,html-keyboard-response,125,1373344,0.0-13.0-2.18,57755,List2B,black,man,,,,null,,,,
41934,,,survey-text,126,1415282,0.0-13.0-3.18,57755,List2B,black,man,,,,,"{""Q0"":""Beth and fred are playing with each other.""}","<img src=""stim_listB/play4.gif""style=""height:400px;""></stim_listB>",are playing with each other,
null,"<div style=""font-size:60px;"">+</div>",,html-keyboard-response,127,1415790,0.0-13.0-0.19,57755,List2B,black,man,,,,null,,,,
null,"<img src=""stim_listB/kiss4.gif""style=""height:400px;""></stim_listB>",,html-keyboard-response,128,1417796,0.0-13.0-1.19,57755,List2B,black,man,,,,null,,,,
null,are kissing each other,,html-keyboard-response,129,1419804,0.0-13.0-2.19,57755,List2B,black,man,,,,null,,,,
22027,,,survey-text,130,1441834,0.0-13.0-3.19,57755,List2B,black,man,,,,,"{""Q0"":""Mike and kate are kissing.""}","<img src=""stim_listB/kiss4.gif""style=""height:400px;""></stim_listB>",are kissing each other,
11273,"<img src='img/portrait_matrix_list2.jpg' style='width:900px;height:500px;''></img><p>If you have memorised all the portraits and names and are ready to start, press Continue.</p><p><strong>Please note: Your memory of these faces will be tested 4 times during this experiment.</strong></p>",0,html-button-response,131,1453116,0.0-14.0-0.0,57755,List2B,black,man,,,,,,,,
21228,"<img src=""portrait/WW1.jpg""style=""height:400px;""></img>",1,html-button-response,132,1475354,0.0-14.0-1.0,57755,List2B,black,man,,TRUE,1,,,,,
null,CORRECT,,html-keyboard-response,133,1476863,0.0-14.0-2.0-0.0,57755,List2B,black,man,,,,null,,,,
6341,"<img src=""portrait/BW1.jpg""style=""height:400px;""></img>",0,html-button-response,134,1483209,0.0-14.0-4.0,57755,List2B,black,man,,TRUE,0,,,,,
null,CORRECT,,html-keyboard-response,135,1484722,0.0-14.0-5.0-0.0,57755,List2B,black,man,,,,null,,,,
4199,"<img src=""portrait/BM2.jpg""style=""height:400px;""></img>",5,html-button-response,136,1488928,0.0-14.0-7.0,57755,List2B,black,man,,TRUE,5,,,,,
null,CORRECT,,html-keyboard-response,137,1490444,0.0-14.0-8.0-0.0,57755,List2B,black,man,,,,null,,,,
7801,"<img src=""portrait/WM2.jpg""style=""height:400px;""></img>",7,html-button-response,138,1498254,0.0-14.0-10.0,57755,List2B,black,man,,TRUE,7,,,,,
null,CORRECT,,html-keyboard-response,139,1499767,0.0-14.0-11.0-0.0,57755,List2B,black,man,,,,null,,,,
9801,"<img src=""portrait/BW2.jpg""style=""height:400px;""></img>",2,html-button-response,140,1509576,0.0-14.0-13.0,57755,List2B,black,man,,TRUE,2,,,,,
null,CORRECT,,html-keyboard-response,141,1511081,0.0-14.0-14.0-0.0,57755,List2B,black,man,,,,null,,,,
3568,"<img src=""portrait/WM1.jpg""style=""height:400px;""></img>",6,html-button-response,142,1514660,0.0-14.0-16.0,57755,List2B,black,man,,TRUE,6,,,,,
null,CORRECT,,html-keyboard-response,143,1516171,0.0-14.0-17.0-0.0,57755,List2B,black,man,,,,null,,,,
3663,"<img src=""portrait/BM1.jpg""style=""height:400px;""></img>",4,html-button-response,144,1519840,0.0-14.0-19.0,57755,List2B,black,man,,TRUE,4,,,,,
null,CORRECT,,html-keyboard-response,145,1521351,0.0-14.0-20.0-0.0,57755,List2B,black,man,,,,null,,,,
3924,"<img src=""portrait/WW2.jpg""style=""height:400px;""></img>",3,html-button-response,146,1525282,0.0-14.0-22.0,57755,List2B,black,man,,TRUE,3,,,,,
null,CORRECT,,html-keyboard-response,147,1526798,0.0-14.0-23.0-0.0,57755,List2B,black,man,,,,null,,,,
4827,<p>You got 8 out of 8 right first time. Press Continue.</p>,0,html-button-response,148,1531630,0.0-14.0-25.0,57755,List2B,black,man,,,,,,,,
null,"<div style=""font-size:60px;"">+</div>",,html-keyboard-response,149,1533145,0.0-15.0-0.0,57755,List2B,black,man,,,,null,,,,
null,"<img src=""stim_listB/flirt6.gif""style=""height:400px;""></stim_listB>",,html-keyboard-response,150,1535151,0.0-15.0-1.0,57755,List2B,black,man,,,,null,,,,
null,are flirting with each other,,html-keyboard-response,151,1537157,0.0-15.0-2.0,57755,List2B,black,man,,,,null,,,,
29831,,,survey-text,152,1566991,0.0-15.0-3.0,57755,List2B,black,man,,,,,"{""Q0"":""dave and fred are flirting with each other.""}","<img src=""stim_listB/flirt6.gif""style=""height:400px;""></stim_listB>",are flirting with each other,
null,"<div style=""font-size:60px;"">+</div>",,html-keyboard-response,153,1567497,0.0-15.0-0.1,57755,List2B,black,man,,,,null,,,,
null,"<img src=""stim_listB/argue3.gif""style=""height:400px;""></stim_listB>",,html-keyboard-response,154,1569504,0.0-15.0-1.1,57755,List2B,black,man,,,,null,,,,
null,is arguing with,,html-keyboard-response,155,1571509,0.0-15.0-2.1,57755,List2B,black,man,,,,null,,,,
25189,,,survey-text,156,1596701,0.0-15.0-3.1,57755,List2B,black,man,,,,,"{""Q0"":""mike is arguing with kate.""}","<img src=""stim_listB/argue3.gif""style=""height:400px;""></stim_listB>",is arguing with,
null,"<div style=""font-size:60px;"">+</div>",,html-keyboard-response,157,1597211,0.0-15.0-0.2,57755,List2B,black,man,,,,null,,,,
null,"<img src=""stim_listB/kiss5.gif""style=""height:400px;""></stim_listB>",,html-keyboard-response,158,1599217,0.0-15.0-1.2,57755,List2B,black,man,,,,null,,,,
null,is kissing,,html-keyboard-response,159,1601225,0.0-15.0-2.2,57755,List2B,black,man,,,,null,,,,
19157,,,survey-text,160,1620385,0.0-15.0-3.2,57755,List2B,black,man,,,,,"{""Q0"":""dave is kissing fred""}","<img src=""stim_listB/kiss5.gif""style=""height:400px;""></stim_listB>",is kissing,
null,"<div style=""font-size:60px;"">+</div>",,html-keyboard-response,161,1620895,0.0-15.0-0.3,57755,List2B,black,man,,,,null,,,,
null,"<img src=""stim_listB/argue8.gif""style=""height:400px;""></stim_listB>",,html-keyboard-response,162,1622901,0.0-15.0-1.3,57755,List2B,black,man,,,,null,,,,
null,are arguing with each other,,html-keyboard-response,163,1624905,0.0-15.0-2.3,57755,List2B,black,man,,,,null,,,,
26738,,,survey-text,164,1651648,0.0-15.0-3.3,57755,List2B,black,man,,,,,"{""Q0"":""ruth and beth are arguing with eachother""}","<img src=""stim_listB/argue8.gif""style=""height:400px;""></stim_listB>",are arguing with each other,
null,"<div style=""font-size:60px;"">+</div>",,html-keyboard-response,165,1652157,0.0-15.0-0.4,57755,List2B,black,man,,,,null,,,,
null,"<img src=""stim_listB/shout6.gif""style=""height:400px;""></stim_listB>",,html-keyboard-response,166,1654162,0.0-15.0-1.4,57755,List2B,black,man,,,,null,,,,
null,are shouting at each other,,html-keyboard-response,167,1656168,0.0-15.0-2.4,57755,List2B,black,man,,,,null,,,,
21625,,,survey-text,168,1677797,0.0-15.0-3.4,57755,List2B,black,man,,,,,"{""Q0"":""mike and dave are shouting at eachother.""}","<img src=""stim_listB/shout6.gif""style=""height:400px;""></stim_listB>",are shouting at each other,
null,"<div style=""font-size:60px;"">+</div>",,html-keyboard-response,169,1678304,0.0-15.0-0.5,57755,List2B,black,man,,,,null,,,,
null,"<img src=""stim_listB/dance8.gif""style=""height:400px;""></stim_listB>",,html-keyboard-response,170,1680310,0.0-15.0-1.5,57755,List2B,black,man,,,,null,,,,
null,are dancing with each other,,html-keyboard-response,171,1682317,0.0-15.0-2.5,57755,List2B,black,man,,,,null,,,,
25941,,,survey-text,172,1708261,0.0-15.0-3.5,57755,List2B,black,man,,,,,"{""Q0"":""Jane and beth are dancing with eachother.""}","<img src=""stim_listB/dance8.gif""style=""height:400px;""></stim_listB>",are dancing with each other,
null,"<div style=""font-size:60px;"">+</div>",,html-keyboard-response,173,1708773,0.0-15.0-0.6,57755,List2B,black,man,,,,null,,,,
null,"<img src=""stim_listB/talk5.gif""style=""height:400px;""></stim_listB>",,html-keyboard-response,174,1710778,0.0-15.0-1.6,57755,List2B,black,man,,,,null,,,,
null,is talking to,,html-keyboard-response,175,1712784,0.0-15.0-2.6,57755,List2B,black,man,,,,null,,,,
22437,,,survey-text,176,1735224,0.0-15.0-3.6,57755,List2B,black,man,,,,,"{""Q0"":""mike is talking to luke""}","<img src=""stim_listB/talk5.gif""style=""height:400px;""></stim_listB>",is talking to,
null,"<div style=""font-size:60px;"">+</div>",,html-keyboard-response,177,1735733,0.0-15.0-0.7,57755,List2B,black,man,,,,null,,,,
null,"<img src=""stim_listB/touch5.gif""style=""height:400px;""></stim_listB>",,html-keyboard-response,178,1737738,0.0-15.0-1.7,57755,List2B,black,man,,,,null,,,,
null,is touching,,html-keyboard-response,179,1739745,0.0-15.0-2.7,57755,List2B,black,man,,,,null,,,,
12099,,,survey-text,180,1751848,0.0-15.0-3.7,57755,List2B,black,man,,,,,"{""Q0"":""mike is touching dave""}","<img src=""stim_listB/touch5.gif""style=""height:400px;""></stim_listB>",is touching,
null,"<div style=""font-size:60px;"">+</div>",,html-keyboard-response,181,1752358,0.0-15.0-0.8,57755,List2B,black,man,,,,null,,,,
null,"<img src=""stim_listB/talk6.gif""style=""height:400px;""></stim_listB>",,html-keyboard-response,182,1754364,0.0-15.0-1.8,57755,List2B,black,man,,,,null,,,,
null,are talking to each other,,html-keyboard-response,183,1756380,0.0-15.0-2.8,57755,List2B,black,man,,,,null,,,,
18043,,,survey-text,184,1774427,0.0-15.0-3.8,57755,List2B,black,man,,,,,"{""Q0"":""fred and dave are talking to eachother""}","<img src=""stim_listB/talk6.gif""style=""height:400px;""></stim_listB>",are talking to each other,
null,"<div style=""font-size:60px;"">+</div>",,html-keyboard-response,185,1774932,0.0-15.0-0.9,57755,List2B,black,man,,,,null,,,,
null,"<img src=""stim_listB/shout3.gif""style=""height:400px;""></stim_listB>",,html-keyboard-response,186,1776939,0.0-15.0-1.9,57755,List2B,black,man,,,,null,,,,
null,is shouting at,,html-keyboard-response,187,1778944,0.0-15.0-2.9,57755,List2B,black,man,,,,null,,,,
39841,,,survey-text,188,1818789,0.0-15.0-3.9,57755,List2B,black,man,,,,,"{""Q0"":""fred is staring at beth""}","<img src=""stim_listB/shout3.gif""style=""height:400px;""></stim_listB>",is shouting at,
null,"<div style=""font-size:60px;"">+</div>",,html-keyboard-response,189,1819299,0.0-15.0-0.10,57755,List2B,black,man,,,,null,,,,
null,"<img src=""stim_listB/dance3.gif""style=""height:400px;""></stim_listB>",,html-keyboard-response,190,1821309,0.0-15.0-1.10,57755,List2B,black,man,,,,null,,,,
null,is dancing with,,html-keyboard-response,191,1823320,0.0-15.0-2.10,57755,List2B,black,man,,,,null,,,,
14560,,,survey-text,192,1837883,0.0-15.0-3.10,57755,List2B,black,man,,,,,"{""Q0"":""fred is dancing with kate.""}","<img src=""stim_listB/dance3.gif""style=""height:400px;""></stim_listB>",is dancing with,
null,"<div style=""font-size:60px;"">+</div>",,html-keyboard-response,193,1838391,0.0-15.0-0.11,57755,List2B,black,man,,,,null,,,,
null,"<img src=""stim_listB/play2.gif""style=""height:400px;""></stim_listB>",,html-keyboard-response,194,1840395,0.0-15.0-1.11,57755,List2B,black,man,,,,null,,,,
null,are playing with each other,,html-keyboard-response,195,1842404,0.0-15.0-2.11,57755,List2B,black,man,,,,null,,,,
20187,,,survey-text,196,1862596,0.0-15.0-3.11,57755,List2B,black,man,,,,,"{""Q0"":""luke and ruth are playing with eachother.""}","<img src=""stim_listB/play2.gif""style=""height:400px;""></stim_listB>",are playing with each other,
null,"<div style=""font-size:60px;"">+</div>",,html-keyboard-response,197,1863104,0.0-15.0-0.12,57755,List2B,black,man,,,,null,,,,
null,"<img src=""stim_listB/touch7.gif""style=""height:400px;""></stim_listB>",,html-keyboard-response,198,1865111,0.0-15.0-1.12,57755,List2B,black,man,,,,null,,,,
null,is touching,,html-keyboard-response,199,1867117,0.0-15.0-2.12,57755,List2B,black,man,,,,null,,,,
14568,,,survey-text,200,1881691,0.0-15.0-3.12,57755,List2B,black,man,,,,,"{""Q0"":""jane is touching kate""}","<img src=""stim_listB/touch7.gif""style=""height:400px;""></stim_listB>",is touching,
null,"<div style=""font-size:60px;"">+</div>",,html-keyboard-response,201,1882197,0.0-15.0-0.13,57755,List2B,black,man,,,,null,,,,
null,"<img src=""stim_listB/talk2.gif""style=""height:400px;""></stim_listB>",,html-keyboard-response,202,1884203,0.0-15.0-1.13,57755,List2B,black,man,,,,null,,,,
null,are talking to each other,,html-keyboard-response,203,1886210,0.0-15.0-2.13,57755,List2B,black,man,,,,null,,,,
25368,,,survey-text,204,1911582,0.0-15.0-3.13,57755,List2B,black,man,,,,,"{""Q0"":""dave and jane are talking to eachother""}","<img src=""stim_listB/talk2.gif""style=""height:400px;""></stim_listB>",are talking to each other,
null,"<div style=""font-size:60px;"">+</div>",,html-keyboard-response,205,1912091,0.0-15.0-0.14,57755,List2B,black,man,,,,null,,,,
null,"<img src=""stim_listB/shout2.gif""style=""height:400px;""></stim_listB>",,html-keyboard-response,206,1914098,0.0-15.0-1.14,57755,List2B,black,man,,,,null,,,,
null,are shouting at each other,,html-keyboard-response,207,1916104,0.0-15.0-2.14,57755,List2B,black,man,,,,null,,,,
20154,,,survey-text,208,1936262,0.0-15.0-3.14,57755,List2B,black,man,,,,,"{""Q0"":""jane and dave are shouting at eachother""}","<img src=""stim_listB/shout2.gif""style=""height:400px;""></stim_listB>",are shouting at each other,
null,"<div style=""font-size:60px;"">+</div>",,html-keyboard-response,209,1936770,0.0-15.0-0.15,57755,List2B,black,man,,,,null,,,,
null,"<img src=""stim_listB/flirt1.gif""style=""height:400px;""></stim_listB>",,html-keyboard-response,210,1938776,0.0-15.0-1.15,57755,List2B,black,man,,,,null,,,,
null,is flirting with,,html-keyboard-response,211,1940784,0.0-15.0-2.15,57755,List2B,black,man,,,,null,,,,
21354,,,survey-text,212,1962142,0.0-15.0-3.15,57755,List2B,black,man,,,,,"{""Q0"":""jane is flirting with dave.""}","<img src=""stim_listB/flirt1.gif""style=""height:400px;""></stim_listB>",is flirting with,
null,"<div style=""font-size:60px;"">+</div>",,html-keyboard-response,213,1962649,0.0-15.0-0.16,57755,List2B,black,man,,,,null,,,,
null,"<img src=""stim_listB/argue5.gif""style=""height:400px;""></stim_listB>",,html-keyboard-response,214,1964653,0.0-15.0-1.16,57755,List2B,black,man,,,,null,,,,
null,is arguing with,,html-keyboard-response,215,1966657,0.0-15.0-2.16,57755,List2B,black,man,,,,null,,,,
18889,,,survey-text,216,1985550,0.0-15.0-3.16,57755,List2B,black,man,,,,,"{""Q0"":""dave is arguing with fred""}","<img src=""stim_listB/argue5.gif""style=""height:400px;""></stim_listB>",is arguing with,
null,"<div style=""font-size:60px;"">+</div>",,html-keyboard-response,217,1986057,0.0-15.0-0.17,57755,List2B,black,man,,,,null,,,,
null,"<img src=""stim_listB/play1.gif""style=""height:400px;""></stim_listB>",,html-keyboard-response,218,1988062,0.0-15.0-1.17,57755,List2B,black,man,,,,null,,,,
null,is playing with,,html-keyboard-response,219,1990068,0.0-15.0-2.17,57755,List2B,black,man,,,,null,,,,
20178,,,survey-text,220,2010249,0.0-15.0-3.17,57755,List2B,black,man,,,,,"{""Q0"":""jane is playing with dave""}","<img src=""stim_listB/play1.gif""style=""height:400px;""></stim_listB>",is playing with,
null,"<div style=""font-size:60px;"">+</div>",,html-keyboard-response,221,2010764,0.0-15.0-0.18,57755,List2B,black,man,,,,null,,,,
null,"<img src=""stim_listB/fight8.gif""style=""height:400px;""></stim_listB>",,html-keyboard-response,222,2012769,0.0-15.0-1.18,57755,List2B,black,man,,,,null,,,,
null,are fighting each other,,html-keyboard-response,223,2014777,0.0-15.0-2.18,57755,List2B,black,man,,,,null,,,,
18077,,,survey-text,224,2032858,0.0-15.0-3.18,57755,List2B,black,man,,,,,"{""Q0"":""beth and ruth are fighting eachother""}","<img src=""stim_listB/fight8.gif""style=""height:400px;""></stim_listB>",are fighting each other,
null,"<div style=""font-size:60px;"">+</div>",,html-keyboard-response,225,2033371,0.0-15.0-0.19,57755,List2B,black,man,,,,null,,,,
null,"<img src=""stim_listB/touch2.gif""style=""height:400px;""></stim_listB>",,html-keyboard-response,226,2035379,0.0-15.0-1.19,57755,List2B,black,man,,,,null,,,,
null,are touching each other,,html-keyboard-response,227,2037384,0.0-15.0-2.19,57755,List2B,black,man,,,,null,,,,
28126,,,survey-text,228,2065515,0.0-15.0-3.19,57755,List2B,black,man,,,,,"{""Q0"":""luke and ruth are touching eachother.""}","<img src=""stim_listB/touch2.gif""style=""height:400px;""></stim_listB>",are touching each other,
22771,"<img src='img/portrait_matrix_list2.jpg' style='width:900px;height:500px;''></img><p>If you have memorised all the portraits and names and are ready to start, press Continue.</p><p><strong>Please note: Your memory of these faces will be tested 4 times during this experiment.</strong></p>",0,html-button-response,229,2088293,0.0-16.0-0.0,57755,List2B,black,man,,,,,,,,
12366,"<img src=""portrait/WW1.jpg""style=""height:400px;""></img>",1,html-button-response,230,2101672,0.0-16.0-1.0,57755,List2B,black,man,,TRUE,1,,,,,
null,CORRECT,,html-keyboard-response,231,2103180,0.0-16.0-2.0-0.0,57755,List2B,black,man,,,,null,,,,
2065,"<img src=""portrait/WM1.jpg""style=""height:400px;""></img>",6,html-button-response,232,2105253,0.0-16.0-4.0,57755,List2B,black,man,,TRUE,6,,,,,
null,CORRECT,,html-keyboard-response,233,2106760,0.0-16.0-5.0-0.0,57755,List2B,black,man,,,,null,,,,
2007,"<img src=""portrait/BM2.jpg""style=""height:400px;""></img>",5,html-button-response,234,2108773,0.0-16.0-7.0,57755,List2B,black,man,,TRUE,5,,,,,
null,CORRECT,,html-keyboard-response,235,2110280,0.0-16.0-8.0-0.0,57755,List2B,black,man,,,,null,,,,
12489,"<img src=""portrait/BW1.jpg""style=""height:400px;""></img>",0,html-button-response,236,2122774,0.0-16.0-10.0,57755,List2B,black,man,,TRUE,0,,,,,
null,CORRECT,,html-keyboard-response,237,2124290,0.0-16.0-11.0-0.0,57755,List2B,black,man,,,,null,,,,
7974,"<img src=""portrait/BW2.jpg""style=""height:400px;""></img>",2,html-button-response,238,2132272,0.0-16.0-13.0,57755,List2B,black,man,,TRUE,2,,,,,
null,CORRECT,,html-keyboard-response,239,2133780,0.0-16.0-14.0-0.0,57755,List2B,black,man,,,,null,,,,
8461,"<img src=""portrait/WM2.jpg""style=""height:400px;""></img>",7,html-button-response,240,2142250,0.0-16.0-16.0,57755,List2B,black,man,,TRUE,7,,,,,
null,CORRECT,,html-keyboard-response,241,2143759,0.0-16.0-17.0-0.0,57755,List2B,black,man,,,,null,,,,
4766,"<img src=""portrait/BM1.jpg""style=""height:400px;""></img>",4,html-button-response,242,2148532,0.0-16.0-19.0,57755,List2B,black,man,,TRUE,4,,,,,
null,CORRECT,,html-keyboard-response,243,2150044,0.0-16.0-20.0-0.0,57755,List2B,black,man,,,,null,,,,
11324,"<img src=""portrait/WW2.jpg""style=""height:400px;""></img>",3,html-button-response,244,2161375,0.0-16.0-22.0,57755,List2B,black,man,,TRUE,3,,,,,
null,CORRECT,,html-keyboard-response,245,2162887,0.0-16.0-23.0-0.0,57755,List2B,black,man,,,,null,,,,
6127,<p>You got 8 out of 8 right first time. Press Continue.</p>,0,html-button-response,246,2169019,0.0-16.0-25.0,57755,List2B,black,man,,,,,,,,
null,"<div style=""font-size:60px;"">+</div>",,html-keyboard-response,247,2170530,0.0-17.0-0.0,57755,List2B,black,man,,,,null,,,,
null,"<img src=""stim_listB/argue7.gif""style=""height:400px;""></stim_listB>",,html-keyboard-response,248,2172535,0.0-17.0-1.0,57755,List2B,black,man,,,,null,,,,
null,is arguing with,,html-keyboard-response,249,2174543,0.0-17.0-2.0,57755,List2B,black,man,,,,null,,,,
44022,,,survey-text,250,2218569,0.0-17.0-3.0,57755,List2B,black,man,,,,,"{""Q0"":""jane is arguing with beth""}","<img src=""stim_listB/argue7.gif""style=""height:400px;""></stim_listB>",is arguing with,
null,"<div style=""font-size:60px;"">+</div>",,html-keyboard-response,251,2219075,0.0-17.0-0.1,57755,List2B,black,man,,,,null,,,,
null,"<img src=""stim_listB/touch6.gif""style=""height:400px;""></stim_listB>",,html-keyboard-response,252,2221083,0.0-17.0-1.1,57755,List2B,black,man,,,,null,,,,
null,are touching each other,,html-keyboard-response,253,2223091,0.0-17.0-2.1,57755,List2B,black,man,,,,null,,,,
23397,,,survey-text,254,2246491,0.0-17.0-3.1,57755,List2B,black,man,,,,,"{""Q0"":""luke and fred are touching each other""}","<img src=""stim_listB/touch6.gif""style=""height:400px;""></stim_listB>",are touching each other,
null,"<div style=""font-size:60px;"">+</div>",,html-keyboard-response,255,2247002,0.0-17.0-0.2,57755,List2B,black,man,,,,null,,,,
null,"<img src=""stim_listB/fight7.gif""style=""height:400px;""></stim_listB>",,html-keyboard-response,256,2249009,0.0-17.0-1.2,57755,List2B,black,man,,,,null,,,,
null,is fighting,,html-keyboard-response,257,2251017,0.0-17.0-2.2,57755,List2B,black,man,,,,null,,,,
17198,,,survey-text,258,2268219,0.0-17.0-3.2,57755,List2B,black,man,,,,,"{""Q0"":""jane and kate is fighting.""}","<img src=""stim_listB/fight7.gif""style=""height:400px;""></stim_listB>",is fighting,
null,"<div style=""font-size:60px;"">+</div>",,html-keyboard-response,259,2268731,0.0-17.0-0.3,57755,List2B,black,man,,,,null,,,,
null,"<img src=""stim_listB/shout4.gif""style=""height:400px;""></stim_listB>",,html-keyboard-response,260,2270737,0.0-17.0-1.3,57755,List2B,black,man,,,,null,,,,
null,are shouting at each other,,html-keyboard-response,261,2272745,0.0-17.0-2.3,57755,List2B,black,man,,,,null,,,,
17412,,,survey-text,262,2290162,0.0-17.0-3.3,57755,List2B,black,man,,,,,"{""Q0"":""mike and kate are shouting at each other.""}","<img src=""stim_listB/shout4.gif""style=""height:400px;""></stim_listB>",are shouting at each other,
null,"<div style=""font-size:60px;"">+</div>",,html-keyboard-response,263,2290671,0.0-17.0-0.4,57755,List2B,black,man,,,,null,,,,
null,"<img src=""stim_listB/dance2.gif""style=""height:400px;""></stim_listB>",,html-keyboard-response,264,2292678,0.0-17.0-1.4,57755,List2B,black,man,,,,null,,,,
null,are dancing with each other,,html-keyboard-response,265,2294692,0.0-17.0-2.4,57755,List2B,black,man,,,,null,,,,
22319,,,survey-text,266,2317013,0.0-17.0-3.4,57755,List2B,black,man,,,,,"{""Q0"":""ruth and dave are dancing with each other.""}","<img src=""stim_listB/dance2.gif""style=""height:400px;""></stim_listB>",are dancing with each other,
null,"<div style=""font-size:60px;"">+</div>",,html-keyboard-response,267,2317523,0.0-17.0-0.5,57755,List2B,black,man,,,,null,,,,
null,"<img src=""stim_listB/marry4.gif""style=""height:400px;""></stim_listB>",,html-keyboard-response,268,2319529,0.0-17.0-1.5,57755,List2B,black,man,,,,null,,,,
null,are marrying each other,,html-keyboard-response,269,2321537,0.0-17.0-2.5,57755,List2B,black,man,,,,null,,,,
18534,,,survey-text,270,2340074,0.0-17.0-3.5,57755,List2B,black,man,,,,,"{""Q0"":""kate and fred are marrying each other.""}","<img src=""stim_listB/marry4.gif""style=""height:400px;""></stim_listB>",are marrying each other,
null,"<div style=""font-size:60px;"">+</div>",,html-keyboard-response,271,2340580,0.0-17.0-0.6,57755,List2B,black,man,,,,null,,,,
null,"<img src=""stim_listB/flirt4.gif""style=""height:400px;""></stim_listB>",,html-keyboard-response,272,2342588,0.0-17.0-1.6,57755,List2B,black,man,,,,null,,,,
null,are flirting with each other,,html-keyboard-response,273,2344597,0.0-17.0-2.6,57755,List2B,black,man,,,,null,,,,
20919,,,survey-text,274,2365520,0.0-17.0-3.6,57755,List2B,black,man,,,,,"{""Q0"":""mike and kate are flirting with each other.""}","<img src=""stim_listB/flirt4.gif""style=""height:400px;""></stim_listB>",are flirting with each other,
null,"<div style=""font-size:60px;"">+</div>",,html-keyboard-response,275,2366028,0.0-17.0-0.7,57755,List2B,black,man,,,,null,,,,
null,"<img src=""stim_listB/marry3.gif""style=""height:400px;""></stim_listB>",,html-keyboard-response,276,2368033,0.0-17.0-1.7,57755,List2B,black,man,,,,null,,,,
null,is marrying,,html-keyboard-response,277,2370037,0.0-17.0-2.7,57755,List2B,black,man,,,,null,,,,
20540,,,survey-text,278,2390581,0.0-17.0-3.7,57755,List2B,black,man,,,,,"{""Q0"":""mike is marrying beth.""}","<img src=""stim_listB/marry3.gif""style=""height:400px;""></stim_listB>",is marrying,
null,"<div style=""font-size:60px;"">+</div>",,html-keyboard-response,279,2391090,0.0-17.0-0.8,57755,List2B,black,man,,,,null,,,,
null,"<img src=""stim_listB/shout8.gif""style=""height:400px;""></stim_listB>",,html-keyboard-response,280,2393094,0.0-17.0-1.8,57755,List2B,black,man,,,,null,,,,
null,are shouting at each other,,html-keyboard-response,281,2395103,0.0-17.0-2.8,57755,List2B,black,man,,,,null,,,,
50614,,,survey-text,282,2445722,0.0-17.0-3.8,57755,List2B,black,man,,,,,"{""Q0"":""jane and kate are shouting at each other.""}","<img src=""stim_listB/shout8.gif""style=""height:400px;""></stim_listB>",are shouting at each other,
null,"<div style=""font-size:60px;"">+</div>",,html-keyboard-response,283,2446231,0.0-17.0-0.9,57755,List2B,black,man,,,,null,,,,
null,"<img src=""stim_listB/play7.gif""style=""height:400px;""></stim_listB>",,html-keyboard-response,284,2448238,0.0-17.0-1.9,57755,List2B,black,man,,,,null,,,,
null,is playing with,,html-keyboard-response,285,2450244,0.0-17.0-2.9,57755,List2B,black,man,,,,null,,,,
17038,,,survey-text,286,2467285,0.0-17.0-3.9,57755,List2B,black,man,,,,,"{""Q0"":""jane is playing with kate.""}","<img src=""stim_listB/play7.gif""style=""height:400px;""></stim_listB>",is playing with,
null,"<div style=""font-size:60px;"">+</div>",,html-keyboard-response,287,2467796,0.0-17.0-0.10,57755,List2B,black,man,,,,null,,,,
null,"<img src=""stim_listB/talk3.gif""style=""height:400px;""></stim_listB>",,html-keyboard-response,288,2469800,0.0-17.0-1.10,57755,List2B,black,man,,,,null,,,,
null,is talking to,,html-keyboard-response,289,2471805,0.0-17.0-2.10,57755,List2B,black,man,,,,null,,,,
11915,,,survey-text,290,2483723,0.0-17.0-3.10,57755,List2B,black,man,,,,,"{""Q0"":""kate is talking to fred.""}","<img src=""stim_listB/talk3.gif""style=""height:400px;""></stim_listB>",is talking to,
null,"<div style=""font-size:60px;"">+</div>",,html-keyboard-response,291,2484233,0.0-17.0-0.11,57755,List2B,black,man,,,,null,,,,
null,"<img src=""stim_listB/flirt5.gif""style=""height:400px;""></stim_listB>",,html-keyboard-response,292,2486241,0.0-17.0-1.11,57755,List2B,black,man,,,,null,,,,
null,is flirting with,,html-keyboard-response,293,2488251,0.0-17.0-2.11,57755,List2B,black,man,,,,null,,,,
10029,,,survey-text,294,2498284,0.0-17.0-3.11,57755,List2B,black,man,,,,,"{""Q0"":""mike is flirting with luke.""}","<img src=""stim_listB/flirt5.gif""style=""height:400px;""></stim_listB>",is flirting with,
null,"<div style=""font-size:60px;"">+</div>",,html-keyboard-response,295,2498794,0.0-17.0-0.12,57755,List2B,black,man,,,,null,,,,
null,"<img src=""stim_listB/marry1.gif""style=""height:400px;""></stim_listB>",,html-keyboard-response,296,2500800,0.0-17.0-1.12,57755,List2B,black,man,,,,null,,,,
null,is marrying,,html-keyboard-response,297,2502805,0.0-17.0-2.12,57755,List2B,black,man,,,,null,,,,
31641,,,survey-text,298,2534451,0.0-17.0-3.12,57755,List2B,black,man,,,,,"{""Q0"":""dave is marrying mike""}","<img src=""stim_listB/marry1.gif""style=""height:400px;""></stim_listB>",is marrying,
null,"<div style=""font-size:60px;"">+</div>",,html-keyboard-response,299,2534957,0.0-17.0-0.13,57755,List2B,black,man,,,,null,,,,
null,"<img src=""stim_listB/argue1.gif""style=""height:400px;""></stim_listB>",,html-keyboard-response,300,2536964,0.0-17.0-1.13,57755,List2B,black,man,,,,null,,,,
null,is arguing with,,html-keyboard-response,301,2538970,0.0-17.0-2.13,57755,List2B,black,man,,,,null,,,,
46464,,,survey-text,302,2585439,0.0-17.0-3.13,57755,List2B,black,man,,,,,"{""Q0"":""jane is playing with dave""}","<img src=""stim_listB/argue1.gif""style=""height:400px;""></stim_listB>",is arguing with,
null,"<div style=""font-size:60px;"">+</div>",,html-keyboard-response,303,2585944,0.0-17.0-0.14,57755,List2B,black,man,,,,null,,,,
null,"<img src=""stim_listB/marry7.gif""style=""height:400px;""></stim_listB>",,html-keyboard-response,304,2587950,0.0-17.0-1.14,57755,List2B,black,man,,,,null,,,,
null,is marrying,,html-keyboard-response,305,2589957,0.0-17.0-2.14,57755,List2B,black,man,,,,null,,,,
14261,,,survey-text,306,2604221,0.0-17.0-3.14,57755,List2B,black,man,,,,,"{""Q0"":""beth is marrying jane""}","<img src=""stim_listB/marry7.gif""style=""height:400px;""></stim_listB>",is marrying,
null,"<div style=""font-size:60px;"">+</div>",,html-keyboard-response,307,2604731,0.0-17.0-0.15,57755,List2B,black,man,,,,null,,,,
null,"<img src=""stim_listB/touch1.gif""style=""height:400px;""></stim_listB>",,html-keyboard-response,308,2606736,0.0-17.0-1.15,57755,List2B,black,man,,,,null,,,,
null,is touching,,html-keyboard-response,309,2608744,0.0-17.0-2.15,57755,List2B,black,man,,,,null,,,,
118453,,,survey-text,310,2727201,0.0-17.0-3.15,57755,List2B,black,man,,,,,"{""Q0"":""jane is touching dave""}","<img src=""stim_listB/touch1.gif""style=""height:400px;""></stim_listB>",is touching,
null,"<div style=""font-size:60px;"">+</div>",,html-keyboard-response,311,2727710,0.0-17.0-0.16,57755,List2B,black,man,,,,null,,,,
null,"<img src=""stim_listB/dance7.gif""style=""height:400px;""></stim_listB>",,html-keyboard-response,312,2729716,0.0-17.0-1.16,57755,List2B,black,man,,,,null,,,,
null,is dancing with,,html-keyboard-response,313,2731725,0.0-17.0-2.16,57755,List2B,black,man,,,,null,,,,
28149,,,survey-text,314,2759878,0.0-17.0-3.16,57755,List2B,black,man,,,,,"{""Q0"":""kate is dancing with ruth""}","<img src=""stim_listB/dance7.gif""style=""height:400px;""></stim_listB>",is dancing with,
null,"<div style=""font-size:60px;"">+</div>",,html-keyboard-response,315,2760391,0.0-17.0-0.17,57755,List2B,black,man,,,,null,,,,
null,"<img src=""stim_listB/dance6.gif""style=""height:400px;""></stim_listB>",,html-keyboard-response,316,2762398,0.0-17.0-1.17,57755,List2B,black,man,,,,null,,,,
null,are dancing with each other,,html-keyboard-response,317,2764404,0.0-17.0-2.17,57755,List2B,black,man,,,,null,,,,
20312,,,survey-text,318,2784719,0.0-17.0-3.17,57755,List2B,black,man,,,,,"{""Q0"":""fred and dave are dancing with each other.""}","<img src=""stim_listB/dance6.gif""style=""height:400px;""></stim_listB>",are dancing with each other,
null,"<div style=""font-size:60px;"">+</div>",,html-keyboard-response,319,2785231,0.0-17.0-0.18,57755,List2B,black,man,,,,null,,,,
null,"<img src=""stim_listB/kiss6.gif""style=""height:400px;""></stim_listB>",,html-keyboard-response,320,2787236,0.0-17.0-1.18,57755,List2B,black,man,,,,null,,,,
null,are kissing each other,,html-keyboard-response,321,2789244,0.0-17.0-2.18,57755,List2B,black,man,,,,null,,,,
18919,,,survey-text,322,2808167,0.0-17.0-3.18,57755,List2B,black,man,,,,,"{""Q0"":""mike and dave are kissing each other ""}","<img src=""stim_listB/kiss6.gif""style=""height:400px;""></stim_listB>",are kissing each other,
null,"<div style=""font-size:60px;"">+</div>",,html-keyboard-response,323,2808675,0.0-17.0-0.19,57755,List2B,black,man,,,,null,,,,
null,"<img src=""stim_listB/kiss7.gif""style=""height:400px;""></stim_listB>",,html-keyboard-response,324,2810684,0.0-17.0-1.19,57755,List2B,black,man,,,,null,,,,
null,is kissing,,html-keyboard-response,325,2812694,0.0-17.0-2.19,57755,List2B,black,man,,,,null,,,,
32137,,,survey-text,326,2844835,0.0-17.0-3.19,57755,List2B,black,man,,,,,"{""Q0"":""beth is kissing ruth""}","<img src=""stim_listB/kiss7.gif""style=""height:400px;""></stim_listB>",is kissing,
2704,"<img src='img/portrait_matrix_list2.jpg' style='width:900px;height:500px;''></img><p>If you have memorised all the portraits and names and are ready to start, press Continue.</p><p><strong>Please note: Your memory of these faces will be tested 4 times during this experiment.</strong></p>",0,html-button-response,327,2847547,0.0-18.0-0.0,57755,List2B,black,man,,,,,,,,
2772,"<img src=""portrait/WM2.jpg""style=""height:400px;""></img>",7,html-button-response,328,2851327,0.0-18.0-1.0,57755,List2B,black,man,,TRUE,7,,,,,
null,CORRECT,,html-keyboard-response,329,2852838,0.0-18.0-2.0-0.0,57755,List2B,black,man,,,,null,,,,
3094,"<img src=""portrait/BM2.jpg""style=""height:400px;""></img>",5,html-button-response,330,2855939,0.0-18.0-4.0,57755,List2B,black,man,,TRUE,5,,,,,
null,CORRECT,,html-keyboard-response,331,2857449,0.0-18.0-5.0-0.0,57755,List2B,black,man,,,,null,,,,
10437,"<img src=""portrait/WW2.jpg""style=""height:400px;""></img>",3,html-button-response,332,2867890,0.0-18.0-7.0,57755,List2B,black,man,,TRUE,3,,,,,
null,CORRECT,,html-keyboard-response,333,2869400,0.0-18.0-8.0-0.0,57755,List2B,black,man,,,,null,,,,
3915,"<img src=""portrait/BM1.jpg""style=""height:400px;""></img>",4,html-button-response,334,2873322,0.0-18.0-10.0,57755,List2B,black,man,,TRUE,4,,,,,
null,CORRECT,,html-keyboard-response,335,2874837,0.0-18.0-11.0-0.0,57755,List2B,black,man,,,,null,,,,
7831,"<img src=""portrait/BW2.jpg""style=""height:400px;""></img>",2,html-button-response,336,2882674,0.0-18.0-13.0,57755,List2B,black,man,,TRUE,2,,,,,
null,CORRECT,,html-keyboard-response,337,2884181,0.0-18.0-14.0-0.0,57755,List2B,black,man,,,,null,,,,
12954,"<img src=""portrait/WM1.jpg""style=""height:400px;""></img>",6,html-button-response,338,2897141,0.0-18.0-16.0,57755,List2B,black,man,,TRUE,6,,,,,
null,CORRECT,,html-keyboard-response,339,2898657,0.0-18.0-17.0-0.0,57755,List2B,black,man,,,,null,,,,
9541,"<img src=""portrait/BW1.jpg""style=""height:400px;""></img>",0,html-button-response,340,2908204,0.0-18.0-19.0,57755,List2B,black,man,,TRUE,0,,,,,
null,CORRECT,,html-keyboard-response,341,2909717,0.0-18.0-20.0-0.0,57755,List2B,black,man,,,,null,,,,
7373,"<img src=""portrait/WW1.jpg""style=""height:400px;""></img>",1,html-button-response,342,2917096,0.0-18.0-22.0,57755,List2B,black,man,,TRUE,1,,,,,
null,CORRECT,,html-keyboard-response,343,2918608,0.0-18.0-23.0-0.0,57755,List2B,black,man,,,,null,,,,
2189,<p>You got 8 out of 8 right first time. Press Continue.</p>,0,html-button-response,344,2920802,0.0-18.0-25.0,57755,List2B,black,man,,,,,,,,
null,"<div style=""font-size:60px;"">+</div>",,html-keyboard-response,345,2922311,0.0-19.0-0.0,57755,List2B,black,man,,,,null,,,,
null,"<img src=""stim_listB/play5.gif""style=""height:400px;""></stim_listB>",,html-keyboard-response,346,2924315,0.0-19.0-1.0,57755,List2B,black,man,,,,null,,,,
null,is playing with,,html-keyboard-response,347,2926324,0.0-19.0-2.0,57755,List2B,black,man,,,,null,,,,
9432,,,survey-text,348,2935760,0.0-19.0-3.0,57755,List2B,black,man,,,,,"{""Q0"":""mike is playing with dave""}","<img src=""stim_listB/play5.gif""style=""height:400px;""></stim_listB>",is playing with,
null,"<div style=""font-size:60px;"">+</div>",,html-keyboard-response,349,2936271,0.0-19.0-0.1,57755,List2B,black,man,,,,null,,,,
null,"<img src=""stim_listB/talk4.gif""style=""height:400px;""></stim_listB>",,html-keyboard-response,350,2938279,0.0-19.0-1.1,57755,List2B,black,man,,,,null,,,,
null,are talking to each other,,html-keyboard-response,351,2940285,0.0-19.0-2.1,57755,List2B,black,man,,,,null,,,,
17287,,,survey-text,352,2957576,0.0-19.0-3.1,57755,List2B,black,man,,,,,"{""Q0"":""mike and beth are talking to each other""}","<img src=""stim_listB/talk4.gif""style=""height:400px;""></stim_listB>",are talking to each other,
null,"<div style=""font-size:60px;"">+</div>",,html-keyboard-response,353,2958084,0.0-19.0-0.2,57755,List2B,black,man,,,,null,,,,
null,"<img src=""stim_listB/play3.gif""style=""height:400px;""></stim_listB>",,html-keyboard-response,354,2960092,0.0-19.0-1.2,57755,List2B,black,man,,,,null,,,,
null,is playing with,,html-keyboard-response,355,2962097,0.0-19.0-2.2,57755,List2B,black,man,,,,null,,,,
13916,,,survey-text,356,2976016,0.0-19.0-3.2,57755,List2B,black,man,,,,,"{""Q0"":""mike is playing with kate""}","<img src=""stim_listB/play3.gif""style=""height:400px;""></stim_listB>",is playing with,
null,"<div style=""font-size:60px;"">+</div>",,html-keyboard-response,357,2976529,0.0-19.0-0.3,57755,List2B,black,man,,,,null,,,,
null,"<img src=""stim_listB/talk8.gif""style=""height:400px;""></stim_listB>",,html-keyboard-response,358,2978535,0.0-19.0-1.3,57755,List2B,black,man,,,,null,,,,
null,are talking to each other,,html-keyboard-response,359,2980540,0.0-19.0-2.3,57755,List2B,black,man,,,,null,,,,
28575,,,survey-text,360,3009118,0.0-19.0-3.3,57755,List2B,black,man,,,,,"{""Q0"":""beth and kate are playing with each other ""}","<img src=""stim_listB/talk8.gif""style=""height:400px;""></stim_listB>",are talking to each other,
null,"<div style=""font-size:60px;"">+</div>",,html-keyboard-response,361,3009631,0.0-19.0-0.4,57755,List2B,black,man,,,,null,,,,
null,"<img src=""stim_listB/dance1.gif""style=""height:400px;""></stim_listB>",,html-keyboard-response,362,3011638,0.0-19.0-1.4,57755,List2B,black,man,,,,null,,,,
null,is dancing with,,html-keyboard-response,363,3013645,0.0-19.0-2.4,57755,List2B,black,man,,,,null,,,,
11683,,,survey-text,364,3025332,0.0-19.0-3.4,57755,List2B,black,man,,,,,"{""Q0"":""luke is dancing with jane ""}","<img src=""stim_listB/dance1.gif""style=""height:400px;""></stim_listB>",is dancing with,
null,"<div style=""font-size:60px;"">+</div>",,html-keyboard-response,365,3025837,0.0-19.0-0.5,57755,List2B,black,man,,,,null,,,,
null,"<img src=""stim_listB/kiss3.gif""style=""height:400px;""></stim_listB>",,html-keyboard-response,366,3027844,0.0-19.0-1.5,57755,List2B,black,man,,,,null,,,,
null,is kissing,,html-keyboard-response,367,3029851,0.0-19.0-2.5,57755,List2B,black,man,,,,null,,,,
11094,,,survey-text,368,3040949,0.0-19.0-3.5,57755,List2B,black,man,,,,,"{""Q0"":""beth is kissing fred""}","<img src=""stim_listB/kiss3.gif""style=""height:400px;""></stim_listB>",is kissing,
null,"<div style=""font-size:60px;"">+</div>",,html-keyboard-response,369,3041456,0.0-19.0-0.6,57755,List2B,black,man,,,,null,,,,
null,"<img src=""stim_listB/kiss2.gif""style=""height:400px;""></stim_listB>",,html-keyboard-response,370,3043462,0.0-19.0-1.6,57755,List2B,black,man,,,,null,,,,
null,are kissing each other,,html-keyboard-response,371,3045471,0.0-19.0-2.6,57755,List2B,black,man,,,,null,,,,
18348,,,survey-text,372,3063822,0.0-19.0-3.6,57755,List2B,black,man,,,,,"{""Q0"":""jane and dave are kissing eachother""}","<img src=""stim_listB/kiss2.gif""style=""height:400px;""></stim_listB>",are kissing each other,
null,"<div style=""font-size:60px;"">+</div>",,html-keyboard-response,373,3064331,0.0-19.0-0.7,57755,List2B,black,man,,,,null,,,,
null,"<img src=""stim_listB/fight2.gif""style=""height:400px;""></stim_listB>",,html-keyboard-response,374,3066341,0.0-19.0-1.7,57755,List2B,black,man,,,,null,,,,
null,are fighting each other,,html-keyboard-response,375,3068351,0.0-19.0-2.7,57755,List2B,black,man,,,,null,,,,
23439,,,survey-text,376,3091794,0.0-19.0-3.7,57755,List2B,black,man,,,,,"{""Q0"":""ruth and dave are fighting eachother.""}","<img src=""stim_listB/fight2.gif""style=""height:400px;""></stim_listB>",are fighting each other,
null,"<div style=""font-size:60px;"">+</div>",,html-keyboard-response,377,3092299,0.0-19.0-0.8,57755,List2B,black,man,,,,null,,,,
null,"<img src=""stim_listB/marry5.gif""style=""height:400px;""></stim_listB>",,html-keyboard-response,378,3094303,0.0-19.0-1.8,57755,List2B,black,man,,,,null,,,,
null,is marrying,,html-keyboard-response,379,3096307,0.0-19.0-2.8,57755,List2B,black,man,,,,null,,,,
10608,,,survey-text,380,3106918,0.0-19.0-3.8,57755,List2B,black,man,,,,,"{""Q0"":""fred is marrying dave ""}","<img src=""stim_listB/marry5.gif""style=""height:400px;""></stim_listB>",is marrying,
null,"<div style=""font-size:60px;"">+</div>",,html-keyboard-response,381,3107431,0.0-19.0-0.9,57755,List2B,black,man,,,,null,,,,
null,"<img src=""stim_listB/fight4.gif""style=""height:400px;""></stim_listB>",,html-keyboard-response,382,3109435,0.0-19.0-1.9,57755,List2B,black,man,,,,null,,,,
null,are fighting each other,,html-keyboard-response,383,3111444,0.0-19.0-2.9,57755,List2B,black,man,,,,null,,,,
64707,,,survey-text,384,3176155,0.0-19.0-3.9,57755,List2B,black,man,,,,,"{""Q0"":""luke and dave is playing ""}","<img src=""stim_listB/fight4.gif""style=""height:400px;""></stim_listB>",are fighting each other,
null,"<div style=""font-size:60px;"">+</div>",,html-keyboard-response,385,3176664,0.0-19.0-0.10,57755,List2B,black,man,,,,null,,,,
null,"<img src=""stim_listB/flirt8.gif""style=""height:400px;""></stim_listB>",,html-keyboard-response,386,3178669,0.0-19.0-1.10,57755,List2B,black,man,,,,null,,,,
null,are flirting with each other,,html-keyboard-response,387,3180677,0.0-19.0-2.10,57755,List2B,black,man,,,,null,,,,
61081,,,survey-text,388,3241764,0.0-19.0-3.10,57755,List2B,black,man,,,,,"{""Q0"":""jane and bethare flirting with each other ""}","<img src=""stim_listB/flirt8.gif""style=""height:400px;""></stim_listB>",are flirting with each other,
null,"<div style=""font-size:60px;"">+</div>",,html-keyboard-response,389,3242277,0.0-19.0-0.11,57755,List2B,black,man,,,,null,,,,
null,"<img src=""stim_listB/kiss8.gif""style=""height:400px;""></stim_listB>",,html-keyboard-response,390,3244283,0.0-19.0-1.11,57755,List2B,black,man,,,,null,,,,
null,are kissing each other,,html-keyboard-response,391,3246290,0.0-19.0-2.11,57755,List2B,black,man,,,,null,,,,
22754,,,survey-text,392,3269047,0.0-19.0-3.11,57755,List2B,black,man,,,,,"{""Q0"":""jane and kate are kissing eachother""}","<img src=""stim_listB/kiss8.gif""style=""height:400px;""></stim_listB>",are kissing each other,
null,"<div style=""font-size:60px;"">+</div>",,html-keyboard-response,393,3269561,0.0-19.0-0.12,57755,List2B,black,man,,,,null,,,,
null,"<img src=""stim_listB/shout1.gif""style=""height:400px;""></stim_listB>",,html-keyboard-response,394,3271566,0.0-19.0-1.12,57755,List2B,black,man,,,,null,,,,
null,is shouting at,,html-keyboard-response,395,3273571,0.0-19.0-2.12,57755,List2B,black,man,,,,null,,,,
17755,,,survey-text,396,3291330,0.0-19.0-3.12,57755,List2B,black,man,,,,,"{""Q0"":""ruth is shouting at luke""}","<img src=""stim_listB/shout1.gif""style=""height:400px;""></stim_listB>",is shouting at,
null,"<div style=""font-size:60px;"">+</div>",,html-keyboard-response,397,3291844,0.0-19.0-0.13,57755,List2B,black,man,,,,null,,,,
null,"<img src=""stim_listB/dance5.gif""style=""height:400px;""></stim_listB>",,html-keyboard-response,398,3293850,0.0-19.0-1.13,57755,List2B,black,man,,,,null,,,,
null,is dancing with,,html-keyboard-response,399,3295857,0.0-19.0-2.13,57755,List2B,black,man,,,,null,,,,
8831,,,survey-text,400,3304692,0.0-19.0-3.13,57755,List2B,black,man,,,,,"{""Q0"":""mike is dancing with luke""}","<img src=""stim_listB/dance5.gif""style=""height:400px;""></stim_listB>",is dancing with,
null,"<div style=""font-size:60px;"">+</div>",,html-keyboard-response,401,3305204,0.0-19.0-0.14,57755,List2B,black,man,,,,null,,,,
null,"<img src=""stim_listB/argue6.gif""style=""height:400px;""></stim_listB>",,html-keyboard-response,402,3307210,0.0-19.0-1.14,57755,List2B,black,man,,,,null,,,,
null,are arguing with each other,,html-keyboard-response,403,3309217,0.0-19.0-2.14,57755,List2B,black,man,,,,null,,,,
28065,,,survey-text,404,3337287,0.0-19.0-3.14,57755,List2B,black,man,,,,,"{""Q0"":""mike and luke are arguing with each other""}","<img src=""stim_listB/argue6.gif""style=""height:400px;""></stim_listB>",are arguing with each other,
null,"<div style=""font-size:60px;"">+</div>",,html-keyboard-response,405,3337795,0.0-19.0-0.15,57755,List2B,black,man,,,,null,,,,
null,"<img src=""stim_listB/talk1.gif""style=""height:400px;""></stim_listB>",,html-keyboard-response,406,3339801,0.0-19.0-1.15,57755,List2B,black,man,,,,null,,,,
null,is talking to,,html-keyboard-response,407,3341812,0.0-19.0-2.15,57755,List2B,black,man,,,,null,,,,
15637,,,survey-text,408,3357453,0.0-19.0-3.15,57755,List2B,black,man,,,,,"{""Q0"":""luke is talkig to jane""}","<img src=""stim_listB/talk1.gif""style=""height:400px;""></stim_listB>",is talking to,
null,"<div style=""font-size:60px;"">+</div>",,html-keyboard-response,409,3357959,0.0-19.0-0.16,57755,List2B,black,man,,,,null,,,,
null,"<img src=""stim_listB/fight1.gif""style=""height:400px;""></stim_listB>",,html-keyboard-response,410,3359965,0.0-19.0-1.16,57755,List2B,black,man,,,,null,,,,
null,is fighting,,html-keyboard-response,411,3361970,0.0-19.0-2.16,57755,List2B,black,man,,,,null,,,,
11289,,,survey-text,412,3373264,0.0-19.0-3.16,57755,List2B,black,man,,,,,"{""Q0"":""jane is fighting dave ""}","<img src=""stim_listB/fight1.gif""style=""height:400px;""></stim_listB>",is fighting,
null,"<div style=""font-size:60px;"">+</div>",,html-keyboard-response,413,3373771,0.0-19.0-0.17,57755,List2B,black,man,,,,null,,,,
null,"<img src=""stim_listB/play8.gif""style=""height:400px;""></stim_listB>",,html-keyboard-response,414,3375779,0.0-19.0-1.17,57755,List2B,black,man,,,,null,,,,
null,are playing with each other,,html-keyboard-response,415,3377784,0.0-19.0-2.17,57755,List2B,black,man,,,,null,,,,
25685,,,survey-text,416,3403472,0.0-19.0-3.17,57755,List2B,black,man,,,,,"{""Q0"":""ruth and kate are playing with eachother""}","<img src=""stim_listB/play8.gif""style=""height:400px;""></stim_listB>",are playing with each other,
null,"<div style=""font-size:60px;"">+</div>",,html-keyboard-response,417,3403977,0.0-19.0-0.18,57755,List2B,black,man,,,,null,,,,
null,"<img src=""stim_listB/kiss1.gif""style=""height:400px;""></stim_listB>",,html-keyboard-response,418,3405983,0.0-19.0-1.18,57755,List2B,black,man,,,,null,,,,
null,is kissing,,html-keyboard-response,419,3407989,0.0-19.0-2.18,57755,List2B,black,man,,,,null,,,,
20091,,,survey-text,420,3428087,0.0-19.0-3.18,57755,List2B,black,man,,,,,"{""Q0"":""luke is kissing jane""}","<img src=""stim_listB/kiss1.gif""style=""height:400px;""></stim_listB>",is kissing,
null,"<div style=""font-size:60px;"">+</div>",,html-keyboard-response,421,3428598,0.0-19.0-0.19,57755,List2B,black,man,,,,null,,,,
null,"<img src=""stim_listB/flirt7.gif""style=""height:400px;""></stim_listB>",,html-keyboard-response,422,3430603,0.0-19.0-1.19,57755,List2B,black,man,,,,null,,,,
null,is flirting with,,html-keyboard-response,423,3432609,0.0-19.0-2.19,57755,List2B,black,man,,,,null,,,,
24184,,,survey-text,424,3456796,0.0-19.0-3.19,57755,List2B,black,man,,,,,"{""Q0"":""ruth is flirting with jane""}","<img src=""stim_listB/flirt7.gif""style=""height:400px;""></stim_listB>",is flirting with,
8250,<p>Thank you for completing that task.</p><p>The final part of this session is a short questionnaire.</p><p>Press Continue.</p>,0,html-button-response,425,3465053,0.0-20.0,57755,List2B,black,man,,,,,,,,
94517,,,survey-text,426,3560584,0.0-21.0,57755,List2B,black,man,,,,,"{""Q0"":""28"",""Q1"":""English"",""Q2"":""English"",""Q3"":""United States of America"",""Q4"":""Black"",""Q5"":""Male""}",,,demographics
12915,,,survey-likert,427,3573515,0.0-22.0,57755,List2B,black,man,,,,,"{""Q0"":4}",,,likert_ESS
32163,,,survey-likert,428,3605686,0.0-23.0,57755,List2B,black,man,,,,,"{""Q0"":4}",,,likert_NSSAL_Q1
6511,,,survey-likert,429,3612205,0.0-24.0,57755,List2B,black,man,,,,,"{""Q0"":4}",,,likert_NSSAL_Q2
6976,,,survey-likert,430,3619188,0.0-25.0,57755,List2B,black,man,,,,,"{""Q0"":4}",,,likert_CGRS_Q1
3577,,,survey-likert,431,3622774,0.0-26.0,57755,List2B,black,man,,,,,"{""Q0"":4}",,,likert_CGRS_Q2
3187,,,survey-likert,432,3625970,0.0-27.0,57755,List2B,black,man,,,,,"{""Q0"":4}",,,likert_CGRS_Q3
6561,,,survey-text,433,3632535,0.0-28.0,57755,List2B,black,man,,,,,"{""Q0"":""ccc""}",,,worker_id
77315,,,external-html,434,3710403,0.0-29.0,57755,List2B,black,man,debrief.html,,,,,,,
