rt,stimulus,button_pressed,trial_type,trial_index,time_elapsed,internal_node_id,subject,list,ppt_race,ppt_gender,url,first_guess,correct,key_press,responses,image_type,phrase_type,test_part
2803,Welcome to the experiment. Press Continue to begin.,0,html-button-response,0,2810,0.0-0.0,57920,List2B,white,man,,,,,,,,
70720,,,external-html,1,74599,0.0-1.0,57920,List2B,white,man,consent.html,,,,,,,
11371,"<p>On the next page, you will see portraits of 8 people and their names.</p><p>Your first task is to take a few minutes to memorise the names of these people.</p><p>You will have to recall their names during the rest of the experiment, so it is</p><p>essential that you try to memorise these people and their names as best as you can.</p><br><p><strong>You will then be tested on your memory of these names and portraits.</strong></p><br><p>The experiment will start after you have completed this memory test.</p><br><p>Ready?</p>",0,html-button-response,2,85974,0.0-2.0,57920,List2B,white,man,,,,,,,,
137797,"<img src='img/portrait_matrix_list2.jpg' style='width:900px;height:500px;''></img><p>If you have memorised all the portraits and names and are ready to start, press Continue.</p><p><strong>Please note: Your memory of these faces will be tested 4 times during this experiment.</strong></p>",0,html-button-response,3,224777,0.0-3.0-0.0,57920,List2B,white,man,,,,,,,,
8150,"<img src=""portrait/WW1.jpg""style=""height:400px;""></img>",1,html-button-response,4,233946,0.0-3.0-1.0,57920,List2B,white,man,,TRUE,1,,,,,
null,CORRECT,,html-keyboard-response,5,235472,0.0-3.0-2.0-0.0,57920,List2B,white,man,,,,null,,,,
4381,"<img src=""portrait/WW2.jpg""style=""height:400px;""></img>",3,html-button-response,6,239856,0.0-3.0-4.0,57920,List2B,white,man,,TRUE,3,,,,,
null,CORRECT,,html-keyboard-response,7,241370,0.0-3.0-5.0-0.0,57920,List2B,white,man,,,,null,,,,
4770,"<img src=""portrait/WM2.jpg""style=""height:400px;""></img>",7,html-button-response,8,246144,0.0-3.0-7.0,57920,List2B,white,man,,TRUE,7,,,,,
null,CORRECT,,html-keyboard-response,9,247652,0.0-3.0-8.0-0.0,57920,List2B,white,man,,,,null,,,,
6013,"<img src=""portrait/BW2.jpg""style=""height:400px;""></img>",2,html-button-response,10,253670,0.0-3.0-10.0,57920,List2B,white,man,,TRUE,2,,,,,
null,CORRECT,,html-keyboard-response,11,255175,0.0-3.0-11.0-0.0,57920,List2B,white,man,,,,null,,,,
5020,"<img src=""portrait/WM1.jpg""style=""height:400px;""></img>",6,html-button-response,12,260198,0.0-3.0-13.0,57920,List2B,white,man,,TRUE,6,,,,,
null,CORRECT,,html-keyboard-response,13,261704,0.0-3.0-14.0-0.0,57920,List2B,white,man,,,,null,,,,
4617,"<img src=""portrait/BM2.jpg""style=""height:400px;""></img>",5,html-button-response,14,266326,0.0-3.0-16.0,57920,List2B,white,man,,TRUE,5,,,,,
null,CORRECT,,html-keyboard-response,15,267849,0.0-3.0-17.0-0.0,57920,List2B,white,man,,,,null,,,,
5975,"<img src=""portrait/BM1.jpg""style=""height:400px;""></img>",4,html-button-response,16,273827,0.0-3.0-19.0,57920,List2B,white,man,,TRUE,4,,,,,
null,CORRECT,,html-keyboard-response,17,275339,0.0-3.0-20.0-0.0,57920,List2B,white,man,,,,null,,,,
5749,"<img src=""portrait/BW1.jpg""style=""height:400px;""></img>",0,html-button-response,18,281091,0.0-3.0-22.0,57920,List2B,white,man,,TRUE,0,,,,,
null,CORRECT,,html-keyboard-response,19,282617,0.0-3.0-23.0-0.0,57920,List2B,white,man,,,,null,,,,
2492,<p>You got 8 out of 8 right first time. Press Continue.</p>,0,html-button-response,20,285113,0.0-3.0-25.0,57920,List2B,white,man,,,,,,,,
43015,"<p>In this experiment, you will view photographs of the people from the memory game interacting.</p><p>By using the <strong>exact</strong> phrase given <i>after</i> the photograph appears and recalling the correct names of the people in the photographs, form a sentence describing the interaction. You do not need to capitalise names.</p><p>Type your answer in the space provided. Please complete every sentence before moving onto the next trial.</p><p>You will only have a few seconds to memorise each given photograph and phrase before you can respond, so try your best to focus.</p><p>An example is given below. Press 'Continue' when you are ready.</p><img src='img/speaking_example.jpg' style='width:800px;height:460px;''></img>",0,html-button-response,21,329139,0.0-4.0,57920,List2B,white,man,,,,,,,,
3343,"<p>Before the experiment starts, you will watch two example trials. Press 'Continue'.</p>",0,html-button-response,22,333492,0.0-5.0,57920,List2B,white,man,,,,,,,,
null,<img src='img/meet_eg.gif' style='height:400px;''></img>,,html-keyboard-response,23,336510,0.0-6.0,57920,List2B,white,man,,,,null,,,,
null,<p>is meeting</p>,,html-keyboard-response,24,338523,0.0-7.0,57920,List2B,white,man,,,,null,,,,
5771,<p><b>Answer:</b> jane is meeting ruth</p>,0,html-button-response,25,344298,0.0-8.0,57920,List2B,white,man,,,,,,,,
null,<img src='img/look_eg.gif' style='height:400px;''></img>,,html-keyboard-response,26,347317,0.0-9.0,57920,List2B,white,man,,,,null,,,,
null,<p>are looking at each other</p>,,html-keyboard-response,27,349331,0.0-10.0,57920,List2B,white,man,,,,null,,,,
3643,<p><b>Answer:</b> fred and mike are looking at each other</p>,0,html-button-response,28,352977,0.0-11.0,57920,List2B,white,man,,,,,,,,
7435,"<p>Ready to start the experiment?</p><br><p><strong>Remember to describe the picture using a full sentence,</strong></p><p><strong>that combines the names of the people with the <i>exact</i> phrase given.</strong></p><p><strong>To receive full payment you must do this correctly.</strong></p><p><strong> You do not need to capitalise names or use punctuation.</strong></p><br><p>Press 'Continue' to begin.</p>",0,html-button-response,29,361417,0.0-12.0,57920,List2B,white,man,,,,,,,,
null,"<div style=""font-size:60px;"">+</div>",,html-keyboard-response,30,362944,0.0-13.0-0.0,57920,List2B,white,man,,,,null,,,,
null,"<img src=""stim_listB/flirt6.gif""style=""height:400px;""></stim_listB>",,html-keyboard-response,31,364965,0.0-13.0-1.0,57920,List2B,white,man,,,,null,,,,
null,are flirting with each other,,html-keyboard-response,32,366982,0.0-13.0-2.0,57920,List2B,white,man,,,,null,,,,
20795,,,survey-text,33,387782,0.0-13.0-3.0,57920,List2B,white,man,,,,,"{""Q0"":""Fred and Dave are flirting with each other""}","<img src=""stim_listB/flirt6.gif""style=""height:400px;""></stim_listB>",are flirting with each other,
null,"<div style=""font-size:60px;"">+</div>",,html-keyboard-response,34,388296,0.0-13.0-0.1,57920,List2B,white,man,,,,null,,,,
null,"<img src=""stim_listB/dance8.gif""style=""height:400px;""></stim_listB>",,html-keyboard-response,35,390299,0.0-13.0-1.1,57920,List2B,white,man,,,,null,,,,
null,are dancing with each other,,html-keyboard-response,36,392305,0.0-13.0-2.1,57920,List2B,white,man,,,,null,,,,
16075,,,survey-text,37,408382,0.0-13.0-3.1,57920,List2B,white,man,,,,,"{""Q0"":""Jane and Kate are dancing with each other""}","<img src=""stim_listB/dance8.gif""style=""height:400px;""></stim_listB>",are dancing with each other,
null,"<div style=""font-size:60px;"">+</div>",,html-keyboard-response,38,408896,0.0-13.0-0.2,57920,List2B,white,man,,,,null,,,,
null,"<img src=""stim_listB/flirt4.gif""style=""height:400px;""></stim_listB>",,html-keyboard-response,39,410906,0.0-13.0-1.2,57920,List2B,white,man,,,,null,,,,
null,are flirting with each other,,html-keyboard-response,40,412923,0.0-13.0-2.2,57920,List2B,white,man,,,,null,,,,
27955,,,survey-text,41,440883,0.0-13.0-3.2,57920,List2B,white,man,,,,,"{""Q0"":""Mike and Kate are flirting with each other""}","<img src=""stim_listB/flirt4.gif""style=""height:400px;""></stim_listB>",are flirting with each other,
null,"<div style=""font-size:60px;"">+</div>",,html-keyboard-response,42,441388,0.0-13.0-0.3,57920,List2B,white,man,,,,null,,,,
null,"<img src=""stim_listB/play1.gif""style=""height:400px;""></stim_listB>",,html-keyboard-response,43,443393,0.0-13.0-1.3,57920,List2B,white,man,,,,null,,,,
null,is playing with,,html-keyboard-response,44,445399,0.0-13.0-2.3,57920,List2B,white,man,,,,null,,,,
12007,,,survey-text,45,457409,0.0-13.0-3.3,57920,List2B,white,man,,,,,"{""Q0"":""Jane is playing with Dave""}","<img src=""stim_listB/play1.gif""style=""height:400px;""></stim_listB>",is playing with,
null,"<div style=""font-size:60px;"">+</div>",,html-keyboard-response,46,457912,0.0-13.0-0.4,57920,List2B,white,man,,,,null,,,,
null,"<img src=""stim_listB/touch2.gif""style=""height:400px;""></stim_listB>",,html-keyboard-response,47,459934,0.0-13.0-1.4,57920,List2B,white,man,,,,null,,,,
null,are touching each other,,html-keyboard-response,48,461940,0.0-13.0-2.4,57920,List2B,white,man,,,,null,,,,
15814,,,survey-text,49,477757,0.0-13.0-3.4,57920,List2B,white,man,,,,,"{""Q0"":""Luke and Ruth are touching each other""}","<img src=""stim_listB/touch2.gif""style=""height:400px;""></stim_listB>",are touching each other,
null,"<div style=""font-size:60px;"">+</div>",,html-keyboard-response,50,478259,0.0-13.0-0.5,57920,List2B,white,man,,,,null,,,,
null,"<img src=""stim_listB/shout6.gif""style=""height:400px;""></stim_listB>",,html-keyboard-response,51,480286,0.0-13.0-1.5,57920,List2B,white,man,,,,null,,,,
null,are shouting at each other,,html-keyboard-response,52,482290,0.0-13.0-2.5,57920,List2B,white,man,,,,null,,,,
18334,,,survey-text,53,500627,0.0-13.0-3.5,57920,List2B,white,man,,,,,"{""Q0"":""Mike and Dave are shouting at each other""}","<img src=""stim_listB/shout6.gif""style=""height:400px;""></stim_listB>",are shouting at each other,
null,"<div style=""font-size:60px;"">+</div>",,html-keyboard-response,54,501133,0.0-13.0-0.6,57920,List2B,white,man,,,,null,,,,
null,"<img src=""stim_listB/touch5.gif""style=""height:400px;""></stim_listB>",,html-keyboard-response,55,503146,0.0-13.0-1.6,57920,List2B,white,man,,,,null,,,,
null,is touching,,html-keyboard-response,56,505160,0.0-13.0-2.6,57920,List2B,white,man,,,,null,,,,
16917,,,survey-text,57,522080,0.0-13.0-3.6,57920,List2B,white,man,,,,,"{""Q0"":""Mike is touching Dave""}","<img src=""stim_listB/touch5.gif""style=""height:400px;""></stim_listB>",is touching,
null,"<div style=""font-size:60px;"">+</div>",,html-keyboard-response,58,522583,0.0-13.0-0.7,57920,List2B,white,man,,,,null,,,,
null,"<img src=""stim_listB/flirt7.gif""style=""height:400px;""></stim_listB>",,html-keyboard-response,59,524603,0.0-13.0-1.7,57920,List2B,white,man,,,,null,,,,
null,is flirting with,,html-keyboard-response,60,526655,0.0-13.0-2.7,57920,List2B,white,man,,,,null,,,,
12583,,,survey-text,61,539240,0.0-13.0-3.7,57920,List2B,white,man,,,,,"{""Q0"":""Jane is flirting with Kate""}","<img src=""stim_listB/flirt7.gif""style=""height:400px;""></stim_listB>",is flirting with,
null,"<div style=""font-size:60px;"">+</div>",,html-keyboard-response,62,539743,0.0-13.0-0.8,57920,List2B,white,man,,,,null,,,,
null,"<img src=""stim_listB/talk7.gif""style=""height:400px;""></stim_listB>",,html-keyboard-response,63,541771,0.0-13.0-1.8,57920,List2B,white,man,,,,null,,,,
null,is talking to,,html-keyboard-response,64,543787,0.0-13.0-2.8,57920,List2B,white,man,,,,null,,,,
23119,,,survey-text,65,566910,0.0-13.0-3.8,57920,List2B,white,man,,,,,"{""Q0"":""Kate is talking to Ruth""}","<img src=""stim_listB/talk7.gif""style=""height:400px;""></stim_listB>",is talking to,
null,"<div style=""font-size:60px;"">+</div>",,html-keyboard-response,66,567418,0.0-13.0-0.9,57920,List2B,white,man,,,,null,,,,
null,"<img src=""stim_listB/fight8.gif""style=""height:400px;""></stim_listB>",,html-keyboard-response,67,569421,0.0-13.0-1.9,57920,List2B,white,man,,,,null,,,,
null,are fighting each other,,html-keyboard-response,68,571437,0.0-13.0-2.9,57920,List2B,white,man,,,,null,,,,
18444,,,survey-text,69,589885,0.0-13.0-3.9,57920,List2B,white,man,,,,,"{""Q0"":""Kate and Ruth are fighting each other""}","<img src=""stim_listB/fight8.gif""style=""height:400px;""></stim_listB>",are fighting each other,
null,"<div style=""font-size:60px;"">+</div>",,html-keyboard-response,70,590401,0.0-13.0-0.10,57920,List2B,white,man,,,,null,,,,
null,"<img src=""stim_listB/touch4.gif""style=""height:400px;""></stim_listB>",,html-keyboard-response,71,592406,0.0-13.0-1.10,57920,List2B,white,man,,,,null,,,,
null,are touching each other,,html-keyboard-response,72,594411,0.0-13.0-2.10,57920,List2B,white,man,,,,null,,,,
14213,,,survey-text,73,608627,0.0-13.0-3.10,57920,List2B,white,man,,,,,"{""Q0"":""Fred and Kate are touching""}","<img src=""stim_listB/touch4.gif""style=""height:400px;""></stim_listB>",are touching each other,
null,"<div style=""font-size:60px;"">+</div>",,html-keyboard-response,74,609135,0.0-13.0-0.11,57920,List2B,white,man,,,,null,,,,
null,"<img src=""stim_listB/dance7.gif""style=""height:400px;""></stim_listB>",,html-keyboard-response,75,611154,0.0-13.0-1.11,57920,List2B,white,man,,,,null,,,,
null,is dancing with,,html-keyboard-response,76,613158,0.0-13.0-2.11,57920,List2B,white,man,,,,null,,,,
13630,,,survey-text,77,626791,0.0-13.0-3.11,57920,List2B,white,man,,,,,"{""Q0"":""Beth is dancing with Ruth""}","<img src=""stim_listB/dance7.gif""style=""height:400px;""></stim_listB>",is dancing with,
null,"<div style=""font-size:60px;"">+</div>",,html-keyboard-response,78,627301,0.0-13.0-0.12,57920,List2B,white,man,,,,null,,,,
null,"<img src=""stim_listB/kiss4.gif""style=""height:400px;""></stim_listB>",,html-keyboard-response,79,629305,0.0-13.0-1.12,57920,List2B,white,man,,,,null,,,,
null,are kissing each other,,html-keyboard-response,80,631321,0.0-13.0-2.12,57920,List2B,white,man,,,,null,,,,
17183,,,survey-text,81,648507,0.0-13.0-3.12,57920,List2B,white,man,,,,,"{""Q0"":""Mike and Beth are kissing each other""}","<img src=""stim_listB/kiss4.gif""style=""height:400px;""></stim_listB>",are kissing each other,
null,"<div style=""font-size:60px;"">+</div>",,html-keyboard-response,82,649021,0.0-13.0-0.13,57920,List2B,white,man,,,,null,,,,
null,"<img src=""stim_listB/argue2.gif""style=""height:400px;""></stim_listB>",,html-keyboard-response,83,651042,0.0-13.0-1.13,57920,List2B,white,man,,,,null,,,,
null,are arguing with each other,,html-keyboard-response,84,653057,0.0-13.0-2.13,57920,List2B,white,man,,,,null,,,,
19677,,,survey-text,85,672736,0.0-13.0-3.13,57920,List2B,white,man,,,,,"{""Q0"":""Luke and Jane are arguing with each other""}","<img src=""stim_listB/argue2.gif""style=""height:400px;""></stim_listB>",are arguing with each other,
null,"<div style=""font-size:60px;"">+</div>",,html-keyboard-response,86,673239,0.0-13.0-0.14,57920,List2B,white,man,,,,null,,,,
null,"<img src=""stim_listB/marry4.gif""style=""height:400px;""></stim_listB>",,html-keyboard-response,87,675257,0.0-13.0-1.14,57920,List2B,white,man,,,,null,,,,
null,are marrying each other,,html-keyboard-response,88,677271,0.0-13.0-2.14,57920,List2B,white,man,,,,null,,,,
20699,,,survey-text,89,697974,0.0-13.0-3.14,57920,List2B,white,man,,,,,"{""Q0"":""Beth and Fred are marrying each other""}","<img src=""stim_listB/marry4.gif""style=""height:400px;""></stim_listB>",are marrying each other,
null,"<div style=""font-size:60px;"">+</div>",,html-keyboard-response,90,698492,0.0-13.0-0.15,57920,List2B,white,man,,,,null,,,,
null,"<img src=""stim_listB/fight7.gif""style=""height:400px;""></stim_listB>",,html-keyboard-response,91,700522,0.0-13.0-1.15,57920,List2B,white,man,,,,null,,,,
null,is fighting,,html-keyboard-response,92,702533,0.0-13.0-2.15,57920,List2B,white,man,,,,null,,,,
12414,,,survey-text,93,714950,0.0-13.0-3.15,57920,List2B,white,man,,,,,"{""Q0"":""Jane is fighting Beth""}","<img src=""stim_listB/fight7.gif""style=""height:400px;""></stim_listB>",is fighting,
null,"<div style=""font-size:60px;"">+</div>",,html-keyboard-response,94,715453,0.0-13.0-0.16,57920,List2B,white,man,,,,null,,,,
null,"<img src=""stim_listB/dance6.gif""style=""height:400px;""></stim_listB>",,html-keyboard-response,95,717468,0.0-13.0-1.16,57920,List2B,white,man,,,,null,,,,
null,are dancing with each other,,html-keyboard-response,96,719482,0.0-13.0-2.16,57920,List2B,white,man,,,,null,,,,
18151,,,survey-text,97,737636,0.0-13.0-3.16,57920,List2B,white,man,,,,,"{""Q0"":""Dave and Fred are dancing with each other""}","<img src=""stim_listB/dance6.gif""style=""height:400px;""></stim_listB>",are dancing with each other,
null,"<div style=""font-size:60px;"">+</div>",,html-keyboard-response,98,738142,0.0-13.0-0.17,57920,List2B,white,man,,,,null,,,,
null,"<img src=""stim_listB/touch1.gif""style=""height:400px;""></stim_listB>",,html-keyboard-response,99,740149,0.0-13.0-1.17,57920,List2B,white,man,,,,null,,,,
null,is touching,,html-keyboard-response,100,742164,0.0-13.0-2.17,57920,List2B,white,man,,,,null,,,,
9787,,,survey-text,101,751954,0.0-13.0-3.17,57920,List2B,white,man,,,,,"{""Q0"":""Dave is touching Jane""}","<img src=""stim_listB/touch1.gif""style=""height:400px;""></stim_listB>",is touching,
null,"<div style=""font-size:60px;"">+</div>",,html-keyboard-response,102,752472,0.0-13.0-0.18,57920,List2B,white,man,,,,null,,,,
null,"<img src=""stim_listB/marry3.gif""style=""height:400px;""></stim_listB>",,html-keyboard-response,103,754488,0.0-13.0-1.18,57920,List2B,white,man,,,,null,,,,
null,is marrying,,html-keyboard-response,104,756497,0.0-13.0-2.18,57920,List2B,white,man,,,,null,,,,
9988,,,survey-text,105,766488,0.0-13.0-3.18,57920,List2B,white,man,,,,,"{""Q0"":""Mike is marrying Kate""}","<img src=""stim_listB/marry3.gif""style=""height:400px;""></stim_listB>",is marrying,
null,"<div style=""font-size:60px;"">+</div>",,html-keyboard-response,106,766995,0.0-13.0-0.19,57920,List2B,white,man,,,,null,,,,
null,"<img src=""stim_listB/fight3.gif""style=""height:400px;""></stim_listB>",,html-keyboard-response,107,769011,0.0-13.0-1.19,57920,List2B,white,man,,,,null,,,,
null,is fighting,,html-keyboard-response,108,771026,0.0-13.0-2.19,57920,List2B,white,man,,,,null,,,,
9948,,,survey-text,109,780978,0.0-13.0-3.19,57920,List2B,white,man,,,,,"{""Q0"":""Mike is fighting Beth""}","<img src=""stim_listB/fight3.gif""style=""height:400px;""></stim_listB>",is fighting,
10331,"<img src='img/portrait_matrix_list2.jpg' style='width:900px;height:500px;''></img><p>If you have memorised all the portraits and names and are ready to start, press Continue.</p><p><strong>Please note: Your memory of these faces will be tested 4 times during this experiment.</strong></p>",0,html-button-response,110,791312,0.0-14.0-0.0,57920,List2B,white,man,,,,,,,,
4014,"<img src=""portrait/WW2.jpg""style=""height:400px;""></img>",3,html-button-response,111,796336,0.0-14.0-1.0,57920,List2B,white,man,,TRUE,3,,,,,
null,CORRECT,,html-keyboard-response,112,797856,0.0-14.0-2.0-0.0,57920,List2B,white,man,,,,null,,,,
3139,"<img src=""portrait/BM1.jpg""style=""height:400px;""></img>",4,html-button-response,113,800999,0.0-14.0-4.0,57920,List2B,white,man,,TRUE,4,,,,,
null,CORRECT,,html-keyboard-response,114,802523,0.0-14.0-5.0-0.0,57920,List2B,white,man,,,,null,,,,
1767,"<img src=""portrait/WW1.jpg""style=""height:400px;""></img>",1,html-button-response,115,804294,0.0-14.0-7.0,57920,List2B,white,man,,TRUE,1,,,,,
null,CORRECT,,html-keyboard-response,116,805806,0.0-14.0-8.0-0.0,57920,List2B,white,man,,,,null,,,,
3580,"<img src=""portrait/BM2.jpg""style=""height:400px;""></img>",5,html-button-response,117,809390,0.0-14.0-10.0,57920,List2B,white,man,,TRUE,5,,,,,
null,CORRECT,,html-keyboard-response,118,810923,0.0-14.0-11.0-0.0,57920,List2B,white,man,,,,null,,,,
8166,"<img src=""portrait/BW2.jpg""style=""height:400px;""></img>",2,html-button-response,119,819093,0.0-14.0-13.0,57920,List2B,white,man,,TRUE,2,,,,,
null,CORRECT,,html-keyboard-response,120,820630,0.0-14.0-14.0-0.0,57920,List2B,white,man,,,,null,,,,
3514,"<img src=""portrait/WM2.jpg""style=""height:400px;""></img>",7,html-button-response,121,824147,0.0-14.0-16.0,57920,List2B,white,man,,TRUE,7,,,,,
null,CORRECT,,html-keyboard-response,122,825671,0.0-14.0-17.0-0.0,57920,List2B,white,man,,,,null,,,,
4177,"<img src=""portrait/BW1.jpg""style=""height:400px;""></img>",0,html-button-response,123,829851,0.0-14.0-19.0,57920,List2B,white,man,,TRUE,0,,,,,
null,CORRECT,,html-keyboard-response,124,831387,0.0-14.0-20.0-0.0,57920,List2B,white,man,,,,null,,,,
3460,"<img src=""portrait/WM1.jpg""style=""height:400px;""></img>",6,html-button-response,125,834851,0.0-14.0-22.0,57920,List2B,white,man,,TRUE,6,,,,,
null,CORRECT,,html-keyboard-response,126,836371,0.0-14.0-23.0-0.0,57920,List2B,white,man,,,,null,,,,
2970,<p>You got 8 out of 8 right first time. Press Continue.</p>,0,html-button-response,127,839344,0.0-14.0-25.0,57920,List2B,white,man,,,,,,,,
null,"<div style=""font-size:60px;"">+</div>",,html-keyboard-response,128,840869,0.0-15.0-0.0,57920,List2B,white,man,,,,null,,,,
null,"<img src=""stim_listB/marry6.gif""style=""height:400px;""></stim_listB>",,html-keyboard-response,129,842875,0.0-15.0-1.0,57920,List2B,white,man,,,,null,,,,
null,are marrying each other,,html-keyboard-response,130,844888,0.0-15.0-2.0,57920,List2B,white,man,,,,null,,,,
15668,,,survey-text,131,860557,0.0-15.0-3.0,57920,List2B,white,man,,,,,"{""Q0"":""Luke and Mike are marrying each other""}","<img src=""stim_listB/marry6.gif""style=""height:400px;""></stim_listB>",are marrying each other,
null,"<div style=""font-size:60px;"">+</div>",,html-keyboard-response,132,861065,0.0-15.0-0.1,57920,List2B,white,man,,,,null,,,,
null,"<img src=""stim_listB/flirt1.gif""style=""height:400px;""></stim_listB>",,html-keyboard-response,133,863076,0.0-15.0-1.1,57920,List2B,white,man,,,,null,,,,
null,is flirting with,,html-keyboard-response,134,865083,0.0-15.0-2.1,57920,List2B,white,man,,,,null,,,,
11879,,,survey-text,135,876965,0.0-15.0-3.1,57920,List2B,white,man,,,,,"{""Q0"":""Jane is flirting with Luke""}","<img src=""stim_listB/flirt1.gif""style=""height:400px;""></stim_listB>",is flirting with,
null,"<div style=""font-size:60px;"">+</div>",,html-keyboard-response,136,877480,0.0-15.0-0.2,57920,List2B,white,man,,,,null,,,,
null,"<img src=""stim_listB/marry2.gif""style=""height:400px;""></stim_listB>",,html-keyboard-response,137,879495,0.0-15.0-1.2,57920,List2B,white,man,,,,null,,,,
null,are marrying each other,,html-keyboard-response,138,881499,0.0-15.0-2.2,57920,List2B,white,man,,,,null,,,,
12901,,,survey-text,139,894404,0.0-15.0-3.2,57920,List2B,white,man,,,,,"{""Q0"":""Luke and Jane are marrying each other""}","<img src=""stim_listB/marry2.gif""style=""height:400px;""></stim_listB>",are marrying each other,
null,"<div style=""font-size:60px;"">+</div>",,html-keyboard-response,140,894907,0.0-15.0-0.3,57920,List2B,white,man,,,,null,,,,
null,"<img src=""stim_listB/marry5.gif""style=""height:400px;""></stim_listB>",,html-keyboard-response,141,896910,0.0-15.0-1.3,57920,List2B,white,man,,,,null,,,,
null,is marrying,,html-keyboard-response,142,898921,0.0-15.0-2.3,57920,List2B,white,man,,,,null,,,,
8327,,,survey-text,143,907250,0.0-15.0-3.3,57920,List2B,white,man,,,,,"{""Q0"":""Dave is marrying Fred""}","<img src=""stim_listB/marry5.gif""style=""height:400px;""></stim_listB>",is marrying,
null,"<div style=""font-size:60px;"">+</div>",,html-keyboard-response,144,907753,0.0-15.0-0.4,57920,List2B,white,man,,,,null,,,,
null,"<img src=""stim_listB/argue3.gif""style=""height:400px;""></stim_listB>",,html-keyboard-response,145,909793,0.0-15.0-1.4,57920,List2B,white,man,,,,null,,,,
null,is arguing with,,html-keyboard-response,146,911810,0.0-15.0-2.4,57920,List2B,white,man,,,,null,,,,
12426,,,survey-text,147,924239,0.0-15.0-3.4,57920,List2B,white,man,,,,,"{""Q0"":""Mike is arguing with Beth""}","<img src=""stim_listB/argue3.gif""style=""height:400px;""></stim_listB>",is arguing with,
null,"<div style=""font-size:60px;"">+</div>",,html-keyboard-response,148,924743,0.0-15.0-0.5,57920,List2B,white,man,,,,null,,,,
null,"<img src=""stim_listB/touch8.gif""style=""height:400px;""></stim_listB>",,html-keyboard-response,149,926752,0.0-15.0-1.5,57920,List2B,white,man,,,,null,,,,
null,are touching each other,,html-keyboard-response,150,928760,0.0-15.0-2.5,57920,List2B,white,man,,,,null,,,,
14691,,,survey-text,151,943453,0.0-15.0-3.5,57920,List2B,white,man,,,,,"{""Q0"":""Ruth and Beth are touching each other""}","<img src=""stim_listB/touch8.gif""style=""height:400px;""></stim_listB>",are touching each other,
null,"<div style=""font-size:60px;"">+</div>",,html-keyboard-response,152,943966,0.0-15.0-0.6,57920,List2B,white,man,,,,null,,,,
null,"<img src=""stim_listB/kiss6.gif""style=""height:400px;""></stim_listB>",,html-keyboard-response,153,945974,0.0-15.0-1.6,57920,List2B,white,man,,,,null,,,,
null,are kissing each other,,html-keyboard-response,154,947982,0.0-15.0-2.6,57920,List2B,white,man,,,,null,,,,
14816,,,survey-text,155,962801,0.0-15.0-3.6,57920,List2B,white,man,,,,,"{""Q0"":""Dave and Mike are kissing each other""}","<img src=""stim_listB/kiss6.gif""style=""height:400px;""></stim_listB>",are kissing each other,
null,"<div style=""font-size:60px;"">+</div>",,html-keyboard-response,156,963316,0.0-15.0-0.7,57920,List2B,white,man,,,,null,,,,
null,"<img src=""stim_listB/argue1.gif""style=""height:400px;""></stim_listB>",,html-keyboard-response,157,965321,0.0-15.0-1.7,57920,List2B,white,man,,,,null,,,,
null,is arguing with,,html-keyboard-response,158,967325,0.0-15.0-2.7,57920,List2B,white,man,,,,null,,,,
10385,,,survey-text,159,977713,0.0-15.0-3.7,57920,List2B,white,man,,,,,"{""Q0"":""Ruth is arguing with Dave""}","<img src=""stim_listB/argue1.gif""style=""height:400px;""></stim_listB>",is arguing with,
null,"<div style=""font-size:60px;"">+</div>",,html-keyboard-response,160,978231,0.0-15.0-0.8,57920,List2B,white,man,,,,null,,,,
null,"<img src=""stim_listB/shout8.gif""style=""height:400px;""></stim_listB>",,html-keyboard-response,161,980238,0.0-15.0-1.8,57920,List2B,white,man,,,,null,,,,
null,are shouting at each other,,html-keyboard-response,162,982249,0.0-15.0-2.8,57920,List2B,white,man,,,,null,,,,
15434,,,survey-text,163,997685,0.0-15.0-3.8,57920,List2B,white,man,,,,,"{""Q0"":""Jane and Kate are shouting at each other""}","<img src=""stim_listB/shout8.gif""style=""height:400px;""></stim_listB>",are shouting at each other,
null,"<div style=""font-size:60px;"">+</div>",,html-keyboard-response,164,998190,0.0-15.0-0.9,57920,List2B,white,man,,,,null,,,,
null,"<img src=""stim_listB/shout2.gif""style=""height:400px;""></stim_listB>",,html-keyboard-response,165,1000196,0.0-15.0-1.9,57920,List2B,white,man,,,,null,,,,
null,are shouting at each other,,html-keyboard-response,166,1002208,0.0-15.0-2.9,57920,List2B,white,man,,,,null,,,,
13456,,,survey-text,167,1015667,0.0-15.0-3.9,57920,List2B,white,man,,,,,"{""Q0"":""Dave and Jane are shouting at each other""}","<img src=""stim_listB/shout2.gif""style=""height:400px;""></stim_listB>",are shouting at each other,
null,"<div style=""font-size:60px;"">+</div>",,html-keyboard-response,168,1016170,0.0-15.0-0.10,57920,List2B,white,man,,,,null,,,,
null,"<img src=""stim_listB/touch7.gif""style=""height:400px;""></stim_listB>",,html-keyboard-response,169,1018175,0.0-15.0-1.10,57920,List2B,white,man,,,,null,,,,
null,is touching,,html-keyboard-response,170,1020188,0.0-15.0-2.10,57920,List2B,white,man,,,,null,,,,
13210,,,survey-text,171,1033401,0.0-15.0-3.10,57920,List2B,white,man,,,,,"{""Q0"":""Jane is touching Kate""}","<img src=""stim_listB/touch7.gif""style=""height:400px;""></stim_listB>",is touching,
null,"<div style=""font-size:60px;"">+</div>",,html-keyboard-response,172,1033907,0.0-15.0-0.11,57920,List2B,white,man,,,,null,,,,
null,"<img src=""stim_listB/argue5.gif""style=""height:400px;""></stim_listB>",,html-keyboard-response,173,1035916,0.0-15.0-1.11,57920,List2B,white,man,,,,null,,,,
null,is arguing with,,html-keyboard-response,174,1037925,0.0-15.0-2.11,57920,List2B,white,man,,,,null,,,,
12816,,,survey-text,175,1050743,0.0-15.0-3.11,57920,List2B,white,man,,,,,"{""Q0"":""Dave is arguing with Fred""}","<img src=""stim_listB/argue5.gif""style=""height:400px;""></stim_listB>",is arguing with,
null,"<div style=""font-size:60px;"">+</div>",,html-keyboard-response,176,1051255,0.0-15.0-0.12,57920,List2B,white,man,,,,null,,,,
null,"<img src=""stim_listB/talk2.gif""style=""height:400px;""></stim_listB>",,html-keyboard-response,177,1053260,0.0-15.0-1.12,57920,List2B,white,man,,,,null,,,,
null,are talking to each other,,html-keyboard-response,178,1055263,0.0-15.0-2.12,57920,List2B,white,man,,,,null,,,,
14766,,,survey-text,179,1070031,0.0-15.0-3.12,57920,List2B,white,man,,,,,"{""Q0"":""Ruth and Dave are talking to each other""}","<img src=""stim_listB/talk2.gif""style=""height:400px;""></stim_listB>",are talking to each other,
null,"<div style=""font-size:60px;"">+</div>",,html-keyboard-response,180,1070535,0.0-15.0-0.13,57920,List2B,white,man,,,,null,,,,
null,"<img src=""stim_listB/play2.gif""style=""height:400px;""></stim_listB>",,html-keyboard-response,181,1072541,0.0-15.0-1.13,57920,List2B,white,man,,,,null,,,,
null,are playing with each other,,html-keyboard-response,182,1074549,0.0-15.0-2.13,57920,List2B,white,man,,,,null,,,,
12373,,,survey-text,183,1086925,0.0-15.0-3.13,57920,List2B,white,man,,,,,"{""Q0"":""Ruth and Luke are playing with each other""}","<img src=""stim_listB/play2.gif""style=""height:400px;""></stim_listB>",are playing with each other,
null,"<div style=""font-size:60px;"">+</div>",,html-keyboard-response,184,1087442,0.0-15.0-0.14,57920,List2B,white,man,,,,null,,,,
null,"<img src=""stim_listB/play3.gif""style=""height:400px;""></stim_listB>",,html-keyboard-response,185,1089461,0.0-15.0-1.14,57920,List2B,white,man,,,,null,,,,
null,is playing with,,html-keyboard-response,186,1091478,0.0-15.0-2.14,57920,List2B,white,man,,,,null,,,,
11937,,,survey-text,187,1103418,0.0-15.0-3.14,57920,List2B,white,man,,,,,"{""Q0"":""Mike is playing with Kate""}","<img src=""stim_listB/play3.gif""style=""height:400px;""></stim_listB>",is playing with,
null,"<div style=""font-size:60px;"">+</div>",,html-keyboard-response,188,1103921,0.0-15.0-0.15,57920,List2B,white,man,,,,null,,,,
null,"<img src=""stim_listB/argue6.gif""style=""height:400px;""></stim_listB>",,html-keyboard-response,189,1105934,0.0-15.0-1.15,57920,List2B,white,man,,,,null,,,,
null,are arguing with each other,,html-keyboard-response,190,1107946,0.0-15.0-2.15,57920,List2B,white,man,,,,null,,,,
12164,,,survey-text,191,1120113,0.0-15.0-3.15,57920,List2B,white,man,,,,,"{""Q0"":""Mike and Luke are arguing with each other""}","<img src=""stim_listB/argue6.gif""style=""height:400px;""></stim_listB>",are arguing with each other,
null,"<div style=""font-size:60px;"">+</div>",,html-keyboard-response,192,1120616,0.0-15.0-0.16,57920,List2B,white,man,,,,null,,,,
null,"<img src=""stim_listB/shout1.gif""style=""height:400px;""></stim_listB>",,html-keyboard-response,193,1122620,0.0-15.0-1.16,57920,List2B,white,man,,,,null,,,,
null,is shouting at,,html-keyboard-response,194,1124641,0.0-15.0-2.16,57920,List2B,white,man,,,,null,,,,
9577,,,survey-text,195,1134221,0.0-15.0-3.16,57920,List2B,white,man,,,,,"{""Q0"":""Ruth is shouting at Luke""}","<img src=""stim_listB/shout1.gif""style=""height:400px;""></stim_listB>",is shouting at,
null,"<div style=""font-size:60px;"">+</div>",,html-keyboard-response,196,1134725,0.0-15.0-0.17,57920,List2B,white,man,,,,null,,,,
null,"<img src=""stim_listB/kiss5.gif""style=""height:400px;""></stim_listB>",,html-keyboard-response,197,1136735,0.0-15.0-1.17,57920,List2B,white,man,,,,null,,,,
null,is kissing,,html-keyboard-response,198,1138767,0.0-15.0-2.17,57920,List2B,white,man,,,,null,,,,
8608,,,survey-text,199,1147378,0.0-15.0-3.17,57920,List2B,white,man,,,,,"{""Q0"":""Luke is kissing Fred""}","<img src=""stim_listB/kiss5.gif""style=""height:400px;""></stim_listB>",is kissing,
null,"<div style=""font-size:60px;"">+</div>",,html-keyboard-response,200,1147880,0.0-15.0-0.18,57920,List2B,white,man,,,,null,,,,
null,"<img src=""stim_listB/talk4.gif""style=""height:400px;""></stim_listB>",,html-keyboard-response,201,1149884,0.0-15.0-1.18,57920,List2B,white,man,,,,null,,,,
null,are talking to each other,,html-keyboard-response,202,1151898,0.0-15.0-2.18,57920,List2B,white,man,,,,null,,,,
12676,,,survey-text,203,1164577,0.0-15.0-3.18,57920,List2B,white,man,,,,,"{""Q0"":""Mike and Beth are talking to each other""}","<img src=""stim_listB/talk4.gif""style=""height:400px;""></stim_listB>",are talking to each other,
null,"<div style=""font-size:60px;"">+</div>",,html-keyboard-response,204,1165092,0.0-15.0-0.19,57920,List2B,white,man,,,,null,,,,
null,"<img src=""stim_listB/argue7.gif""style=""height:400px;""></stim_listB>",,html-keyboard-response,205,1167098,0.0-15.0-1.19,57920,List2B,white,man,,,,null,,,,
null,is arguing with,,html-keyboard-response,206,1169112,0.0-15.0-2.19,57920,List2B,white,man,,,,null,,,,
9211,,,survey-text,207,1178327,0.0-15.0-3.19,57920,List2B,white,man,,,,,"{""Q0"":""Jane is arguing with Beth""}","<img src=""stim_listB/argue7.gif""style=""height:400px;""></stim_listB>",is arguing with,
3445,"<img src='img/portrait_matrix_list2.jpg' style='width:900px;height:500px;''></img><p>If you have memorised all the portraits and names and are ready to start, press Continue.</p><p><strong>Please note: Your memory of these faces will be tested 4 times during this experiment.</strong></p>",0,html-button-response,208,1181775,0.0-16.0-0.0,57920,List2B,white,man,,,,,,,,
1481,"<img src=""portrait/WW2.jpg""style=""height:400px;""></img>",3,html-button-response,209,1184278,0.0-16.0-1.0,57920,List2B,white,man,,TRUE,3,,,,,
null,CORRECT,,html-keyboard-response,210,1185787,0.0-16.0-2.0-0.0,57920,List2B,white,man,,,,null,,,,
1766,"<img src=""portrait/WW1.jpg""style=""height:400px;""></img>",1,html-button-response,211,1187558,0.0-16.0-4.0,57920,List2B,white,man,,TRUE,1,,,,,
null,CORRECT,,html-keyboard-response,212,1189078,0.0-16.0-5.0-0.0,57920,List2B,white,man,,,,null,,,,
1972,"<img src=""portrait/BM1.jpg""style=""height:400px;""></img>",4,html-button-response,213,1191054,0.0-16.0-7.0,57920,List2B,white,man,,TRUE,4,,,,,
null,CORRECT,,html-keyboard-response,214,1192559,0.0-16.0-8.0-0.0,57920,List2B,white,man,,,,null,,,,
3014,"<img src=""portrait/BM2.jpg""style=""height:400px;""></img>",5,html-button-response,215,1195577,0.0-16.0-10.0,57920,List2B,white,man,,TRUE,5,,,,,
null,CORRECT,,html-keyboard-response,216,1197100,0.0-16.0-11.0-0.0,57920,List2B,white,man,,,,null,,,,
2882,"<img src=""portrait/WM1.jpg""style=""height:400px;""></img>",6,html-button-response,217,1199985,0.0-16.0-13.0,57920,List2B,white,man,,TRUE,6,,,,,
null,CORRECT,,html-keyboard-response,218,1201516,0.0-16.0-14.0-0.0,57920,List2B,white,man,,,,null,,,,
6312,"<img src=""portrait/BW2.jpg""style=""height:400px;""></img>",2,html-button-response,219,1207831,0.0-16.0-16.0,57920,List2B,white,man,,TRUE,2,,,,,
null,CORRECT,,html-keyboard-response,220,1209350,0.0-16.0-17.0-0.0,57920,List2B,white,man,,,,null,,,,
3740,"<img src=""portrait/BW1.jpg""style=""height:400px;""></img>",0,html-button-response,221,1213095,0.0-16.0-19.0,57920,List2B,white,man,,TRUE,0,,,,,
null,CORRECT,,html-keyboard-response,222,1214633,0.0-16.0-20.0-0.0,57920,List2B,white,man,,,,null,,,,
2001,"<img src=""portrait/WM2.jpg""style=""height:400px;""></img>",7,html-button-response,223,1216639,0.0-16.0-22.0,57920,List2B,white,man,,TRUE,7,,,,,
null,CORRECT,,html-keyboard-response,224,1218166,0.0-16.0-23.0-0.0,57920,List2B,white,man,,,,null,,,,
1740,<p>You got 8 out of 8 right first time. Press Continue.</p>,0,html-button-response,225,1219910,0.0-16.0-25.0,57920,List2B,white,man,,,,,,,,
null,"<div style=""font-size:60px;"">+</div>",,html-keyboard-response,226,1221431,0.0-17.0-0.0,57920,List2B,white,man,,,,null,,,,
null,"<img src=""stim_listB/flirt2.gif""style=""height:400px;""></stim_listB>",,html-keyboard-response,227,1223446,0.0-17.0-1.0,57920,List2B,white,man,,,,null,,,,
null,are flirting with each other,,html-keyboard-response,228,1225458,0.0-17.0-2.0,57920,List2B,white,man,,,,null,,,,
2982,,,survey-text,229,1228444,0.0-17.0-3.0,57920,List2B,white,man,,,,,"{""Q0"":""""}","<img src=""stim_listB/flirt2.gif""style=""height:400px;""></stim_listB>",are flirting with each other,
null,"<div style=""font-size:60px;"">+</div>",,html-keyboard-response,230,1228949,0.0-17.0-0.1,57920,List2B,white,man,,,,null,,,,
null,"<img src=""stim_listB/dance5.gif""style=""height:400px;""></stim_listB>",,html-keyboard-response,231,1230953,0.0-17.0-1.1,57920,List2B,white,man,,,,null,,,,
null,is dancing with,,html-keyboard-response,232,1232955,0.0-17.0-2.1,57920,List2B,white,man,,,,null,,,,
10589,,,survey-text,233,1243546,0.0-17.0-3.1,57920,List2B,white,man,,,,,"{""Q0"":""Luke is dancing with Mike""}","<img src=""stim_listB/dance5.gif""style=""height:400px;""></stim_listB>",is dancing with,
null,"<div style=""font-size:60px;"">+</div>",,html-keyboard-response,234,1244054,0.0-17.0-0.2,57920,List2B,white,man,,,,null,,,,
null,"<img src=""stim_listB/marry8.gif""style=""height:400px;""></stim_listB>",,html-keyboard-response,235,1246074,0.0-17.0-1.2,57920,List2B,white,man,,,,null,,,,
null,are marrying each other,,html-keyboard-response,236,1248113,0.0-17.0-2.2,57920,List2B,white,man,,,,null,,,,
14226,,,survey-text,237,1262346,0.0-17.0-3.2,57920,List2B,white,man,,,,,"{""Q0"":""Beth and Kate are marrying each other""}","<img src=""stim_listB/marry8.gif""style=""height:400px;""></stim_listB>",are marrying each other,
null,"<div style=""font-size:60px;"">+</div>",,html-keyboard-response,238,1262859,0.0-17.0-0.3,57920,List2B,white,man,,,,null,,,,
null,"<img src=""stim_listB/kiss7.gif""style=""height:400px;""></stim_listB>",,html-keyboard-response,239,1264864,0.0-17.0-1.3,57920,List2B,white,man,,,,null,,,,
null,is kissing,,html-keyboard-response,240,1266869,0.0-17.0-2.3,57920,List2B,white,man,,,,null,,,,
9496,,,survey-text,241,1276368,0.0-17.0-3.3,57920,List2B,white,man,,,,,"{""Q0"":""Ruth is kissing Beth""}","<img src=""stim_listB/kiss7.gif""style=""height:400px;""></stim_listB>",is kissing,
null,"<div style=""font-size:60px;"">+</div>",,html-keyboard-response,242,1276873,0.0-17.0-0.4,57920,List2B,white,man,,,,null,,,,
null,"<img src=""stim_listB/dance3.gif""style=""height:400px;""></stim_listB>",,html-keyboard-response,243,1278889,0.0-17.0-1.4,57920,List2B,white,man,,,,null,,,,
null,is dancing with,,html-keyboard-response,244,1280899,0.0-17.0-2.4,57920,List2B,white,man,,,,null,,,,
9400,,,survey-text,245,1290302,0.0-17.0-3.4,57920,List2B,white,man,,,,,"{""Q0"":""Fred is dancing with Kate""}","<img src=""stim_listB/dance3.gif""style=""height:400px;""></stim_listB>",is dancing with,
null,"<div style=""font-size:60px;"">+</div>",,html-keyboard-response,246,1290819,0.0-17.0-0.5,57920,List2B,white,man,,,,null,,,,
null,"<img src=""stim_listB/shout7.gif""style=""height:400px;""></stim_listB>",,html-keyboard-response,247,1292829,0.0-17.0-1.5,57920,List2B,white,man,,,,null,,,,
null,is shouting at,,html-keyboard-response,248,1294838,0.0-17.0-2.5,57920,List2B,white,man,,,,null,,,,
9027,,,survey-text,249,1303867,0.0-17.0-3.5,57920,List2B,white,man,,,,,"{""Q0"":""Ruth is shouting at Beth""}","<img src=""stim_listB/shout7.gif""style=""height:400px;""></stim_listB>",is shouting at,
null,"<div style=""font-size:60px;"">+</div>",,html-keyboard-response,250,1304372,0.0-17.0-0.6,57920,List2B,white,man,,,,null,,,,
null,"<img src=""stim_listB/kiss2.gif""style=""height:400px;""></stim_listB>",,html-keyboard-response,251,1306377,0.0-17.0-1.6,57920,List2B,white,man,,,,null,,,,
null,are kissing each other,,html-keyboard-response,252,1308388,0.0-17.0-2.6,57920,List2B,white,man,,,,null,,,,
13317,,,survey-text,253,1321708,0.0-17.0-3.6,57920,List2B,white,man,,,,,"{""Q0"":""Dave and Jane are kissing each other""}","<img src=""stim_listB/kiss2.gif""style=""height:400px;""></stim_listB>",are kissing each other,
null,"<div style=""font-size:60px;"">+</div>",,html-keyboard-response,254,1322211,0.0-17.0-0.7,57920,List2B,white,man,,,,null,,,,
null,"<img src=""stim_listB/touch6.gif""style=""height:400px;""></stim_listB>",,html-keyboard-response,255,1324217,0.0-17.0-1.7,57920,List2B,white,man,,,,null,,,,
null,are touching each other,,html-keyboard-response,256,1326233,0.0-17.0-2.7,57920,List2B,white,man,,,,null,,,,
11778,,,survey-text,257,1338017,0.0-17.0-3.7,57920,List2B,white,man,,,,,"{""Q0"":""Luke and Fred are touching each other""}","<img src=""stim_listB/touch6.gif""style=""height:400px;""></stim_listB>",are touching each other,
null,"<div style=""font-size:60px;"">+</div>",,html-keyboard-response,258,1338520,0.0-17.0-0.8,57920,List2B,white,man,,,,null,,,,
null,"<img src=""stim_listB/marry1.gif""style=""height:400px;""></stim_listB>",,html-keyboard-response,259,1340547,0.0-17.0-1.8,57920,List2B,white,man,,,,null,,,,
null,is marrying,,html-keyboard-response,260,1342558,0.0-17.0-2.8,57920,List2B,white,man,,,,null,,,,
8598,,,survey-text,261,1351159,0.0-17.0-3.8,57920,List2B,white,man,,,,,"{""Q0"":""Dave is marrying Ruth""}","<img src=""stim_listB/marry1.gif""style=""height:400px;""></stim_listB>",is marrying,
null,"<div style=""font-size:60px;"">+</div>",,html-keyboard-response,262,1351662,0.0-17.0-0.9,57920,List2B,white,man,,,,null,,,,
null,"<img src=""stim_listB/flirt3.gif""style=""height:400px;""></stim_listB>",,html-keyboard-response,263,1353679,0.0-17.0-1.9,57920,List2B,white,man,,,,null,,,,
null,is flirting with,,html-keyboard-response,264,1355712,0.0-17.0-2.9,57920,List2B,white,man,,,,null,,,,
10003,,,survey-text,265,1365718,0.0-17.0-3.9,57920,List2B,white,man,,,,,"{""Q0"":""Fred is flirting with Kate""}","<img src=""stim_listB/flirt3.gif""style=""height:400px;""></stim_listB>",is flirting with,
null,"<div style=""font-size:60px;"">+</div>",,html-keyboard-response,266,1366223,0.0-17.0-0.10,57920,List2B,white,man,,,,null,,,,
null,"<img src=""stim_listB/fight1.gif""style=""height:400px;""></stim_listB>",,html-keyboard-response,267,1368229,0.0-17.0-1.10,57920,List2B,white,man,,,,null,,,,
null,is fighting,,html-keyboard-response,268,1370233,0.0-17.0-2.10,57920,List2B,white,man,,,,null,,,,
8422,,,survey-text,269,1378658,0.0-17.0-3.10,57920,List2B,white,man,,,,,"{""Q0"":""Jane is fighting Dave""}","<img src=""stim_listB/fight1.gif""style=""height:400px;""></stim_listB>",is fighting,
null,"<div style=""font-size:60px;"">+</div>",,html-keyboard-response,270,1379161,0.0-17.0-0.11,57920,List2B,white,man,,,,null,,,,
null,"<img src=""stim_listB/dance1.gif""style=""height:400px;""></stim_listB>",,html-keyboard-response,271,1381167,0.0-17.0-1.11,57920,List2B,white,man,,,,null,,,,
null,is dancing with,,html-keyboard-response,272,1383183,0.0-17.0-2.11,57920,List2B,white,man,,,,null,,,,
9512,,,survey-text,273,1392698,0.0-17.0-3.11,57920,List2B,white,man,,,,,"{""Q0"":""Jane is dancing with Luke""}","<img src=""stim_listB/dance1.gif""style=""height:400px;""></stim_listB>",is dancing with,
null,"<div style=""font-size:60px;"">+</div>",,html-keyboard-response,274,1393212,0.0-17.0-0.12,57920,List2B,white,man,,,,null,,,,
null,"<img src=""stim_listB/dance4.gif""style=""height:400px;""></stim_listB>",,html-keyboard-response,275,1395219,0.0-17.0-1.12,57920,List2B,white,man,,,,null,,,,
null,are dancing with each other,,html-keyboard-response,276,1397237,0.0-17.0-2.12,57920,List2B,white,man,,,,null,,,,
12992,,,survey-text,277,1410232,0.0-17.0-3.12,57920,List2B,white,man,,,,,"{""Q0"":""Mike and Beth are dancing with each other""}","<img src=""stim_listB/dance4.gif""style=""height:400px;""></stim_listB>",are dancing with each other,
null,"<div style=""font-size:60px;"">+</div>",,html-keyboard-response,278,1410749,0.0-17.0-0.13,57920,List2B,white,man,,,,null,,,,
null,"<img src=""stim_listB/play5.gif""style=""height:400px;""></stim_listB>",,html-keyboard-response,279,1412754,0.0-17.0-1.13,57920,List2B,white,man,,,,null,,,,
null,is playing with,,html-keyboard-response,280,1414757,0.0-17.0-2.13,57920,List2B,white,man,,,,null,,,,
8812,,,survey-text,281,1423572,0.0-17.0-3.13,57920,List2B,white,man,,,,,"{""Q0"":""Dave is playing with Mike""}","<img src=""stim_listB/play5.gif""style=""height:400px;""></stim_listB>",is playing with,
null,"<div style=""font-size:60px;"">+</div>",,html-keyboard-response,282,1424075,0.0-17.0-0.14,57920,List2B,white,man,,,,null,,,,
null,"<img src=""stim_listB/dance2.gif""style=""height:400px;""></stim_listB>",,html-keyboard-response,283,1426082,0.0-17.0-1.14,57920,List2B,white,man,,,,null,,,,
null,are dancing with each other,,html-keyboard-response,284,1428099,0.0-17.0-2.14,57920,List2B,white,man,,,,null,,,,
11822,,,survey-text,285,1439924,0.0-17.0-3.14,57920,List2B,white,man,,,,,"{""Q0"":""Ruth and Dave are dancing with each other""}","<img src=""stim_listB/dance2.gif""style=""height:400px;""></stim_listB>",are dancing with each other,
null,"<div style=""font-size:60px;"">+</div>",,html-keyboard-response,286,1440427,0.0-17.0-0.15,57920,List2B,white,man,,,,null,,,,
null,"<img src=""stim_listB/fight4.gif""style=""height:400px;""></stim_listB>",,html-keyboard-response,287,1442433,0.0-17.0-1.15,57920,List2B,white,man,,,,null,,,,
null,are fighting each other,,html-keyboard-response,288,1444446,0.0-17.0-2.15,57920,List2B,white,man,,,,null,,,,
14905,,,survey-text,289,1459354,0.0-17.0-3.15,57920,List2B,white,man,,,,,"{""Q0"":""Fred and Beth are fighting with each other""}","<img src=""stim_listB/fight4.gif""style=""height:400px;""></stim_listB>",are fighting each other,
null,"<div style=""font-size:60px;"">+</div>",,html-keyboard-response,290,1459858,0.0-17.0-0.16,57920,List2B,white,man,,,,null,,,,
null,"<img src=""stim_listB/flirt5.gif""style=""height:400px;""></stim_listB>",,html-keyboard-response,291,1461863,0.0-17.0-1.16,57920,List2B,white,man,,,,null,,,,
null,is flirting with,,html-keyboard-response,292,1463866,0.0-17.0-2.16,57920,List2B,white,man,,,,null,,,,
9451,,,survey-text,293,1473321,0.0-17.0-3.16,57920,List2B,white,man,,,,,"{""Q0"":""Luke is flirting with Mike""}","<img src=""stim_listB/flirt5.gif""style=""height:400px;""></stim_listB>",is flirting with,
null,"<div style=""font-size:60px;"">+</div>",,html-keyboard-response,294,1473824,0.0-17.0-0.17,57920,List2B,white,man,,,,null,,,,
null,"<img src=""stim_listB/talk6.gif""style=""height:400px;""></stim_listB>",,html-keyboard-response,295,1475833,0.0-17.0-1.17,57920,List2B,white,man,,,,null,,,,
null,are talking to each other,,html-keyboard-response,296,1477837,0.0-17.0-2.17,57920,List2B,white,man,,,,null,,,,
16890,,,survey-text,297,1494730,0.0-17.0-3.17,57920,List2B,white,man,,,,,"{""Q0"":""Dave and Fred are talking to each other""}","<img src=""stim_listB/talk6.gif""style=""height:400px;""></stim_listB>",are talking to each other,
null,"<div style=""font-size:60px;"">+</div>",,html-keyboard-response,298,1495239,0.0-17.0-0.18,57920,List2B,white,man,,,,null,,,,
null,"<img src=""stim_listB/talk3.gif""style=""height:400px;""></stim_listB>",,html-keyboard-response,299,1497251,0.0-17.0-1.18,57920,List2B,white,man,,,,null,,,,
null,is talking to,,html-keyboard-response,300,1499260,0.0-17.0-2.18,57920,List2B,white,man,,,,null,,,,
9865,,,survey-text,301,1509128,0.0-17.0-3.18,57920,List2B,white,man,,,,,"{""Q0"":""Fred is talking to Kate""}","<img src=""stim_listB/talk3.gif""style=""height:400px;""></stim_listB>",is talking to,
null,"<div style=""font-size:60px;"">+</div>",,html-keyboard-response,302,1509639,0.0-17.0-0.19,57920,List2B,white,man,,,,null,,,,
null,"<img src=""stim_listB/play8.gif""style=""height:400px;""></stim_listB>",,html-keyboard-response,303,1511651,0.0-17.0-1.19,57920,List2B,white,man,,,,null,,,,
null,are playing with each other,,html-keyboard-response,304,1513667,0.0-17.0-2.19,57920,List2B,white,man,,,,null,,,,
13550,,,survey-text,305,1527220,0.0-17.0-3.19,57920,List2B,white,man,,,,,"{""Q0"":""Ruth and Beth are playing with each other""}","<img src=""stim_listB/play8.gif""style=""height:400px;""></stim_listB>",are playing with each other,
3005,"<img src='img/portrait_matrix_list2.jpg' style='width:900px;height:500px;''></img><p>If you have memorised all the portraits and names and are ready to start, press Continue.</p><p><strong>Please note: Your memory of these faces will be tested 4 times during this experiment.</strong></p>",0,html-button-response,306,1530228,0.0-18.0-0.0,57920,List2B,white,man,,,,,,,,
2876,"<img src=""portrait/BW1.jpg""style=""height:400px;""></img>",0,html-button-response,307,1534108,0.0-18.0-1.0,57920,List2B,white,man,,TRUE,0,,,,,
null,CORRECT,,html-keyboard-response,308,1535612,0.0-18.0-2.0-0.0,57920,List2B,white,man,,,,null,,,,
1524,"<img src=""portrait/WW2.jpg""style=""height:400px;""></img>",3,html-button-response,309,1537139,0.0-18.0-4.0,57920,List2B,white,man,,TRUE,3,,,,,
null,CORRECT,,html-keyboard-response,310,1538644,0.0-18.0-5.0-0.0,57920,List2B,white,man,,,,null,,,,
2442,"<img src=""portrait/WM1.jpg""style=""height:400px;""></img>",6,html-button-response,311,1541091,0.0-18.0-7.0,57920,List2B,white,man,,TRUE,6,,,,,
null,CORRECT,,html-keyboard-response,312,1542595,0.0-18.0-8.0-0.0,57920,List2B,white,man,,,,null,,,,
3444,"<img src=""portrait/BM2.jpg""style=""height:400px;""></img>",5,html-button-response,313,1546042,0.0-18.0-10.0,57920,List2B,white,man,,TRUE,5,,,,,
null,CORRECT,,html-keyboard-response,314,1547580,0.0-18.0-11.0-0.0,57920,List2B,white,man,,,,null,,,,
3244,"<img src=""portrait/WW1.jpg""style=""height:400px;""></img>",0,html-button-response,315,1550828,0.0-18.0-13.0,57920,List2B,white,man,,TRUE,1,,,,,
4881,"<img src=""portrait/WW1.jpg""style=""height:400px;""></img>",1,html-button-response,316,1556730,0.0-18.0-15.0-0.0,57920,List2B,white,man,,FALSE,1,,,,,
null,CORRECT,,html-keyboard-response,317,1558247,0.0-18.0-15.0-1.0-0.0,57920,List2B,white,man,,,,null,,,,
4270,"<img src=""portrait/BW2.jpg""style=""height:400px;""></img>",2,html-button-response,318,1562522,0.0-18.0-16.0,57920,List2B,white,man,,TRUE,2,,,,,
null,CORRECT,,html-keyboard-response,319,1564031,0.0-18.0-17.0-0.0,57920,List2B,white,man,,,,null,,,,
2206,"<img src=""portrait/WM2.jpg""style=""height:400px;""></img>",7,html-button-response,320,1566242,0.0-18.0-19.0,57920,List2B,white,man,,TRUE,7,,,,,
null,CORRECT,,html-keyboard-response,321,1567751,0.0-18.0-20.0-0.0,57920,List2B,white,man,,,,null,,,,
1837,"<img src=""portrait/BM1.jpg""style=""height:400px;""></img>",4,html-button-response,322,1569592,0.0-18.0-22.0,57920,List2B,white,man,,TRUE,4,,,,,
null,CORRECT,,html-keyboard-response,323,1571113,0.0-18.0-23.0-0.0,57920,List2B,white,man,,,,null,,,,
2418,<p>You got 7 out of 8 right first time. Press Continue.</p>,0,html-button-response,324,1573536,0.0-18.0-25.0,57920,List2B,white,man,,,,,,,,
5485,"As you did not score 100%, the memory game will repeat. Press Continue.",0,html-button-response,325,1580030,0.0-18.0-26.0-0.0,57920,List2B,white,man,,,,,,,,
2658,"<img src='img/portrait_matrix_list2.jpg' style='width:900px;height:500px;''></img><p>If you have memorised all the portraits and names and are ready to start, press Continue.</p><p><strong>Please note: Your memory of these faces will be tested 4 times during this experiment.</strong></p>",0,html-button-response,326,1583702,0.0-18.1-0.1,57920,List2B,white,man,,,,,,,,
2946,"<img src=""portrait/BW1.jpg""style=""height:400px;""></img>",0,html-button-response,327,1587654,0.0-18.1-1.1,57920,List2B,white,man,,TRUE,0,,,,,
null,CORRECT,,html-keyboard-response,328,1589162,0.0-18.1-2.1-0.1,57920,List2B,white,man,,,,null,,,,
1551,"<img src=""portrait/WW2.jpg""style=""height:400px;""></img>",3,html-button-response,329,1590718,0.0-18.1-4.1,57920,List2B,white,man,,TRUE,3,,,,,
null,CORRECT,,html-keyboard-response,330,1592245,0.0-18.1-5.1-0.1,57920,List2B,white,man,,,,null,,,,
2442,"<img src=""portrait/WM1.jpg""style=""height:400px;""></img>",6,html-button-response,331,1594692,0.0-18.1-7.1,57920,List2B,white,man,,TRUE,6,,,,,
null,CORRECT,,html-keyboard-response,332,1596213,0.0-18.1-8.1-0.1,57920,List2B,white,man,,,,null,,,,
3057,"<img src=""portrait/BM2.jpg""style=""height:400px;""></img>",5,html-button-response,333,1599275,0.0-18.1-10.1,57920,List2B,white,man,,TRUE,5,,,,,
null,CORRECT,,html-keyboard-response,334,1600787,0.0-18.1-11.1-0.1,57920,List2B,white,man,,,,null,,,,
1667,"<img src=""portrait/WW1.jpg""style=""height:400px;""></img>",1,html-button-response,335,1602460,0.0-18.1-13.1,57920,List2B,white,man,,TRUE,1,,,,,
null,CORRECT,,html-keyboard-response,336,1603983,0.0-18.1-14.1-0.1,57920,List2B,white,man,,,,null,,,,
3847,"<img src=""portrait/BW2.jpg""style=""height:400px;""></img>",2,html-button-response,337,1607834,0.0-18.1-16.1,57920,List2B,white,man,,TRUE,2,,,,,
null,CORRECT,,html-keyboard-response,338,1609346,0.0-18.1-17.1-0.1,57920,List2B,white,man,,,,null,,,,
1636,"<img src=""portrait/WM2.jpg""style=""height:400px;""></img>",7,html-button-response,339,1610987,0.0-18.1-19.1,57920,List2B,white,man,,TRUE,7,,,,,
null,CORRECT,,html-keyboard-response,340,1612493,0.0-18.1-20.1-0.1,57920,List2B,white,man,,,,null,,,,
3167,"<img src=""portrait/BM1.jpg""style=""height:400px;""></img>",4,html-button-response,341,1615666,0.0-18.1-22.1,57920,List2B,white,man,,TRUE,4,,,,,
null,CORRECT,,html-keyboard-response,342,1617177,0.0-18.1-23.1-0.1,57920,List2B,white,man,,,,null,,,,
2220,<p>You got 8 out of 8 right first time. Press Continue.</p>,0,html-button-response,343,1619401,0.0-18.1-25.1,57920,List2B,white,man,,,,,,,,
null,"<div style=""font-size:60px;"">+</div>",,html-keyboard-response,344,1620914,0.0-19.0-0.0,57920,List2B,white,man,,,,null,,,,
null,"<img src=""stim_listB/argue8.gif""style=""height:400px;""></stim_listB>",,html-keyboard-response,345,1622938,0.0-19.0-1.0,57920,List2B,white,man,,,,null,,,,
null,are arguing with each other,,html-keyboard-response,346,1624950,0.0-19.0-2.0,57920,List2B,white,man,,,,null,,,,
16525,,,survey-text,347,1641478,0.0-19.0-3.0,57920,List2B,white,man,,,,,"{""Q0"":""Ruth and Kate are arguing with each other""}","<img src=""stim_listB/argue8.gif""style=""height:400px;""></stim_listB>",are arguing with each other,
null,"<div style=""font-size:60px;"">+</div>",,html-keyboard-response,348,1641986,0.0-19.0-0.1,57920,List2B,white,man,,,,null,,,,
null,"<img src=""stim_listB/shout5.gif""style=""height:400px;""></stim_listB>",,html-keyboard-response,349,1643996,0.0-19.0-1.1,57920,List2B,white,man,,,,null,,,,
null,is shouting at,,html-keyboard-response,350,1646002,0.0-19.0-2.1,57920,List2B,white,man,,,,null,,,,
8678,,,survey-text,351,1654683,0.0-19.0-3.1,57920,List2B,white,man,,,,,"{""Q0"":""Fred is shouting at Luke""}","<img src=""stim_listB/shout5.gif""style=""height:400px;""></stim_listB>",is shouting at,
null,"<div style=""font-size:60px;"">+</div>",,html-keyboard-response,352,1655187,0.0-19.0-0.2,57920,List2B,white,man,,,,null,,,,
null,"<img src=""stim_listB/talk8.gif""style=""height:400px;""></stim_listB>",,html-keyboard-response,353,1657209,0.0-19.0-1.2,57920,List2B,white,man,,,,null,,,,
null,are talking to each other,,html-keyboard-response,354,1659222,0.0-19.0-2.2,57920,List2B,white,man,,,,null,,,,
13464,,,survey-text,355,1672689,0.0-19.0-3.2,57920,List2B,white,man,,,,,"{""Q0"":""Jane and Beth are talking to each other""}","<img src=""stim_listB/talk8.gif""style=""height:400px;""></stim_listB>",are talking to each other,
null,"<div style=""font-size:60px;"">+</div>",,html-keyboard-response,356,1673192,0.0-19.0-0.3,57920,List2B,white,man,,,,null,,,,
null,"<img src=""stim_listB/fight5.gif""style=""height:400px;""></stim_listB>",,html-keyboard-response,357,1675206,0.0-19.0-1.3,57920,List2B,white,man,,,,null,,,,
null,is fighting,,html-keyboard-response,358,1677214,0.0-19.0-2.3,57920,List2B,white,man,,,,null,,,,
8566,,,survey-text,359,1685784,0.0-19.0-3.3,57920,List2B,white,man,,,,,"{""Q0"":""Dave is fighting Mike""}","<img src=""stim_listB/fight5.gif""style=""height:400px;""></stim_listB>",is fighting,
null,"<div style=""font-size:60px;"">+</div>",,html-keyboard-response,360,1686291,0.0-19.0-0.4,57920,List2B,white,man,,,,null,,,,
null,"<img src=""stim_listB/play7.gif""style=""height:400px;""></stim_listB>",,html-keyboard-response,361,1688307,0.0-19.0-1.4,57920,List2B,white,man,,,,null,,,,
null,is playing with,,html-keyboard-response,362,1690327,0.0-19.0-2.4,57920,List2B,white,man,,,,null,,,,
11364,,,survey-text,363,1701701,0.0-19.0-3.4,57920,List2B,white,man,,,,,"{""Q0"":""Jane is playing with Kate""}","<img src=""stim_listB/play7.gif""style=""height:400px;""></stim_listB>",is playing with,
null,"<div style=""font-size:60px;"">+</div>",,html-keyboard-response,364,1702212,0.0-19.0-0.5,57920,List2B,white,man,,,,null,,,,
null,"<img src=""stim_listB/argue4.gif""style=""height:400px;""></stim_listB>",,html-keyboard-response,365,1704239,0.0-19.0-1.5,57920,List2B,white,man,,,,null,,,,
null,are arguing with each other,,html-keyboard-response,366,1706243,0.0-19.0-2.5,57920,List2B,white,man,,,,null,,,,
16653,,,survey-text,367,1722899,0.0-19.0-3.5,57920,List2B,white,man,,,,,"{""Q0"":""Fred and Kate are arguing with each other""}","<img src=""stim_listB/argue4.gif""style=""height:400px;""></stim_listB>",are arguing with each other,
null,"<div style=""font-size:60px;"">+</div>",,html-keyboard-response,368,1723411,0.0-19.0-0.6,57920,List2B,white,man,,,,null,,,,
null,"<img src=""stim_listB/touch3.gif""style=""height:400px;""></stim_listB>",,html-keyboard-response,369,1725420,0.0-19.0-1.6,57920,List2B,white,man,,,,null,,,,
null,is touching,,html-keyboard-response,370,1727436,0.0-19.0-2.6,57920,List2B,white,man,,,,null,,,,
8824,,,survey-text,371,1736272,0.0-19.0-3.6,57920,List2B,white,man,,,,,"{""Q0"":""Mike is touching Kate""}","<img src=""stim_listB/touch3.gif""style=""height:400px;""></stim_listB>",is touching,
null,"<div style=""font-size:60px;"">+</div>",,html-keyboard-response,372,1736775,0.0-19.0-0.7,57920,List2B,white,man,,,,null,,,,
null,"<img src=""stim_listB/flirt8.gif""style=""height:400px;""></stim_listB>",,html-keyboard-response,373,1738787,0.0-19.0-1.7,57920,List2B,white,man,,,,null,,,,
null,are flirting with each other,,html-keyboard-response,374,1740802,0.0-19.0-2.7,57920,List2B,white,man,,,,null,,,,
15986,,,survey-text,375,1756790,0.0-19.0-3.7,57920,List2B,white,man,,,,,"{""Q0"":""Jane and Beth are flirting with each other""}","<img src=""stim_listB/flirt8.gif""style=""height:400px;""></stim_listB>",are flirting with each other,
null,"<div style=""font-size:60px;"">+</div>",,html-keyboard-response,376,1757294,0.0-19.0-0.8,57920,List2B,white,man,,,,null,,,,
null,"<img src=""stim_listB/marry7.gif""style=""height:400px;""></stim_listB>",,html-keyboard-response,377,1759319,0.0-19.0-1.8,57920,List2B,white,man,,,,null,,,,
null,is marrying,,html-keyboard-response,378,1761324,0.0-19.0-2.8,57920,List2B,white,man,,,,null,,,,
7845,,,survey-text,379,1769173,0.0-19.0-3.8,57920,List2B,white,man,,,,,"{""Q0"":""Jane is marrying Beth""}","<img src=""stim_listB/marry7.gif""style=""height:400px;""></stim_listB>",is marrying,
null,"<div style=""font-size:60px;"">+</div>",,html-keyboard-response,380,1769675,0.0-19.0-0.9,57920,List2B,white,man,,,,null,,,,
null,"<img src=""stim_listB/kiss3.gif""style=""height:400px;""></stim_listB>",,html-keyboard-response,381,1771701,0.0-19.0-1.9,57920,List2B,white,man,,,,null,,,,
null,is kissing,,html-keyboard-response,382,1773709,0.0-19.0-2.9,57920,List2B,white,man,,,,null,,,,
9675,,,survey-text,383,1783387,0.0-19.0-3.9,57920,List2B,white,man,,,,,"{""Q0"":""Beth is kissing Fred""}","<img src=""stim_listB/kiss3.gif""style=""height:400px;""></stim_listB>",is kissing,
null,"<div style=""font-size:60px;"">+</div>",,html-keyboard-response,384,1783891,0.0-19.0-0.10,57920,List2B,white,man,,,,null,,,,
null,"<img src=""stim_listB/talk5.gif""style=""height:400px;""></stim_listB>",,html-keyboard-response,385,1785902,0.0-19.0-1.10,57920,List2B,white,man,,,,null,,,,
null,is talking to,,html-keyboard-response,386,1787919,0.0-19.0-2.10,57920,List2B,white,man,,,,null,,,,
8447,,,survey-text,387,1796369,0.0-19.0-3.10,57920,List2B,white,man,,,,,"{""Q0"":""Mike is talking to Luke""}","<img src=""stim_listB/talk5.gif""style=""height:400px;""></stim_listB>",is talking to,
null,"<div style=""font-size:60px;"">+</div>",,html-keyboard-response,388,1796871,0.0-19.0-0.11,57920,List2B,white,man,,,,null,,,,
null,"<img src=""stim_listB/fight6.gif""style=""height:400px;""></stim_listB>",,html-keyboard-response,389,1798879,0.0-19.0-1.11,57920,List2B,white,man,,,,null,,,,
null,are fighting each other,,html-keyboard-response,390,1800892,0.0-19.0-2.11,57920,List2B,white,man,,,,null,,,,
12286,,,survey-text,391,1813182,0.0-19.0-3.11,57920,List2B,white,man,,,,,"{""Q0"":""Luke and Fred are fighting each other""}","<img src=""stim_listB/fight6.gif""style=""height:400px;""></stim_listB>",are fighting each other,
null,"<div style=""font-size:60px;"">+</div>",,html-keyboard-response,392,1813684,0.0-19.0-0.12,57920,List2B,white,man,,,,null,,,,
null,"<img src=""stim_listB/shout3.gif""style=""height:400px;""></stim_listB>",,html-keyboard-response,393,1815690,0.0-19.0-1.12,57920,List2B,white,man,,,,null,,,,
null,is shouting at,,html-keyboard-response,394,1817694,0.0-19.0-2.12,57920,List2B,white,man,,,,null,,,,
10971,,,survey-text,395,1828668,0.0-19.0-3.12,57920,List2B,white,man,,,,,"{""Q0"":""Fred is shouting at Beth""}","<img src=""stim_listB/shout3.gif""style=""height:400px;""></stim_listB>",is shouting at,
null,"<div style=""font-size:60px;"">+</div>",,html-keyboard-response,396,1829179,0.0-19.0-0.13,57920,List2B,white,man,,,,null,,,,
null,"<img src=""stim_listB/play6.gif""style=""height:400px;""></stim_listB>",,html-keyboard-response,397,1831199,0.0-19.0-1.13,57920,List2B,white,man,,,,null,,,,
null,are playing with each other,,html-keyboard-response,398,1833207,0.0-19.0-2.13,57920,List2B,white,man,,,,null,,,,
12064,,,survey-text,399,1845275,0.0-19.0-3.13,57920,List2B,white,man,,,,,"{""Q0"":""Fred and Luke are playing with each other""}","<img src=""stim_listB/play6.gif""style=""height:400px;""></stim_listB>",are playing with each other,
null,"<div style=""font-size:60px;"">+</div>",,html-keyboard-response,400,1845780,0.0-19.0-0.14,57920,List2B,white,man,,,,null,,,,
null,"<img src=""stim_listB/kiss1.gif""style=""height:400px;""></stim_listB>",,html-keyboard-response,401,1847791,0.0-19.0-1.14,57920,List2B,white,man,,,,null,,,,
null,is kissing,,html-keyboard-response,402,1849796,0.0-19.0-2.14,57920,List2B,white,man,,,,null,,,,
8308,,,survey-text,403,1858108,0.0-19.0-3.14,57920,List2B,white,man,,,,,"{""Q0"":""Ruth is kissing Luke""}","<img src=""stim_listB/kiss1.gif""style=""height:400px;""></stim_listB>",is kissing,
null,"<div style=""font-size:60px;"">+</div>",,html-keyboard-response,404,1858610,0.0-19.0-0.15,57920,List2B,white,man,,,,null,,,,
null,"<img src=""stim_listB/kiss8.gif""style=""height:400px;""></stim_listB>",,html-keyboard-response,405,1860622,0.0-19.0-1.15,57920,List2B,white,man,,,,null,,,,
null,are kissing each other,,html-keyboard-response,406,1862635,0.0-19.0-2.15,57920,List2B,white,man,,,,null,,,,
12339,,,survey-text,407,1874977,0.0-19.0-3.15,57920,List2B,white,man,,,,,"{""Q0"":""Jane and Kate are kissing each other""}","<img src=""stim_listB/kiss8.gif""style=""height:400px;""></stim_listB>",are kissing each other,
null,"<div style=""font-size:60px;"">+</div>",,html-keyboard-response,408,1875484,0.0-19.0-0.16,57920,List2B,white,man,,,,null,,,,
null,"<img src=""stim_listB/play4.gif""style=""height:400px;""></stim_listB>",,html-keyboard-response,409,1877488,0.0-19.0-1.16,57920,List2B,white,man,,,,null,,,,
null,are playing with each other,,html-keyboard-response,410,1879498,0.0-19.0-2.16,57920,List2B,white,man,,,,null,,,,
14041,,,survey-text,411,1893543,0.0-19.0-3.16,57920,List2B,white,man,,,,,"{""Q0"":""Fred and Beth are playing with each other""}","<img src=""stim_listB/play4.gif""style=""height:400px;""></stim_listB>",are playing with each other,
null,"<div style=""font-size:60px;"">+</div>",,html-keyboard-response,412,1894048,0.0-19.0-0.17,57920,List2B,white,man,,,,null,,,,
null,"<img src=""stim_listB/fight2.gif""style=""height:400px;""></stim_listB>",,html-keyboard-response,413,1896053,0.0-19.0-1.17,57920,List2B,white,man,,,,null,,,,
null,are fighting each other,,html-keyboard-response,414,1898056,0.0-19.0-2.17,57920,List2B,white,man,,,,null,,,,
10785,,,survey-text,415,1908844,0.0-19.0-3.17,57920,List2B,white,man,,,,,"{""Q0"":""Luke and Ruth are fighting each other""}","<img src=""stim_listB/fight2.gif""style=""height:400px;""></stim_listB>",are fighting each other,
null,"<div style=""font-size:60px;"">+</div>",,html-keyboard-response,416,1909347,0.0-19.0-0.18,57920,List2B,white,man,,,,null,,,,
null,"<img src=""stim_listB/shout4.gif""style=""height:400px;""></stim_listB>",,html-keyboard-response,417,1911380,0.0-19.0-1.18,57920,List2B,white,man,,,,null,,,,
null,are shouting at each other,,html-keyboard-response,418,1913394,0.0-19.0-2.18,57920,List2B,white,man,,,,null,,,,
18840,,,survey-text,419,1932237,0.0-19.0-3.18,57920,List2B,white,man,,,,,"{""Q0"":""Mike and Kate are shouting at each other""}","<img src=""stim_listB/shout4.gif""style=""height:400px;""></stim_listB>",are shouting at each other,
null,"<div style=""font-size:60px;"">+</div>",,html-keyboard-response,420,1932739,0.0-19.0-0.19,57920,List2B,white,man,,,,null,,,,
null,"<img src=""stim_listB/talk1.gif""style=""height:400px;""></stim_listB>",,html-keyboard-response,421,1934746,0.0-19.0-1.19,57920,List2B,white,man,,,,null,,,,
null,is talking to,,html-keyboard-response,422,1936752,0.0-19.0-2.19,57920,List2B,white,man,,,,null,,,,
11760,,,survey-text,423,1948516,0.0-19.0-3.19,57920,List2B,white,man,,,,,"{""Q0"":""Jane is talking to Luke""}","<img src=""stim_listB/talk1.gif""style=""height:400px;""></stim_listB>",is talking to,
3555,<p>Thank you for completing that task.</p><p>The final part of this session is a short questionnaire.</p><p>Press Continue.</p>,0,html-button-response,424,1952074,0.0-20.0,57920,List2B,white,man,,,,,,,,
28123,,,survey-text,425,1981219,0.0-21.0,57920,List2B,white,man,,,,,"{""Q0"":""50"",""Q1"":""English"",""Q2"":""English"",""Q3"":""Scotland"",""Q4"":""White"",""Q5"":""Female""}",,,demographics
7546,,,survey-likert,426,1988771,0.0-22.0,57920,List2B,white,man,,,,,"{""Q0"":4}",,,likert_ESS
8947,,,survey-likert,427,1997722,0.0-23.0,57920,List2B,white,man,,,,,"{""Q0"":4}",,,likert_NSSAL_Q1
4315,,,survey-likert,428,2002041,0.0-24.0,57920,List2B,white,man,,,,,"{""Q0"":4}",,,likert_NSSAL_Q2
4570,,,survey-likert,429,2006616,0.0-25.0,57920,List2B,white,man,,,,,"{""Q0"":4}",,,likert_CGRS_Q1
4259,,,survey-likert,430,2010880,0.0-26.0,57920,List2B,white,man,,,,,"{""Q0"":4}",,,likert_CGRS_Q2
3266,,,survey-likert,431,2014152,0.0-27.0,57920,List2B,white,man,,,,,"{""Q0"":4}",,,likert_CGRS_Q3
13648,,,survey-text,432,2027804,0.0-28.0,57920,List2B,white,man,,,,,"{""Q0"":""ccc""}",,,worker_id
29135,,,external-html,433,2057010,0.0-29.0,57920,List2B,white,man,debrief.html,,,,,,,
