rt,stimulus,button_pressed,trial_type,trial_index,time_elapsed,internal_node_id,subject,list,ppt_race,ppt_gender,url,first_guess,correct,key_press,responses,image_type,phrase_type,test_part
10217,Welcome to the experiment. Press Continue to begin.,0,html-button-response,0,10224,0.0-0.0,58025,List1B,black,man,,,,,,,,
65359,,,external-html,1,76836,0.0-1.0,58025,List1B,black,man,consent.html,,,,,,,
117936,"<p>On the next page, you will see portraits of 8 people and their names.</p><p>Your first task is to take a few minutes to memorise the names of these people.</p><p>You will have to recall their names during the rest of the experiment, so it is</p><p>essential that you try to memorise these people and their names as best as you can.</p><br><p><strong>You will then be tested on your memory of these names and portraits.</strong></p><br><p>The experiment will start after you have completed this memory test.</p><br><p>Ready?</p>",0,html-button-response,2,194776,0.0-2.0,58025,List1B,black,man,,,,,,,,
85235,"<img src='img/portrait_matrix_list1.jpg' style='width:900px;height:500px;''></img><p>If you have memorised all the portraits and names and are ready to start, press Continue.</p><p><strong>Please note: Your memory of these faces will be tested 4 times during this experiment.</strong></p>",0,html-button-response,3,281015,0.0-3.0-0.0,58025,List1B,black,man,,,,,,,,
11444,"<img src=""portrait/BW2.jpg""style=""height:400px;""></img>",2,html-button-response,4,293464,0.0-3.0-1.0,58025,List1B,black,man,,TRUE,2,,,,,
null,CORRECT,,html-keyboard-response,5,294970,0.0-3.0-2.0-0.0,58025,List1B,black,man,,,,null,,,,
13688,"<img src=""portrait/WW2.jpg""style=""height:400px;""></img>",3,html-button-response,6,308662,0.0-3.0-4.0,58025,List1B,black,man,,TRUE,3,,,,,
null,CORRECT,,html-keyboard-response,7,310166,0.0-3.0-5.0-0.0,58025,List1B,black,man,,,,null,,,,
26941,"<img src=""portrait/WW1.jpg""style=""height:400px;""></img>",1,html-button-response,8,337111,0.0-3.0-7.0,58025,List1B,black,man,,TRUE,1,,,,,
null,CORRECT,,html-keyboard-response,9,338617,0.0-3.0-8.0-0.0,58025,List1B,black,man,,,,null,,,,
4116,"<img src=""portrait/BW1.jpg""style=""height:400px;""></img>",0,html-button-response,10,342737,0.0-3.0-10.0,58025,List1B,black,man,,TRUE,0,,,,,
null,CORRECT,,html-keyboard-response,11,344242,0.0-3.0-11.0-0.0,58025,List1B,black,man,,,,null,,,,
9066,"<img src=""portrait/BM2.jpg""style=""height:400px;""></img>",5,html-button-response,12,353311,0.0-3.0-13.0,58025,List1B,black,man,,TRUE,5,,,,,
null,CORRECT,,html-keyboard-response,13,354815,0.0-3.0-14.0-0.0,58025,List1B,black,man,,,,null,,,,
5788,"<img src=""portrait/WM1.jpg""style=""height:400px;""></img>",7,html-button-response,14,360606,0.0-3.0-16.0,58025,List1B,black,man,,TRUE,6,,,,,
8019,"<img src=""portrait/WM1.jpg""style=""height:400px;""></img>",6,html-button-response,15,369631,0.0-3.0-18.0-0.0,58025,List1B,black,man,,FALSE,6,,,,,
null,CORRECT,,html-keyboard-response,16,371136,0.0-3.0-18.0-1.0-0.0,58025,List1B,black,man,,,,null,,,,
3290,"<img src=""portrait/WM2.jpg""style=""height:400px;""></img>",7,html-button-response,17,374431,0.0-3.0-19.0,58025,List1B,black,man,,TRUE,7,,,,,
null,CORRECT,,html-keyboard-response,18,375936,0.0-3.0-20.0-0.0,58025,List1B,black,man,,,,null,,,,
6419,"<img src=""portrait/BM1.jpg""style=""height:400px;""></img>",4,html-button-response,19,382358,0.0-3.0-22.0,58025,List1B,black,man,,TRUE,4,,,,,
null,CORRECT,,html-keyboard-response,20,383862,0.0-3.0-23.0-0.0,58025,List1B,black,man,,,,null,,,,
1899,<p>You got 7 out of 8 right first time. Press Continue.</p>,0,html-button-response,21,385764,0.0-3.0-25.0,58025,List1B,black,man,,,,,,,,
2434,"As you did not score 100%, the memory game will repeat. Press Continue.",0,html-button-response,22,389201,0.0-3.0-26.0-0.0,58025,List1B,black,man,,,,,,,,
66216,"<img src='img/portrait_matrix_list1.jpg' style='width:900px;height:500px;''></img><p>If you have memorised all the portraits and names and are ready to start, press Continue.</p><p><strong>Please note: Your memory of these faces will be tested 4 times during this experiment.</strong></p>",0,html-button-response,23,456423,0.0-3.1-0.1,58025,List1B,black,man,,,,,,,,
4577,"<img src=""portrait/BW2.jpg""style=""height:400px;""></img>",0,html-button-response,24,462005,0.0-3.1-1.1,58025,List1B,black,man,,TRUE,2,,,,,
7729,"<img src=""portrait/BW2.jpg""style=""height:400px;""></img>",2,html-button-response,25,470738,0.0-3.1-3.1-0.1,58025,List1B,black,man,,FALSE,2,,,,,
null,CORRECT,,html-keyboard-response,26,472242,0.0-3.1-3.1-1.1-0.1,58025,List1B,black,man,,,,null,,,,
4178,"<img src=""portrait/WW2.jpg""style=""height:400px;""></img>",3,html-button-response,27,476424,0.0-3.1-4.1,58025,List1B,black,man,,TRUE,3,,,,,
null,CORRECT,,html-keyboard-response,28,477929,0.0-3.1-5.1-0.1,58025,List1B,black,man,,,,null,,,,
11276,"<img src=""portrait/WW1.jpg""style=""height:400px;""></img>",1,html-button-response,29,489208,0.0-3.1-7.1,58025,List1B,black,man,,TRUE,1,,,,,
null,CORRECT,,html-keyboard-response,30,490712,0.0-3.1-8.1-0.1,58025,List1B,black,man,,,,null,,,,
3998,"<img src=""portrait/BW1.jpg""style=""height:400px;""></img>",0,html-button-response,31,494713,0.0-3.1-10.1,58025,List1B,black,man,,TRUE,0,,,,,
null,CORRECT,,html-keyboard-response,32,496217,0.0-3.1-11.1-0.1,58025,List1B,black,man,,,,null,,,,
3787,"<img src=""portrait/BM2.jpg""style=""height:400px;""></img>",5,html-button-response,33,500008,0.0-3.1-13.1,58025,List1B,black,man,,TRUE,5,,,,,
null,CORRECT,,html-keyboard-response,34,501512,0.0-3.1-14.1-0.1,58025,List1B,black,man,,,,null,,,,
4767,"<img src=""portrait/WM1.jpg""style=""height:400px;""></img>",6,html-button-response,35,506282,0.0-3.1-16.1,58025,List1B,black,man,,TRUE,6,,,,,
null,CORRECT,,html-keyboard-response,36,507786,0.0-3.1-17.1-0.1,58025,List1B,black,man,,,,null,,,,
4515,"<img src=""portrait/WM2.jpg""style=""height:400px;""></img>",7,html-button-response,37,512305,0.0-3.1-19.1,58025,List1B,black,man,,TRUE,7,,,,,
null,CORRECT,,html-keyboard-response,38,513808,0.0-3.1-20.1-0.1,58025,List1B,black,man,,,,null,,,,
3388,"<img src=""portrait/BM1.jpg""style=""height:400px;""></img>",4,html-button-response,39,517200,0.0-3.1-22.1,58025,List1B,black,man,,TRUE,4,,,,,
null,CORRECT,,html-keyboard-response,40,518704,0.0-3.1-23.1-0.1,58025,List1B,black,man,,,,null,,,,
1622,<p>You got 7 out of 8 right first time. Press Continue.</p>,0,html-button-response,41,520330,0.0-3.1-25.1,58025,List1B,black,man,,,,,,,,
1131,"As you did not score 100%, the memory game will repeat. Press Continue.",0,html-button-response,42,522464,0.0-3.1-26.1-0.1,58025,List1B,black,man,,,,,,,,
14976,"<img src='img/portrait_matrix_list1.jpg' style='width:900px;height:500px;''></img><p>If you have memorised all the portraits and names and are ready to start, press Continue.</p><p><strong>Please note: Your memory of these faces will be tested 4 times during this experiment.</strong></p>",0,html-button-response,43,538444,0.0-3.2-0.2,58025,List1B,black,man,,,,,,,,
4452,"<img src=""portrait/BW2.jpg""style=""height:400px;""></img>",2,html-button-response,44,543904,0.0-3.2-1.2,58025,List1B,black,man,,TRUE,2,,,,,
null,CORRECT,,html-keyboard-response,45,545407,0.0-3.2-2.2-0.2,58025,List1B,black,man,,,,null,,,,
5617,"<img src=""portrait/WW2.jpg""style=""height:400px;""></img>",3,html-button-response,46,551027,0.0-3.2-4.2,58025,List1B,black,man,,TRUE,3,,,,,
null,CORRECT,,html-keyboard-response,47,552532,0.0-3.2-5.2-0.2,58025,List1B,black,man,,,,null,,,,
7681,"<img src=""portrait/WW1.jpg""style=""height:400px;""></img>",1,html-button-response,48,560216,0.0-3.2-7.2,58025,List1B,black,man,,TRUE,1,,,,,
null,CORRECT,,html-keyboard-response,49,561720,0.0-3.2-8.2-0.2,58025,List1B,black,man,,,,null,,,,
3412,"<img src=""portrait/BW1.jpg""style=""height:400px;""></img>",0,html-button-response,50,565135,0.0-3.2-10.2,58025,List1B,black,man,,TRUE,0,,,,,
null,CORRECT,,html-keyboard-response,51,566639,0.0-3.2-11.2-0.2,58025,List1B,black,man,,,,null,,,,
4442,"<img src=""portrait/BM2.jpg""style=""height:400px;""></img>",5,html-button-response,52,571083,0.0-3.2-13.2,58025,List1B,black,man,,TRUE,5,,,,,
null,CORRECT,,html-keyboard-response,53,572589,0.0-3.2-14.2-0.2,58025,List1B,black,man,,,,null,,,,
2843,"<img src=""portrait/WM1.jpg""style=""height:400px;""></img>",6,html-button-response,54,575439,0.0-3.2-16.2,58025,List1B,black,man,,TRUE,6,,,,,
null,CORRECT,,html-keyboard-response,55,576942,0.0-3.2-17.2-0.2,58025,List1B,black,man,,,,null,,,,
3373,"<img src=""portrait/WM2.jpg""style=""height:400px;""></img>",7,html-button-response,56,580318,0.0-3.2-19.2,58025,List1B,black,man,,TRUE,7,,,,,
null,CORRECT,,html-keyboard-response,57,581821,0.0-3.2-20.2-0.2,58025,List1B,black,man,,,,null,,,,
5072,"<img src=""portrait/BM1.jpg""style=""height:400px;""></img>",4,html-button-response,58,586897,0.0-3.2-22.2,58025,List1B,black,man,,TRUE,4,,,,,
null,CORRECT,,html-keyboard-response,59,588402,0.0-3.2-23.2-0.2,58025,List1B,black,man,,,,null,,,,
2613,<p>You got 8 out of 8 right first time. Press Continue.</p>,0,html-button-response,60,591017,0.0-3.2-25.2,58025,List1B,black,man,,,,,,,,
32051,"<p>In this experiment, you will view photographs of the people from the memory game interacting.</p><p>By using the <strong>exact</strong> phrase given <i>after</i> the photograph appears and recalling the correct names of the people in the photographs, form a sentence describing the interaction. You do not need to capitalise names.</p><p>Type your answer in the space provided. Please complete every sentence before moving onto the next trial.</p><p>You will only have a few seconds to memorise each given photograph and phrase before you can respond, so try your best to focus.</p><p>An example is given below. Press 'Continue' when you are ready.</p><img src='img/speaking_example.jpg' style='width:800px;height:460px;''></img>",0,html-button-response,61,624073,0.0-4.0,58025,List1B,black,man,,,,,,,,
2216,"<p>Before the experiment starts, you will watch two example trials. Press 'Continue'.</p>",0,html-button-response,62,627293,0.0-5.0,58025,List1B,black,man,,,,,,,,
null,<img src='img/meet_eg.gif' style='height:400px;''></img>,,html-keyboard-response,63,630298,0.0-6.0,58025,List1B,black,man,,,,null,,,,
null,<p>is meeting</p>,,html-keyboard-response,64,632300,0.0-7.0,58025,List1B,black,man,,,,null,,,,
19294,<p><b>Answer:</b> kate is meeting beth</p>,0,html-button-response,65,651596,0.0-8.0,58025,List1B,black,man,,,,,,,,
null,<img src='img/look_eg.gif' style='height:400px;''></img>,,html-keyboard-response,66,654600,0.0-9.0,58025,List1B,black,man,,,,null,,,,
null,<p>are looking at each other</p>,,html-keyboard-response,67,656602,0.0-10.0,58025,List1B,black,man,,,,null,,,,
6108,<p><b>Answer:</b> luke and dave are looking at each other</p>,0,html-button-response,68,662712,0.0-11.0,58025,List1B,black,man,,,,,,,,
20773,"<p>Ready to start the experiment?</p><br><p><strong>Remember to describe the picture using a full sentence,</strong></p><p><strong>that combines the names of the people with the <i>exact</i> phrase given.</strong></p><p><strong>To receive full payment you must do this correctly.</strong></p><p><strong> You do not need to capitalise names or use punctuation.</strong></p><br><p>Press 'Continue' to begin.</p>",0,html-button-response,69,684489,0.0-12.0,58025,List1B,black,man,,,,,,,,
null,"<div style=""font-size:60px;"">+</div>",,html-keyboard-response,70,685994,0.0-13.0-0.0,58025,List1B,black,man,,,,null,,,,
null,"<img src=""stim_listB/dance4.gif""style=""height:400px;""></stim_listB>",,html-keyboard-response,71,687997,0.0-13.0-1.0,58025,List1B,black,man,,,,null,,,,
null,are dancing with each other,,html-keyboard-response,72,690000,0.0-13.0-2.0,58025,List1B,black,man,,,,null,,,,
11375,,,survey-text,73,701379,0.0-13.0-3.0,58025,List1B,black,man,,,,,"{""Q0"":""ruth and dave are dancing with eachother""}","<img src=""stim_listB/dance4.gif""style=""height:400px;""></stim_listB>",are dancing with each other,
null,"<div style=""font-size:60px;"">+</div>",,html-keyboard-response,74,701883,0.0-13.0-0.1,58025,List1B,black,man,,,,null,,,,
null,"<img src=""stim_listB/talk2.gif""style=""height:400px;""></stim_listB>",,html-keyboard-response,75,703886,0.0-13.0-1.1,58025,List1B,black,man,,,,null,,,,
null,are talking to each other,,html-keyboard-response,76,705889,0.0-13.0-2.1,58025,List1B,black,man,,,,null,,,,
14358,,,survey-text,77,720250,0.0-13.0-3.1,58025,List1B,black,man,,,,,"{""Q0"":""beth and mike are talking to eachother""}","<img src=""stim_listB/talk2.gif""style=""height:400px;""></stim_listB>",are talking to each other,
null,"<div style=""font-size:60px;"">+</div>",,html-keyboard-response,78,720753,0.0-13.0-0.2,58025,List1B,black,man,,,,null,,,,
null,"<img src=""stim_listB/fight2.gif""style=""height:400px;""></stim_listB>",,html-keyboard-response,79,722757,0.0-13.0-1.2,58025,List1B,black,man,,,,null,,,,
null,are fighting each other,,html-keyboard-response,80,724760,0.0-13.0-2.2,58025,List1B,black,man,,,,null,,,,
14561,,,survey-text,81,739323,0.0-13.0-3.2,58025,List1B,black,man,,,,,"{""Q0"":""fred and beth are fighting with eachother""}","<img src=""stim_listB/fight2.gif""style=""height:400px;""></stim_listB>",are fighting each other,
null,"<div style=""font-size:60px;"">+</div>",,html-keyboard-response,82,739826,0.0-13.0-0.3,58025,List1B,black,man,,,,null,,,,
null,"<img src=""stim_listB/shout2.gif""style=""height:400px;""></stim_listB>",,html-keyboard-response,83,741830,0.0-13.0-1.3,58025,List1B,black,man,,,,null,,,,
null,are shouting at each other,,html-keyboard-response,84,743832,0.0-13.0-2.3,58025,List1B,black,man,,,,null,,,,
21987,,,survey-text,85,765821,0.0-13.0-3.3,58025,List1B,black,man,,,,,"{""Q0"":""kate and mike are shouting with eachother""}","<img src=""stim_listB/shout2.gif""style=""height:400px;""></stim_listB>",are shouting at each other,
null,"<div style=""font-size:60px;"">+</div>",,html-keyboard-response,86,766324,0.0-13.0-0.4,58025,List1B,black,man,,,,null,,,,
null,"<img src=""stim_listB/play5.gif""style=""height:400px;""></stim_listB>",,html-keyboard-response,87,768328,0.0-13.0-1.4,58025,List1B,black,man,,,,null,,,,
null,is playing with,,html-keyboard-response,88,770330,0.0-13.0-2.4,58025,List1B,black,man,,,,null,,,,
5966,,,survey-text,89,776298,0.0-13.0-3.4,58025,List1B,black,man,,,,,"{""Q0"":""mike is playing with dave""}","<img src=""stim_listB/play5.gif""style=""height:400px;""></stim_listB>",is playing with,
null,"<div style=""font-size:60px;"">+</div>",,html-keyboard-response,90,776801,0.0-13.0-0.5,58025,List1B,black,man,,,,null,,,,
null,"<img src=""stim_listB/dance1.gif""style=""height:400px;""></stim_listB>",,html-keyboard-response,91,778805,0.0-13.0-1.5,58025,List1B,black,man,,,,null,,,,
null,is dancing with,,html-keyboard-response,92,780807,0.0-13.0-2.5,58025,List1B,black,man,,,,null,,,,
16417,,,survey-text,93,797226,0.0-13.0-3.5,58025,List1B,black,man,,,,,"{""Q0"":""fred is dancing with kate""}","<img src=""stim_listB/dance1.gif""style=""height:400px;""></stim_listB>",is dancing with,
null,"<div style=""font-size:60px;"">+</div>",,html-keyboard-response,94,797729,0.0-13.0-0.6,58025,List1B,black,man,,,,null,,,,
null,"<img src=""stim_listB/talk1.gif""style=""height:400px;""></stim_listB>",,html-keyboard-response,95,799732,0.0-13.0-1.6,58025,List1B,black,man,,,,null,,,,
null,is talking to,,html-keyboard-response,96,801735,0.0-13.0-2.6,58025,List1B,black,man,,,,null,,,,
10544,,,survey-text,97,812281,0.0-13.0-3.6,58025,List1B,black,man,,,,,"{""Q0"":""kate is talking to fred""}","<img src=""stim_listB/talk1.gif""style=""height:400px;""></stim_listB>",is talking to,
null,"<div style=""font-size:60px;"">+</div>",,html-keyboard-response,98,812784,0.0-13.0-0.7,58025,List1B,black,man,,,,null,,,,
null,"<img src=""stim_listB/touch6.gif""style=""height:400px;""></stim_listB>",,html-keyboard-response,99,814786,0.0-13.0-1.7,58025,List1B,black,man,,,,null,,,,
null,are touching each other,,html-keyboard-response,100,816789,0.0-13.0-2.7,58025,List1B,black,man,,,,null,,,,
12417,,,survey-text,101,829208,0.0-13.0-3.7,58025,List1B,black,man,,,,,"{""Q0"":""luke is playing with fred""}","<img src=""stim_listB/touch6.gif""style=""height:400px;""></stim_listB>",are touching each other,
null,"<div style=""font-size:60px;"">+</div>",,html-keyboard-response,102,829711,0.0-13.0-0.8,58025,List1B,black,man,,,,null,,,,
null,"<img src=""stim_listB/flirt4.gif""style=""height:400px;""></stim_listB>",,html-keyboard-response,103,831714,0.0-13.0-1.8,58025,List1B,black,man,,,,null,,,,
null,are flirting with each other,,html-keyboard-response,104,833717,0.0-13.0-2.8,58025,List1B,black,man,,,,null,,,,
9815,,,survey-text,105,843534,0.0-13.0-3.8,58025,List1B,black,man,,,,,"{""Q0"":""ruth and dave are flirting with eachother""}","<img src=""stim_listB/flirt4.gif""style=""height:400px;""></stim_listB>",are flirting with each other,
null,"<div style=""font-size:60px;"">+</div>",,html-keyboard-response,106,844037,0.0-13.0-0.9,58025,List1B,black,man,,,,null,,,,
null,"<img src=""stim_listB/kiss5.gif""style=""height:400px;""></stim_listB>",,html-keyboard-response,107,846040,0.0-13.0-1.9,58025,List1B,black,man,,,,null,,,,
null,is kissing,,html-keyboard-response,108,848043,0.0-13.0-2.9,58025,List1B,black,man,,,,null,,,,
7032,,,survey-text,109,855077,0.0-13.0-3.9,58025,List1B,black,man,,,,,"{""Q0"":""fred is kissing luke""}","<img src=""stim_listB/kiss5.gif""style=""height:400px;""></stim_listB>",is kissing,
null,"<div style=""font-size:60px;"">+</div>",,html-keyboard-response,110,855580,0.0-13.0-0.10,58025,List1B,black,man,,,,null,,,,
null,"<img src=""stim_listB/fight4.gif""style=""height:400px;""></stim_listB>",,html-keyboard-response,111,857584,0.0-13.0-1.10,58025,List1B,black,man,,,,null,,,,
null,are fighting each other,,html-keyboard-response,112,859586,0.0-13.0-2.10,58025,List1B,black,man,,,,null,,,,
11139,,,survey-text,113,870726,0.0-13.0-3.10,58025,List1B,black,man,,,,,"{""Q0"":""ruth and luke are fighting with eachother""}","<img src=""stim_listB/fight4.gif""style=""height:400px;""></stim_listB>",are fighting each other,
null,"<div style=""font-size:60px;"">+</div>",,html-keyboard-response,114,871229,0.0-13.0-0.11,58025,List1B,black,man,,,,null,,,,
null,"<img src=""stim_listB/play1.gif""style=""height:400px;""></stim_listB>",,html-keyboard-response,115,873232,0.0-13.0-1.11,58025,List1B,black,man,,,,null,,,,
null,is playing with,,html-keyboard-response,116,875234,0.0-13.0-2.11,58025,List1B,black,man,,,,null,,,,
10071,,,survey-text,117,885306,0.0-13.0-3.11,58025,List1B,black,man,,,,,"{""Q0"":""mike is playing with kate""}","<img src=""stim_listB/play1.gif""style=""height:400px;""></stim_listB>",is playing with,
null,"<div style=""font-size:60px;"">+</div>",,html-keyboard-response,118,885809,0.0-13.0-0.12,58025,List1B,black,man,,,,null,,,,
null,"<img src=""stim_listB/flirt3.gif""style=""height:400px;""></stim_listB>",,html-keyboard-response,119,887813,0.0-13.0-1.12,58025,List1B,black,man,,,,null,,,,
null,is flirting with,,html-keyboard-response,120,889815,0.0-13.0-2.12,58025,List1B,black,man,,,,null,,,,
12228,,,survey-text,121,902045,0.0-13.0-3.12,58025,List1B,black,man,,,,,"{""Q0"":""jane is playing with luke""}","<img src=""stim_listB/flirt3.gif""style=""height:400px;""></stim_listB>",is flirting with,
null,"<div style=""font-size:60px;"">+</div>",,html-keyboard-response,122,902549,0.0-13.0-0.13,58025,List1B,black,man,,,,null,,,,
null,"<img src=""stim_listB/marry3.gif""style=""height:400px;""></stim_listB>",,html-keyboard-response,123,904552,0.0-13.0-1.13,58025,List1B,black,man,,,,null,,,,
null,is marrying,,html-keyboard-response,124,906554,0.0-13.0-2.13,58025,List1B,black,man,,,,null,,,,
7212,,,survey-text,125,913768,0.0-13.0-3.13,58025,List1B,black,man,,,,,"{""Q0"":""ruth is marrying dave""}","<img src=""stim_listB/marry3.gif""style=""height:400px;""></stim_listB>",is marrying,
null,"<div style=""font-size:60px;"">+</div>",,html-keyboard-response,126,914271,0.0-13.0-0.14,58025,List1B,black,man,,,,null,,,,
null,"<img src=""stim_listB/argue1.gif""style=""height:400px;""></stim_listB>",,html-keyboard-response,127,916275,0.0-13.0-1.14,58025,List1B,black,man,,,,null,,,,
null,is arguing with,,html-keyboard-response,128,918279,0.0-13.0-2.14,58025,List1B,black,man,,,,null,,,,
10551,,,survey-text,129,928832,0.0-13.0-3.14,58025,List1B,black,man,,,,,"{""Q0"":""mike is arguing with beth""}","<img src=""stim_listB/argue1.gif""style=""height:400px;""></stim_listB>",is arguing with,
null,"<div style=""font-size:60px;"">+</div>",,html-keyboard-response,130,929335,0.0-13.0-0.15,58025,List1B,black,man,,,,null,,,,
null,"<img src=""stim_listB/kiss8.gif""style=""height:400px;""></stim_listB>",,html-keyboard-response,131,931338,0.0-13.0-1.15,58025,List1B,black,man,,,,null,,,,
null,are kissing each other,,html-keyboard-response,132,933342,0.0-13.0-2.15,58025,List1B,black,man,,,,null,,,,
5277,,,survey-text,133,938621,0.0-13.0-3.15,58025,List1B,black,man,,,,,"{""Q0"":""""}","<img src=""stim_listB/kiss8.gif""style=""height:400px;""></stim_listB>",are kissing each other,
null,"<div style=""font-size:60px;"">+</div>",,html-keyboard-response,134,939123,0.0-13.0-0.16,58025,List1B,black,man,,,,null,,,,
null,"<img src=""stim_listB/dance8.gif""style=""height:400px;""></stim_listB>",,html-keyboard-response,135,941126,0.0-13.0-1.16,58025,List1B,black,man,,,,null,,,,
null,are dancing with each other,,html-keyboard-response,136,943128,0.0-13.0-2.16,58025,List1B,black,man,,,,null,,,,
21782,,,survey-text,137,964911,0.0-13.0-3.16,58025,List1B,black,man,,,,,"{""Q0"":""ruth and beth are dancing with eachother""}","<img src=""stim_listB/dance8.gif""style=""height:400px;""></stim_listB>",are dancing with each other,
null,"<div style=""font-size:60px;"">+</div>",,html-keyboard-response,138,965414,0.0-13.0-0.17,58025,List1B,black,man,,,,null,,,,
null,"<img src=""stim_listB/kiss7.gif""style=""height:400px;""></stim_listB>",,html-keyboard-response,139,967417,0.0-13.0-1.17,58025,List1B,black,man,,,,null,,,,
null,is kissing,,html-keyboard-response,140,969420,0.0-13.0-2.17,58025,List1B,black,man,,,,null,,,,
9047,,,survey-text,141,978469,0.0-13.0-3.17,58025,List1B,black,man,,,,,"{""Q0"":""ruth is kissing beth""}","<img src=""stim_listB/kiss7.gif""style=""height:400px;""></stim_listB>",is kissing,
null,"<div style=""font-size:60px;"">+</div>",,html-keyboard-response,142,978974,0.0-13.0-0.18,58025,List1B,black,man,,,,null,,,,
null,"<img src=""stim_listB/dance2.gif""style=""height:400px;""></stim_listB>",,html-keyboard-response,143,980976,0.0-13.0-1.18,58025,List1B,black,man,,,,null,,,,
null,are dancing with each other,,html-keyboard-response,144,982979,0.0-13.0-2.18,58025,List1B,black,man,,,,null,,,,
11472,,,survey-text,145,994454,0.0-13.0-3.18,58025,List1B,black,man,,,,,"{""Q0"":""beth and mike are dancing with eachother""}","<img src=""stim_listB/dance2.gif""style=""height:400px;""></stim_listB>",are dancing with each other,
null,"<div style=""font-size:60px;"">+</div>",,html-keyboard-response,146,994956,0.0-13.0-0.19,58025,List1B,black,man,,,,null,,,,
null,"<img src=""stim_listB/play3.gif""style=""height:400px;""></stim_listB>",,html-keyboard-response,147,996959,0.0-13.0-1.19,58025,List1B,black,man,,,,null,,,,
null,is playing with,,html-keyboard-response,148,998961,0.0-13.0-2.19,58025,List1B,black,man,,,,null,,,,
11144,,,survey-text,149,1010107,0.0-13.0-3.19,58025,List1B,black,man,,,,,"{""Q0"":""dave is playing with ruth""}","<img src=""stim_listB/play3.gif""style=""height:400px;""></stim_listB>",is playing with,
11636,"<img src='img/portrait_matrix_list1.jpg' style='width:900px;height:500px;''></img><p>If you have memorised all the portraits and names and are ready to start, press Continue.</p><p><strong>Please note: Your memory of these faces will be tested 4 times during this experiment.</strong></p>",0,html-button-response,150,1021747,0.0-14.0-0.0,58025,List1B,black,man,,,,,,,,
5326,"<img src=""portrait/WM1.jpg""style=""height:400px;""></img>",6,html-button-response,151,1028078,0.0-14.0-1.0,58025,List1B,black,man,,TRUE,6,,,,,
null,CORRECT,,html-keyboard-response,152,1029582,0.0-14.0-2.0-0.0,58025,List1B,black,man,,,,null,,,,
7277,"<img src=""portrait/WW1.jpg""style=""height:400px;""></img>",1,html-button-response,153,1036862,0.0-14.0-4.0,58025,List1B,black,man,,TRUE,1,,,,,
null,CORRECT,,html-keyboard-response,154,1038366,0.0-14.0-5.0-0.0,58025,List1B,black,man,,,,null,,,,
7667,"<img src=""portrait/WM2.jpg""style=""height:400px;""></img>",7,html-button-response,155,1046036,0.0-14.0-7.0,58025,List1B,black,man,,TRUE,7,,,,,
null,CORRECT,,html-keyboard-response,156,1047540,0.0-14.0-8.0-0.0,58025,List1B,black,man,,,,null,,,,
5183,"<img src=""portrait/BM1.jpg""style=""height:400px;""></img>",4,html-button-response,157,1052726,0.0-14.0-10.0,58025,List1B,black,man,,TRUE,4,,,,,
null,CORRECT,,html-keyboard-response,158,1054231,0.0-14.0-11.0-0.0,58025,List1B,black,man,,,,null,,,,
3628,"<img src=""portrait/WW2.jpg""style=""height:400px;""></img>",3,html-button-response,159,1057862,0.0-14.0-13.0,58025,List1B,black,man,,TRUE,3,,,,,
null,CORRECT,,html-keyboard-response,160,1059367,0.0-14.0-14.0-0.0,58025,List1B,black,man,,,,null,,,,
3102,"<img src=""portrait/BW1.jpg""style=""height:400px;""></img>",0,html-button-response,161,1062471,0.0-14.0-16.0,58025,List1B,black,man,,TRUE,0,,,,,
null,CORRECT,,html-keyboard-response,162,1063978,0.0-14.0-17.0-0.0,58025,List1B,black,man,,,,null,,,,
4439,"<img src=""portrait/BM2.jpg""style=""height:400px;""></img>",5,html-button-response,163,1068420,0.0-14.0-19.0,58025,List1B,black,man,,TRUE,5,,,,,
null,CORRECT,,html-keyboard-response,164,1069925,0.0-14.0-20.0-0.0,58025,List1B,black,man,,,,null,,,,
5898,"<img src=""portrait/BW2.jpg""style=""height:400px;""></img>",2,html-button-response,165,1075825,0.0-14.0-22.0,58025,List1B,black,man,,TRUE,2,,,,,
null,CORRECT,,html-keyboard-response,166,1077329,0.0-14.0-23.0-0.0,58025,List1B,black,man,,,,null,,,,
1571,<p>You got 8 out of 8 right first time. Press Continue.</p>,0,html-button-response,167,1078902,0.0-14.0-25.0,58025,List1B,black,man,,,,,,,,
null,"<div style=""font-size:60px;"">+</div>",,html-keyboard-response,168,1080406,0.0-15.0-0.0,58025,List1B,black,man,,,,null,,,,
null,"<img src=""stim_listB/fight5.gif""style=""height:400px;""></stim_listB>",,html-keyboard-response,169,1082408,0.0-15.0-1.0,58025,List1B,black,man,,,,null,,,,
null,is fighting,,html-keyboard-response,170,1084411,0.0-15.0-2.0,58025,List1B,black,man,,,,null,,,,
7548,,,survey-text,171,1091961,0.0-15.0-3.0,58025,List1B,black,man,,,,,"{""Q0"":""mike is fighting dave""}","<img src=""stim_listB/fight5.gif""style=""height:400px;""></stim_listB>",is fighting,
null,"<div style=""font-size:60px;"">+</div>",,html-keyboard-response,172,1092463,0.0-15.0-0.1,58025,List1B,black,man,,,,null,,,,
null,"<img src=""stim_listB/kiss4.gif""style=""height:400px;""></stim_listB>",,html-keyboard-response,173,1094467,0.0-15.0-1.1,58025,List1B,black,man,,,,null,,,,
null,are kissing each other,,html-keyboard-response,174,1096470,0.0-15.0-2.1,58025,List1B,black,man,,,,null,,,,
14799,,,survey-text,175,1111271,0.0-15.0-3.1,58025,List1B,black,man,,,,,"{""Q0"":""dave and jane are kissing eachother""}","<img src=""stim_listB/kiss4.gif""style=""height:400px;""></stim_listB>",are kissing each other,
null,"<div style=""font-size:60px;"">+</div>",,html-keyboard-response,176,1111774,0.0-15.0-0.2,58025,List1B,black,man,,,,null,,,,
null,"<img src=""stim_listB/shout3.gif""style=""height:400px;""></stim_listB>",,html-keyboard-response,177,1113776,0.0-15.0-1.2,58025,List1B,black,man,,,,null,,,,
null,is shouting at,,html-keyboard-response,178,1115779,0.0-15.0-2.2,58025,List1B,black,man,,,,null,,,,
9175,,,survey-text,179,1124957,0.0-15.0-3.2,58025,List1B,black,man,,,,,"{""Q0"":""ruth is shouting at luke""}","<img src=""stim_listB/shout3.gif""style=""height:400px;""></stim_listB>",is shouting at,
null,"<div style=""font-size:60px;"">+</div>",,html-keyboard-response,180,1125460,0.0-15.0-0.3,58025,List1B,black,man,,,,null,,,,
null,"<img src=""stim_listB/fight3.gif""style=""height:400px;""></stim_listB>",,html-keyboard-response,181,1127463,0.0-15.0-1.3,58025,List1B,black,man,,,,null,,,,
null,is fighting,,html-keyboard-response,182,1129466,0.0-15.0-2.3,58025,List1B,black,man,,,,null,,,,
10594,,,survey-text,183,1140063,0.0-15.0-3.3,58025,List1B,black,man,,,,,"{""Q0"":""ruth is fighting dave""}","<img src=""stim_listB/fight3.gif""style=""height:400px;""></stim_listB>",is fighting,
null,"<div style=""font-size:60px;"">+</div>",,html-keyboard-response,184,1140567,0.0-15.0-0.4,58025,List1B,black,man,,,,null,,,,
null,"<img src=""stim_listB/marry1.gif""style=""height:400px;""></stim_listB>",,html-keyboard-response,185,1142570,0.0-15.0-1.4,58025,List1B,black,man,,,,null,,,,
null,is marrying,,html-keyboard-response,186,1144572,0.0-15.0-2.4,58025,List1B,black,man,,,,null,,,,
7857,,,survey-text,187,1152431,0.0-15.0-3.4,58025,List1B,black,man,,,,,"{""Q0"":""mike is marrying beth""}","<img src=""stim_listB/marry1.gif""style=""height:400px;""></stim_listB>",is marrying,
null,"<div style=""font-size:60px;"">+</div>",,html-keyboard-response,188,1152935,0.0-15.0-0.5,58025,List1B,black,man,,,,null,,,,
null,"<img src=""stim_listB/dance7.gif""style=""height:400px;""></stim_listB>",,html-keyboard-response,189,1154939,0.0-15.0-1.5,58025,List1B,black,man,,,,null,,,,
null,is dancing with,,html-keyboard-response,190,1156941,0.0-15.0-2.5,58025,List1B,black,man,,,,null,,,,
10354,,,survey-text,191,1167297,0.0-15.0-3.5,58025,List1B,black,man,,,,,"{""Q0"":""jane is dancing with beth""}","<img src=""stim_listB/dance7.gif""style=""height:400px;""></stim_listB>",is dancing with,
null,"<div style=""font-size:60px;"">+</div>",,html-keyboard-response,192,1167800,0.0-15.0-0.6,58025,List1B,black,man,,,,null,,,,
null,"<img src=""stim_listB/shout6.gif""style=""height:400px;""></stim_listB>",,html-keyboard-response,193,1169804,0.0-15.0-1.6,58025,List1B,black,man,,,,null,,,,
null,are shouting at each other,,html-keyboard-response,194,1171806,0.0-15.0-2.6,58025,List1B,black,man,,,,null,,,,
9333,,,survey-text,195,1181140,0.0-15.0-3.6,58025,List1B,black,man,,,,,"{""Q0"":""dave and mike are shouting at eachother""}","<img src=""stim_listB/shout6.gif""style=""height:400px;""></stim_listB>",are shouting at each other,
null,"<div style=""font-size:60px;"">+</div>",,html-keyboard-response,196,1181643,0.0-15.0-0.7,58025,List1B,black,man,,,,null,,,,
null,"<img src=""stim_listB/flirt5.gif""style=""height:400px;""></stim_listB>",,html-keyboard-response,197,1183647,0.0-15.0-1.7,58025,List1B,black,man,,,,null,,,,
null,is flirting with,,html-keyboard-response,198,1185649,0.0-15.0-2.7,58025,List1B,black,man,,,,null,,,,
7354,,,survey-text,199,1193006,0.0-15.0-3.7,58025,List1B,black,man,,,,,"{""Q0"":""fred is flirting with dave""}","<img src=""stim_listB/flirt5.gif""style=""height:400px;""></stim_listB>",is flirting with,
null,"<div style=""font-size:60px;"">+</div>",,html-keyboard-response,200,1193510,0.0-15.0-0.8,58025,List1B,black,man,,,,null,,,,
null,"<img src=""stim_listB/argue7.gif""style=""height:400px;""></stim_listB>",,html-keyboard-response,201,1195513,0.0-15.0-1.8,58025,List1B,black,man,,,,null,,,,
null,is arguing with,,html-keyboard-response,202,1197516,0.0-15.0-2.8,58025,List1B,black,man,,,,null,,,,
11158,,,survey-text,203,1208676,0.0-15.0-3.8,58025,List1B,black,man,,,,,"{""Q0"":""kate is arguing with ruth""}","<img src=""stim_listB/argue7.gif""style=""height:400px;""></stim_listB>",is arguing with,
null,"<div style=""font-size:60px;"">+</div>",,html-keyboard-response,204,1209179,0.0-15.0-0.9,58025,List1B,black,man,,,,null,,,,
null,"<img src=""stim_listB/play4.gif""style=""height:400px;""></stim_listB>",,html-keyboard-response,205,1211182,0.0-15.0-1.9,58025,List1B,black,man,,,,null,,,,
null,are playing with each other,,html-keyboard-response,206,1213184,0.0-15.0-2.9,58025,List1B,black,man,,,,null,,,,
10053,,,survey-text,207,1223240,0.0-15.0-3.9,58025,List1B,black,man,,,,,"{""Q0"":""ruth and luke are playing with eachother""}","<img src=""stim_listB/play4.gif""style=""height:400px;""></stim_listB>",are playing with each other,
null,"<div style=""font-size:60px;"">+</div>",,html-keyboard-response,208,1223743,0.0-15.0-0.10,58025,List1B,black,man,,,,null,,,,
null,"<img src=""stim_listB/fight8.gif""style=""height:400px;""></stim_listB>",,html-keyboard-response,209,1225746,0.0-15.0-1.10,58025,List1B,black,man,,,,null,,,,
null,are fighting each other,,html-keyboard-response,210,1227748,0.0-15.0-2.10,58025,List1B,black,man,,,,null,,,,
12220,,,survey-text,211,1239970,0.0-15.0-3.10,58025,List1B,black,man,,,,,"{""Q0"":""ruth and beth are fighting with eachother""}","<img src=""stim_listB/fight8.gif""style=""height:400px;""></stim_listB>",are fighting each other,
null,"<div style=""font-size:60px;"">+</div>",,html-keyboard-response,212,1240475,0.0-15.0-0.11,58025,List1B,black,man,,,,null,,,,
null,"<img src=""stim_listB/touch8.gif""style=""height:400px;""></stim_listB>",,html-keyboard-response,213,1242477,0.0-15.0-1.11,58025,List1B,black,man,,,,null,,,,
null,are touching each other,,html-keyboard-response,214,1244480,0.0-15.0-2.11,58025,List1B,black,man,,,,null,,,,
14947,,,survey-text,215,1259429,0.0-15.0-3.11,58025,List1B,black,man,,,,,"{""Q0"":""ruth and beth are touching each other""}","<img src=""stim_listB/touch8.gif""style=""height:400px;""></stim_listB>",are touching each other,
null,"<div style=""font-size:60px;"">+</div>",,html-keyboard-response,216,1259932,0.0-15.0-0.12,58025,List1B,black,man,,,,null,,,,
null,"<img src=""stim_listB/argue2.gif""style=""height:400px;""></stim_listB>",,html-keyboard-response,217,1261936,0.0-15.0-1.12,58025,List1B,black,man,,,,null,,,,
null,are arguing with each other,,html-keyboard-response,218,1263941,0.0-15.0-2.12,58025,List1B,black,man,,,,null,,,,
15335,,,survey-text,219,1279278,0.0-15.0-3.12,58025,List1B,black,man,,,,,"{""Q0"":""fred and kate are arguing with eachother""}","<img src=""stim_listB/argue2.gif""style=""height:400px;""></stim_listB>",are arguing with each other,
null,"<div style=""font-size:60px;"">+</div>",,html-keyboard-response,220,1279782,0.0-15.0-0.13,58025,List1B,black,man,,,,null,,,,
null,"<img src=""stim_listB/shout5.gif""style=""height:400px;""></stim_listB>",,html-keyboard-response,221,1281785,0.0-15.0-1.13,58025,List1B,black,man,,,,null,,,,
null,is shouting at,,html-keyboard-response,222,1283787,0.0-15.0-2.13,58025,List1B,black,man,,,,null,,,,
22972,,,survey-text,223,1306761,0.0-15.0-3.13,58025,List1B,black,man,,,,,"{""Q0"":""luke and fred are shouting at eachother""}","<img src=""stim_listB/shout5.gif""style=""height:400px;""></stim_listB>",is shouting at,
null,"<div style=""font-size:60px;"">+</div>",,html-keyboard-response,224,1307264,0.0-15.0-0.14,58025,List1B,black,man,,,,null,,,,
null,"<img src=""stim_listB/dance6.gif""style=""height:400px;""></stim_listB>",,html-keyboard-response,225,1309268,0.0-15.0-1.14,58025,List1B,black,man,,,,null,,,,
null,are dancing with each other,,html-keyboard-response,226,1311270,0.0-15.0-2.14,58025,List1B,black,man,,,,null,,,,
9556,,,survey-text,227,1320828,0.0-15.0-3.14,58025,List1B,black,man,,,,,"{""Q0"":""luke and mike are dancing with eachother""}","<img src=""stim_listB/dance6.gif""style=""height:400px;""></stim_listB>",are dancing with each other,
null,"<div style=""font-size:60px;"">+</div>",,html-keyboard-response,228,1321331,0.0-15.0-0.15,58025,List1B,black,man,,,,null,,,,
null,"<img src=""stim_listB/dance3.gif""style=""height:400px;""></stim_listB>",,html-keyboard-response,229,1323335,0.0-15.0-1.15,58025,List1B,black,man,,,,null,,,,
null,is dancing with,,html-keyboard-response,230,1325338,0.0-15.0-2.15,58025,List1B,black,man,,,,null,,,,
11292,,,survey-text,231,1336632,0.0-15.0-3.15,58025,List1B,black,man,,,,,"{""Q0"":""luke is dancing with jane""}","<img src=""stim_listB/dance3.gif""style=""height:400px;""></stim_listB>",is dancing with,
null,"<div style=""font-size:60px;"">+</div>",,html-keyboard-response,232,1337136,0.0-15.0-0.16,58025,List1B,black,man,,,,null,,,,
null,"<img src=""stim_listB/play8.gif""style=""height:400px;""></stim_listB>",,html-keyboard-response,233,1339140,0.0-15.0-1.16,58025,List1B,black,man,,,,null,,,,
null,are playing with each other,,html-keyboard-response,234,1341142,0.0-15.0-2.16,58025,List1B,black,man,,,,null,,,,
15797,,,survey-text,235,1356942,0.0-15.0-3.16,58025,List1B,black,man,,,,,"{""Q0"":""ruth and beth are playing with eachother""}","<img src=""stim_listB/play8.gif""style=""height:400px;""></stim_listB>",are playing with each other,
null,"<div style=""font-size:60px;"">+</div>",,html-keyboard-response,236,1357445,0.0-15.0-0.17,58025,List1B,black,man,,,,null,,,,
null,"<img src=""stim_listB/argue8.gif""style=""height:400px;""></stim_listB>",,html-keyboard-response,237,1359448,0.0-15.0-1.17,58025,List1B,black,man,,,,null,,,,
null,are arguing with each other,,html-keyboard-response,238,1361452,0.0-15.0-2.17,58025,List1B,black,man,,,,null,,,,
14983,,,survey-text,239,1376437,0.0-15.0-3.17,58025,List1B,black,man,,,,,"{""Q0"":""beth and jane are arguing with eachother""}","<img src=""stim_listB/argue8.gif""style=""height:400px;""></stim_listB>",are arguing with each other,
null,"<div style=""font-size:60px;"">+</div>",,html-keyboard-response,240,1376941,0.0-15.0-0.18,58025,List1B,black,man,,,,null,,,,
null,"<img src=""stim_listB/kiss1.gif""style=""height:400px;""></stim_listB>",,html-keyboard-response,241,1378945,0.0-15.0-1.18,58025,List1B,black,man,,,,null,,,,
null,is kissing,,html-keyboard-response,242,1380946,0.0-15.0-2.18,58025,List1B,black,man,,,,null,,,,
8955,,,survey-text,243,1389903,0.0-15.0-3.18,58025,List1B,black,man,,,,,"{""Q0"":""fred is kissing beth""}","<img src=""stim_listB/kiss1.gif""style=""height:400px;""></stim_listB>",is kissing,
null,"<div style=""font-size:60px;"">+</div>",,html-keyboard-response,244,1390405,0.0-15.0-0.19,58025,List1B,black,man,,,,null,,,,
null,"<img src=""stim_listB/fight7.gif""style=""height:400px;""></stim_listB>",,html-keyboard-response,245,1392408,0.0-15.0-1.19,58025,List1B,black,man,,,,null,,,,
null,is fighting,,html-keyboard-response,246,1394410,0.0-15.0-2.19,58025,List1B,black,man,,,,null,,,,
9663,,,survey-text,247,1404075,0.0-15.0-3.19,58025,List1B,black,man,,,,,"{""Q0"":""kate is fighting jane""}","<img src=""stim_listB/fight7.gif""style=""height:400px;""></stim_listB>",is fighting,
7213,"<img src='img/portrait_matrix_list1.jpg' style='width:900px;height:500px;''></img><p>If you have memorised all the portraits and names and are ready to start, press Continue.</p><p><strong>Please note: Your memory of these faces will be tested 4 times during this experiment.</strong></p>",0,html-button-response,248,1411292,0.0-16.0-0.0,58025,List1B,black,man,,,,,,,,
3567,"<img src=""portrait/WM2.jpg""style=""height:400px;""></img>",7,html-button-response,249,1415863,0.0-16.0-1.0,58025,List1B,black,man,,TRUE,7,,,,,
null,CORRECT,,html-keyboard-response,250,1417367,0.0-16.0-2.0-0.0,58025,List1B,black,man,,,,null,,,,
3357,"<img src=""portrait/BW1.jpg""style=""height:400px;""></img>",0,html-button-response,251,1420727,0.0-16.0-4.0,58025,List1B,black,man,,TRUE,0,,,,,
null,CORRECT,,html-keyboard-response,252,1422231,0.0-16.0-5.0-0.0,58025,List1B,black,man,,,,null,,,,
5177,"<img src=""portrait/BM2.jpg""style=""height:400px;""></img>",5,html-button-response,253,1427411,0.0-16.0-7.0,58025,List1B,black,man,,TRUE,5,,,,,
null,CORRECT,,html-keyboard-response,254,1428916,0.0-16.0-8.0-0.0,58025,List1B,black,man,,,,null,,,,
3220,"<img src=""portrait/BM1.jpg""style=""height:400px;""></img>",4,html-button-response,255,1432139,0.0-16.0-10.0,58025,List1B,black,man,,TRUE,4,,,,,
null,CORRECT,,html-keyboard-response,256,1433644,0.0-16.0-11.0-0.0,58025,List1B,black,man,,,,null,,,,
4409,"<img src=""portrait/BW2.jpg""style=""height:400px;""></img>",2,html-button-response,257,1438057,0.0-16.0-13.0,58025,List1B,black,man,,TRUE,2,,,,,
null,CORRECT,,html-keyboard-response,258,1439560,0.0-16.0-14.0-0.0,58025,List1B,black,man,,,,null,,,,
6215,"<img src=""portrait/WW1.jpg""style=""height:400px;""></img>",1,html-button-response,259,1445779,0.0-16.0-16.0,58025,List1B,black,man,,TRUE,1,,,,,
null,CORRECT,,html-keyboard-response,260,1447283,0.0-16.0-17.0-0.0,58025,List1B,black,man,,,,null,,,,
4350,"<img src=""portrait/WM1.jpg""style=""height:400px;""></img>",6,html-button-response,261,1451637,0.0-16.0-19.0,58025,List1B,black,man,,TRUE,6,,,,,
null,CORRECT,,html-keyboard-response,262,1453141,0.0-16.0-20.0-0.0,58025,List1B,black,man,,,,null,,,,
4943,"<img src=""portrait/WW2.jpg""style=""height:400px;""></img>",3,html-button-response,263,1458086,0.0-16.0-22.0,58025,List1B,black,man,,TRUE,3,,,,,
null,CORRECT,,html-keyboard-response,264,1459592,0.0-16.0-23.0-0.0,58025,List1B,black,man,,,,null,,,,
1438,<p>You got 8 out of 8 right first time. Press Continue.</p>,0,html-button-response,265,1461033,0.0-16.0-25.0,58025,List1B,black,man,,,,,,,,
null,"<div style=""font-size:60px;"">+</div>",,html-keyboard-response,266,1462536,0.0-17.0-0.0,58025,List1B,black,man,,,,null,,,,
null,"<img src=""stim_listB/flirt2.gif""style=""height:400px;""></stim_listB>",,html-keyboard-response,267,1464540,0.0-17.0-1.0,58025,List1B,black,man,,,,null,,,,
null,are flirting with each other,,html-keyboard-response,268,1466542,0.0-17.0-2.0,58025,List1B,black,man,,,,null,,,,
28088,,,survey-text,269,1494632,0.0-17.0-3.0,58025,List1B,black,man,,,,,"{""Q0"":""mike and beth are flirting with eachother""}","<img src=""stim_listB/flirt2.gif""style=""height:400px;""></stim_listB>",are flirting with each other,
null,"<div style=""font-size:60px;"">+</div>",,html-keyboard-response,270,1495135,0.0-17.0-0.1,58025,List1B,black,man,,,,null,,,,
null,"<img src=""stim_listB/argue3.gif""style=""height:400px;""></stim_listB>",,html-keyboard-response,271,1497138,0.0-17.0-1.1,58025,List1B,black,man,,,,null,,,,
null,is arguing with,,html-keyboard-response,272,1499140,0.0-17.0-2.1,58025,List1B,black,man,,,,null,,,,
7324,,,survey-text,273,1506467,0.0-17.0-3.1,58025,List1B,black,man,,,,,"{""Q0"":""dave is arguing with ruth""}","<img src=""stim_listB/argue3.gif""style=""height:400px;""></stim_listB>",is arguing with,
null,"<div style=""font-size:60px;"">+</div>",,html-keyboard-response,274,1506969,0.0-17.0-0.2,58025,List1B,black,man,,,,null,,,,
null,"<img src=""stim_listB/talk3.gif""style=""height:400px;""></stim_listB>",,html-keyboard-response,275,1508972,0.0-17.0-1.2,58025,List1B,black,man,,,,null,,,,
null,is talking to,,html-keyboard-response,276,1510973,0.0-17.0-2.2,58025,List1B,black,man,,,,null,,,,
8582,,,survey-text,277,1519558,0.0-17.0-3.2,58025,List1B,black,man,,,,,"{""Q0"":""jane is talking to luke""}","<img src=""stim_listB/talk3.gif""style=""height:400px;""></stim_listB>",is talking to,
null,"<div style=""font-size:60px;"">+</div>",,html-keyboard-response,278,1520060,0.0-17.0-0.3,58025,List1B,black,man,,,,null,,,,
null,"<img src=""stim_listB/talk7.gif""style=""height:400px;""></stim_listB>",,html-keyboard-response,279,1522064,0.0-17.0-1.3,58025,List1B,black,man,,,,null,,,,
null,is talking to,,html-keyboard-response,280,1524066,0.0-17.0-2.3,58025,List1B,black,man,,,,null,,,,
7881,,,survey-text,281,1531948,0.0-17.0-3.3,58025,List1B,black,man,,,,,"{""Q0"":""jane is talking to beth""}","<img src=""stim_listB/talk7.gif""style=""height:400px;""></stim_listB>",is talking to,
null,"<div style=""font-size:60px;"">+</div>",,html-keyboard-response,282,1532452,0.0-17.0-0.4,58025,List1B,black,man,,,,null,,,,
null,"<img src=""stim_listB/kiss2.gif""style=""height:400px;""></stim_listB>",,html-keyboard-response,283,1534455,0.0-17.0-1.4,58025,List1B,black,man,,,,null,,,,
null,are kissing each other,,html-keyboard-response,284,1536458,0.0-17.0-2.4,58025,List1B,black,man,,,,null,,,,
13317,,,survey-text,285,1549777,0.0-17.0-3.4,58025,List1B,black,man,,,,,"{""Q0"":""mike and kate are kissing each other""}","<img src=""stim_listB/kiss2.gif""style=""height:400px;""></stim_listB>",are kissing each other,
null,"<div style=""font-size:60px;"">+</div>",,html-keyboard-response,286,1550281,0.0-17.0-0.5,58025,List1B,black,man,,,,null,,,,
null,"<img src=""stim_listB/flirt1.gif""style=""height:400px;""></stim_listB>",,html-keyboard-response,287,1552285,0.0-17.0-1.5,58025,List1B,black,man,,,,null,,,,
null,is flirting with,,html-keyboard-response,288,1554288,0.0-17.0-2.5,58025,List1B,black,man,,,,null,,,,
19209,,,survey-text,289,1573500,0.0-17.0-3.5,58025,List1B,black,man,,,,,"{""Q0"":""fred is flirting with kate""}","<img src=""stim_listB/flirt1.gif""style=""height:400px;""></stim_listB>",is flirting with,
null,"<div style=""font-size:60px;"">+</div>",,html-keyboard-response,290,1574002,0.0-17.0-0.6,58025,List1B,black,man,,,,null,,,,
null,"<img src=""stim_listB/argue5.gif""style=""height:400px;""></stim_listB>",,html-keyboard-response,291,1576006,0.0-17.0-1.6,58025,List1B,black,man,,,,null,,,,
null,is arguing with,,html-keyboard-response,292,1578008,0.0-17.0-2.6,58025,List1B,black,man,,,,null,,,,
10671,,,survey-text,293,1588682,0.0-17.0-3.6,58025,List1B,black,man,,,,,"{""Q0"":""mike is arguing with luke""}","<img src=""stim_listB/argue5.gif""style=""height:400px;""></stim_listB>",is arguing with,
null,"<div style=""font-size:60px;"">+</div>",,html-keyboard-response,294,1589184,0.0-17.0-0.7,58025,List1B,black,man,,,,null,,,,
null,"<img src=""stim_listB/flirt6.gif""style=""height:400px;""></stim_listB>",,html-keyboard-response,295,1591187,0.0-17.0-1.7,58025,List1B,black,man,,,,null,,,,
null,are flirting with each other,,html-keyboard-response,296,1593190,0.0-17.0-2.7,58025,List1B,black,man,,,,null,,,,
8693,,,survey-text,297,1601885,0.0-17.0-3.7,58025,List1B,black,man,,,,,"{""Q0"":""luke and mike are flirting with eachother""}","<img src=""stim_listB/flirt6.gif""style=""height:400px;""></stim_listB>",are flirting with each other,
null,"<div style=""font-size:60px;"">+</div>",,html-keyboard-response,298,1602389,0.0-17.0-0.8,58025,List1B,black,man,,,,null,,,,
null,"<img src=""stim_listB/touch4.gif""style=""height:400px;""></stim_listB>",,html-keyboard-response,299,1604391,0.0-17.0-1.8,58025,List1B,black,man,,,,null,,,,
null,are touching each other,,html-keyboard-response,300,1606394,0.0-17.0-2.8,58025,List1B,black,man,,,,null,,,,
15355,,,survey-text,301,1621752,0.0-17.0-3.8,58025,List1B,black,man,,,,,"{""Q0"":""ruth and luke are playing with eachother""}","<img src=""stim_listB/touch4.gif""style=""height:400px;""></stim_listB>",are touching each other,
null,"<div style=""font-size:60px;"">+</div>",,html-keyboard-response,302,1622254,0.0-17.0-0.9,58025,List1B,black,man,,,,null,,,,
null,"<img src=""stim_listB/fight1.gif""style=""height:400px;""></stim_listB>",,html-keyboard-response,303,1624258,0.0-17.0-1.9,58025,List1B,black,man,,,,null,,,,
null,is fighting,,html-keyboard-response,304,1626261,0.0-17.0-2.9,58025,List1B,black,man,,,,null,,,,
11141,,,survey-text,305,1637404,0.0-17.0-3.9,58025,List1B,black,man,,,,,"{""Q0"":""mike is fighting kate""}","<img src=""stim_listB/fight1.gif""style=""height:400px;""></stim_listB>",is fighting,
null,"<div style=""font-size:60px;"">+</div>",,html-keyboard-response,306,1637908,0.0-17.0-0.10,58025,List1B,black,man,,,,null,,,,
null,"<img src=""stim_listB/shout8.gif""style=""height:400px;""></stim_listB>",,html-keyboard-response,307,1639911,0.0-17.0-1.10,58025,List1B,black,man,,,,null,,,,
null,are shouting at each other,,html-keyboard-response,308,1641912,0.0-17.0-2.10,58025,List1B,black,man,,,,null,,,,
10297,,,survey-text,309,1652211,0.0-17.0-3.10,58025,List1B,black,man,,,,,"{""Q0"":""jane and kate are shouting at each other""}","<img src=""stim_listB/shout8.gif""style=""height:400px;""></stim_listB>",are shouting at each other,
null,"<div style=""font-size:60px;"">+</div>",,html-keyboard-response,310,1652713,0.0-17.0-0.11,58025,List1B,black,man,,,,null,,,,
null,"<img src=""stim_listB/kiss3.gif""style=""height:400px;""></stim_listB>",,html-keyboard-response,311,1654717,0.0-17.0-1.11,58025,List1B,black,man,,,,null,,,,
null,is kissing,,html-keyboard-response,312,1656719,0.0-17.0-2.11,58025,List1B,black,man,,,,null,,,,
6106,,,survey-text,313,1662827,0.0-17.0-3.11,58025,List1B,black,man,,,,,"{""Q0"":""luke is kissing ruth""}","<img src=""stim_listB/kiss3.gif""style=""height:400px;""></stim_listB>",is kissing,
null,"<div style=""font-size:60px;"">+</div>",,html-keyboard-response,314,1663330,0.0-17.0-0.12,58025,List1B,black,man,,,,null,,,,
null,"<img src=""stim_listB/flirt8.gif""style=""height:400px;""></stim_listB>",,html-keyboard-response,315,1665334,0.0-17.0-1.12,58025,List1B,black,man,,,,null,,,,
null,are flirting with each other,,html-keyboard-response,316,1667336,0.0-17.0-2.12,58025,List1B,black,man,,,,null,,,,
11497,,,survey-text,317,1678835,0.0-17.0-3.12,58025,List1B,black,man,,,,,"{""Q0"":""ruth and kate are flirting with eachother""}","<img src=""stim_listB/flirt8.gif""style=""height:400px;""></stim_listB>",are flirting with each other,
null,"<div style=""font-size:60px;"">+</div>",,html-keyboard-response,318,1679338,0.0-17.0-0.13,58025,List1B,black,man,,,,null,,,,
null,"<img src=""stim_listB/marry4.gif""style=""height:400px;""></stim_listB>",,html-keyboard-response,319,1681344,0.0-17.0-1.13,58025,List1B,black,man,,,,null,,,,
null,are marrying each other,,html-keyboard-response,320,1683346,0.0-17.0-2.13,58025,List1B,black,man,,,,null,,,,
10901,,,survey-text,321,1694249,0.0-17.0-3.13,58025,List1B,black,man,,,,,"{""Q0"":""luke and jane are marrying each other""}","<img src=""stim_listB/marry4.gif""style=""height:400px;""></stim_listB>",are marrying each other,
null,"<div style=""font-size:60px;"">+</div>",,html-keyboard-response,322,1694752,0.0-17.0-0.14,58025,List1B,black,man,,,,null,,,,
null,"<img src=""stim_listB/play6.gif""style=""height:400px;""></stim_listB>",,html-keyboard-response,323,1696755,0.0-17.0-1.14,58025,List1B,black,man,,,,null,,,,
null,are playing with each other,,html-keyboard-response,324,1698757,0.0-17.0-2.14,58025,List1B,black,man,,,,null,,,,
12512,,,survey-text,325,1711273,0.0-17.0-3.14,58025,List1B,black,man,,,,,"{""Q0"":""fred and luke are playing with each other""}","<img src=""stim_listB/play6.gif""style=""height:400px;""></stim_listB>",are playing with each other,
null,"<div style=""font-size:60px;"">+</div>",,html-keyboard-response,326,1711776,0.0-17.0-0.15,58025,List1B,black,man,,,,null,,,,
null,"<img src=""stim_listB/marry6.gif""style=""height:400px;""></stim_listB>",,html-keyboard-response,327,1713778,0.0-17.0-1.15,58025,List1B,black,man,,,,null,,,,
null,are marrying each other,,html-keyboard-response,328,1715781,0.0-17.0-2.15,58025,List1B,black,man,,,,null,,,,
11332,,,survey-text,329,1727116,0.0-17.0-3.15,58025,List1B,black,man,,,,,"{""Q0"":""fred and dave are marrying each other""}","<img src=""stim_listB/marry6.gif""style=""height:400px;""></stim_listB>",are marrying each other,
null,"<div style=""font-size:60px;"">+</div>",,html-keyboard-response,330,1727618,0.0-17.0-0.16,58025,List1B,black,man,,,,null,,,,
null,"<img src=""stim_listB/talk8.gif""style=""height:400px;""></stim_listB>",,html-keyboard-response,331,1729622,0.0-17.0-1.16,58025,List1B,black,man,,,,null,,,,
null,are talking to each other,,html-keyboard-response,332,1731624,0.0-17.0-2.16,58025,List1B,black,man,,,,null,,,,
13909,,,survey-text,333,1745537,0.0-17.0-3.16,58025,List1B,black,man,,,,,"{""Q0"":""ruth and kate are talking to each other""}","<img src=""stim_listB/talk8.gif""style=""height:400px;""></stim_listB>",are talking to each other,
null,"<div style=""font-size:60px;"">+</div>",,html-keyboard-response,334,1746040,0.0-17.0-0.17,58025,List1B,black,man,,,,null,,,,
null,"<img src=""stim_listB/argue4.gif""style=""height:400px;""></stim_listB>",,html-keyboard-response,335,1748043,0.0-17.0-1.17,58025,List1B,black,man,,,,null,,,,
null,are arguing with each other,,html-keyboard-response,336,1750045,0.0-17.0-2.17,58025,List1B,black,man,,,,null,,,,
11354,,,survey-text,337,1761401,0.0-17.0-3.17,58025,List1B,black,man,,,,,"{""Q0"":""jane and luke are arguing with each other""}","<img src=""stim_listB/argue4.gif""style=""height:400px;""></stim_listB>",are arguing with each other,
null,"<div style=""font-size:60px;"">+</div>",,html-keyboard-response,338,1761903,0.0-17.0-0.18,58025,List1B,black,man,,,,null,,,,
null,"<img src=""stim_listB/touch1.gif""style=""height:400px;""></stim_listB>",,html-keyboard-response,339,1763907,0.0-17.0-1.18,58025,List1B,black,man,,,,null,,,,
null,is touching,,html-keyboard-response,340,1765910,0.0-17.0-2.18,58025,List1B,black,man,,,,null,,,,
8971,,,survey-text,341,1774883,0.0-17.0-3.18,58025,List1B,black,man,,,,,"{""Q0"":""mike is touching kate""}","<img src=""stim_listB/touch1.gif""style=""height:400px;""></stim_listB>",is touching,
null,"<div style=""font-size:60px;"">+</div>",,html-keyboard-response,342,1775386,0.0-17.0-0.19,58025,List1B,black,man,,,,null,,,,
null,"<img src=""stim_listB/fight6.gif""style=""height:400px;""></stim_listB>",,html-keyboard-response,343,1777389,0.0-17.0-1.19,58025,List1B,black,man,,,,null,,,,
null,are fighting each other,,html-keyboard-response,344,1779390,0.0-17.0-2.19,58025,List1B,black,man,,,,null,,,,
10791,,,survey-text,345,1790183,0.0-17.0-3.19,58025,List1B,black,man,,,,,"{""Q0"":""mike and fred are fighting each other""}","<img src=""stim_listB/fight6.gif""style=""height:400px;""></stim_listB>",are fighting each other,
9637,"<img src='img/portrait_matrix_list1.jpg' style='width:900px;height:500px;''></img><p>If you have memorised all the portraits and names and are ready to start, press Continue.</p><p><strong>Please note: Your memory of these faces will be tested 4 times during this experiment.</strong></p>",0,html-button-response,346,1799823,0.0-18.0-0.0,58025,List1B,black,man,,,,,,,,
7243,"<img src=""portrait/BW2.jpg""style=""height:400px;""></img>",2,html-button-response,347,1808071,0.0-18.0-1.0,58025,List1B,black,man,,TRUE,2,,,,,
null,CORRECT,,html-keyboard-response,348,1809575,0.0-18.0-2.0-0.0,58025,List1B,black,man,,,,null,,,,
3523,"<img src=""portrait/BW1.jpg""style=""height:400px;""></img>",0,html-button-response,349,1813101,0.0-18.0-4.0,58025,List1B,black,man,,TRUE,0,,,,,
null,CORRECT,,html-keyboard-response,350,1814605,0.0-18.0-5.0-0.0,58025,List1B,black,man,,,,null,,,,
3965,"<img src=""portrait/BM2.jpg""style=""height:400px;""></img>",5,html-button-response,351,1818574,0.0-18.0-7.0,58025,List1B,black,man,,TRUE,5,,,,,
null,CORRECT,,html-keyboard-response,352,1820077,0.0-18.0-8.0-0.0,58025,List1B,black,man,,,,null,,,,
4412,"<img src=""portrait/WM1.jpg""style=""height:400px;""></img>",6,html-button-response,353,1824492,0.0-18.0-10.0,58025,List1B,black,man,,TRUE,6,,,,,
null,CORRECT,,html-keyboard-response,354,1825997,0.0-18.0-11.0-0.0,58025,List1B,black,man,,,,null,,,,
4688,"<img src=""portrait/WW2.jpg""style=""height:400px;""></img>",3,html-button-response,355,1830688,0.0-18.0-13.0,58025,List1B,black,man,,TRUE,3,,,,,
null,CORRECT,,html-keyboard-response,356,1832192,0.0-18.0-14.0-0.0,58025,List1B,black,man,,,,null,,,,
6410,"<img src=""portrait/WM2.jpg""style=""height:400px;""></img>",7,html-button-response,357,1838605,0.0-18.0-16.0,58025,List1B,black,man,,TRUE,7,,,,,
null,CORRECT,,html-keyboard-response,358,1840109,0.0-18.0-17.0-0.0,58025,List1B,black,man,,,,null,,,,
6268,"<img src=""portrait/WW1.jpg""style=""height:400px;""></img>",1,html-button-response,359,1846379,0.0-18.0-19.0,58025,List1B,black,man,,TRUE,1,,,,,
null,CORRECT,,html-keyboard-response,360,1847883,0.0-18.0-20.0-0.0,58025,List1B,black,man,,,,null,,,,
4929,"<img src=""portrait/BM1.jpg""style=""height:400px;""></img>",4,html-button-response,361,1852816,0.0-18.0-22.0,58025,List1B,black,man,,TRUE,4,,,,,
null,CORRECT,,html-keyboard-response,362,1854319,0.0-18.0-23.0-0.0,58025,List1B,black,man,,,,null,,,,
1448,<p>You got 8 out of 8 right first time. Press Continue.</p>,0,html-button-response,363,1855771,0.0-18.0-25.0,58025,List1B,black,man,,,,,,,,
null,"<div style=""font-size:60px;"">+</div>",,html-keyboard-response,364,1857274,0.0-19.0-0.0,58025,List1B,black,man,,,,null,,,,
null,"<img src=""stim_listB/marry8.gif""style=""height:400px;""></stim_listB>",,html-keyboard-response,365,1859277,0.0-19.0-1.0,58025,List1B,black,man,,,,null,,,,
null,are marrying each other,,html-keyboard-response,366,1861279,0.0-19.0-2.0,58025,List1B,black,man,,,,null,,,,
16850,,,survey-text,367,1878131,0.0-19.0-3.0,58025,List1B,black,man,,,,,"{""Q0"":""jane and beth are marrying each other""}","<img src=""stim_listB/marry8.gif""style=""height:400px;""></stim_listB>",are marrying each other,
null,"<div style=""font-size:60px;"">+</div>",,html-keyboard-response,368,1878633,0.0-19.0-0.1,58025,List1B,black,man,,,,null,,,,
null,"<img src=""stim_listB/dance5.gif""style=""height:400px;""></stim_listB>",,html-keyboard-response,369,1880636,0.0-19.0-1.1,58025,List1B,black,man,,,,null,,,,
null,is dancing with,,html-keyboard-response,370,1882638,0.0-19.0-2.1,58025,List1B,black,man,,,,null,,,,
8174,,,survey-text,371,1890815,0.0-19.0-3.1,58025,List1B,black,man,,,,,"{""Q0"":""fred is dancing with dave""}","<img src=""stim_listB/dance5.gif""style=""height:400px;""></stim_listB>",is dancing with,
null,"<div style=""font-size:60px;"">+</div>",,html-keyboard-response,372,1891317,0.0-19.0-0.2,58025,List1B,black,man,,,,null,,,,
null,"<img src=""stim_listB/flirt7.gif""style=""height:400px;""></stim_listB>",,html-keyboard-response,373,1893322,0.0-19.0-1.2,58025,List1B,black,man,,,,null,,,,
null,is flirting with,,html-keyboard-response,374,1895324,0.0-19.0-2.2,58025,List1B,black,man,,,,null,,,,
26602,,,survey-text,375,1921928,0.0-19.0-3.2,58025,List1B,black,man,,,,,"{""Q0"":""beth is flirting with jane""}","<img src=""stim_listB/flirt7.gif""style=""height:400px;""></stim_listB>",is flirting with,
null,"<div style=""font-size:60px;"">+</div>",,html-keyboard-response,376,1922432,0.0-19.0-0.3,58025,List1B,black,man,,,,null,,,,
null,"<img src=""stim_listB/play2.gif""style=""height:400px;""></stim_listB>",,html-keyboard-response,377,1924436,0.0-19.0-1.3,58025,List1B,black,man,,,,null,,,,
null,are playing with each other,,html-keyboard-response,378,1926438,0.0-19.0-2.3,58025,List1B,black,man,,,,null,,,,
10503,,,survey-text,379,1936943,0.0-19.0-3.3,58025,List1B,black,man,,,,,"{""Q0"":""fred and beth are playing with each other""}","<img src=""stim_listB/play2.gif""style=""height:400px;""></stim_listB>",are playing with each other,
null,"<div style=""font-size:60px;"">+</div>",,html-keyboard-response,380,1937446,0.0-19.0-0.4,58025,List1B,black,man,,,,null,,,,
null,"<img src=""stim_listB/shout7.gif""style=""height:400px;""></stim_listB>",,html-keyboard-response,381,1939450,0.0-19.0-1.4,58025,List1B,black,man,,,,null,,,,
null,is shouting at,,html-keyboard-response,382,1941452,0.0-19.0-2.4,58025,List1B,black,man,,,,null,,,,
10602,,,survey-text,383,1952056,0.0-19.0-3.4,58025,List1B,black,man,,,,,"{""Q0"":""beth is shouting at ruth""}","<img src=""stim_listB/shout7.gif""style=""height:400px;""></stim_listB>",is shouting at,
null,"<div style=""font-size:60px;"">+</div>",,html-keyboard-response,384,1952559,0.0-19.0-0.5,58025,List1B,black,man,,,,null,,,,
null,"<img src=""stim_listB/touch7.gif""style=""height:400px;""></stim_listB>",,html-keyboard-response,385,1954562,0.0-19.0-1.5,58025,List1B,black,man,,,,null,,,,
null,is touching,,html-keyboard-response,386,1956565,0.0-19.0-2.5,58025,List1B,black,man,,,,null,,,,
11106,,,survey-text,387,1967673,0.0-19.0-3.5,58025,List1B,black,man,,,,,"{""Q0"":""jane is touching kate""}","<img src=""stim_listB/touch7.gif""style=""height:400px;""></stim_listB>",is touching,
null,"<div style=""font-size:60px;"">+</div>",,html-keyboard-response,388,1968176,0.0-19.0-0.6,58025,List1B,black,man,,,,null,,,,
null,"<img src=""stim_listB/talk4.gif""style=""height:400px;""></stim_listB>",,html-keyboard-response,389,1970179,0.0-19.0-1.6,58025,List1B,black,man,,,,null,,,,
null,are talking to each other,,html-keyboard-response,390,1972182,0.0-19.0-2.6,58025,List1B,black,man,,,,null,,,,
9761,,,survey-text,391,1981945,0.0-19.0-3.6,58025,List1B,black,man,,,,,"{""Q0"":""ruth and dave are talking to eachother""}","<img src=""stim_listB/talk4.gif""style=""height:400px;""></stim_listB>",are talking to each other,
null,"<div style=""font-size:60px;"">+</div>",,html-keyboard-response,392,1982448,0.0-19.0-0.7,58025,List1B,black,man,,,,null,,,,
null,"<img src=""stim_listB/marry5.gif""style=""height:400px;""></stim_listB>",,html-keyboard-response,393,1984451,0.0-19.0-1.7,58025,List1B,black,man,,,,null,,,,
null,is marrying,,html-keyboard-response,394,1986453,0.0-19.0-2.7,58025,List1B,black,man,,,,null,,,,
8010,,,survey-text,395,1994465,0.0-19.0-3.7,58025,List1B,black,man,,,,,"{""Q0"":""luke is marrying mike""}","<img src=""stim_listB/marry5.gif""style=""height:400px;""></stim_listB>",is marrying,
null,"<div style=""font-size:60px;"">+</div>",,html-keyboard-response,396,1994968,0.0-19.0-0.8,58025,List1B,black,man,,,,null,,,,
null,"<img src=""stim_listB/shout1.gif""style=""height:400px;""></stim_listB>",,html-keyboard-response,397,1996971,0.0-19.0-1.8,58025,List1B,black,man,,,,null,,,,
null,is shouting at,,html-keyboard-response,398,1998973,0.0-19.0-2.8,58025,List1B,black,man,,,,null,,,,
6686,,,survey-text,399,2005661,0.0-19.0-3.8,58025,List1B,black,man,,,,,"{""Q0"":""fred is shouting at beth""}","<img src=""stim_listB/shout1.gif""style=""height:400px;""></stim_listB>",is shouting at,
null,"<div style=""font-size:60px;"">+</div>",,html-keyboard-response,400,2006164,0.0-19.0-0.9,58025,List1B,black,man,,,,null,,,,
null,"<img src=""stim_listB/kiss6.gif""style=""height:400px;""></stim_listB>",,html-keyboard-response,401,2008167,0.0-19.0-1.9,58025,List1B,black,man,,,,null,,,,
null,are kissing each other,,html-keyboard-response,402,2010171,0.0-19.0-2.9,58025,List1B,black,man,,,,null,,,,
11939,,,survey-text,403,2022112,0.0-19.0-3.9,58025,List1B,black,man,,,,,"{""Q0"":""dave and mike are kissing each other""}","<img src=""stim_listB/kiss6.gif""style=""height:400px;""></stim_listB>",are kissing each other,
null,"<div style=""font-size:60px;"">+</div>",,html-keyboard-response,404,2022616,0.0-19.0-0.10,58025,List1B,black,man,,,,null,,,,
null,"<img src=""stim_listB/shout4.gif""style=""height:400px;""></stim_listB>",,html-keyboard-response,405,2024619,0.0-19.0-1.10,58025,List1B,black,man,,,,null,,,,
null,are shouting at each other,,html-keyboard-response,406,2026622,0.0-19.0-2.10,58025,List1B,black,man,,,,null,,,,
25868,,,survey-text,407,2052492,0.0-19.0-3.10,58025,List1B,black,man,,,,,"{""Q0"":""dave and mike are shouting at each other""}","<img src=""stim_listB/shout4.gif""style=""height:400px;""></stim_listB>",are shouting at each other,
null,"<div style=""font-size:60px;"">+</div>",,html-keyboard-response,408,2052995,0.0-19.0-0.11,58025,List1B,black,man,,,,null,,,,
null,"<img src=""stim_listB/marry7.gif""style=""height:400px;""></stim_listB>",,html-keyboard-response,409,2054998,0.0-19.0-1.11,58025,List1B,black,man,,,,null,,,,
null,is marrying,,html-keyboard-response,410,2056999,0.0-19.0-2.11,58025,List1B,black,man,,,,null,,,,
7935,,,survey-text,411,2064937,0.0-19.0-3.11,58025,List1B,black,man,,,,,"{""Q0"":""kate is marrying ruth""}","<img src=""stim_listB/marry7.gif""style=""height:400px;""></stim_listB>",is marrying,
null,"<div style=""font-size:60px;"">+</div>",,html-keyboard-response,412,2065440,0.0-19.0-0.12,58025,List1B,black,man,,,,null,,,,
null,"<img src=""stim_listB/talk5.gif""style=""height:400px;""></stim_listB>",,html-keyboard-response,413,2067444,0.0-19.0-1.12,58025,List1B,black,man,,,,null,,,,
null,is talking to,,html-keyboard-response,414,2069448,0.0-19.0-2.12,58025,List1B,black,man,,,,null,,,,
12006,,,survey-text,415,2081456,0.0-19.0-3.12,58025,List1B,black,man,,,,,"{""Q0"":""dave is talking to fred""}","<img src=""stim_listB/talk5.gif""style=""height:400px;""></stim_listB>",is talking to,
null,"<div style=""font-size:60px;"">+</div>",,html-keyboard-response,416,2081959,0.0-19.0-0.13,58025,List1B,black,man,,,,null,,,,
null,"<img src=""stim_listB/touch3.gif""style=""height:400px;""></stim_listB>",,html-keyboard-response,417,2083962,0.0-19.0-1.13,58025,List1B,black,man,,,,null,,,,
null,is touching,,html-keyboard-response,418,2085964,0.0-19.0-2.13,58025,List1B,black,man,,,,null,,,,
10116,,,survey-text,419,2096082,0.0-19.0-3.13,58025,List1B,black,man,,,,,"{""Q0"":""dave is touching jane""}","<img src=""stim_listB/touch3.gif""style=""height:400px;""></stim_listB>",is touching,
null,"<div style=""font-size:60px;"">+</div>",,html-keyboard-response,420,2096584,0.0-19.0-0.14,58025,List1B,black,man,,,,null,,,,
null,"<img src=""stim_listB/marry2.gif""style=""height:400px;""></stim_listB>",,html-keyboard-response,421,2098588,0.0-19.0-1.14,58025,List1B,black,man,,,,null,,,,
null,are marrying each other,,html-keyboard-response,422,2100591,0.0-19.0-2.14,58025,List1B,black,man,,,,null,,,,
10377,,,survey-text,423,2110970,0.0-19.0-3.14,58025,List1B,black,man,,,,,"{""Q0"":""fred and kate are marrying eachother""}","<img src=""stim_listB/marry2.gif""style=""height:400px;""></stim_listB>",are marrying each other,
null,"<div style=""font-size:60px;"">+</div>",,html-keyboard-response,424,2111473,0.0-19.0-0.15,58025,List1B,black,man,,,,null,,,,
null,"<img src=""stim_listB/talk6.gif""style=""height:400px;""></stim_listB>",,html-keyboard-response,425,2113477,0.0-19.0-1.15,58025,List1B,black,man,,,,null,,,,
null,are talking to each other,,html-keyboard-response,426,2115480,0.0-19.0-2.15,58025,List1B,black,man,,,,null,,,,
11924,,,survey-text,427,2127406,0.0-19.0-3.15,58025,List1B,black,man,,,,,"{""Q0"":""luke and mike are talking to each other""}","<img src=""stim_listB/talk6.gif""style=""height:400px;""></stim_listB>",are talking to each other,
null,"<div style=""font-size:60px;"">+</div>",,html-keyboard-response,428,2127910,0.0-19.0-0.16,58025,List1B,black,man,,,,null,,,,
null,"<img src=""stim_listB/touch5.gif""style=""height:400px;""></stim_listB>",,html-keyboard-response,429,2129912,0.0-19.0-1.16,58025,List1B,black,man,,,,null,,,,
null,is touching,,html-keyboard-response,430,2131915,0.0-19.0-2.16,58025,List1B,black,man,,,,null,,,,
6543,,,survey-text,431,2138460,0.0-19.0-3.16,58025,List1B,black,man,,,,,"{""Q0"":""mike is touching dave""}","<img src=""stim_listB/touch5.gif""style=""height:400px;""></stim_listB>",is touching,
null,"<div style=""font-size:60px;"">+</div>",,html-keyboard-response,432,2138964,0.0-19.0-0.17,58025,List1B,black,man,,,,null,,,,
null,"<img src=""stim_listB/touch2.gif""style=""height:400px;""></stim_listB>",,html-keyboard-response,433,2140967,0.0-19.0-1.17,58025,List1B,black,man,,,,null,,,,
null,are touching each other,,html-keyboard-response,434,2142970,0.0-19.0-2.17,58025,List1B,black,man,,,,null,,,,
21518,,,survey-text,435,2164491,0.0-19.0-3.17,58025,List1B,black,man,,,,,"{""Q0"":""fred and beth are touching each other""}","<img src=""stim_listB/touch2.gif""style=""height:400px;""></stim_listB>",are touching each other,
null,"<div style=""font-size:60px;"">+</div>",,html-keyboard-response,436,2164994,0.0-19.0-0.18,58025,List1B,black,man,,,,null,,,,
null,"<img src=""stim_listB/play7.gif""style=""height:400px;""></stim_listB>",,html-keyboard-response,437,2166998,0.0-19.0-1.18,58025,List1B,black,man,,,,null,,,,
null,is playing with,,html-keyboard-response,438,2169000,0.0-19.0-2.18,58025,List1B,black,man,,,,null,,,,
10353,,,survey-text,439,2179355,0.0-19.0-3.18,58025,List1B,black,man,,,,,"{""Q0"":""jane is playing with kate""}","<img src=""stim_listB/play7.gif""style=""height:400px;""></stim_listB>",is playing with,
null,"<div style=""font-size:60px;"">+</div>",,html-keyboard-response,440,2179858,0.0-19.0-0.19,58025,List1B,black,man,,,,null,,,,
null,"<img src=""stim_listB/argue6.gif""style=""height:400px;""></stim_listB>",,html-keyboard-response,441,2181861,0.0-19.0-1.19,58025,List1B,black,man,,,,null,,,,
null,are arguing with each other,,html-keyboard-response,442,2183864,0.0-19.0-2.19,58025,List1B,black,man,,,,null,,,,
11563,,,survey-text,443,2195430,0.0-19.0-3.19,58025,List1B,black,man,,,,,"{""Q0"":""dave and fred are arguing with each other""}","<img src=""stim_listB/argue6.gif""style=""height:400px;""></stim_listB>",are arguing with each other,
2417,<p>Thank you for completing that task.</p><p>The final part of this session is a short questionnaire.</p><p>Press Continue.</p>,0,html-button-response,444,2197851,0.0-20.0,58025,List1B,black,man,,,,,,,,
36095,,,survey-text,445,2234950,0.0-21.0,58025,List1B,black,man,,,,,"{""Q0"":""20"",""Q1"":""English"",""Q2"":""English"",""Q3"":""Canada"",""Q4"":""Black"",""Q5"":""Male""}",,,demographics
8942,,,survey-likert,446,2243898,0.0-22.0,58025,List1B,black,man,,,,,"{""Q0"":4}",,,likert_ESS
8844,,,survey-likert,447,2252747,0.0-23.0,58025,List1B,black,man,,,,,"{""Q0"":3}",,,likert_NSSAL_Q1
5605,,,survey-likert,448,2258357,0.0-24.0,58025,List1B,black,man,,,,,"{""Q0"":4}",,,likert_NSSAL_Q2
3860,,,survey-likert,449,2262221,0.0-25.0,58025,List1B,black,man,,,,,"{""Q0"":4}",,,likert_CGRS_Q1
3327,,,survey-likert,450,2265552,0.0-26.0,58025,List1B,black,man,,,,,"{""Q0"":4}",,,likert_CGRS_Q2
3243,,,survey-likert,451,2268800,0.0-27.0,58025,List1B,black,man,,,,,"{""Q0"":4}",,,likert_CGRS_Q3
9078,,,survey-text,452,2277882,0.0-28.0,58025,List1B,black,man,,,,,"{""Q0"":""ccc""}",,,worker_id
6360,,,external-html,453,2284664,0.0-29.0,58025,List1B,black,man,debrief.html,,,,,,,
