"rt","stimulus","button_pressed","trial_type","trial_index","time_elapsed","internal_node_id","subject","list","ppt_race","ppt_gender","url","first_guess","correct","key_press","responses","image_type","phrase_type","test_part"
"1650","Welcome to the experiment. Press Continue to begin.","0","html-button-response","0","1662","0.0-0.0","58337","List1A","black","woman","","","","","","","",""
"6963","","","external-html","1","9773","0.0-1.0","58337","List1A","black","woman","consent.html","","","","","","",""
"1415","<p>On the next page, you will see portraits of 8 people and their names.</p><p>Your first task is to take a few minutes to memorise the names of these people.</p><p>You will have to recall their names during the rest of the experiment, so it is</p><p>essential that you try to memorise these people and their names as best as you can.</p><br><p><strong>You will then be tested on your memory of these names and portraits.</strong></p><br><p>The experiment will start after you have completed this memory test.</p><br><p>Ready?</p>","0","html-button-response","2","11193","0.0-2.0","58337","List1A","black","woman","","","","","","","",""
"67623","<img src='img/portrait_matrix_list1.jpg' style='width:900px;height:500px;''></img><p>If you have memorised all the portraits and names and are ready to start, press Continue.</p><p><strong>Please note: Your memory of these faces will be tested 4 times during this experiment.</strong></p>","0","html-button-response","3","79820","0.0-3.0-0.0","58337","List1A","black","woman","","","","","","","",""
"5521","<img src=""portrait/WW1.jpg""style=""height:400px;""></img>","1","html-button-response","4","86348","0.0-3.0-1.0","58337","List1A","black","woman","","true","1","","","","",""
"null","CORRECT","","html-keyboard-response","5","87858","0.0-3.0-2.0-0.0","58337","List1A","black","woman","","","","null","","","",""
"1974","<img src=""portrait/WM2.jpg""style=""height:400px;""></img>","7","html-button-response","6","89836","0.0-3.0-4.0","58337","List1A","black","woman","","true","7","","","","",""
"null","CORRECT","","html-keyboard-response","7","91341","0.0-3.0-5.0-0.0","58337","List1A","black","woman","","","","null","","","",""
"2158","<img src=""portrait/WW2.jpg""style=""height:400px;""></img>","3","html-button-response","8","93503","0.0-3.0-7.0","58337","List1A","black","woman","","true","3","","","","",""
"null","CORRECT","","html-keyboard-response","9","95008","0.0-3.0-8.0-0.0","58337","List1A","black","woman","","","","null","","","",""
"2751","<img src=""portrait/BW2.jpg""style=""height:400px;""></img>","2","html-button-response","10","97764","0.0-3.0-10.0","58337","List1A","black","woman","","true","2","","","","",""
"null","CORRECT","","html-keyboard-response","11","99268","0.0-3.0-11.0-0.0","58337","List1A","black","woman","","","","null","","","",""
"9571","<img src=""portrait/BM1.jpg""style=""height:400px;""></img>","4","html-button-response","12","108844","0.0-3.0-13.0","58337","List1A","black","woman","","true","4","","","","",""
"null","CORRECT","","html-keyboard-response","13","110348","0.0-3.0-14.0-0.0","58337","List1A","black","woman","","","","null","","","",""
"3665","<img src=""portrait/WM1.jpg""style=""height:400px;""></img>","6","html-button-response","14","114018","0.0-3.0-16.0","58337","List1A","black","woman","","true","6","","","","",""
"null","CORRECT","","html-keyboard-response","15","115522","0.0-3.0-17.0-0.0","58337","List1A","black","woman","","","","null","","","",""
"7924","<img src=""portrait/BW1.jpg""style=""height:400px;""></img>","0","html-button-response","16","123450","0.0-3.0-19.0","58337","List1A","black","woman","","true","0","","","","",""
"null","CORRECT","","html-keyboard-response","17","124954","0.0-3.0-20.0-0.0","58337","List1A","black","woman","","","","null","","","",""
"6539","<img src=""portrait/BM2.jpg""style=""height:400px;""></img>","5","html-button-response","18","131497","0.0-3.0-22.0","58337","List1A","black","woman","","true","5","","","","",""
"null","CORRECT","","html-keyboard-response","19","133001","0.0-3.0-23.0-0.0","58337","List1A","black","woman","","","","null","","","",""
"1333","<p>You got 8 out of 8 right first time. Press Continue.</p>","0","html-button-response","20","134339","0.0-3.0-25.0","58337","List1A","black","woman","","","","","","","",""
"2885","<p>In this experiment, you will view photographs of the people from the memory game interacting.</p><p>By using the <strong>exact</strong> phrase given <i>after</i> the photograph appears and recalling the correct names of the people in the photographs, form a sentence describing the interaction. You do not need to capitalise names.</p><p>Type your answer in the space provided. Please complete every sentence before moving onto the next trial.</p><p>You will only have a few seconds to memorise each given photograph and phrase before you can respond, so try your best to focus.</p><p>An example is given below. Press 'Continue' when you are ready.</p><img src='img/speaking_example.jpg' style='width:800px;height:460px;''></img>","0","html-button-response","21","138231","0.0-4.0","58337","List1A","black","woman","","","","","","","",""
"1390","<p>Before the experiment starts, you will watch two example trials. Press 'Continue'.</p>","0","html-button-response","22","140624","0.0-5.0","58337","List1A","black","woman","","","","","","","",""
"null","<img src='img/meet_eg.gif' style='height:400px;''></img>","","html-keyboard-response","23","143630","0.0-6.0","58337","List1A","black","woman","","","","null","","","",""
"null","<p>is meeting</p>","","html-keyboard-response","24","145634","0.0-7.0","58337","List1A","black","woman","","","","null","","","",""
"3051","<p><b>Answer:</b> kate is meeting beth</p>","0","html-button-response","25","148690","0.0-8.0","58337","List1A","black","woman","","","","","","","",""
"null","<img src='img/look_eg.gif' style='height:400px;''></img>","","html-keyboard-response","26","151694","0.0-9.0","58337","List1A","black","woman","","","","null","","","",""
"null","<p>are looking at each other</p>","","html-keyboard-response","27","153698","0.0-10.0","58337","List1A","black","woman","","","","null","","","",""
"2181","<p><b>Answer:</b> luke and dave are looking at each other</p>","0","html-button-response","28","155882","0.0-11.0","58337","List1A","black","woman","","","","","","","",""
"1571","<p>Ready to start the experiment?</p><br><p><strong>Remember to describe the picture using a full sentence,</strong></p><p><strong>that combines the names of the people with the <i>exact</i> phrase given.</strong></p><p><strong>To receive full payment you must do this correctly.</strong></p><p><strong> You do not need to capitalise names or use punctuation.</strong></p><br><p>Press 'Continue' to begin.</p>","0","html-button-response","29","158457","0.0-12.0","58337","List1A","black","woman","","","","","","","",""
"null","<div style=""font-size:60px;"">+</div>","","html-keyboard-response","30","159961","0.0-13.0-0.0","58337","List1A","black","woman","","","","null","","","",""
"null","<img src=""stim_listA/kiss3.gif""style=""height:400px;""></stim_listA>","","html-keyboard-response","31","161967","0.0-13.0-1.0","58337","List1A","black","woman","","","","null","","","",""
"null","is kissing","","html-keyboard-response","32","163972","0.0-13.0-2.0","58337","List1A","black","woman","","","","null","","","",""
"44124","","","survey-text","33","208101","0.0-13.0-3.0","58337","List1A","black","woman","","","","","{""Q0"":""Luke is kissing Ruth""}","<img src=""stim_listA/kiss3.gif""style=""height:400px;""></stim_listA>","is kissing",""
"null","<div style=""font-size:60px;"">+</div>","","html-keyboard-response","34","208604","0.0-13.0-0.1","58337","List1A","black","woman","","","","null","","","",""
"null","<img src=""stim_listA/argue6.gif""style=""height:400px;""></stim_listA>","","html-keyboard-response","35","210609","0.0-13.0-1.1","58337","List1A","black","woman","","","","null","","","",""
"null","are arguing with each other","","html-keyboard-response","36","212614","0.0-13.0-2.1","58337","List1A","black","woman","","","","null","","","",""
"16276","","","survey-text","37","228895","0.0-13.0-3.1","58337","List1A","black","woman","","","","","{""Q0"":""Dave is talking to Fred""}","<img src=""stim_listA/argue6.gif""style=""height:400px;""></stim_listA>","are arguing with each other",""
"null","<div style=""font-size:60px;"">+</div>","","html-keyboard-response","38","229399","0.0-13.0-0.2","58337","List1A","black","woman","","","","null","","","",""
"null","<img src=""stim_listA/talk6.gif""style=""height:400px;""></stim_listA>","","html-keyboard-response","39","231405","0.0-13.0-1.2","58337","List1A","black","woman","","","","null","","","",""
"null","are talking to each other","","html-keyboard-response","40","233410","0.0-13.0-2.2","58337","List1A","black","woman","","","","null","","","",""
"24337","","","survey-text","41","257751","0.0-13.0-3.2","58337","List1A","black","woman","","","","","{""Q0"":""Mike and Luke are talking to each other""}","<img src=""stim_listA/talk6.gif""style=""height:400px;""></stim_listA>","are talking to each other",""
"null","<div style=""font-size:60px;"">+</div>","","html-keyboard-response","42","258254","0.0-13.0-0.3","58337","List1A","black","woman","","","","null","","","",""
"null","<img src=""stim_listA/play5.gif""style=""height:400px;""></stim_listA>","","html-keyboard-response","43","260260","0.0-13.0-1.3","58337","List1A","black","woman","","","","null","","","",""
"null","is playing with","","html-keyboard-response","44","262265","0.0-13.0-2.3","58337","List1A","black","woman","","","","null","","","",""
"18350","","","survey-text","45","280618","0.0-13.0-3.3","58337","List1A","black","woman","","","","","{""Q0"":""Mike is playing with Dave""}","<img src=""stim_listA/play5.gif""style=""height:400px;""></stim_listA>","is playing with",""
"null","<div style=""font-size:60px;"">+</div>","","html-keyboard-response","46","281121","0.0-13.0-0.4","58337","List1A","black","woman","","","","null","","","",""
"null","<img src=""stim_listA/flirt6.gif""style=""height:400px;""></stim_listA>","","html-keyboard-response","47","283127","0.0-13.0-1.4","58337","List1A","black","woman","","","","null","","","",""
"null","are flirting with each other","","html-keyboard-response","48","285132","0.0-13.0-2.4","58337","List1A","black","woman","","","","null","","","",""
"18409","","","survey-text","49","303545","0.0-13.0-3.4","58337","List1A","black","woman","","","","","{""Q0"":""Luke and Mike are flirting with each other ""}","<img src=""stim_listA/flirt6.gif""style=""height:400px;""></stim_listA>","are flirting with each other",""
"null","<div style=""font-size:60px;"">+</div>","","html-keyboard-response","50","304048","0.0-13.0-0.5","58337","List1A","black","woman","","","","null","","","",""
"null","<img src=""stim_listA/touch5.gif""style=""height:400px;""></stim_listA>","","html-keyboard-response","51","306055","0.0-13.0-1.5","58337","List1A","black","woman","","","","null","","","",""
"null","is touching","","html-keyboard-response","52","308060","0.0-13.0-2.5","58337","List1A","black","woman","","","","null","","","",""
"9138","","","survey-text","53","317202","0.0-13.0-3.5","58337","List1A","black","woman","","","","","{""Q0"":""Mike is touching Dave""}","<img src=""stim_listA/touch5.gif""style=""height:400px;""></stim_listA>","is touching",""
"null","<div style=""font-size:60px;"">+</div>","","html-keyboard-response","54","317705","0.0-13.0-0.6","58337","List1A","black","woman","","","","null","","","",""
"null","<img src=""stim_listA/argue4.gif""style=""height:400px;""></stim_listA>","","html-keyboard-response","55","319710","0.0-13.0-1.6","58337","List1A","black","woman","","","","null","","","",""
"null","are arguing with each other","","html-keyboard-response","56","321715","0.0-13.0-2.6","58337","List1A","black","woman","","","","null","","","",""
"22486","","","survey-text","57","344206","0.0-13.0-3.6","58337","List1A","black","woman","","","","","{""Q0"":""Luke and Jane are fighting each other""}","<img src=""stim_listA/argue4.gif""style=""height:400px;""></stim_listA>","are arguing with each other",""
"null","<div style=""font-size:60px;"">+</div>","","html-keyboard-response","58","344709","0.0-13.0-0.7","58337","List1A","black","woman","","","","null","","","",""
"null","<img src=""stim_listA/shout7.gif""style=""height:400px;""></stim_listA>","","html-keyboard-response","59","346714","0.0-13.0-1.7","58337","List1A","black","woman","","","","null","","","",""
"null","is shouting at","","html-keyboard-response","60","348720","0.0-13.0-2.7","58337","List1A","black","woman","","","","null","","","",""
"15639","","","survey-text","61","364363","0.0-13.0-3.7","58337","List1A","black","woman","","","","","{""Q0"":""Beth is shouting at Ruth""}","<img src=""stim_listA/shout7.gif""style=""height:400px;""></stim_listA>","is shouting at",""
"null","<div style=""font-size:60px;"">+</div>","","html-keyboard-response","62","364867","0.0-13.0-0.8","58337","List1A","black","woman","","","","null","","","",""
"null","<img src=""stim_listA/shout5.gif""style=""height:400px;""></stim_listA>","","html-keyboard-response","63","366872","0.0-13.0-1.8","58337","List1A","black","woman","","","","null","","","",""
"null","is shouting at","","html-keyboard-response","64","368877","0.0-13.0-2.8","58337","List1A","black","woman","","","","null","","","",""
"18314","","","survey-text","65","387194","0.0-13.0-3.8","58337","List1A","black","woman","","","","","{""Q0"":""Luke is shouting at Fred""}","<img src=""stim_listA/shout5.gif""style=""height:400px;""></stim_listA>","is shouting at",""
"null","<div style=""font-size:60px;"">+</div>","","html-keyboard-response","66","387702","0.0-13.0-0.9","58337","List1A","black","woman","","","","null","","","",""
"null","<img src=""stim_listA/argue1.gif""style=""height:400px;""></stim_listA>","","html-keyboard-response","67","389708","0.0-13.0-1.9","58337","List1A","black","woman","","","","null","","","",""
"null","is arguing with","","html-keyboard-response","68","391714","0.0-13.0-2.9","58337","List1A","black","woman","","","","null","","","",""
"11584","","","survey-text","69","403302","0.0-13.0-3.9","58337","List1A","black","woman","","","","","{""Q0"":""Mike is arguing with Beth""}","<img src=""stim_listA/argue1.gif""style=""height:400px;""></stim_listA>","is arguing with",""
"null","<div style=""font-size:60px;"">+</div>","","html-keyboard-response","70","403805","0.0-13.0-0.10","58337","List1A","black","woman","","","","null","","","",""
"null","<img src=""stim_listA/argue5.gif""style=""height:400px;""></stim_listA>","","html-keyboard-response","71","405810","0.0-13.0-1.10","58337","List1A","black","woman","","","","null","","","",""
"null","is arguing with","","html-keyboard-response","72","407815","0.0-13.0-2.10","58337","List1A","black","woman","","","","null","","","",""
"11425","","","survey-text","73","419244","0.0-13.0-3.10","58337","List1A","black","woman","","","","","{""Q0"":""Mike is arguing with Luke""}","<img src=""stim_listA/argue5.gif""style=""height:400px;""></stim_listA>","is arguing with",""
"null","<div style=""font-size:60px;"">+</div>","","html-keyboard-response","74","419747","0.0-13.0-0.11","58337","List1A","black","woman","","","","null","","","",""
"null","<img src=""stim_listA/flirt2.gif""style=""height:400px;""></stim_listA>","","html-keyboard-response","75","421753","0.0-13.0-1.11","58337","List1A","black","woman","","","","null","","","",""
"null","are flirting with each other","","html-keyboard-response","76","423758","0.0-13.0-2.11","58337","List1A","black","woman","","","","null","","","",""
"19907","","","survey-text","77","443670","0.0-13.0-3.11","58337","List1A","black","woman","","","","","{""Q0"":""Mike and Beth are flirting with each other ""}","<img src=""stim_listA/flirt2.gif""style=""height:400px;""></stim_listA>","are flirting with each other",""
"null","<div style=""font-size:60px;"">+</div>","","html-keyboard-response","78","444174","0.0-13.0-0.12","58337","List1A","black","woman","","","","null","","","",""
"null","<img src=""stim_listA/talk1.gif""style=""height:400px;""></stim_listA>","","html-keyboard-response","79","446178","0.0-13.0-1.12","58337","List1A","black","woman","","","","null","","","",""
"null","is talking to","","html-keyboard-response","80","448183","0.0-13.0-2.12","58337","List1A","black","woman","","","","null","","","",""
"16696","","","survey-text","81","464883","0.0-13.0-3.12","58337","List1A","black","woman","","","","","{""Q0"":""Kate is talking to Fred""}","<img src=""stim_listA/talk1.gif""style=""height:400px;""></stim_listA>","is talking to",""
"null","<div style=""font-size:60px;"">+</div>","","html-keyboard-response","82","465386","0.0-13.0-0.13","58337","List1A","black","woman","","","","null","","","",""
"null","<img src=""stim_listA/marry8.gif""style=""height:400px;""></stim_listA>","","html-keyboard-response","83","467392","0.0-13.0-1.13","58337","List1A","black","woman","","","","null","","","",""
"null","are marrying each other","","html-keyboard-response","84","469398","0.0-13.0-2.13","58337","List1A","black","woman","","","","null","","","",""
"38384","","","survey-text","85","507785","0.0-13.0-3.13","58337","List1A","black","woman","","","","","{""Q0"":""Jane and Beth are marrying each other""}","<img src=""stim_listA/marry8.gif""style=""height:400px;""></stim_listA>","are marrying each other",""
"null","<div style=""font-size:60px;"">+</div>","","html-keyboard-response","86","508288","0.0-13.0-0.14","58337","List1A","black","woman","","","","null","","","",""
"null","<img src=""stim_listA/marry5.gif""style=""height:400px;""></stim_listA>","","html-keyboard-response","87","510294","0.0-13.0-1.14","58337","List1A","black","woman","","","","null","","","",""
"null","is marrying","","html-keyboard-response","88","512299","0.0-13.0-2.14","58337","List1A","black","woman","","","","null","","","",""
"16647","","","survey-text","89","528950","0.0-13.0-3.14","58337","List1A","black","woman","","","","","{""Q0"":""Mike is marrying Luke""}","<img src=""stim_listA/marry5.gif""style=""height:400px;""></stim_listA>","is marrying",""
"null","<div style=""font-size:60px;"">+</div>","","html-keyboard-response","90","529453","0.0-13.0-0.15","58337","List1A","black","woman","","","","null","","","",""
"null","<img src=""stim_listA/play2.gif""style=""height:400px;""></stim_listA>","","html-keyboard-response","91","531458","0.0-13.0-1.15","58337","List1A","black","woman","","","","null","","","",""
"null","are playing with each other","","html-keyboard-response","92","533463","0.0-13.0-2.15","58337","List1A","black","woman","","","","null","","","",""
"16887","","","survey-text","93","550356","0.0-13.0-3.15","58337","List1A","black","woman","","","","","{""Q0"":""Beth and Fred are playing with each other ""}","<img src=""stim_listA/play2.gif""style=""height:400px;""></stim_listA>","are playing with each other",""
"null","<div style=""font-size:60px;"">+</div>","","html-keyboard-response","94","550860","0.0-13.0-0.16","58337","List1A","black","woman","","","","null","","","",""
"null","<img src=""stim_listA/dance8.gif""style=""height:400px;""></stim_listA>","","html-keyboard-response","95","552867","0.0-13.0-1.16","58337","List1A","black","woman","","","","null","","","",""
"null","are dancing with each other","","html-keyboard-response","96","554873","0.0-13.0-2.16","58337","List1A","black","woman","","","","null","","","",""
"27086","","","survey-text","97","581963","0.0-13.0-3.16","58337","List1A","black","woman","","","","","{""Q0"":""Kate and Ruth are dancing with each other""}","<img src=""stim_listA/dance8.gif""style=""height:400px;""></stim_listA>","are dancing with each other",""
"null","<div style=""font-size:60px;"">+</div>","","html-keyboard-response","98","582466","0.0-13.0-0.17","58337","List1A","black","woman","","","","null","","","",""
"null","<img src=""stim_listA/shout3.gif""style=""height:400px;""></stim_listA>","","html-keyboard-response","99","584472","0.0-13.0-1.17","58337","List1A","black","woman","","","","null","","","",""
"null","is shouting at","","html-keyboard-response","100","586477","0.0-13.0-2.17","58337","List1A","black","woman","","","","null","","","",""
"12117","","","survey-text","101","598598","0.0-13.0-3.17","58337","List1A","black","woman","","","","","{""Q0"":""Ruth is shouting at Luke ""}","<img src=""stim_listA/shout3.gif""style=""height:400px;""></stim_listA>","is shouting at",""
"null","<div style=""font-size:60px;"">+</div>","","html-keyboard-response","102","599104","0.0-13.0-0.18","58337","List1A","black","woman","","","","null","","","",""
"null","<img src=""stim_listA/shout2.gif""style=""height:400px;""></stim_listA>","","html-keyboard-response","103","601108","0.0-13.0-1.18","58337","List1A","black","woman","","","","null","","","",""
"null","are shouting at each other","","html-keyboard-response","104","603113","0.0-13.0-2.18","58337","List1A","black","woman","","","","null","","","",""
"18139","","","survey-text","105","621257","0.0-13.0-3.18","58337","List1A","black","woman","","","","","{""Q0"":""Mike and Kate are shouting at each other""}","<img src=""stim_listA/shout2.gif""style=""height:400px;""></stim_listA>","are shouting at each other",""
"null","<div style=""font-size:60px;"">+</div>","","html-keyboard-response","106","621761","0.0-13.0-0.19","58337","List1A","black","woman","","","","null","","","",""
"null","<img src=""stim_listA/talk2.gif""style=""height:400px;""></stim_listA>","","html-keyboard-response","107","623766","0.0-13.0-1.19","58337","List1A","black","woman","","","","null","","","",""
"null","are talking to each other","","html-keyboard-response","108","625771","0.0-13.0-2.19","58337","List1A","black","woman","","","","null","","","",""
"16091","","","survey-text","109","641867","0.0-13.0-3.19","58337","List1A","black","woman","","","","","{""Q0"":""Beth and Mike are talking to each other ""}","<img src=""stim_listA/talk2.gif""style=""height:400px;""></stim_listA>","are talking to each other",""
"17637","<img src='img/portrait_matrix_list1.jpg' style='width:900px;height:500px;''></img><p>If you have memorised all the portraits and names and are ready to start, press Continue.</p><p><strong>Please note: Your memory of these faces will be tested 4 times during this experiment.</strong></p>","0","html-button-response","110","659508","0.0-14.0-0.0","58337","List1A","black","woman","","","","","","","",""
"5457","<img src=""portrait/BW1.jpg""style=""height:400px;""></img>","0","html-button-response","111","665969","0.0-14.0-1.0","58337","List1A","black","woman","","true","0","","","","",""
"null","CORRECT","","html-keyboard-response","112","667475","0.0-14.0-2.0-0.0","58337","List1A","black","woman","","","","null","","","",""
"3534","<img src=""portrait/WM1.jpg""style=""height:400px;""></img>","6","html-button-response","113","671013","0.0-14.0-4.0","58337","List1A","black","woman","","true","6","","","","",""
"null","CORRECT","","html-keyboard-response","114","672517","0.0-14.0-5.0-0.0","58337","List1A","black","woman","","","","null","","","",""
"5760","<img src=""portrait/WW2.jpg""style=""height:400px;""></img>","3","html-button-response","115","678281","0.0-14.0-7.0","58337","List1A","black","woman","","true","3","","","","",""
"null","CORRECT","","html-keyboard-response","116","679786","0.0-14.0-8.0-0.0","58337","List1A","black","woman","","","","null","","","",""
"2199","<img src=""portrait/BM2.jpg""style=""height:400px;""></img>","5","html-button-response","117","681989","0.0-14.0-10.0","58337","List1A","black","woman","","true","5","","","","",""
"null","CORRECT","","html-keyboard-response","118","683493","0.0-14.0-11.0-0.0","58337","List1A","black","woman","","","","null","","","",""
"2196","<img src=""portrait/BW2.jpg""style=""height:400px;""></img>","2","html-button-response","119","685694","0.0-14.0-13.0","58337","List1A","black","woman","","true","2","","","","",""
"null","CORRECT","","html-keyboard-response","120","687199","0.0-14.0-14.0-0.0","58337","List1A","black","woman","","","","null","","","",""
"1700","<img src=""portrait/BM1.jpg""style=""height:400px;""></img>","4","html-button-response","121","688903","0.0-14.0-16.0","58337","List1A","black","woman","","true","4","","","","",""
"null","CORRECT","","html-keyboard-response","122","690408","0.0-14.0-17.0-0.0","58337","List1A","black","woman","","","","null","","","",""
"1840","<img src=""portrait/WM2.jpg""style=""height:400px;""></img>","7","html-button-response","123","692253","0.0-14.0-19.0","58337","List1A","black","woman","","true","7","","","","",""
"null","CORRECT","","html-keyboard-response","124","693758","0.0-14.0-20.0-0.0","58337","List1A","black","woman","","","","null","","","",""
"1832","<img src=""portrait/WW1.jpg""style=""height:400px;""></img>","1","html-button-response","125","695594","0.0-14.0-22.0","58337","List1A","black","woman","","true","1","","","","",""
"null","CORRECT","","html-keyboard-response","126","697099","0.0-14.0-23.0-0.0","58337","List1A","black","woman","","","","null","","","",""
"1456","<p>You got 8 out of 8 right first time. Press Continue.</p>","0","html-button-response","127","698559","0.0-14.0-25.0","58337","List1A","black","woman","","","","","","","",""
"null","<div style=""font-size:60px;"">+</div>","","html-keyboard-response","128","700065","0.0-15.0-0.0","58337","List1A","black","woman","","","","null","","","",""
"null","<img src=""stim_listA/touch3.gif""style=""height:400px;""></stim_listA>","","html-keyboard-response","129","702071","0.0-15.0-1.0","58337","List1A","black","woman","","","","null","","","",""
"null","is touching","","html-keyboard-response","130","704076","0.0-15.0-2.0","58337","List1A","black","woman","","","","null","","","",""
"21012","","","survey-text","131","725093","0.0-15.0-3.0","58337","List1A","black","woman","","","","","{""Q0"":""Dave is touching Jane""}","<img src=""stim_listA/touch3.gif""style=""height:400px;""></stim_listA>","is touching",""
"null","<div style=""font-size:60px;"">+</div>","","html-keyboard-response","132","725597","0.0-15.0-0.1","58337","List1A","black","woman","","","","null","","","",""
"null","<img src=""stim_listA/marry6.gif""style=""height:400px;""></stim_listA>","","html-keyboard-response","133","727603","0.0-15.0-1.1","58337","List1A","black","woman","","","","null","","","",""
"null","are marrying each other","","html-keyboard-response","134","729608","0.0-15.0-2.1","58337","List1A","black","woman","","","","null","","","",""
"14978","","","survey-text","135","744591","0.0-15.0-3.1","58337","List1A","black","woman","","","","","{""Q0"":""Fred and Dave are marrying each other ""}","<img src=""stim_listA/marry6.gif""style=""height:400px;""></stim_listA>","are marrying each other",""
"null","<div style=""font-size:60px;"">+</div>","","html-keyboard-response","136","745098","0.0-15.0-0.2","58337","List1A","black","woman","","","","null","","","",""
"null","<img src=""stim_listA/touch2.gif""style=""height:400px;""></stim_listA>","","html-keyboard-response","137","747104","0.0-15.0-1.2","58337","List1A","black","woman","","","","null","","","",""
"null","are touching each other","","html-keyboard-response","138","749115","0.0-15.0-2.2","58337","List1A","black","woman","","","","null","","","",""
"18012","","","survey-text","139","767131","0.0-15.0-3.2","58337","List1A","black","woman","","","","","{""Q0"":""Beth and Fred are touching each other ""}","<img src=""stim_listA/touch2.gif""style=""height:400px;""></stim_listA>","are touching each other",""
"null","<div style=""font-size:60px;"">+</div>","","html-keyboard-response","140","767635","0.0-15.0-0.3","58337","List1A","black","woman","","","","null","","","",""
"null","<img src=""stim_listA/talk7.gif""style=""height:400px;""></stim_listA>","","html-keyboard-response","141","769639","0.0-15.0-1.3","58337","List1A","black","woman","","","","null","","","",""
"null","is talking to","","html-keyboard-response","142","771645","0.0-15.0-2.3","58337","List1A","black","woman","","","","null","","","",""
"10322","","","survey-text","143","781971","0.0-15.0-3.3","58337","List1A","black","woman","","","","","{""Q0"":""Jane is talking to Beth""}","<img src=""stim_listA/talk7.gif""style=""height:400px;""></stim_listA>","is talking to",""
"null","<div style=""font-size:60px;"">+</div>","","html-keyboard-response","144","782474","0.0-15.0-0.4","58337","List1A","black","woman","","","","null","","","",""
"null","<img src=""stim_listA/argue8.gif""style=""height:400px;""></stim_listA>","","html-keyboard-response","145","784480","0.0-15.0-1.4","58337","List1A","black","woman","","","","null","","","",""
"null","are arguing with each other","","html-keyboard-response","146","786485","0.0-15.0-2.4","58337","List1A","black","woman","","","","null","","","",""
"15125","","","survey-text","147","801614","0.0-15.0-3.4","58337","List1A","black","woman","","","","","{""Q0"":""Jane and Beth are arguing with each other""}","<img src=""stim_listA/argue8.gif""style=""height:400px;""></stim_listA>","are arguing with each other",""
"null","<div style=""font-size:60px;"">+</div>","","html-keyboard-response","148","802122","0.0-15.0-0.5","58337","List1A","black","woman","","","","null","","","",""
"null","<img src=""stim_listA/shout1.gif""style=""height:400px;""></stim_listA>","","html-keyboard-response","149","804128","0.0-15.0-1.5","58337","List1A","black","woman","","","","null","","","",""
"null","is shouting at","","html-keyboard-response","150","806133","0.0-15.0-2.5","58337","List1A","black","woman","","","","null","","","",""
"10431","","","survey-text","151","816569","0.0-15.0-3.5","58337","List1A","black","woman","","","","","{""Q0"":""Fred is shouting at Beth""}","<img src=""stim_listA/shout1.gif""style=""height:400px;""></stim_listA>","is shouting at",""
"null","<div style=""font-size:60px;"">+</div>","","html-keyboard-response","152","817072","0.0-15.0-0.6","58337","List1A","black","woman","","","","null","","","",""
"null","<img src=""stim_listA/play1.gif""style=""height:400px;""></stim_listA>","","html-keyboard-response","153","819077","0.0-15.0-1.6","58337","List1A","black","woman","","","","null","","","",""
"null","is playing with","","html-keyboard-response","154","821083","0.0-15.0-2.6","58337","List1A","black","woman","","","","null","","","",""
"11207","","","survey-text","155","832294","0.0-15.0-3.6","58337","List1A","black","woman","","","","","{""Q0"":""Kate is playing with Mike""}","<img src=""stim_listA/play1.gif""style=""height:400px;""></stim_listA>","is playing with",""
"null","<div style=""font-size:60px;"">+</div>","","html-keyboard-response","156","832797","0.0-15.0-0.7","58337","List1A","black","woman","","","","null","","","",""
"null","<img src=""stim_listA/fight4.gif""style=""height:400px;""></stim_listA>","","html-keyboard-response","157","834803","0.0-15.0-1.7","58337","List1A","black","woman","","","","null","","","",""
"null","are fighting each other","","html-keyboard-response","158","836812","0.0-15.0-2.7","58337","List1A","black","woman","","","","null","","","",""
"14370","","","survey-text","159","851190","0.0-15.0-3.7","58337","List1A","black","woman","","","","","{""Q0"":""Ruth and Luke are fighting each other""}","<img src=""stim_listA/fight4.gif""style=""height:400px;""></stim_listA>","are fighting each other",""
"null","<div style=""font-size:60px;"">+</div>","","html-keyboard-response","160","851694","0.0-15.0-0.8","58337","List1A","black","woman","","","","null","","","",""
"null","<img src=""stim_listA/shout4.gif""style=""height:400px;""></stim_listA>","","html-keyboard-response","161","853699","0.0-15.0-1.8","58337","List1A","black","woman","","","","null","","","",""
"null","are shouting at each other","","html-keyboard-response","162","855705","0.0-15.0-2.8","58337","List1A","black","woman","","","","null","","","",""
"54042","","","survey-text","163","909752","0.0-15.0-3.8","58337","List1A","black","woman","","","","","{""Q0"":""Dave and Jane are shouting at each other""}","<img src=""stim_listA/shout4.gif""style=""height:400px;""></stim_listA>","are shouting at each other",""
"null","<div style=""font-size:60px;"">+</div>","","html-keyboard-response","164","910255","0.0-15.0-0.9","58337","List1A","black","woman","","","","null","","","",""
"null","<img src=""stim_listA/touch1.gif""style=""height:400px;""></stim_listA>","","html-keyboard-response","165","912259","0.0-15.0-1.9","58337","List1A","black","woman","","","","null","","","",""
"null","is touching","","html-keyboard-response","166","914264","0.0-15.0-2.9","58337","List1A","black","woman","","","","null","","","",""
"10033","","","survey-text","167","924302","0.0-15.0-3.9","58337","List1A","black","woman","","","","","{""Q0"":""Kate is touching Mike""}","<img src=""stim_listA/touch1.gif""style=""height:400px;""></stim_listA>","is touching",""
"null","<div style=""font-size:60px;"">+</div>","","html-keyboard-response","168","924806","0.0-15.0-0.10","58337","List1A","black","woman","","","","null","","","",""
"null","<img src=""stim_listA/argue7.gif""style=""height:400px;""></stim_listA>","","html-keyboard-response","169","926811","0.0-15.0-1.10","58337","List1A","black","woman","","","","null","","","",""
"null","is arguing with","","html-keyboard-response","170","928817","0.0-15.0-2.10","58337","List1A","black","woman","","","","null","","","",""
"10159","","","survey-text","171","938980","0.0-15.0-3.10","58337","List1A","black","woman","","","","","{""Q0"":""Kate is arguing with Ruth""}","<img src=""stim_listA/argue7.gif""style=""height:400px;""></stim_listA>","is arguing with",""
"null","<div style=""font-size:60px;"">+</div>","","html-keyboard-response","172","939483","0.0-15.0-0.11","58337","List1A","black","woman","","","","null","","","",""
"null","<img src=""stim_listA/flirt3.gif""style=""height:400px;""></stim_listA>","","html-keyboard-response","173","941488","0.0-15.0-1.11","58337","List1A","black","woman","","","","null","","","",""
"null","is flirting with","","html-keyboard-response","174","943494","0.0-15.0-2.11","58337","List1A","black","woman","","","","null","","","",""
"14050","","","survey-text","175","957548","0.0-15.0-3.11","58337","List1A","black","woman","","","","","{""Q0"":""Luke is flirting with Jane""}","<img src=""stim_listA/flirt3.gif""style=""height:400px;""></stim_listA>","is flirting with",""
"null","<div style=""font-size:60px;"">+</div>","","html-keyboard-response","176","958050","0.0-15.0-0.12","58337","List1A","black","woman","","","","null","","","",""
"null","<img src=""stim_listA/kiss2.gif""style=""height:400px;""></stim_listA>","","html-keyboard-response","177","960056","0.0-15.0-1.12","58337","List1A","black","woman","","","","null","","","",""
"null","are kissing each other","","html-keyboard-response","178","962061","0.0-15.0-2.12","58337","List1A","black","woman","","","","null","","","",""
"17297","","","survey-text","179","979363","0.0-15.0-3.12","58337","List1A","black","woman","","","","","{""Q0"":""Mike and Kate are Kissing each other""}","<img src=""stim_listA/kiss2.gif""style=""height:400px;""></stim_listA>","are kissing each other",""
"null","<div style=""font-size:60px;"">+</div>","","html-keyboard-response","180","979867","0.0-15.0-0.13","58337","List1A","black","woman","","","","null","","","",""
"null","<img src=""stim_listA/flirt1.gif""style=""height:400px;""></stim_listA>","","html-keyboard-response","181","981872","0.0-15.0-1.13","58337","List1A","black","woman","","","","null","","","",""
"null","is flirting with","","html-keyboard-response","182","983877","0.0-15.0-2.13","58337","List1A","black","woman","","","","null","","","",""
"12703","","","survey-text","183","996585","0.0-15.0-3.13","58337","List1A","black","woman","","","","","{""Q0"":""Fred is flirting with Kate ""}","<img src=""stim_listA/flirt1.gif""style=""height:400px;""></stim_listA>","is flirting with",""
"null","<div style=""font-size:60px;"">+</div>","","html-keyboard-response","184","997089","0.0-15.0-0.14","58337","List1A","black","woman","","","","null","","","",""
"null","<img src=""stim_listA/talk5.gif""style=""height:400px;""></stim_listA>","","html-keyboard-response","185","999095","0.0-15.0-1.14","58337","List1A","black","woman","","","","null","","","",""
"null","is talking to","","html-keyboard-response","186","1001100","0.0-15.0-2.14","58337","List1A","black","woman","","","","null","","","",""
"11412","","","survey-text","187","1012515","0.0-15.0-3.14","58337","List1A","black","woman","","","","","{""Q0"":""Dave is talking to Fred""}","<img src=""stim_listA/talk5.gif""style=""height:400px;""></stim_listA>","is talking to",""
"null","<div style=""font-size:60px;"">+</div>","","html-keyboard-response","188","1013019","0.0-15.0-0.15","58337","List1A","black","woman","","","","null","","","",""
"null","<img src=""stim_listA/talk8.gif""style=""height:400px;""></stim_listA>","","html-keyboard-response","189","1015025","0.0-15.0-1.15","58337","List1A","black","woman","","","","null","","","",""
"null","are talking to each other","","html-keyboard-response","190","1017031","0.0-15.0-2.15","58337","List1A","black","woman","","","","null","","","",""
"12048","","","survey-text","191","1029083","0.0-15.0-3.15","58337","List1A","black","woman","","","","","{""Q0"":""Ruth and Kate are talking to each other ""}","<img src=""stim_listA/talk8.gif""style=""height:400px;""></stim_listA>","are talking to each other",""
"null","<div style=""font-size:60px;"">+</div>","","html-keyboard-response","192","1029587","0.0-15.0-0.16","58337","List1A","black","woman","","","","null","","","",""
"null","<img src=""stim_listA/dance1.gif""style=""height:400px;""></stim_listA>","","html-keyboard-response","193","1031593","0.0-15.0-1.16","58337","List1A","black","woman","","","","null","","","",""
"null","is dancing with","","html-keyboard-response","194","1033599","0.0-15.0-2.16","58337","List1A","black","woman","","","","null","","","",""
"9837","","","survey-text","195","1043440","0.0-15.0-3.16","58337","List1A","black","woman","","","","","{""Q0"":""Fred is dancing with Kate""}","<img src=""stim_listA/dance1.gif""style=""height:400px;""></stim_listA>","is dancing with",""
"null","<div style=""font-size:60px;"">+</div>","","html-keyboard-response","196","1043943","0.0-15.0-0.17","58337","List1A","black","woman","","","","null","","","",""
"null","<img src=""stim_listA/marry4.gif""style=""height:400px;""></stim_listA>","","html-keyboard-response","197","1045948","0.0-15.0-1.17","58337","List1A","black","woman","","","","null","","","",""
"null","are marrying each other","","html-keyboard-response","198","1047953","0.0-15.0-2.17","58337","List1A","black","woman","","","","null","","","",""
"10988","","","survey-text","199","1058946","0.0-15.0-3.17","58337","List1A","black","woman","","","","","{""Q0"":""Luke and Jane are marrying each other ""}","<img src=""stim_listA/marry4.gif""style=""height:400px;""></stim_listA>","are marrying each other",""
"null","<div style=""font-size:60px;"">+</div>","","html-keyboard-response","200","1059451","0.0-15.0-0.18","58337","List1A","black","woman","","","","null","","","",""
"null","<img src=""stim_listA/dance4.gif""style=""height:400px;""></stim_listA>","","html-keyboard-response","201","1061456","0.0-15.0-1.18","58337","List1A","black","woman","","","","null","","","",""
"null","are dancing with each other","","html-keyboard-response","202","1063461","0.0-15.0-2.18","58337","List1A","black","woman","","","","null","","","",""
"16427","","","survey-text","203","1079894","0.0-15.0-3.18","58337","List1A","black","woman","","","","","{""Q0"":""Dave and Ruth are Dancing with each other ""}","<img src=""stim_listA/dance4.gif""style=""height:400px;""></stim_listA>","are dancing with each other",""
"null","<div style=""font-size:60px;"">+</div>","","html-keyboard-response","204","1080398","0.0-15.0-0.19","58337","List1A","black","woman","","","","null","","","",""
"null","<img src=""stim_listA/play7.gif""style=""height:400px;""></stim_listA>","","html-keyboard-response","205","1082402","0.0-15.0-1.19","58337","List1A","black","woman","","","","null","","","",""
"null","is playing with","","html-keyboard-response","206","1084407","0.0-15.0-2.19","58337","List1A","black","woman","","","","null","","","",""
"11261","","","survey-text","207","1095674","0.0-15.0-3.19","58337","List1A","black","woman","","","","","{""Q0"":""Jane is playing with Kate""}","<img src=""stim_listA/play7.gif""style=""height:400px;""></stim_listA>","is playing with",""
"8758","<img src='img/portrait_matrix_list1.jpg' style='width:900px;height:500px;''></img><p>If you have memorised all the portraits and names and are ready to start, press Continue.</p><p><strong>Please note: Your memory of these faces will be tested 4 times during this experiment.</strong></p>","0","html-button-response","208","1104434","0.0-16.0-0.0","58337","List1A","black","woman","","","","","","","",""
"2688","<img src=""portrait/BM1.jpg""style=""height:400px;""></img>","4","html-button-response","209","1108128","0.0-16.0-1.0","58337","List1A","black","woman","","true","4","","","","",""
"null","CORRECT","","html-keyboard-response","210","1109633","0.0-16.0-2.0-0.0","58337","List1A","black","woman","","","","null","","","",""
"1894","<img src=""portrait/BW1.jpg""style=""height:400px;""></img>","0","html-button-response","211","1111532","0.0-16.0-4.0","58337","List1A","black","woman","","true","0","","","","",""
"null","CORRECT","","html-keyboard-response","212","1113037","0.0-16.0-5.0-0.0","58337","List1A","black","woman","","","","null","","","",""
"1365","<img src=""portrait/WW1.jpg""style=""height:400px;""></img>","1","html-button-response","213","1114408","0.0-16.0-7.0","58337","List1A","black","woman","","true","1","","","","",""
"null","CORRECT","","html-keyboard-response","214","1115912","0.0-16.0-8.0-0.0","58337","List1A","black","woman","","","","null","","","",""
"1856","<img src=""portrait/WM1.jpg""style=""height:400px;""></img>","6","html-button-response","215","1117774","0.0-16.0-10.0","58337","List1A","black","woman","","true","6","","","","",""
"null","CORRECT","","html-keyboard-response","216","1119278","0.0-16.0-11.0-0.0","58337","List1A","black","woman","","","","null","","","",""
"1636","<img src=""portrait/WW2.jpg""style=""height:400px;""></img>","3","html-button-response","217","1120919","0.0-16.0-13.0","58337","List1A","black","woman","","true","3","","","","",""
"null","CORRECT","","html-keyboard-response","218","1122423","0.0-16.0-14.0-0.0","58337","List1A","black","woman","","","","null","","","",""
"2034","<img src=""portrait/BM2.jpg""style=""height:400px;""></img>","5","html-button-response","219","1124462","0.0-16.0-16.0","58337","List1A","black","woman","","true","5","","","","",""
"null","CORRECT","","html-keyboard-response","220","1125967","0.0-16.0-17.0-0.0","58337","List1A","black","woman","","","","null","","","",""
"1734","<img src=""portrait/BW2.jpg""style=""height:400px;""></img>","2","html-button-response","221","1127706","0.0-16.0-19.0","58337","List1A","black","woman","","true","2","","","","",""
"null","CORRECT","","html-keyboard-response","222","1129210","0.0-16.0-20.0-0.0","58337","List1A","black","woman","","","","null","","","",""
"1629","<img src=""portrait/WM2.jpg""style=""height:400px;""></img>","7","html-button-response","223","1130843","0.0-16.0-22.0","58337","List1A","black","woman","","true","7","","","","",""
"null","CORRECT","","html-keyboard-response","224","1132348","0.0-16.0-23.0-0.0","58337","List1A","black","woman","","","","null","","","",""
"1244","<p>You got 8 out of 8 right first time. Press Continue.</p>","0","html-button-response","225","1133597","0.0-16.0-25.0","58337","List1A","black","woman","","","","","","","",""
"null","<div style=""font-size:60px;"">+</div>","","html-keyboard-response","226","1135105","0.0-17.0-0.0","58337","List1A","black","woman","","","","null","","","",""
"null","<img src=""stim_listA/play3.gif""style=""height:400px;""></stim_listA>","","html-keyboard-response","227","1137110","0.0-17.0-1.0","58337","List1A","black","woman","","","","null","","","",""
"null","is playing with","","html-keyboard-response","228","1139116","0.0-17.0-2.0","58337","List1A","black","woman","","","","null","","","",""
"10488","","","survey-text","229","1149607","0.0-17.0-3.0","58337","List1A","black","woman","","","","","{""Q0"":""Dave is playing with Jane""}","<img src=""stim_listA/play3.gif""style=""height:400px;""></stim_listA>","is playing with",""
"null","<div style=""font-size:60px;"">+</div>","","html-keyboard-response","230","1150111","0.0-17.0-0.1","58337","List1A","black","woman","","","","null","","","",""
"null","<img src=""stim_listA/fight6.gif""style=""height:400px;""></stim_listA>","","html-keyboard-response","231","1152117","0.0-17.0-1.1","58337","List1A","black","woman","","","","null","","","",""
"null","are fighting each other","","html-keyboard-response","232","1154122","0.0-17.0-2.1","58337","List1A","black","woman","","","","null","","","",""
"14891","","","survey-text","233","1169017","0.0-17.0-3.1","58337","List1A","black","woman","","","","","{""Q0"":""Luke and Fred are fighting with each other ""}","<img src=""stim_listA/fight6.gif""style=""height:400px;""></stim_listA>","are fighting each other",""
"null","<div style=""font-size:60px;"">+</div>","","html-keyboard-response","234","1169520","0.0-17.0-0.2","58337","List1A","black","woman","","","","null","","","",""
"null","<img src=""stim_listA/touch7.gif""style=""height:400px;""></stim_listA>","","html-keyboard-response","235","1171525","0.0-17.0-1.2","58337","List1A","black","woman","","","","null","","","",""
"null","is touching","","html-keyboard-response","236","1173530","0.0-17.0-2.2","58337","List1A","black","woman","","","","null","","","",""
"11863","","","survey-text","237","1185398","0.0-17.0-3.2","58337","List1A","black","woman","","","","","{""Q0"":""Jane is touching Kate""}","<img src=""stim_listA/touch7.gif""style=""height:400px;""></stim_listA>","is touching",""
"null","<div style=""font-size:60px;"">+</div>","","html-keyboard-response","238","1185902","0.0-17.0-0.3","58337","List1A","black","woman","","","","null","","","",""
"null","<img src=""stim_listA/touch6.gif""style=""height:400px;""></stim_listA>","","html-keyboard-response","239","1187907","0.0-17.0-1.3","58337","List1A","black","woman","","","","null","","","",""
"null","are touching each other","","html-keyboard-response","240","1189912","0.0-17.0-2.3","58337","List1A","black","woman","","","","null","","","",""
"21034","","","survey-text","241","1210951","0.0-17.0-3.3","58337","List1A","black","woman","","","","","{""Q0"":""Fred sand Luke are touching each other""}","<img src=""stim_listA/touch6.gif""style=""height:400px;""></stim_listA>","are touching each other",""
"null","<div style=""font-size:60px;"">+</div>","","html-keyboard-response","242","1211455","0.0-17.0-0.4","58337","List1A","black","woman","","","","null","","","",""
"null","<img src=""stim_listA/marry7.gif""style=""height:400px;""></stim_listA>","","html-keyboard-response","243","1213460","0.0-17.0-1.4","58337","List1A","black","woman","","","","null","","","",""
"null","is marrying","","html-keyboard-response","244","1215465","0.0-17.0-2.4","58337","List1A","black","woman","","","","null","","","",""
"11253","","","survey-text","245","1226723","0.0-17.0-3.4","58337","List1A","black","woman","","","","","{""Q0"":""Ruth is marrying KAte""}","<img src=""stim_listA/marry7.gif""style=""height:400px;""></stim_listA>","is marrying",""
"null","<div style=""font-size:60px;"">+</div>","","html-keyboard-response","246","1227228","0.0-17.0-0.5","58337","List1A","black","woman","","","","null","","","",""
"null","<img src=""stim_listA/talk3.gif""style=""height:400px;""></stim_listA>","","html-keyboard-response","247","1229233","0.0-17.0-1.5","58337","List1A","black","woman","","","","null","","","",""
"null","is talking to","","html-keyboard-response","248","1231238","0.0-17.0-2.5","58337","List1A","black","woman","","","","null","","","",""
"7847","","","survey-text","249","1239090","0.0-17.0-3.5","58337","List1A","black","woman","","","","","{""Q0"":""Jane is talking to Luke""}","<img src=""stim_listA/talk3.gif""style=""height:400px;""></stim_listA>","is talking to",""
"null","<div style=""font-size:60px;"">+</div>","","html-keyboard-response","250","1239595","0.0-17.0-0.6","58337","List1A","black","woman","","","","null","","","",""
"null","<img src=""stim_listA/fight5.gif""style=""height:400px;""></stim_listA>","","html-keyboard-response","251","1241599","0.0-17.0-1.6","58337","List1A","black","woman","","","","null","","","",""
"null","is fighting","","html-keyboard-response","252","1243605","0.0-17.0-2.6","58337","List1A","black","woman","","","","null","","","",""
"7398","","","survey-text","253","1251006","0.0-17.0-3.6","58337","List1A","black","woman","","","","","{""Q0"":""Dave is fighting Mike""}","<img src=""stim_listA/fight5.gif""style=""height:400px;""></stim_listA>","is fighting",""
"null","<div style=""font-size:60px;"">+</div>","","html-keyboard-response","254","1251511","0.0-17.0-0.7","58337","List1A","black","woman","","","","null","","","",""
"null","<img src=""stim_listA/kiss6.gif""style=""height:400px;""></stim_listA>","","html-keyboard-response","255","1253517","0.0-17.0-1.7","58337","List1A","black","woman","","","","null","","","",""
"null","are kissing each other","","html-keyboard-response","256","1255522","0.0-17.0-2.7","58337","List1A","black","woman","","","","null","","","",""
"13073","","","survey-text","257","1268599","0.0-17.0-3.7","58337","List1A","black","woman","","","","","{""Q0"":""Mike and Dave are kissing each other ""}","<img src=""stim_listA/kiss6.gif""style=""height:400px;""></stim_listA>","are kissing each other",""
"null","<div style=""font-size:60px;"">+</div>","","html-keyboard-response","258","1269101","0.0-17.0-0.8","58337","List1A","black","woman","","","","null","","","",""
"null","<img src=""stim_listA/touch8.gif""style=""height:400px;""></stim_listA>","","html-keyboard-response","259","1271108","0.0-17.0-1.8","58337","List1A","black","woman","","","","null","","","",""
"null","are touching each other","","html-keyboard-response","260","1273113","0.0-17.0-2.8","58337","List1A","black","woman","","","","null","","","",""
"10786","","","survey-text","261","1283904","0.0-17.0-3.8","58337","List1A","black","woman","","","","","{""Q0"":""Ruth and Beth are touching each other""}","<img src=""stim_listA/touch8.gif""style=""height:400px;""></stim_listA>","are touching each other",""
"null","<div style=""font-size:60px;"">+</div>","","html-keyboard-response","262","1284410","0.0-17.0-0.9","58337","List1A","black","woman","","","","null","","","",""
"null","<img src=""stim_listA/kiss5.gif""style=""height:400px;""></stim_listA>","","html-keyboard-response","263","1286414","0.0-17.0-1.9","58337","List1A","black","woman","","","","null","","","",""
"null","is kissing","","html-keyboard-response","264","1288419","0.0-17.0-2.9","58337","List1A","black","woman","","","","null","","","",""
"10867","","","survey-text","265","1299292","0.0-17.0-3.9","58337","List1A","black","woman","","","","","{""Q0"":""Fred is kissing Luke""}","<img src=""stim_listA/kiss5.gif""style=""height:400px;""></stim_listA>","is kissing",""
"null","<div style=""font-size:60px;"">+</div>","","html-keyboard-response","266","1299795","0.0-17.0-0.10","58337","List1A","black","woman","","","","null","","","",""
"null","<img src=""stim_listA/shout6.gif""style=""height:400px;""></stim_listA>","","html-keyboard-response","267","1301799","0.0-17.0-1.10","58337","List1A","black","woman","","","","null","","","",""
"null","are shouting at each other","","html-keyboard-response","268","1303805","0.0-17.0-2.10","58337","List1A","black","woman","","","","null","","","",""
"13447","","","survey-text","269","1317258","0.0-17.0-3.10","58337","List1A","black","woman","","","","","{""Q0"":""Dave and Mike are shouting at each other""}","<img src=""stim_listA/shout6.gif""style=""height:400px;""></stim_listA>","are shouting at each other",""
"null","<div style=""font-size:60px;"">+</div>","","html-keyboard-response","270","1317763","0.0-17.0-0.11","58337","List1A","black","woman","","","","null","","","",""
"null","<img src=""stim_listA/argue2.gif""style=""height:400px;""></stim_listA>","","html-keyboard-response","271","1319767","0.0-17.0-1.11","58337","List1A","black","woman","","","","null","","","",""
"null","are arguing with each other","","html-keyboard-response","272","1321773","0.0-17.0-2.11","58337","List1A","black","woman","","","","null","","","",""
"14404","","","survey-text","273","1336182","0.0-17.0-3.11","58337","List1A","black","woman","","","","","{""Q0"":""Kate and Fred are arguing with each other""}","<img src=""stim_listA/argue2.gif""style=""height:400px;""></stim_listA>","are arguing with each other",""
"null","<div style=""font-size:60px;"">+</div>","","html-keyboard-response","274","1336687","0.0-17.0-0.12","58337","List1A","black","woman","","","","null","","","",""
"null","<img src=""stim_listA/dance2.gif""style=""height:400px;""></stim_listA>","","html-keyboard-response","275","1338692","0.0-17.0-1.12","58337","List1A","black","woman","","","","null","","","",""
"null","are dancing with each other","","html-keyboard-response","276","1340697","0.0-17.0-2.12","58337","List1A","black","woman","","","","null","","","",""
"11018","","","survey-text","277","1351720","0.0-17.0-3.12","58337","List1A","black","woman","","","","","{""Q0"":""Mike and Beth are dancing with each other""}","<img src=""stim_listA/dance2.gif""style=""height:400px;""></stim_listA>","are dancing with each other",""
"null","<div style=""font-size:60px;"">+</div>","","html-keyboard-response","278","1352223","0.0-17.0-0.13","58337","List1A","black","woman","","","","null","","","",""
"null","<img src=""stim_listA/talk4.gif""style=""height:400px;""></stim_listA>","","html-keyboard-response","279","1354228","0.0-17.0-1.13","58337","List1A","black","woman","","","","null","","","",""
"null","are talking to each other","","html-keyboard-response","280","1356234","0.0-17.0-2.13","58337","List1A","black","woman","","","","null","","","",""
"10766","","","survey-text","281","1367005","0.0-17.0-3.13","58337","List1A","black","woman","","","","","{""Q0"":""Ruth and Dave are talking to each other""}","<img src=""stim_listA/talk4.gif""style=""height:400px;""></stim_listA>","are talking to each other",""
"null","<div style=""font-size:60px;"">+</div>","","html-keyboard-response","282","1367510","0.0-17.0-0.14","58337","List1A","black","woman","","","","null","","","",""
"null","<img src=""stim_listA/flirt5.gif""style=""height:400px;""></stim_listA>","","html-keyboard-response","283","1369516","0.0-17.0-1.14","58337","List1A","black","woman","","","","null","","","",""
"null","is flirting with","","html-keyboard-response","284","1371529","0.0-17.0-2.14","58337","List1A","black","woman","","","","null","","","",""
"9365","","","survey-text","285","1380899","0.0-17.0-3.14","58337","List1A","black","woman","","","","","{""Q0"":""Fred is flirting with Dave""}","<img src=""stim_listA/flirt5.gif""style=""height:400px;""></stim_listA>","is flirting with",""
"null","<div style=""font-size:60px;"">+</div>","","html-keyboard-response","286","1381403","0.0-17.0-0.15","58337","List1A","black","woman","","","","null","","","",""
"null","<img src=""stim_listA/argue3.gif""style=""height:400px;""></stim_listA>","","html-keyboard-response","287","1383409","0.0-17.0-1.15","58337","List1A","black","woman","","","","null","","","",""
"null","is arguing with","","html-keyboard-response","288","1385414","0.0-17.0-2.15","58337","List1A","black","woman","","","","null","","","",""
"9417","","","survey-text","289","1394835","0.0-17.0-3.15","58337","List1A","black","woman","","","","","{""Q0"":""Ruth is arguing with Dave""}","<img src=""stim_listA/argue3.gif""style=""height:400px;""></stim_listA>","is arguing with",""
"null","<div style=""font-size:60px;"">+</div>","","html-keyboard-response","290","1395338","0.0-17.0-0.16","58337","List1A","black","woman","","","","null","","","",""
"null","<img src=""stim_listA/shout8.gif""style=""height:400px;""></stim_listA>","","html-keyboard-response","291","1397344","0.0-17.0-1.16","58337","List1A","black","woman","","","","null","","","",""
"null","are shouting at each other","","html-keyboard-response","292","1399349","0.0-17.0-2.16","58337","List1A","black","woman","","","","null","","","",""
"10569","","","survey-text","293","1409924","0.0-17.0-3.16","58337","List1A","black","woman","","","","","{""Q0"":""Kate and Jane are shouting at each other""}","<img src=""stim_listA/shout8.gif""style=""height:400px;""></stim_listA>","are shouting at each other",""
"null","<div style=""font-size:60px;"">+</div>","","html-keyboard-response","294","1410427","0.0-17.0-0.17","58337","List1A","black","woman","","","","null","","","",""
"null","<img src=""stim_listA/fight3.gif""style=""height:400px;""></stim_listA>","","html-keyboard-response","295","1412434","0.0-17.0-1.17","58337","List1A","black","woman","","","","null","","","",""
"null","is fighting","","html-keyboard-response","296","1414440","0.0-17.0-2.17","58337","List1A","black","woman","","","","null","","","",""
"9387","","","survey-text","297","1423832","0.0-17.0-3.17","58337","List1A","black","woman","","","","","{""Q0"":""Jane is fighting Dave""}","<img src=""stim_listA/fight3.gif""style=""height:400px;""></stim_listA>","is fighting",""
"null","<div style=""font-size:60px;"">+</div>","","html-keyboard-response","298","1424336","0.0-17.0-0.18","58337","List1A","black","woman","","","","null","","","",""
"null","<img src=""stim_listA/kiss7.gif""style=""height:400px;""></stim_listA>","","html-keyboard-response","299","1426342","0.0-17.0-1.18","58337","List1A","black","woman","","","","null","","","",""
"null","is kissing","","html-keyboard-response","300","1428347","0.0-17.0-2.18","58337","List1A","black","woman","","","","null","","","",""
"8000","","","survey-text","301","1436353","0.0-17.0-3.18","58337","List1A","black","woman","","","","","{""Q0"":""Beth is Kissing Ruth ""}","<img src=""stim_listA/kiss7.gif""style=""height:400px;""></stim_listA>","is kissing",""
"null","<div style=""font-size:60px;"">+</div>","","html-keyboard-response","302","1436856","0.0-17.0-0.19","58337","List1A","black","woman","","","","null","","","",""
"null","<img src=""stim_listA/fight8.gif""style=""height:400px;""></stim_listA>","","html-keyboard-response","303","1438862","0.0-17.0-1.19","58337","List1A","black","woman","","","","null","","","",""
"null","are fighting each other","","html-keyboard-response","304","1440868","0.0-17.0-2.19","58337","List1A","black","woman","","","","null","","","",""
"16992","","","survey-text","305","1457864","0.0-17.0-3.19","58337","List1A","black","woman","","","","","{""Q0"":""Ruth and Beth are fighting each other""}","<img src=""stim_listA/fight8.gif""style=""height:400px;""></stim_listA>","are fighting each other",""
"4954","<img src='img/portrait_matrix_list1.jpg' style='width:900px;height:500px;''></img><p>If you have memorised all the portraits and names and are ready to start, press Continue.</p><p><strong>Please note: Your memory of these faces will be tested 4 times during this experiment.</strong></p>","0","html-button-response","306","1462821","0.0-18.0-0.0","58337","List1A","black","woman","","","","","","","",""
"2613","<img src=""portrait/BM1.jpg""style=""height:400px;""></img>","4","html-button-response","307","1466439","0.0-18.0-1.0","58337","List1A","black","woman","","true","4","","","","",""
"null","CORRECT","","html-keyboard-response","308","1467944","0.0-18.0-2.0-0.0","58337","List1A","black","woman","","","","null","","","",""
"1528","<img src=""portrait/BM2.jpg""style=""height:400px;""></img>","5","html-button-response","309","1469478","0.0-18.0-4.0","58337","List1A","black","woman","","true","5","","","","",""
"null","CORRECT","","html-keyboard-response","310","1470983","0.0-18.0-5.0-0.0","58337","List1A","black","woman","","","","null","","","",""
"1654","<img src=""portrait/BW1.jpg""style=""height:400px;""></img>","0","html-button-response","311","1472641","0.0-18.0-7.0","58337","List1A","black","woman","","true","0","","","","",""
"null","CORRECT","","html-keyboard-response","312","1474145","0.0-18.0-8.0-0.0","58337","List1A","black","woman","","","","null","","","",""
"1800","<img src=""portrait/WW2.jpg""style=""height:400px;""></img>","3","html-button-response","313","1475950","0.0-18.0-10.0","58337","List1A","black","woman","","true","3","","","","",""
"null","CORRECT","","html-keyboard-response","314","1477455","0.0-18.0-11.0-0.0","58337","List1A","black","woman","","","","null","","","",""
"1465","<img src=""portrait/WM2.jpg""style=""height:400px;""></img>","7","html-button-response","315","1478925","0.0-18.0-13.0","58337","List1A","black","woman","","true","7","","","","",""
"null","CORRECT","","html-keyboard-response","316","1480429","0.0-18.0-14.0-0.0","58337","List1A","black","woman","","","","null","","","",""
"1447","<img src=""portrait/BW2.jpg""style=""height:400px;""></img>","2","html-button-response","317","1481882","0.0-18.0-16.0","58337","List1A","black","woman","","true","2","","","","",""
"null","CORRECT","","html-keyboard-response","318","1483387","0.0-18.0-17.0-0.0","58337","List1A","black","woman","","","","null","","","",""
"1734","<img src=""portrait/WW1.jpg""style=""height:400px;""></img>","1","html-button-response","319","1485126","0.0-18.0-19.0","58337","List1A","black","woman","","true","1","","","","",""
"null","CORRECT","","html-keyboard-response","320","1486631","0.0-18.0-20.0-0.0","58337","List1A","black","woman","","","","null","","","",""
"1732","<img src=""portrait/WM1.jpg""style=""height:400px;""></img>","6","html-button-response","321","1488369","0.0-18.0-22.0","58337","List1A","black","woman","","true","6","","","","",""
"null","CORRECT","","html-keyboard-response","322","1489874","0.0-18.0-23.0-0.0","58337","List1A","black","woman","","","","null","","","",""
"1129","<p>You got 8 out of 8 right first time. Press Continue.</p>","0","html-button-response","323","1491008","0.0-18.0-25.0","58337","List1A","black","woman","","","","","","","",""
"null","<div style=""font-size:60px;"">+</div>","","html-keyboard-response","324","1492517","0.0-19.0-0.0","58337","List1A","black","woman","","","","null","","","",""
"null","<img src=""stim_listA/play6.gif""style=""height:400px;""></stim_listA>","","html-keyboard-response","325","1494523","0.0-19.0-1.0","58337","List1A","black","woman","","","","null","","","",""
"null","are playing with each other","","html-keyboard-response","326","1496534","0.0-19.0-2.0","58337","List1A","black","woman","","","","null","","","",""
"11273","","","survey-text","327","1507812","0.0-19.0-3.0","58337","List1A","black","woman","","","","","{""Q0"":""Fred and Luke are playing with each other""}","<img src=""stim_listA/play6.gif""style=""height:400px;""></stim_listA>","are playing with each other",""
"null","<div style=""font-size:60px;"">+</div>","","html-keyboard-response","328","1508317","0.0-19.0-0.1","58337","List1A","black","woman","","","","null","","","",""
"null","<img src=""stim_listA/marry3.gif""style=""height:400px;""></stim_listA>","","html-keyboard-response","329","1510323","0.0-19.0-1.1","58337","List1A","black","woman","","","","null","","","",""
"null","is marrying","","html-keyboard-response","330","1512329","0.0-19.0-2.1","58337","List1A","black","woman","","","","null","","","",""
"7316","","","survey-text","331","1519649","0.0-19.0-3.1","58337","List1A","black","woman","","","","","{""Q0"":""Dave is marrying Ruth""}","<img src=""stim_listA/marry3.gif""style=""height:400px;""></stim_listA>","is marrying",""
"null","<div style=""font-size:60px;"">+</div>","","html-keyboard-response","332","1520153","0.0-19.0-0.2","58337","List1A","black","woman","","","","null","","","",""
"null","<img src=""stim_listA/dance5.gif""style=""height:400px;""></stim_listA>","","html-keyboard-response","333","1522158","0.0-19.0-1.2","58337","List1A","black","woman","","","","null","","","",""
"null","is dancing with","","html-keyboard-response","334","1524164","0.0-19.0-2.2","58337","List1A","black","woman","","","","null","","","",""
"8544","","","survey-text","335","1532713","0.0-19.0-3.2","58337","List1A","black","woman","","","","","{""Q0"":"" Dave is dancing with Fred""}","<img src=""stim_listA/dance5.gif""style=""height:400px;""></stim_listA>","is dancing with",""
"null","<div style=""font-size:60px;"">+</div>","","html-keyboard-response","336","1533216","0.0-19.0-0.3","58337","List1A","black","woman","","","","null","","","",""
"null","<img src=""stim_listA/touch4.gif""style=""height:400px;""></stim_listA>","","html-keyboard-response","337","1535222","0.0-19.0-1.3","58337","List1A","black","woman","","","","null","","","",""
"null","are touching each other","","html-keyboard-response","338","1537226","0.0-19.0-2.3","58337","List1A","black","woman","","","","null","","","",""
"10300","","","survey-text","339","1547531","0.0-19.0-3.3","58337","List1A","black","woman","","","","","{""Q0"":""Luke and Ruth are touching each other""}","<img src=""stim_listA/touch4.gif""style=""height:400px;""></stim_listA>","are touching each other",""
"null","<div style=""font-size:60px;"">+</div>","","html-keyboard-response","340","1548033","0.0-19.0-0.4","58337","List1A","black","woman","","","","null","","","",""
"null","<img src=""stim_listA/flirt4.gif""style=""height:400px;""></stim_listA>","","html-keyboard-response","341","1550040","0.0-19.0-1.4","58337","List1A","black","woman","","","","null","","","",""
"null","are flirting with each other","","html-keyboard-response","342","1552045","0.0-19.0-2.4","58337","List1A","black","woman","","","","null","","","",""
"10232","","","survey-text","343","1562281","0.0-19.0-3.4","58337","List1A","black","woman","","","","","{""Q0"":""Dave and Ruth are flirting with each other ""}","<img src=""stim_listA/flirt4.gif""style=""height:400px;""></stim_listA>","are flirting with each other",""
"null","<div style=""font-size:60px;"">+</div>","","html-keyboard-response","344","1562784","0.0-19.0-0.5","58337","List1A","black","woman","","","","null","","","",""
"null","<img src=""stim_listA/kiss1.gif""style=""height:400px;""></stim_listA>","","html-keyboard-response","345","1564791","0.0-19.0-1.5","58337","List1A","black","woman","","","","null","","","",""
"null","is kissing","","html-keyboard-response","346","1566796","0.0-19.0-2.5","58337","List1A","black","woman","","","","null","","","",""
"11094","","","survey-text","347","1577895","0.0-19.0-3.5","58337","List1A","black","woman","","","","","{""Q0"":""Beth is kissing Fred""}","<img src=""stim_listA/kiss1.gif""style=""height:400px;""></stim_listA>","is kissing",""
"null","<div style=""font-size:60px;"">+</div>","","html-keyboard-response","348","1578399","0.0-19.0-0.6","58337","List1A","black","woman","","","","null","","","",""
"null","<img src=""stim_listA/fight1.gif""style=""height:400px;""></stim_listA>","","html-keyboard-response","349","1580405","0.0-19.0-1.6","58337","List1A","black","woman","","","","null","","","",""
"null","is fighting","","html-keyboard-response","350","1582410","0.0-19.0-2.6","58337","List1A","black","woman","","","","null","","","",""
"7302","","","survey-text","351","1589717","0.0-19.0-3.6","58337","List1A","black","woman","","","","","{""Q0"":""Mike is fighting Kate""}","<img src=""stim_listA/fight1.gif""style=""height:400px;""></stim_listA>","is fighting",""
"null","<div style=""font-size:60px;"">+</div>","","html-keyboard-response","352","1590221","0.0-19.0-0.7","58337","List1A","black","woman","","","","null","","","",""
"null","<img src=""stim_listA/kiss4.gif""style=""height:400px;""></stim_listA>","","html-keyboard-response","353","1592227","0.0-19.0-1.7","58337","List1A","black","woman","","","","null","","","",""
"null","are kissing each other","","html-keyboard-response","354","1594233","0.0-19.0-2.7","58337","List1A","black","woman","","","","null","","","",""
"9191","","","survey-text","355","1603430","0.0-19.0-3.7","58337","List1A","black","woman","","","","","{""Q0"":""Jane and Dave are kissing each other""}","<img src=""stim_listA/kiss4.gif""style=""height:400px;""></stim_listA>","are kissing each other",""
"null","<div style=""font-size:60px;"">+</div>","","html-keyboard-response","356","1603934","0.0-19.0-0.8","58337","List1A","black","woman","","","","null","","","",""
"null","<img src=""stim_listA/fight7.gif""style=""height:400px;""></stim_listA>","","html-keyboard-response","357","1605940","0.0-19.0-1.8","58337","List1A","black","woman","","","","null","","","",""
"null","is fighting","","html-keyboard-response","358","1607945","0.0-19.0-2.8","58337","List1A","black","woman","","","","null","","","",""
"8996","","","survey-text","359","1616945","0.0-19.0-3.8","58337","List1A","black","woman","","","","","{""Q0"":""Kate is fighting Jane""}","<img src=""stim_listA/fight7.gif""style=""height:400px;""></stim_listA>","is fighting",""
"null","<div style=""font-size:60px;"">+</div>","","html-keyboard-response","360","1617450","0.0-19.0-0.9","58337","List1A","black","woman","","","","null","","","",""
"null","<img src=""stim_listA/play8.gif""style=""height:400px;""></stim_listA>","","html-keyboard-response","361","1619456","0.0-19.0-1.9","58337","List1A","black","woman","","","","null","","","",""
"null","are playing with each other","","html-keyboard-response","362","1621461","0.0-19.0-2.9","58337","List1A","black","woman","","","","null","","","",""
"16621","","","survey-text","363","1638087","0.0-19.0-3.9","58337","List1A","black","woman","","","","","{""Q0"":""Ruth and Beth are playing with each other""}","<img src=""stim_listA/play8.gif""style=""height:400px;""></stim_listA>","are playing with each other",""
"null","<div style=""font-size:60px;"">+</div>","","html-keyboard-response","364","1638592","0.0-19.0-0.10","58337","List1A","black","woman","","","","null","","","",""
"null","<img src=""stim_listA/fight2.gif""style=""height:400px;""></stim_listA>","","html-keyboard-response","365","1640597","0.0-19.0-1.10","58337","List1A","black","woman","","","","null","","","",""
"null","are fighting each other","","html-keyboard-response","366","1642603","0.0-19.0-2.10","58337","List1A","black","woman","","","","null","","","",""
"16173","","","survey-text","367","1658782","0.0-19.0-3.10","58337","List1A","black","woman","","","","","{""Q0"":""Beth and Fred are fighting each other ""}","<img src=""stim_listA/fight2.gif""style=""height:400px;""></stim_listA>","are fighting each other",""
"null","<div style=""font-size:60px;"">+</div>","","html-keyboard-response","368","1659286","0.0-19.0-0.11","58337","List1A","black","woman","","","","null","","","",""
"null","<img src=""stim_listA/play4.gif""style=""height:400px;""></stim_listA>","","html-keyboard-response","369","1661292","0.0-19.0-1.11","58337","List1A","black","woman","","","","null","","","",""
"null","are playing with each other","","html-keyboard-response","370","1663297","0.0-19.0-2.11","58337","List1A","black","woman","","","","null","","","",""
"11093","","","survey-text","371","1674396","0.0-19.0-3.11","58337","List1A","black","woman","","","","","{""Q0"":""Ruth and Luke are playing with each other""}","<img src=""stim_listA/play4.gif""style=""height:400px;""></stim_listA>","are playing with each other",""
"null","<div style=""font-size:60px;"">+</div>","","html-keyboard-response","372","1674900","0.0-19.0-0.12","58337","List1A","black","woman","","","","null","","","",""
"null","<img src=""stim_listA/flirt7.gif""style=""height:400px;""></stim_listA>","","html-keyboard-response","373","1676906","0.0-19.0-1.12","58337","List1A","black","woman","","","","null","","","",""
"null","is flirting with","","html-keyboard-response","374","1678912","0.0-19.0-2.12","58337","List1A","black","woman","","","","null","","","",""
"14473","","","survey-text","375","1693389","0.0-19.0-3.12","58337","List1A","black","woman","","","","","{""Q0"":""Beth is flirting with Jane""}","<img src=""stim_listA/flirt7.gif""style=""height:400px;""></stim_listA>","is flirting with",""
"null","<div style=""font-size:60px;"">+</div>","","html-keyboard-response","376","1693894","0.0-19.0-0.13","58337","List1A","black","woman","","","","null","","","",""
"null","<img src=""stim_listA/flirt8.gif""style=""height:400px;""></stim_listA>","","html-keyboard-response","377","1695900","0.0-19.0-1.13","58337","List1A","black","woman","","","","null","","","",""
"null","are flirting with each other","","html-keyboard-response","378","1697906","0.0-19.0-2.13","58337","List1A","black","woman","","","","null","","","",""
"16442","","","survey-text","379","1714353","0.0-19.0-3.13","58337","List1A","black","woman","","","","","{""Q0"":""Ruth and Kate are flirting with each other ""}","<img src=""stim_listA/flirt8.gif""style=""height:400px;""></stim_listA>","are flirting with each other",""
"null","<div style=""font-size:60px;"">+</div>","","html-keyboard-response","380","1714857","0.0-19.0-0.14","58337","List1A","black","woman","","","","null","","","",""
"null","<img src=""stim_listA/marry1.gif""style=""height:400px;""></stim_listA>","","html-keyboard-response","381","1716862","0.0-19.0-1.14","58337","List1A","black","woman","","","","null","","","",""
"null","is marrying","","html-keyboard-response","382","1718868","0.0-19.0-2.14","58337","List1A","black","woman","","","","null","","","",""
"6589","","","survey-text","383","1725461","0.0-19.0-3.14","58337","List1A","black","woman","","","","","{""Q0"":""Mike is marrying Beth""}","<img src=""stim_listA/marry1.gif""style=""height:400px;""></stim_listA>","is marrying",""
"null","<div style=""font-size:60px;"">+</div>","","html-keyboard-response","384","1725965","0.0-19.0-0.15","58337","List1A","black","woman","","","","null","","","",""
"null","<img src=""stim_listA/dance6.gif""style=""height:400px;""></stim_listA>","","html-keyboard-response","385","1727971","0.0-19.0-1.15","58337","List1A","black","woman","","","","null","","","",""
"null","are dancing with each other","","html-keyboard-response","386","1729982","0.0-19.0-2.15","58337","List1A","black","woman","","","","null","","","",""
"10206","","","survey-text","387","1740192","0.0-19.0-3.15","58337","List1A","black","woman","","","","","{""Q0"":""Luke and Mike are dancing with each other""}","<img src=""stim_listA/dance6.gif""style=""height:400px;""></stim_listA>","are dancing with each other",""
"null","<div style=""font-size:60px;"">+</div>","","html-keyboard-response","388","1740694","0.0-19.0-0.16","58337","List1A","black","woman","","","","null","","","",""
"null","<img src=""stim_listA/dance3.gif""style=""height:400px;""></stim_listA>","","html-keyboard-response","389","1742700","0.0-19.0-1.16","58337","List1A","black","woman","","","","null","","","",""
"null","is dancing with","","html-keyboard-response","390","1744707","0.0-19.0-2.16","58337","List1A","black","woman","","","","null","","","",""
"10997","","","survey-text","391","1755709","0.0-19.0-3.16","58337","List1A","black","woman","","","","","{""Q0"":""Jane is dancing With Luke""}","<img src=""stim_listA/dance3.gif""style=""height:400px;""></stim_listA>","is dancing with",""
"null","<div style=""font-size:60px;"">+</div>","","html-keyboard-response","392","1756212","0.0-19.0-0.17","58337","List1A","black","woman","","","","null","","","",""
"null","<img src=""stim_listA/marry2.gif""style=""height:400px;""></stim_listA>","","html-keyboard-response","393","1758218","0.0-19.0-1.17","58337","List1A","black","woman","","","","null","","","",""
"null","are marrying each other","","html-keyboard-response","394","1760224","0.0-19.0-2.17","58337","List1A","black","woman","","","","null","","","",""
"12848","","","survey-text","395","1773076","0.0-19.0-3.17","58337","List1A","black","woman","","","","","{""Q0"":""Kate and Fred are marrying each other ""}","<img src=""stim_listA/marry2.gif""style=""height:400px;""></stim_listA>","are marrying each other",""
"null","<div style=""font-size:60px;"">+</div>","","html-keyboard-response","396","1773580","0.0-19.0-0.18","58337","List1A","black","woman","","","","null","","","",""
"null","<img src=""stim_listA/dance7.gif""style=""height:400px;""></stim_listA>","","html-keyboard-response","397","1775585","0.0-19.0-1.18","58337","List1A","black","woman","","","","null","","","",""
"null","is dancing with","","html-keyboard-response","398","1777590","0.0-19.0-2.18","58337","List1A","black","woman","","","","null","","","",""
"12477","","","survey-text","399","1790074","0.0-19.0-3.18","58337","List1A","black","woman","","","","","{""Q0"":""Jane is dancing with Beth""}","<img src=""stim_listA/dance7.gif""style=""height:400px;""></stim_listA>","is dancing with",""
"null","<div style=""font-size:60px;"">+</div>","","html-keyboard-response","400","1790577","0.0-19.0-0.19","58337","List1A","black","woman","","","","null","","","",""
"null","<img src=""stim_listA/kiss8.gif""style=""height:400px;""></stim_listA>","","html-keyboard-response","401","1792583","0.0-19.0-1.19","58337","List1A","black","woman","","","","null","","","",""
"null","are kissing each other","","html-keyboard-response","402","1794589","0.0-19.0-2.19","58337","List1A","black","woman","","","","null","","","",""
"11387","","","survey-text","403","1805979","0.0-19.0-3.19","58337","List1A","black","woman","","","","","{""Q0"":""Jane and Kate are kissing each other""}","<img src=""stim_listA/kiss8.gif""style=""height:400px;""></stim_listA>","are kissing each other",""
"2537","<p>Thank you for completing that task.</p><p>The final part of this session is a short questionnaire.</p><p>Press Continue.</p>","0","html-button-response","404","1808519","0.0-20.0","58337","List1A","black","woman","","","","","","","",""
"26799","","","survey-text","405","1836323","0.0-21.0","58337","List1A","black","woman","","","","","{""Q0"":""20"",""Q1"":""English"",""Q2"":""English"",""Q3"":""United Kingdom"",""Q4"":""Black"",""Q5"":""Female""}","","","demographics"
"6471","","","survey-likert","406","1842803","0.0-22.0","58337","List1A","black","woman","","","","","{""Q0"":4}","","","likert_ESS"
"4815","","","survey-likert","407","1847627","0.0-23.0","58337","List1A","black","woman","","","","","{""Q0"":4}","","","likert_NSSAL_Q1"
"2578","","","survey-likert","408","1850209","0.0-24.0","58337","List1A","black","woman","","","","","{""Q0"":4}","","","likert_NSSAL_Q2"
"3296","","","survey-likert","409","1853509","0.0-25.0","58337","List1A","black","woman","","","","","{""Q0"":4}","","","likert_CGRS_Q1"
"2330","","","survey-likert","410","1855842","0.0-26.0","58337","List1A","black","woman","","","","","{""Q0"":4}","","","likert_CGRS_Q2"
"2378","","","survey-likert","411","1858225","0.0-27.0","58337","List1A","black","woman","","","","","{""Q0"":4}","","","likert_CGRS_Q3"
"10751","","","survey-text","412","1868980","0.0-28.0","58337","List1A","black","woman","","","","","{""Q0"":""5ce90d545b78dd0019cb4543""}","","","worker_id"
"36706","","","external-html","413","1906011","0.0-29.0","58337","List1A","black","woman","debrief.html","","","","","","",""
