rt,stimulus,button_pressed,trial_type,trial_index,time_elapsed,internal_node_id,subject,list,ppt_race,ppt_gender,url,first_guess,correct,key_press,responses,image_type,phrase_type,test_part
51642,Welcome to the experiment. Press Continue to begin.,0,html-button-response,0,51646,0.0-0.0,58460,List1B,black,woman,,,,,,,,
74211,,,external-html,1,126921,0.0-1.0,58460,List1B,black,woman,consent.html,,,,,,,
12205,"<p>On the next page, you will see portraits of 8 people and their names.</p><p>Your first task is to take a few minutes to memorise the names of these people.</p><p>You will have to recall their names during the rest of the experiment, so it is</p><p>essential that you try to memorise these people and their names as best as you can.</p><br><p><strong>You will then be tested on your memory of these names and portraits.</strong></p><br><p>The experiment will start after you have completed this memory test.</p><br><p>Ready?</p>",0,html-button-response,2,139128,0.0-2.0,58460,List1B,black,woman,,,,,,,,
286094,"<img src='img/portrait_matrix_list1.jpg' style='width:900px;height:500px;''></img><p>If you have memorised all the portraits and names and are ready to start, press Continue.</p><p><strong>Please note: Your memory of these faces will be tested 4 times during this experiment.</strong></p>",0,html-button-response,3,426233,0.0-3.0-0.0,58460,List1B,black,woman,,,,,,,,
17484,"<img src=""portrait/BW2.jpg""style=""height:400px;""></img>",2,html-button-response,4,444720,0.0-3.0-1.0,58460,List1B,black,woman,,TRUE,2,,,,,
null,CORRECT,,html-keyboard-response,5,446231,0.0-3.0-2.0-0.0,58460,List1B,black,woman,,,,null,,,,
2342,"<img src=""portrait/WM2.jpg""style=""height:400px;""></img>",7,html-button-response,6,448575,0.0-3.0-4.0,58460,List1B,black,woman,,TRUE,7,,,,,
null,CORRECT,,html-keyboard-response,7,450081,0.0-3.0-5.0-0.0,58460,List1B,black,woman,,,,null,,,,
4850,"<img src=""portrait/WW1.jpg""style=""height:400px;""></img>",1,html-button-response,8,454934,0.0-3.0-7.0,58460,List1B,black,woman,,TRUE,1,,,,,
null,CORRECT,,html-keyboard-response,9,456440,0.0-3.0-8.0-0.0,58460,List1B,black,woman,,,,null,,,,
6029,"<img src=""portrait/BM1.jpg""style=""height:400px;""></img>",4,html-button-response,10,462471,0.0-3.0-10.0,58460,List1B,black,woman,,TRUE,4,,,,,
null,CORRECT,,html-keyboard-response,11,463976,0.0-3.0-11.0-0.0,58460,List1B,black,woman,,,,null,,,,
2212,"<img src=""portrait/WW2.jpg""style=""height:400px;""></img>",3,html-button-response,12,466191,0.0-3.0-13.0,58460,List1B,black,woman,,TRUE,3,,,,,
null,CORRECT,,html-keyboard-response,13,467701,0.0-3.0-14.0-0.0,58460,List1B,black,woman,,,,null,,,,
5755,"<img src=""portrait/WM1.jpg""style=""height:400px;""></img>",5,html-button-response,14,473458,0.0-3.0-16.0,58460,List1B,black,woman,,TRUE,6,,,,,
4189,"<img src=""portrait/WM1.jpg""style=""height:400px;""></img>",6,html-button-response,15,478649,0.0-3.0-18.0-0.0,58460,List1B,black,woman,,FALSE,6,,,,,
null,CORRECT,,html-keyboard-response,16,480157,0.0-3.0-18.0-1.0-0.0,58460,List1B,black,woman,,,,null,,,,
15796,"<img src=""portrait/BM2.jpg""style=""height:400px;""></img>",5,html-button-response,17,495955,0.0-3.0-19.0,58460,List1B,black,woman,,TRUE,5,,,,,
null,CORRECT,,html-keyboard-response,18,497458,0.0-3.0-20.0-0.0,58460,List1B,black,woman,,,,null,,,,
2509,"<img src=""portrait/BW1.jpg""style=""height:400px;""></img>",0,html-button-response,19,499969,0.0-3.0-22.0,58460,List1B,black,woman,,TRUE,0,,,,,
null,CORRECT,,html-keyboard-response,20,501472,0.0-3.0-23.0-0.0,58460,List1B,black,woman,,,,null,,,,
2472,<p>You got 7 out of 8 right first time. Press Continue.</p>,0,html-button-response,21,503946,0.0-3.0-25.0,58460,List1B,black,woman,,,,,,,,
3462,"As you did not score 100%, the memory game will repeat. Press Continue.",0,html-button-response,22,508415,0.0-3.0-26.0-0.0,58460,List1B,black,woman,,,,,,,,
17110,"<img src='img/portrait_matrix_list1.jpg' style='width:900px;height:500px;''></img><p>If you have memorised all the portraits and names and are ready to start, press Continue.</p><p><strong>Please note: Your memory of these faces will be tested 4 times during this experiment.</strong></p>",0,html-button-response,23,526532,0.0-3.1-0.1,58460,List1B,black,woman,,,,,,,,
3747,"<img src=""portrait/BW2.jpg""style=""height:400px;""></img>",2,html-button-response,24,531282,0.0-3.1-1.1,58460,List1B,black,woman,,TRUE,2,,,,,
null,CORRECT,,html-keyboard-response,25,532794,0.0-3.1-2.1-0.1,58460,List1B,black,woman,,,,null,,,,
4279,"<img src=""portrait/WM2.jpg""style=""height:400px;""></img>",7,html-button-response,26,537075,0.0-3.1-4.1,58460,List1B,black,woman,,TRUE,7,,,,,
null,CORRECT,,html-keyboard-response,27,538584,0.0-3.1-5.1-0.1,58460,List1B,black,woman,,,,null,,,,
9055,"<img src=""portrait/WW1.jpg""style=""height:400px;""></img>",1,html-button-response,28,547642,0.0-3.1-7.1,58460,List1B,black,woman,,TRUE,1,,,,,
null,CORRECT,,html-keyboard-response,29,549146,0.0-3.1-8.1-0.1,58460,List1B,black,woman,,,,null,,,,
5404,"<img src=""portrait/BM1.jpg""style=""height:400px;""></img>",4,html-button-response,30,554553,0.0-3.1-10.1,58460,List1B,black,woman,,TRUE,4,,,,,
null,CORRECT,,html-keyboard-response,31,556063,0.0-3.1-11.1-0.1,58460,List1B,black,woman,,,,null,,,,
1436,"<img src=""portrait/WW2.jpg""style=""height:400px;""></img>",3,html-button-response,32,557502,0.0-3.1-13.1,58460,List1B,black,woman,,TRUE,3,,,,,
null,CORRECT,,html-keyboard-response,33,559006,0.0-3.1-14.1-0.1,58460,List1B,black,woman,,,,null,,,,
4668,"<img src=""portrait/WM1.jpg""style=""height:400px;""></img>",6,html-button-response,34,563677,0.0-3.1-16.1,58460,List1B,black,woman,,TRUE,6,,,,,
null,CORRECT,,html-keyboard-response,35,565181,0.0-3.1-17.1-0.1,58460,List1B,black,woman,,,,null,,,,
1451,"<img src=""portrait/BM2.jpg""style=""height:400px;""></img>",5,html-button-response,36,566634,0.0-3.1-19.1,58460,List1B,black,woman,,TRUE,5,,,,,
null,CORRECT,,html-keyboard-response,37,568140,0.0-3.1-20.1-0.1,58460,List1B,black,woman,,,,null,,,,
1720,"<img src=""portrait/BW1.jpg""style=""height:400px;""></img>",0,html-button-response,38,569863,0.0-3.1-22.1,58460,List1B,black,woman,,TRUE,0,,,,,
null,CORRECT,,html-keyboard-response,39,571369,0.0-3.1-23.1-0.1,58460,List1B,black,woman,,,,null,,,,
3340,<p>You got 8 out of 8 right first time. Press Continue.</p>,0,html-button-response,40,574712,0.0-3.1-25.1,58460,List1B,black,woman,,,,,,,,
30504,"<p>In this experiment, you will view photographs of the people from the memory game interacting.</p><p>By using the <strong>exact</strong> phrase given <i>after</i> the photograph appears and recalling the correct names of the people in the photographs, form a sentence describing the interaction. You do not need to capitalise names.</p><p>Type your answer in the space provided. Please complete every sentence before moving onto the next trial.</p><p>You will only have a few seconds to memorise each given photograph and phrase before you can respond, so try your best to focus.</p><p>An example is given below. Press 'Continue' when you are ready.</p><img src='img/speaking_example.jpg' style='width:800px;height:460px;''></img>",0,html-button-response,41,606220,0.0-4.0,58460,List1B,black,woman,,,,,,,,
2065,"<p>Before the experiment starts, you will watch two example trials. Press 'Continue'.</p>",0,html-button-response,42,609289,0.0-5.0,58460,List1B,black,woman,,,,,,,,
null,<img src='img/meet_eg.gif' style='height:400px;''></img>,,html-keyboard-response,43,612293,0.0-6.0,58460,List1B,black,woman,,,,null,,,,
null,<p>is meeting</p>,,html-keyboard-response,44,614298,0.0-7.0,58460,List1B,black,woman,,,,null,,,,
4833,<p><b>Answer:</b> kate is meeting beth</p>,0,html-button-response,45,619133,0.0-8.0,58460,List1B,black,woman,,,,,,,,
null,<img src='img/look_eg.gif' style='height:400px;''></img>,,html-keyboard-response,46,622148,0.0-9.0,58460,List1B,black,woman,,,,null,,,,
null,<p>are looking at each other</p>,,html-keyboard-response,47,624151,0.0-10.0,58460,List1B,black,woman,,,,null,,,,
2873,<p><b>Answer:</b> luke and dave are looking at each other</p>,0,html-button-response,48,627026,0.0-11.0,58460,List1B,black,woman,,,,,,,,
13820,"<p>Ready to start the experiment?</p><br><p><strong>Remember to describe the picture using a full sentence,</strong></p><p><strong>that combines the names of the people with the <i>exact</i> phrase given.</strong></p><p><strong>To receive full payment you must do this correctly.</strong></p><p><strong> You do not need to capitalise names or use punctuation.</strong></p><br><p>Press 'Continue' to begin.</p>",0,html-button-response,49,641853,0.0-12.0,58460,List1B,black,woman,,,,,,,,
null,"<div style=""font-size:60px;"">+</div>",,html-keyboard-response,50,643379,0.0-13.0-0.0,58460,List1B,black,woman,,,,null,,,,
null,"<img src=""stim_listB/marry4.gif""style=""height:400px;""></stim_listB>",,html-keyboard-response,51,645383,0.0-13.0-1.0,58460,List1B,black,woman,,,,null,,,,
null,are marrying each other,,html-keyboard-response,52,647386,0.0-13.0-2.0,58460,List1B,black,woman,,,,null,,,,
41582,,,survey-text,53,688970,0.0-13.0-3.0,58460,List1B,black,woman,,,,,"{""Q0"":""Luke and Jane are marrying each other""}","<img src=""stim_listB/marry4.gif""style=""height:400px;""></stim_listB>",are marrying each other,
null,"<div style=""font-size:60px;"">+</div>",,html-keyboard-response,54,689473,0.0-13.0-0.1,58460,List1B,black,woman,,,,null,,,,
null,"<img src=""stim_listB/kiss6.gif""style=""height:400px;""></stim_listB>",,html-keyboard-response,55,691474,0.0-13.0-1.1,58460,List1B,black,woman,,,,null,,,,
null,are kissing each other,,html-keyboard-response,56,693479,0.0-13.0-2.1,58460,List1B,black,woman,,,,null,,,,
45207,,,survey-text,57,738688,0.0-13.0-3.1,58460,List1B,black,woman,,,,,"{""Q0"":""dave and Mike are kissing each other""}","<img src=""stim_listB/kiss6.gif""style=""height:400px;""></stim_listB>",are kissing each other,
null,"<div style=""font-size:60px;"">+</div>",,html-keyboard-response,58,739192,0.0-13.0-0.2,58460,List1B,black,woman,,,,null,,,,
null,"<img src=""stim_listB/talk3.gif""style=""height:400px;""></stim_listB>",,html-keyboard-response,59,741198,0.0-13.0-1.2,58460,List1B,black,woman,,,,null,,,,
null,is talking to,,html-keyboard-response,60,743203,0.0-13.0-2.2,58460,List1B,black,woman,,,,null,,,,
17750,,,survey-text,61,760954,0.0-13.0-3.2,58460,List1B,black,woman,,,,,"{""Q0"":""Jane is talking to Luke""}","<img src=""stim_listB/talk3.gif""style=""height:400px;""></stim_listB>",is talking to,
null,"<div style=""font-size:60px;"">+</div>",,html-keyboard-response,62,761460,0.0-13.0-0.3,58460,List1B,black,woman,,,,null,,,,
null,"<img src=""stim_listB/flirt1.gif""style=""height:400px;""></stim_listB>",,html-keyboard-response,63,763463,0.0-13.0-1.3,58460,List1B,black,woman,,,,null,,,,
null,is flirting with,,html-keyboard-response,64,765470,0.0-13.0-2.3,58460,List1B,black,woman,,,,null,,,,
10297,,,survey-text,65,775769,0.0-13.0-3.3,58460,List1B,black,woman,,,,,"{""Q0"":""Kate is flirting with Fred""}","<img src=""stim_listB/flirt1.gif""style=""height:400px;""></stim_listB>",is flirting with,
null,"<div style=""font-size:60px;"">+</div>",,html-keyboard-response,66,776271,0.0-13.0-0.4,58460,List1B,black,woman,,,,null,,,,
null,"<img src=""stim_listB/argue8.gif""style=""height:400px;""></stim_listB>",,html-keyboard-response,67,778275,0.0-13.0-1.4,58460,List1B,black,woman,,,,null,,,,
null,are arguing with each other,,html-keyboard-response,68,780279,0.0-13.0-2.4,58460,List1B,black,woman,,,,null,,,,
17077,,,survey-text,69,797358,0.0-13.0-3.4,58460,List1B,black,woman,,,,,"{""Q0"":""Beth and Jane are arguing with each other""}","<img src=""stim_listB/argue8.gif""style=""height:400px;""></stim_listB>",are arguing with each other,
null,"<div style=""font-size:60px;"">+</div>",,html-keyboard-response,70,797859,0.0-13.0-0.5,58460,List1B,black,woman,,,,null,,,,
null,"<img src=""stim_listB/argue4.gif""style=""height:400px;""></stim_listB>",,html-keyboard-response,71,799862,0.0-13.0-1.5,58460,List1B,black,woman,,,,null,,,,
null,are arguing with each other,,html-keyboard-response,72,801866,0.0-13.0-2.5,58460,List1B,black,woman,,,,null,,,,
12599,,,survey-text,73,814467,0.0-13.0-3.5,58460,List1B,black,woman,,,,,"{""Q0"":""Jane and Luke are arguing with each other""}","<img src=""stim_listB/argue4.gif""style=""height:400px;""></stim_listB>",are arguing with each other,
null,"<div style=""font-size:60px;"">+</div>",,html-keyboard-response,74,814968,0.0-13.0-0.6,58460,List1B,black,woman,,,,null,,,,
null,"<img src=""stim_listB/kiss7.gif""style=""height:400px;""></stim_listB>",,html-keyboard-response,75,816974,0.0-13.0-1.6,58460,List1B,black,woman,,,,null,,,,
null,is kissing,,html-keyboard-response,76,818975,0.0-13.0-2.6,58460,List1B,black,woman,,,,null,,,,
8329,,,survey-text,77,827306,0.0-13.0-3.6,58460,List1B,black,woman,,,,,"{""Q0"":""ruth is kissing beth""}","<img src=""stim_listB/kiss7.gif""style=""height:400px;""></stim_listB>",is kissing,
null,"<div style=""font-size:60px;"">+</div>",,html-keyboard-response,78,827810,0.0-13.0-0.7,58460,List1B,black,woman,,,,null,,,,
null,"<img src=""stim_listB/touch1.gif""style=""height:400px;""></stim_listB>",,html-keyboard-response,79,829816,0.0-13.0-1.7,58460,List1B,black,woman,,,,null,,,,
null,is touching,,html-keyboard-response,80,831819,0.0-13.0-2.7,58460,List1B,black,woman,,,,null,,,,
13170,,,survey-text,81,844990,0.0-13.0-3.7,58460,List1B,black,woman,,,,,"{""Q0"":""mike is touching kate""}","<img src=""stim_listB/touch1.gif""style=""height:400px;""></stim_listB>",is touching,
null,"<div style=""font-size:60px;"">+</div>",,html-keyboard-response,82,845493,0.0-13.0-0.8,58460,List1B,black,woman,,,,null,,,,
null,"<img src=""stim_listB/dance3.gif""style=""height:400px;""></stim_listB>",,html-keyboard-response,83,847496,0.0-13.0-1.8,58460,List1B,black,woman,,,,null,,,,
null,is dancing with,,html-keyboard-response,84,849515,0.0-13.0-2.8,58460,List1B,black,woman,,,,null,,,,
15944,,,survey-text,85,865460,0.0-13.0-3.8,58460,List1B,black,woman,,,,,"{""Q0"":""Jane is dancing with luke""}","<img src=""stim_listB/dance3.gif""style=""height:400px;""></stim_listB>",is dancing with,
null,"<div style=""font-size:60px;"">+</div>",,html-keyboard-response,86,865962,0.0-13.0-0.9,58460,List1B,black,woman,,,,null,,,,
null,"<img src=""stim_listB/play3.gif""style=""height:400px;""></stim_listB>",,html-keyboard-response,87,867968,0.0-13.0-1.9,58460,List1B,black,woman,,,,null,,,,
null,is playing with,,html-keyboard-response,88,869973,0.0-13.0-2.9,58460,List1B,black,woman,,,,null,,,,
8581,,,survey-text,89,878556,0.0-13.0-3.9,58460,List1B,black,woman,,,,,"{""Q0"":""Dave is playing with Jane""}","<img src=""stim_listB/play3.gif""style=""height:400px;""></stim_listB>",is playing with,
null,"<div style=""font-size:60px;"">+</div>",,html-keyboard-response,90,879058,0.0-13.0-0.10,58460,List1B,black,woman,,,,null,,,,
null,"<img src=""stim_listB/talk4.gif""style=""height:400px;""></stim_listB>",,html-keyboard-response,91,881061,0.0-13.0-1.10,58460,List1B,black,woman,,,,null,,,,
null,are talking to each other,,html-keyboard-response,92,883065,0.0-13.0-2.10,58460,List1B,black,woman,,,,null,,,,
16133,,,survey-text,93,899198,0.0-13.0-3.10,58460,List1B,black,woman,,,,,"{""Q0"":""Dave and Ruth are talking to each other""}","<img src=""stim_listB/talk4.gif""style=""height:400px;""></stim_listB>",are talking to each other,
null,"<div style=""font-size:60px;"">+</div>",,html-keyboard-response,94,899702,0.0-13.0-0.11,58460,List1B,black,woman,,,,null,,,,
null,"<img src=""stim_listB/touch3.gif""style=""height:400px;""></stim_listB>",,html-keyboard-response,95,901707,0.0-13.0-1.11,58460,List1B,black,woman,,,,null,,,,
null,is touching,,html-keyboard-response,96,903709,0.0-13.0-2.11,58460,List1B,black,woman,,,,null,,,,
6436,,,survey-text,97,910147,0.0-13.0-3.11,58460,List1B,black,woman,,,,,"{""Q0"":""Dave is touching Jane""}","<img src=""stim_listB/touch3.gif""style=""height:400px;""></stim_listB>",is touching,
null,"<div style=""font-size:60px;"">+</div>",,html-keyboard-response,98,910650,0.0-13.0-0.12,58460,List1B,black,woman,,,,null,,,,
null,"<img src=""stim_listB/touch7.gif""style=""height:400px;""></stim_listB>",,html-keyboard-response,99,912657,0.0-13.0-1.12,58460,List1B,black,woman,,,,null,,,,
null,is touching,,html-keyboard-response,100,914662,0.0-13.0-2.12,58460,List1B,black,woman,,,,null,,,,
6713,,,survey-text,101,921377,0.0-13.0-3.12,58460,List1B,black,woman,,,,,"{""Q0"":""Jane is touching Kate""}","<img src=""stim_listB/touch7.gif""style=""height:400px;""></stim_listB>",is touching,
null,"<div style=""font-size:60px;"">+</div>",,html-keyboard-response,102,921879,0.0-13.0-0.13,58460,List1B,black,woman,,,,null,,,,
null,"<img src=""stim_listB/kiss4.gif""style=""height:400px;""></stim_listB>",,html-keyboard-response,103,923882,0.0-13.0-1.13,58460,List1B,black,woman,,,,null,,,,
null,are kissing each other,,html-keyboard-response,104,925886,0.0-13.0-2.13,58460,List1B,black,woman,,,,null,,,,
8990,,,survey-text,105,934878,0.0-13.0-3.13,58460,List1B,black,woman,,,,,"{""Q0"":""Jane and Dave are kissing each other""}","<img src=""stim_listB/kiss4.gif""style=""height:400px;""></stim_listB>",are kissing each other,
null,"<div style=""font-size:60px;"">+</div>",,html-keyboard-response,106,935379,0.0-13.0-0.14,58460,List1B,black,woman,,,,null,,,,
null,"<img src=""stim_listB/play6.gif""style=""height:400px;""></stim_listB>",,html-keyboard-response,107,937386,0.0-13.0-1.14,58460,List1B,black,woman,,,,null,,,,
null,are playing with each other,,html-keyboard-response,108,939390,0.0-13.0-2.14,58460,List1B,black,woman,,,,null,,,,
11405,,,survey-text,109,950797,0.0-13.0-3.14,58460,List1B,black,woman,,,,,"{""Q0"":""Luke and Fred are playing with each other""}","<img src=""stim_listB/play6.gif""style=""height:400px;""></stim_listB>",are playing with each other,
null,"<div style=""font-size:60px;"">+</div>",,html-keyboard-response,110,951302,0.0-13.0-0.15,58460,List1B,black,woman,,,,null,,,,
null,"<img src=""stim_listB/fight5.gif""style=""height:400px;""></stim_listB>",,html-keyboard-response,111,953306,0.0-13.0-1.15,58460,List1B,black,woman,,,,null,,,,
null,is fighting,,html-keyboard-response,112,955308,0.0-13.0-2.15,58460,List1B,black,woman,,,,null,,,,
11146,,,survey-text,113,966457,0.0-13.0-3.15,58460,List1B,black,woman,,,,,"{""Q0"":""Mike is fighting Dave""}","<img src=""stim_listB/fight5.gif""style=""height:400px;""></stim_listB>",is fighting,
null,"<div style=""font-size:60px;"">+</div>",,html-keyboard-response,114,966958,0.0-13.0-0.16,58460,List1B,black,woman,,,,null,,,,
null,"<img src=""stim_listB/flirt4.gif""style=""height:400px;""></stim_listB>",,html-keyboard-response,115,968962,0.0-13.0-1.16,58460,List1B,black,woman,,,,null,,,,
null,are flirting with each other,,html-keyboard-response,116,970964,0.0-13.0-2.16,58460,List1B,black,woman,,,,null,,,,
12392,,,survey-text,117,983357,0.0-13.0-3.16,58460,List1B,black,woman,,,,,"{""Q0"":""Ruth and Dave are flirting with each other""}","<img src=""stim_listB/flirt4.gif""style=""height:400px;""></stim_listB>",are flirting with each other,
null,"<div style=""font-size:60px;"">+</div>",,html-keyboard-response,118,983861,0.0-13.0-0.17,58460,List1B,black,woman,,,,null,,,,
null,"<img src=""stim_listB/kiss3.gif""style=""height:400px;""></stim_listB>",,html-keyboard-response,119,985864,0.0-13.0-1.17,58460,List1B,black,woman,,,,null,,,,
null,is kissing,,html-keyboard-response,120,987866,0.0-13.0-2.17,58460,List1B,black,woman,,,,null,,,,
8989,,,survey-text,121,996858,0.0-13.0-3.17,58460,List1B,black,woman,,,,,"{""Q0"":""Ruth is kissing Luke""}","<img src=""stim_listB/kiss3.gif""style=""height:400px;""></stim_listB>",is kissing,
null,"<div style=""font-size:60px;"">+</div>",,html-keyboard-response,122,997361,0.0-13.0-0.18,58460,List1B,black,woman,,,,null,,,,
null,"<img src=""stim_listB/dance8.gif""style=""height:400px;""></stim_listB>",,html-keyboard-response,123,999365,0.0-13.0-1.18,58460,List1B,black,woman,,,,null,,,,
null,are dancing with each other,,html-keyboard-response,124,1001369,0.0-13.0-2.18,58460,List1B,black,woman,,,,null,,,,
11751,,,survey-text,125,1013121,0.0-13.0-3.18,58460,List1B,black,woman,,,,,"{""Q0"":""Ruth and Kate are dancing with each other""}","<img src=""stim_listB/dance8.gif""style=""height:400px;""></stim_listB>",are dancing with each other,
null,"<div style=""font-size:60px;"">+</div>",,html-keyboard-response,126,1013625,0.0-13.0-0.19,58460,List1B,black,woman,,,,null,,,,
null,"<img src=""stim_listB/flirt2.gif""style=""height:400px;""></stim_listB>",,html-keyboard-response,127,1015632,0.0-13.0-1.19,58460,List1B,black,woman,,,,null,,,,
null,are flirting with each other,,html-keyboard-response,128,1017635,0.0-13.0-2.19,58460,List1B,black,woman,,,,null,,,,
12791,,,survey-text,129,1030428,0.0-13.0-3.19,58460,List1B,black,woman,,,,,"{""Q0"":""Mike and Beth are flirting with each other""}","<img src=""stim_listB/flirt2.gif""style=""height:400px;""></stim_listB>",are flirting with each other,
33604,"<img src='img/portrait_matrix_list1.jpg' style='width:900px;height:500px;''></img><p>If you have memorised all the portraits and names and are ready to start, press Continue.</p><p><strong>Please note: Your memory of these faces will be tested 4 times during this experiment.</strong></p>",0,html-button-response,130,1064034,0.0-14.0-0.0,58460,List1B,black,woman,,,,,,,,
2984,"<img src=""portrait/WW1.jpg""style=""height:400px;""></img>",1,html-button-response,131,1068023,0.0-14.0-1.0,58460,List1B,black,woman,,TRUE,1,,,,,
null,CORRECT,,html-keyboard-response,132,1069534,0.0-14.0-2.0-0.0,58460,List1B,black,woman,,,,null,,,,
2243,"<img src=""portrait/BW1.jpg""style=""height:400px;""></img>",0,html-button-response,133,1071779,0.0-14.0-4.0,58460,List1B,black,woman,,TRUE,0,,,,,
null,CORRECT,,html-keyboard-response,134,1073287,0.0-14.0-5.0-0.0,58460,List1B,black,woman,,,,null,,,,
2589,"<img src=""portrait/WM1.jpg""style=""height:400px;""></img>",6,html-button-response,135,1075879,0.0-14.0-7.0,58460,List1B,black,woman,,TRUE,6,,,,,
null,CORRECT,,html-keyboard-response,136,1077384,0.0-14.0-8.0-0.0,58460,List1B,black,woman,,,,null,,,,
1892,"<img src=""portrait/BM2.jpg""style=""height:400px;""></img>",5,html-button-response,137,1079278,0.0-14.0-10.0,58460,List1B,black,woman,,TRUE,5,,,,,
null,CORRECT,,html-keyboard-response,138,1080786,0.0-14.0-11.0-0.0,58460,List1B,black,woman,,,,null,,,,
1694,"<img src=""portrait/WM2.jpg""style=""height:400px;""></img>",7,html-button-response,139,1082483,0.0-14.0-13.0,58460,List1B,black,woman,,TRUE,7,,,,,
null,CORRECT,,html-keyboard-response,140,1083988,0.0-14.0-14.0-0.0,58460,List1B,black,woman,,,,null,,,,
3056,"<img src=""portrait/WW2.jpg""style=""height:400px;""></img>",3,html-button-response,141,1087048,0.0-14.0-16.0,58460,List1B,black,woman,,TRUE,3,,,,,
null,CORRECT,,html-keyboard-response,142,1088566,0.0-14.0-17.0-0.0,58460,List1B,black,woman,,,,null,,,,
1807,"<img src=""portrait/BW2.jpg""style=""height:400px;""></img>",2,html-button-response,143,1090375,0.0-14.0-19.0,58460,List1B,black,woman,,TRUE,2,,,,,
null,CORRECT,,html-keyboard-response,144,1091888,0.0-14.0-20.0-0.0,58460,List1B,black,woman,,,,null,,,,
2461,"<img src=""portrait/BM1.jpg""style=""height:400px;""></img>",4,html-button-response,145,1094352,0.0-14.0-22.0,58460,List1B,black,woman,,TRUE,4,,,,,
null,CORRECT,,html-keyboard-response,146,1095857,0.0-14.0-23.0-0.0,58460,List1B,black,woman,,,,null,,,,
2396,<p>You got 8 out of 8 right first time. Press Continue.</p>,0,html-button-response,147,1098255,0.0-14.0-25.0,58460,List1B,black,woman,,,,,,,,
null,"<div style=""font-size:60px;"">+</div>",,html-keyboard-response,148,1099769,0.0-15.0-0.0,58460,List1B,black,woman,,,,null,,,,
null,"<img src=""stim_listB/talk1.gif""style=""height:400px;""></stim_listB>",,html-keyboard-response,149,1101775,0.0-15.0-1.0,58460,List1B,black,woman,,,,null,,,,
null,is talking to,,html-keyboard-response,150,1103783,0.0-15.0-2.0,58460,List1B,black,woman,,,,null,,,,
9198,,,survey-text,151,1112983,0.0-15.0-3.0,58460,List1B,black,woman,,,,,"{""Q0"":""kate is talking to Fred""}","<img src=""stim_listB/talk1.gif""style=""height:400px;""></stim_listB>",is talking to,
null,"<div style=""font-size:60px;"">+</div>",,html-keyboard-response,152,1113485,0.0-15.0-0.1,58460,List1B,black,woman,,,,null,,,,
null,"<img src=""stim_listB/argue6.gif""style=""height:400px;""></stim_listB>",,html-keyboard-response,153,1115488,0.0-15.0-1.1,58460,List1B,black,woman,,,,null,,,,
null,are arguing with each other,,html-keyboard-response,154,1117492,0.0-15.0-2.1,58460,List1B,black,woman,,,,null,,,,
9518,,,survey-text,155,1127011,0.0-15.0-3.1,58460,List1B,black,woman,,,,,"{""Q0"":""Fred and Dave are arguing with each other""}","<img src=""stim_listB/argue6.gif""style=""height:400px;""></stim_listB>",are arguing with each other,
null,"<div style=""font-size:60px;"">+</div>",,html-keyboard-response,156,1127516,0.0-15.0-0.2,58460,List1B,black,woman,,,,null,,,,
null,"<img src=""stim_listB/touch2.gif""style=""height:400px;""></stim_listB>",,html-keyboard-response,157,1129519,0.0-15.0-1.2,58460,List1B,black,woman,,,,null,,,,
null,are touching each other,,html-keyboard-response,158,1131522,0.0-15.0-2.2,58460,List1B,black,woman,,,,null,,,,
8155,,,survey-text,159,1139678,0.0-15.0-3.2,58460,List1B,black,woman,,,,,"{""Q0"":""Fred and Beth are touching each other""}","<img src=""stim_listB/touch2.gif""style=""height:400px;""></stim_listB>",are touching each other,
null,"<div style=""font-size:60px;"">+</div>",,html-keyboard-response,160,1140183,0.0-15.0-0.3,58460,List1B,black,woman,,,,null,,,,
null,"<img src=""stim_listB/dance4.gif""style=""height:400px;""></stim_listB>",,html-keyboard-response,161,1142187,0.0-15.0-1.3,58460,List1B,black,woman,,,,null,,,,
null,are dancing with each other,,html-keyboard-response,162,1144191,0.0-15.0-2.3,58460,List1B,black,woman,,,,null,,,,
46856,,,survey-text,163,1191048,0.0-15.0-3.3,58460,List1B,black,woman,,,,,"{""Q0"":""dave and ruth are dancing with each other""}","<img src=""stim_listB/dance4.gif""style=""height:400px;""></stim_listB>",are dancing with each other,
null,"<div style=""font-size:60px;"">+</div>",,html-keyboard-response,164,1191550,0.0-15.0-0.4,58460,List1B,black,woman,,,,null,,,,
null,"<img src=""stim_listB/dance5.gif""style=""height:400px;""></stim_listB>",,html-keyboard-response,165,1193553,0.0-15.0-1.4,58460,List1B,black,woman,,,,null,,,,
null,is dancing with,,html-keyboard-response,166,1195556,0.0-15.0-2.4,58460,List1B,black,woman,,,,null,,,,
6009,,,survey-text,167,1201566,0.0-15.0-3.4,58460,List1B,black,woman,,,,,"{""Q0"":""dave is dancing with fred""}","<img src=""stim_listB/dance5.gif""style=""height:400px;""></stim_listB>",is dancing with,
null,"<div style=""font-size:60px;"">+</div>",,html-keyboard-response,168,1202071,0.0-15.0-0.5,58460,List1B,black,woman,,,,null,,,,
null,"<img src=""stim_listB/argue2.gif""style=""height:400px;""></stim_listB>",,html-keyboard-response,169,1204075,0.0-15.0-1.5,58460,List1B,black,woman,,,,null,,,,
null,are arguing with each other,,html-keyboard-response,170,1206080,0.0-15.0-2.5,58460,List1B,black,woman,,,,null,,,,
8790,,,survey-text,171,1214871,0.0-15.0-3.5,58460,List1B,black,woman,,,,,"{""Q0"":""dave and kate are arguing with each other""}","<img src=""stim_listB/argue2.gif""style=""height:400px;""></stim_listB>",are arguing with each other,
null,"<div style=""font-size:60px;"">+</div>",,html-keyboard-response,172,1215374,0.0-15.0-0.6,58460,List1B,black,woman,,,,null,,,,
null,"<img src=""stim_listB/shout8.gif""style=""height:400px;""></stim_listB>",,html-keyboard-response,173,1217380,0.0-15.0-1.6,58460,List1B,black,woman,,,,null,,,,
null,are shouting at each other,,html-keyboard-response,174,1219382,0.0-15.0-2.6,58460,List1B,black,woman,,,,null,,,,
9321,,,survey-text,175,1228704,0.0-15.0-3.6,58460,List1B,black,woman,,,,,"{""Q0"":""kate and jane are shouting at each other""}","<img src=""stim_listB/shout8.gif""style=""height:400px;""></stim_listB>",are shouting at each other,
null,"<div style=""font-size:60px;"">+</div>",,html-keyboard-response,176,1229210,0.0-15.0-0.7,58460,List1B,black,woman,,,,null,,,,
null,"<img src=""stim_listB/talk6.gif""style=""height:400px;""></stim_listB>",,html-keyboard-response,177,1231214,0.0-15.0-1.7,58460,List1B,black,woman,,,,null,,,,
null,are talking to each other,,html-keyboard-response,178,1233222,0.0-15.0-2.7,58460,List1B,black,woman,,,,null,,,,
9658,,,survey-text,179,1242882,0.0-15.0-3.7,58460,List1B,black,woman,,,,,"{""Q0"":""mike and luke are talking to each other""}","<img src=""stim_listB/talk6.gif""style=""height:400px;""></stim_listB>",are talking to each other,
null,"<div style=""font-size:60px;"">+</div>",,html-keyboard-response,180,1243384,0.0-15.0-0.8,58460,List1B,black,woman,,,,null,,,,
null,"<img src=""stim_listB/play2.gif""style=""height:400px;""></stim_listB>",,html-keyboard-response,181,1245388,0.0-15.0-1.8,58460,List1B,black,woman,,,,null,,,,
null,are playing with each other,,html-keyboard-response,182,1247391,0.0-15.0-2.8,58460,List1B,black,woman,,,,null,,,,
9311,,,survey-text,183,1256705,0.0-15.0-3.8,58460,List1B,black,woman,,,,,"{""Q0"":""fred and beth are playing together""}","<img src=""stim_listB/play2.gif""style=""height:400px;""></stim_listB>",are playing with each other,
null,"<div style=""font-size:60px;"">+</div>",,html-keyboard-response,184,1257210,0.0-15.0-0.9,58460,List1B,black,woman,,,,null,,,,
null,"<img src=""stim_listB/fight7.gif""style=""height:400px;""></stim_listB>",,html-keyboard-response,185,1259215,0.0-15.0-1.9,58460,List1B,black,woman,,,,null,,,,
null,is fighting,,html-keyboard-response,186,1261219,0.0-15.0-2.9,58460,List1B,black,woman,,,,null,,,,
6494,,,survey-text,187,1267714,0.0-15.0-3.9,58460,List1B,black,woman,,,,,"{""Q0"":""jane is fighting kate""}","<img src=""stim_listB/fight7.gif""style=""height:400px;""></stim_listB>",is fighting,
null,"<div style=""font-size:60px;"">+</div>",,html-keyboard-response,188,1268217,0.0-15.0-0.10,58460,List1B,black,woman,,,,null,,,,
null,"<img src=""stim_listB/flirt6.gif""style=""height:400px;""></stim_listB>",,html-keyboard-response,189,1270223,0.0-15.0-1.10,58460,List1B,black,woman,,,,null,,,,
null,are flirting with each other,,html-keyboard-response,190,1272228,0.0-15.0-2.10,58460,List1B,black,woman,,,,null,,,,
10571,,,survey-text,191,1282800,0.0-15.0-3.10,58460,List1B,black,woman,,,,,"{""Q0"":""mike and luke are flirting with each other""}","<img src=""stim_listB/flirt6.gif""style=""height:400px;""></stim_listB>",are flirting with each other,
null,"<div style=""font-size:60px;"">+</div>",,html-keyboard-response,192,1283304,0.0-15.0-0.11,58460,List1B,black,woman,,,,null,,,,
null,"<img src=""stim_listB/argue3.gif""style=""height:400px;""></stim_listB>",,html-keyboard-response,193,1285311,0.0-15.0-1.11,58460,List1B,black,woman,,,,null,,,,
null,is arguing with,,html-keyboard-response,194,1287316,0.0-15.0-2.11,58460,List1B,black,woman,,,,null,,,,
7709,,,survey-text,195,1295027,0.0-15.0-3.11,58460,List1B,black,woman,,,,,"{""Q0"":""ruth is arguing with dave""}","<img src=""stim_listB/argue3.gif""style=""height:400px;""></stim_listB>",is arguing with,
null,"<div style=""font-size:60px;"">+</div>",,html-keyboard-response,196,1295528,0.0-15.0-0.12,58460,List1B,black,woman,,,,null,,,,
null,"<img src=""stim_listB/shout2.gif""style=""height:400px;""></stim_listB>",,html-keyboard-response,197,1297532,0.0-15.0-1.12,58460,List1B,black,woman,,,,null,,,,
null,are shouting at each other,,html-keyboard-response,198,1299536,0.0-15.0-2.12,58460,List1B,black,woman,,,,null,,,,
10155,,,survey-text,199,1309692,0.0-15.0-3.12,58460,List1B,black,woman,,,,,"{""Q0"":""kate and mike are shouting at each other""}","<img src=""stim_listB/shout2.gif""style=""height:400px;""></stim_listB>",are shouting at each other,
null,"<div style=""font-size:60px;"">+</div>",,html-keyboard-response,200,1310194,0.0-15.0-0.13,58460,List1B,black,woman,,,,null,,,,
null,"<img src=""stim_listB/dance6.gif""style=""height:400px;""></stim_listB>",,html-keyboard-response,201,1312199,0.0-15.0-1.13,58460,List1B,black,woman,,,,null,,,,
null,are dancing with each other,,html-keyboard-response,202,1314204,0.0-15.0-2.13,58460,List1B,black,woman,,,,null,,,,
12879,,,survey-text,203,1327084,0.0-15.0-3.13,58460,List1B,black,woman,,,,,"{""Q0"":"" mike and luke are dancing together""}","<img src=""stim_listB/dance6.gif""style=""height:400px;""></stim_listB>",are dancing with each other,
null,"<div style=""font-size:60px;"">+</div>",,html-keyboard-response,204,1327588,0.0-15.0-0.14,58460,List1B,black,woman,,,,null,,,,
null,"<img src=""stim_listB/fight3.gif""style=""height:400px;""></stim_listB>",,html-keyboard-response,205,1329593,0.0-15.0-1.14,58460,List1B,black,woman,,,,null,,,,
null,is fighting,,html-keyboard-response,206,1331595,0.0-15.0-2.14,58460,List1B,black,woman,,,,null,,,,
6866,,,survey-text,207,1338462,0.0-15.0-3.14,58460,List1B,black,woman,,,,,"{""Q0"":""jane is fighting dave""}","<img src=""stim_listB/fight3.gif""style=""height:400px;""></stim_listB>",is fighting,
null,"<div style=""font-size:60px;"">+</div>",,html-keyboard-response,208,1338964,0.0-15.0-0.15,58460,List1B,black,woman,,,,null,,,,
null,"<img src=""stim_listB/marry8.gif""style=""height:400px;""></stim_listB>",,html-keyboard-response,209,1340967,0.0-15.0-1.15,58460,List1B,black,woman,,,,null,,,,
null,are marrying each other,,html-keyboard-response,210,1342973,0.0-15.0-2.15,58460,List1B,black,woman,,,,null,,,,
9418,,,survey-text,211,1352392,0.0-15.0-3.15,58460,List1B,black,woman,,,,,"{""Q0"":""jane and beth are marrying each other""}","<img src=""stim_listB/marry8.gif""style=""height:400px;""></stim_listB>",are marrying each other,
null,"<div style=""font-size:60px;"">+</div>",,html-keyboard-response,212,1352896,0.0-15.0-0.16,58460,List1B,black,woman,,,,null,,,,
null,"<img src=""stim_listB/talk2.gif""style=""height:400px;""></stim_listB>",,html-keyboard-response,213,1354900,0.0-15.0-1.16,58460,List1B,black,woman,,,,null,,,,
null,are talking to each other,,html-keyboard-response,214,1356905,0.0-15.0-2.16,58460,List1B,black,woman,,,,null,,,,
9234,,,survey-text,215,1366140,0.0-15.0-3.16,58460,List1B,black,woman,,,,,"{""Q0"":""beth and mike are talking to each other""}","<img src=""stim_listB/talk2.gif""style=""height:400px;""></stim_listB>",are talking to each other,
null,"<div style=""font-size:60px;"">+</div>",,html-keyboard-response,216,1366646,0.0-15.0-0.17,58460,List1B,black,woman,,,,null,,,,
null,"<img src=""stim_listB/touch5.gif""style=""height:400px;""></stim_listB>",,html-keyboard-response,217,1368648,0.0-15.0-1.17,58460,List1B,black,woman,,,,null,,,,
null,is touching,,html-keyboard-response,218,1370650,0.0-15.0-2.17,58460,List1B,black,woman,,,,null,,,,
7418,,,survey-text,219,1378069,0.0-15.0-3.17,58460,List1B,black,woman,,,,,"{""Q0"":""mike is touching dave""}","<img src=""stim_listB/touch5.gif""style=""height:400px;""></stim_listB>",is touching,
null,"<div style=""font-size:60px;"">+</div>",,html-keyboard-response,220,1378574,0.0-15.0-0.18,58460,List1B,black,woman,,,,null,,,,
null,"<img src=""stim_listB/dance1.gif""style=""height:400px;""></stim_listB>",,html-keyboard-response,221,1380578,0.0-15.0-1.18,58460,List1B,black,woman,,,,null,,,,
null,is dancing with,,html-keyboard-response,222,1382583,0.0-15.0-2.18,58460,List1B,black,woman,,,,null,,,,
9832,,,survey-text,223,1392416,0.0-15.0-3.18,58460,List1B,black,woman,,,,,"{""Q0"":""kate is dancing with fred""}","<img src=""stim_listB/dance1.gif""style=""height:400px;""></stim_listB>",is dancing with,
null,"<div style=""font-size:60px;"">+</div>",,html-keyboard-response,224,1392923,0.0-15.0-0.19,58460,List1B,black,woman,,,,null,,,,
null,"<img src=""stim_listB/marry2.gif""style=""height:400px;""></stim_listB>",,html-keyboard-response,225,1394926,0.0-15.0-1.19,58460,List1B,black,woman,,,,null,,,,
null,are marrying each other,,html-keyboard-response,226,1396938,0.0-15.0-2.19,58460,List1B,black,woman,,,,null,,,,
10414,,,survey-text,227,1407353,0.0-15.0-3.19,58460,List1B,black,woman,,,,,"{""Q0"":""fred and kate are marrying each other""}","<img src=""stim_listB/marry2.gif""style=""height:400px;""></stim_listB>",are marrying each other,
7449,"<img src='img/portrait_matrix_list1.jpg' style='width:900px;height:500px;''></img><p>If you have memorised all the portraits and names and are ready to start, press Continue.</p><p><strong>Please note: Your memory of these faces will be tested 4 times during this experiment.</strong></p>",0,html-button-response,228,1414804,0.0-16.0-0.0,58460,List1B,black,woman,,,,,,,,
1831,"<img src=""portrait/BW2.jpg""style=""height:400px;""></img>",2,html-button-response,229,1417640,0.0-16.0-1.0,58460,List1B,black,woman,,TRUE,2,,,,,
null,CORRECT,,html-keyboard-response,230,1419167,0.0-16.0-2.0-0.0,58460,List1B,black,woman,,,,null,,,,
2422,"<img src=""portrait/BM2.jpg""style=""height:400px;""></img>",5,html-button-response,231,1421591,0.0-16.0-4.0,58460,List1B,black,woman,,TRUE,5,,,,,
null,CORRECT,,html-keyboard-response,232,1423097,0.0-16.0-5.0-0.0,58460,List1B,black,woman,,,,null,,,,
1708,"<img src=""portrait/WW2.jpg""style=""height:400px;""></img>",3,html-button-response,233,1424807,0.0-16.0-7.0,58460,List1B,black,woman,,TRUE,3,,,,,
null,CORRECT,,html-keyboard-response,234,1426318,0.0-16.0-8.0-0.0,58460,List1B,black,woman,,,,null,,,,
4218,"<img src=""portrait/WM1.jpg""style=""height:400px;""></img>",6,html-button-response,235,1430539,0.0-16.0-10.0,58460,List1B,black,woman,,TRUE,6,,,,,
null,CORRECT,,html-keyboard-response,236,1432044,0.0-16.0-11.0-0.0,58460,List1B,black,woman,,,,null,,,,
2347,"<img src=""portrait/WW1.jpg""style=""height:400px;""></img>",1,html-button-response,237,1434394,0.0-16.0-13.0,58460,List1B,black,woman,,TRUE,1,,,,,
null,CORRECT,,html-keyboard-response,238,1435901,0.0-16.0-14.0-0.0,58460,List1B,black,woman,,,,null,,,,
2184,"<img src=""portrait/BW1.jpg""style=""height:400px;""></img>",0,html-button-response,239,1438087,0.0-16.0-16.0,58460,List1B,black,woman,,TRUE,0,,,,,
null,CORRECT,,html-keyboard-response,240,1439596,0.0-16.0-17.0-0.0,58460,List1B,black,woman,,,,null,,,,
1925,"<img src=""portrait/BM1.jpg""style=""height:400px;""></img>",4,html-button-response,241,1441525,0.0-16.0-19.0,58460,List1B,black,woman,,TRUE,4,,,,,
null,CORRECT,,html-keyboard-response,242,1443029,0.0-16.0-20.0-0.0,58460,List1B,black,woman,,,,null,,,,
1254,"<img src=""portrait/WM2.jpg""style=""height:400px;""></img>",7,html-button-response,243,1444286,0.0-16.0-22.0,58460,List1B,black,woman,,TRUE,7,,,,,
null,CORRECT,,html-keyboard-response,244,1445793,0.0-16.0-23.0-0.0,58460,List1B,black,woman,,,,null,,,,
1792,<p>You got 8 out of 8 right first time. Press Continue.</p>,0,html-button-response,245,1447588,0.0-16.0-25.0,58460,List1B,black,woman,,,,,,,,
null,"<div style=""font-size:60px;"">+</div>",,html-keyboard-response,246,1449094,0.0-17.0-0.0,58460,List1B,black,woman,,,,null,,,,
null,"<img src=""stim_listB/marry3.gif""style=""height:400px;""></stim_listB>",,html-keyboard-response,247,1451099,0.0-17.0-1.0,58460,List1B,black,woman,,,,null,,,,
null,is marrying,,html-keyboard-response,248,1453103,0.0-17.0-2.0,58460,List1B,black,woman,,,,null,,,,
10156,,,survey-text,249,1463261,0.0-17.0-3.0,58460,List1B,black,woman,,,,,"{""Q0"":""ruth is marrying dave""}","<img src=""stim_listB/marry3.gif""style=""height:400px;""></stim_listB>",is marrying,
null,"<div style=""font-size:60px;"">+</div>",,html-keyboard-response,250,1463763,0.0-17.0-0.1,58460,List1B,black,woman,,,,null,,,,
null,"<img src=""stim_listB/dance7.gif""style=""height:400px;""></stim_listB>",,html-keyboard-response,251,1465768,0.0-17.0-1.1,58460,List1B,black,woman,,,,null,,,,
null,is dancing with,,html-keyboard-response,252,1467773,0.0-17.0-2.1,58460,List1B,black,woman,,,,null,,,,
5954,,,survey-text,253,1473729,0.0-17.0-3.1,58460,List1B,black,woman,,,,,"{""Q0"":""jane is dancing with beth""}","<img src=""stim_listB/dance7.gif""style=""height:400px;""></stim_listB>",is dancing with,
null,"<div style=""font-size:60px;"">+</div>",,html-keyboard-response,254,1474231,0.0-17.0-0.2,58460,List1B,black,woman,,,,null,,,,
null,"<img src=""stim_listB/flirt8.gif""style=""height:400px;""></stim_listB>",,html-keyboard-response,255,1476237,0.0-17.0-1.2,58460,List1B,black,woman,,,,null,,,,
null,are flirting with each other,,html-keyboard-response,256,1478242,0.0-17.0-2.2,58460,List1B,black,woman,,,,null,,,,
13970,,,survey-text,257,1492214,0.0-17.0-3.2,58460,List1B,black,woman,,,,,"{""Q0"":""ruth and kate are flirting with each other""}","<img src=""stim_listB/flirt8.gif""style=""height:400px;""></stim_listB>",are flirting with each other,
null,"<div style=""font-size:60px;"">+</div>",,html-keyboard-response,258,1492716,0.0-17.0-0.3,58460,List1B,black,woman,,,,null,,,,
null,"<img src=""stim_listB/play5.gif""style=""height:400px;""></stim_listB>",,html-keyboard-response,259,1494720,0.0-17.0-1.3,58460,List1B,black,woman,,,,null,,,,
null,is playing with,,html-keyboard-response,260,1496724,0.0-17.0-2.3,58460,List1B,black,woman,,,,null,,,,
7284,,,survey-text,261,1504009,0.0-17.0-3.3,58460,List1B,black,woman,,,,,"{""Q0"":""dave is playing with mike""}","<img src=""stim_listB/play5.gif""style=""height:400px;""></stim_listB>",is playing with,
null,"<div style=""font-size:60px;"">+</div>",,html-keyboard-response,262,1504515,0.0-17.0-0.4,58460,List1B,black,woman,,,,null,,,,
null,"<img src=""stim_listB/argue5.gif""style=""height:400px;""></stim_listB>",,html-keyboard-response,263,1506521,0.0-17.0-1.4,58460,List1B,black,woman,,,,null,,,,
null,is arguing with,,html-keyboard-response,264,1508536,0.0-17.0-2.4,58460,List1B,black,woman,,,,null,,,,
6763,,,survey-text,265,1515300,0.0-17.0-3.4,58460,List1B,black,woman,,,,,"{""Q0"":""mike is arguing with luke""}","<img src=""stim_listB/argue5.gif""style=""height:400px;""></stim_listB>",is arguing with,
null,"<div style=""font-size:60px;"">+</div>",,html-keyboard-response,266,1515805,0.0-17.0-0.5,58460,List1B,black,woman,,,,null,,,,
null,"<img src=""stim_listB/talk8.gif""style=""height:400px;""></stim_listB>",,html-keyboard-response,267,1517812,0.0-17.0-1.5,58460,List1B,black,woman,,,,null,,,,
null,are talking to each other,,html-keyboard-response,268,1519815,0.0-17.0-2.5,58460,List1B,black,woman,,,,null,,,,
8038,,,survey-text,269,1527856,0.0-17.0-3.5,58460,List1B,black,woman,,,,,"{""Q0"":""ruth and kate are talking to each other""}","<img src=""stim_listB/talk8.gif""style=""height:400px;""></stim_listB>",are talking to each other,
null,"<div style=""font-size:60px;"">+</div>",,html-keyboard-response,270,1528361,0.0-17.0-0.6,58460,List1B,black,woman,,,,null,,,,
null,"<img src=""stim_listB/kiss1.gif""style=""height:400px;""></stim_listB>",,html-keyboard-response,271,1530367,0.0-17.0-1.6,58460,List1B,black,woman,,,,null,,,,
null,is kissing,,html-keyboard-response,272,1532374,0.0-17.0-2.6,58460,List1B,black,woman,,,,null,,,,
6392,,,survey-text,273,1538768,0.0-17.0-3.6,58460,List1B,black,woman,,,,,"{""Q0"":""fred is kissing beth""}","<img src=""stim_listB/kiss1.gif""style=""height:400px;""></stim_listB>",is kissing,
null,"<div style=""font-size:60px;"">+</div>",,html-keyboard-response,274,1539271,0.0-17.0-0.7,58460,List1B,black,woman,,,,null,,,,
null,"<img src=""stim_listB/talk5.gif""style=""height:400px;""></stim_listB>",,html-keyboard-response,275,1541275,0.0-17.0-1.7,58460,List1B,black,woman,,,,null,,,,
null,is talking to,,html-keyboard-response,276,1543280,0.0-17.0-2.7,58460,List1B,black,woman,,,,null,,,,
7670,,,survey-text,277,1550952,0.0-17.0-3.7,58460,List1B,black,woman,,,,,"{""Q0"":""dave is talking to fred""}","<img src=""stim_listB/talk5.gif""style=""height:400px;""></stim_listB>",is talking to,
null,"<div style=""font-size:60px;"">+</div>",,html-keyboard-response,278,1551454,0.0-17.0-0.8,58460,List1B,black,woman,,,,null,,,,
null,"<img src=""stim_listB/marry7.gif""style=""height:400px;""></stim_listB>",,html-keyboard-response,279,1553457,0.0-17.0-1.8,58460,List1B,black,woman,,,,null,,,,
null,is marrying,,html-keyboard-response,280,1555459,0.0-17.0-2.8,58460,List1B,black,woman,,,,null,,,,
6906,,,survey-text,281,1562367,0.0-17.0-3.8,58460,List1B,black,woman,,,,,"{""Q0"":""ruth is marrying kate""}","<img src=""stim_listB/marry7.gif""style=""height:400px;""></stim_listB>",is marrying,
null,"<div style=""font-size:60px;"">+</div>",,html-keyboard-response,282,1562871,0.0-17.0-0.9,58460,List1B,black,woman,,,,null,,,,
null,"<img src=""stim_listB/marry1.gif""style=""height:400px;""></stim_listB>",,html-keyboard-response,283,1564874,0.0-17.0-1.9,58460,List1B,black,woman,,,,null,,,,
null,is marrying,,html-keyboard-response,284,1566878,0.0-17.0-2.9,58460,List1B,black,woman,,,,null,,,,
5283,,,survey-text,285,1572161,0.0-17.0-3.9,58460,List1B,black,woman,,,,,"{""Q0"":""beth is marrying mike""}","<img src=""stim_listB/marry1.gif""style=""height:400px;""></stim_listB>",is marrying,
null,"<div style=""font-size:60px;"">+</div>",,html-keyboard-response,286,1572665,0.0-17.0-0.10,58460,List1B,black,woman,,,,null,,,,
null,"<img src=""stim_listB/dance2.gif""style=""height:400px;""></stim_listB>",,html-keyboard-response,287,1574669,0.0-17.0-1.10,58460,List1B,black,woman,,,,null,,,,
null,are dancing with each other,,html-keyboard-response,288,1576673,0.0-17.0-2.10,58460,List1B,black,woman,,,,null,,,,
7050,,,survey-text,289,1583724,0.0-17.0-3.10,58460,List1B,black,woman,,,,,"{""Q0"":""mike and beth are dancing with each other""}","<img src=""stim_listB/dance2.gif""style=""height:400px;""></stim_listB>",are dancing with each other,
null,"<div style=""font-size:60px;"">+</div>",,html-keyboard-response,290,1584228,0.0-17.0-0.11,58460,List1B,black,woman,,,,null,,,,
null,"<img src=""stim_listB/marry6.gif""style=""height:400px;""></stim_listB>",,html-keyboard-response,291,1586232,0.0-17.0-1.11,58460,List1B,black,woman,,,,null,,,,
null,are marrying each other,,html-keyboard-response,292,1588236,0.0-17.0-2.11,58460,List1B,black,woman,,,,null,,,,
12853,,,survey-text,293,1601092,0.0-17.0-3.11,58460,List1B,black,woman,,,,,"{""Q0"":""fred and dave are marrying each other""}","<img src=""stim_listB/marry6.gif""style=""height:400px;""></stim_listB>",are marrying each other,
null,"<div style=""font-size:60px;"">+</div>",,html-keyboard-response,294,1601594,0.0-17.0-0.12,58460,List1B,black,woman,,,,null,,,,
null,"<img src=""stim_listB/shout6.gif""style=""height:400px;""></stim_listB>",,html-keyboard-response,295,1603599,0.0-17.0-1.12,58460,List1B,black,woman,,,,null,,,,
null,are shouting at each other,,html-keyboard-response,296,1605603,0.0-17.0-2.12,58460,List1B,black,woman,,,,null,,,,
8645,,,survey-text,297,1614249,0.0-17.0-3.12,58460,List1B,black,woman,,,,,"{""Q0"":""dave and mike are shouting at each other""}","<img src=""stim_listB/shout6.gif""style=""height:400px;""></stim_listB>",are shouting at each other,
null,"<div style=""font-size:60px;"">+</div>",,html-keyboard-response,298,1614753,0.0-17.0-0.13,58460,List1B,black,woman,,,,null,,,,
null,"<img src=""stim_listB/flirt5.gif""style=""height:400px;""></stim_listB>",,html-keyboard-response,299,1616759,0.0-17.0-1.13,58460,List1B,black,woman,,,,null,,,,
null,is flirting with,,html-keyboard-response,300,1618766,0.0-17.0-2.13,58460,List1B,black,woman,,,,null,,,,
9560,,,survey-text,301,1628327,0.0-17.0-3.13,58460,List1B,black,woman,,,,,"{""Q0"":""dave is flirting with fred""}","<img src=""stim_listB/flirt5.gif""style=""height:400px;""></stim_listB>",is flirting with,
null,"<div style=""font-size:60px;"">+</div>",,html-keyboard-response,302,1628830,0.0-17.0-0.14,58460,List1B,black,woman,,,,null,,,,
null,"<img src=""stim_listB/shout4.gif""style=""height:400px;""></stim_listB>",,html-keyboard-response,303,1630836,0.0-17.0-1.14,58460,List1B,black,woman,,,,null,,,,
null,are shouting at each other,,html-keyboard-response,304,1632839,0.0-17.0-2.14,58460,List1B,black,woman,,,,null,,,,
10412,,,survey-text,305,1643252,0.0-17.0-3.14,58460,List1B,black,woman,,,,,"{""Q0"":""dave and jane are shouting at each other""}","<img src=""stim_listB/shout4.gif""style=""height:400px;""></stim_listB>",are shouting at each other,
null,"<div style=""font-size:60px;"">+</div>",,html-keyboard-response,306,1643755,0.0-17.0-0.15,58460,List1B,black,woman,,,,null,,,,
null,"<img src=""stim_listB/kiss2.gif""style=""height:400px;""></stim_listB>",,html-keyboard-response,307,1645759,0.0-17.0-1.15,58460,List1B,black,woman,,,,null,,,,
null,are kissing each other,,html-keyboard-response,308,1647762,0.0-17.0-2.15,58460,List1B,black,woman,,,,null,,,,
7432,,,survey-text,309,1655195,0.0-17.0-3.15,58460,List1B,black,woman,,,,,"{""Q0"":""mike and kate are kissing each other""}","<img src=""stim_listB/kiss2.gif""style=""height:400px;""></stim_listB>",are kissing each other,
null,"<div style=""font-size:60px;"">+</div>",,html-keyboard-response,310,1655700,0.0-17.0-0.16,58460,List1B,black,woman,,,,null,,,,
null,"<img src=""stim_listB/flirt7.gif""style=""height:400px;""></stim_listB>",,html-keyboard-response,311,1657705,0.0-17.0-1.16,58460,List1B,black,woman,,,,null,,,,
null,is flirting with,,html-keyboard-response,312,1659707,0.0-17.0-2.16,58460,List1B,black,woman,,,,null,,,,
7958,,,survey-text,313,1667669,0.0-17.0-3.16,58460,List1B,black,woman,,,,,"{""Q0"":""jane is flirting with beth""}","<img src=""stim_listB/flirt7.gif""style=""height:400px;""></stim_listB>",is flirting with,
null,"<div style=""font-size:60px;"">+</div>",,html-keyboard-response,314,1668171,0.0-17.0-0.17,58460,List1B,black,woman,,,,null,,,,
null,"<img src=""stim_listB/kiss8.gif""style=""height:400px;""></stim_listB>",,html-keyboard-response,315,1670174,0.0-17.0-1.17,58460,List1B,black,woman,,,,null,,,,
null,are kissing each other,,html-keyboard-response,316,1672188,0.0-17.0-2.17,58460,List1B,black,woman,,,,null,,,,
9045,,,survey-text,317,1681234,0.0-17.0-3.17,58460,List1B,black,woman,,,,,"{""Q0"":""jane and kate are kissing each other""}","<img src=""stim_listB/kiss8.gif""style=""height:400px;""></stim_listB>",are kissing each other,
null,"<div style=""font-size:60px;"">+</div>",,html-keyboard-response,318,1681736,0.0-17.0-0.18,58460,List1B,black,woman,,,,null,,,,
null,"<img src=""stim_listB/fight8.gif""style=""height:400px;""></stim_listB>",,html-keyboard-response,319,1683739,0.0-17.0-1.18,58460,List1B,black,woman,,,,null,,,,
null,are fighting each other,,html-keyboard-response,320,1685742,0.0-17.0-2.18,58460,List1B,black,woman,,,,null,,,,
10993,,,survey-text,321,1696737,0.0-17.0-3.18,58460,List1B,black,woman,,,,,"{""Q0"":""beth and ruth are fighting each other""}","<img src=""stim_listB/fight8.gif""style=""height:400px;""></stim_listB>",are fighting each other,
null,"<div style=""font-size:60px;"">+</div>",,html-keyboard-response,322,1697239,0.0-17.0-0.19,58460,List1B,black,woman,,,,null,,,,
null,"<img src=""stim_listB/play4.gif""style=""height:400px;""></stim_listB>",,html-keyboard-response,323,1699243,0.0-17.0-1.19,58460,List1B,black,woman,,,,null,,,,
null,are playing with each other,,html-keyboard-response,324,1701247,0.0-17.0-2.19,58460,List1B,black,woman,,,,null,,,,
8231,,,survey-text,325,1709479,0.0-17.0-3.19,58460,List1B,black,woman,,,,,"{""Q0"":""ruth and luke are playing together""}","<img src=""stim_listB/play4.gif""style=""height:400px;""></stim_listB>",are playing with each other,
10396,"<img src='img/portrait_matrix_list1.jpg' style='width:900px;height:500px;''></img><p>If you have memorised all the portraits and names and are ready to start, press Continue.</p><p><strong>Please note: Your memory of these faces will be tested 4 times during this experiment.</strong></p>",0,html-button-response,326,1719877,0.0-18.0-0.0,58460,List1B,black,woman,,,,,,,,
2786,"<img src=""portrait/WM2.jpg""style=""height:400px;""></img>",7,html-button-response,327,1723671,0.0-18.0-1.0,58460,List1B,black,woman,,TRUE,7,,,,,
null,CORRECT,,html-keyboard-response,328,1725177,0.0-18.0-2.0-0.0,58460,List1B,black,woman,,,,null,,,,
3412,"<img src=""portrait/WM1.jpg""style=""height:400px;""></img>",6,html-button-response,329,1728592,0.0-18.0-4.0,58460,List1B,black,woman,,TRUE,6,,,,,
null,CORRECT,,html-keyboard-response,330,1730095,0.0-18.0-5.0-0.0,58460,List1B,black,woman,,,,null,,,,
1110,"<img src=""portrait/BM2.jpg""style=""height:400px;""></img>",5,html-button-response,331,1731207,0.0-18.0-7.0,58460,List1B,black,woman,,TRUE,5,,,,,
null,CORRECT,,html-keyboard-response,332,1732714,0.0-18.0-8.0-0.0,58460,List1B,black,woman,,,,null,,,,
2074,"<img src=""portrait/BW2.jpg""style=""height:400px;""></img>",2,html-button-response,333,1734791,0.0-18.0-10.0,58460,List1B,black,woman,,TRUE,2,,,,,
null,CORRECT,,html-keyboard-response,334,1736298,0.0-18.0-11.0-0.0,58460,List1B,black,woman,,,,null,,,,
2505,"<img src=""portrait/WW2.jpg""style=""height:400px;""></img>",3,html-button-response,335,1738805,0.0-18.0-13.0,58460,List1B,black,woman,,TRUE,3,,,,,
null,CORRECT,,html-keyboard-response,336,1740322,0.0-18.0-14.0-0.0,58460,List1B,black,woman,,,,null,,,,
1621,"<img src=""portrait/BW1.jpg""style=""height:400px;""></img>",0,html-button-response,337,1741947,0.0-18.0-16.0,58460,List1B,black,woman,,TRUE,0,,,,,
null,CORRECT,,html-keyboard-response,338,1743465,0.0-18.0-17.0-0.0,58460,List1B,black,woman,,,,null,,,,
1537,"<img src=""portrait/WW1.jpg""style=""height:400px;""></img>",1,html-button-response,339,1745003,0.0-18.0-19.0,58460,List1B,black,woman,,TRUE,1,,,,,
null,CORRECT,,html-keyboard-response,340,1746511,0.0-18.0-20.0-0.0,58460,List1B,black,woman,,,,null,,,,
3842,"<img src=""portrait/BM1.jpg""style=""height:400px;""></img>",4,html-button-response,341,1750356,0.0-18.0-22.0,58460,List1B,black,woman,,TRUE,4,,,,,
null,CORRECT,,html-keyboard-response,342,1751872,0.0-18.0-23.0-0.0,58460,List1B,black,woman,,,,null,,,,
1537,<p>You got 8 out of 8 right first time. Press Continue.</p>,0,html-button-response,343,1753412,0.0-18.0-25.0,58460,List1B,black,woman,,,,,,,,
null,"<div style=""font-size:60px;"">+</div>",,html-keyboard-response,344,1754920,0.0-19.0-0.0,58460,List1B,black,woman,,,,null,,,,
null,"<img src=""stim_listB/shout5.gif""style=""height:400px;""></stim_listB>",,html-keyboard-response,345,1756925,0.0-19.0-1.0,58460,List1B,black,woman,,,,null,,,,
null,is shouting at,,html-keyboard-response,346,1758931,0.0-19.0-2.0,58460,List1B,black,woman,,,,null,,,,
8094,,,survey-text,347,1767026,0.0-19.0-3.0,58460,List1B,black,woman,,,,,"{""Q0"":""luke is shouting at fred""}","<img src=""stim_listB/shout5.gif""style=""height:400px;""></stim_listB>",is shouting at,
null,"<div style=""font-size:60px;"">+</div>",,html-keyboard-response,348,1767529,0.0-19.0-0.1,58460,List1B,black,woman,,,,null,,,,
null,"<img src=""stim_listB/touch4.gif""style=""height:400px;""></stim_listB>",,html-keyboard-response,349,1769533,0.0-19.0-1.1,58460,List1B,black,woman,,,,null,,,,
null,are touching each other,,html-keyboard-response,350,1771538,0.0-19.0-2.1,58460,List1B,black,woman,,,,null,,,,
8278,,,survey-text,351,1779817,0.0-19.0-3.1,58460,List1B,black,woman,,,,,"{""Q0"":""luke and ruth are touching each other""}","<img src=""stim_listB/touch4.gif""style=""height:400px;""></stim_listB>",are touching each other,
null,"<div style=""font-size:60px;"">+</div>",,html-keyboard-response,352,1780322,0.0-19.0-0.2,58460,List1B,black,woman,,,,null,,,,
null,"<img src=""stim_listB/flirt3.gif""style=""height:400px;""></stim_listB>",,html-keyboard-response,353,1782326,0.0-19.0-1.2,58460,List1B,black,woman,,,,null,,,,
null,is flirting with,,html-keyboard-response,354,1784330,0.0-19.0-2.2,58460,List1B,black,woman,,,,null,,,,
7234,,,survey-text,355,1791566,0.0-19.0-3.2,58460,List1B,black,woman,,,,,"{""Q0"":""luke is flirting with jane""}","<img src=""stim_listB/flirt3.gif""style=""height:400px;""></stim_listB>",is flirting with,
null,"<div style=""font-size:60px;"">+</div>",,html-keyboard-response,356,1792068,0.0-19.0-0.3,58460,List1B,black,woman,,,,null,,,,
null,"<img src=""stim_listB/fight2.gif""style=""height:400px;""></stim_listB>",,html-keyboard-response,357,1794074,0.0-19.0-1.3,58460,List1B,black,woman,,,,null,,,,
null,are fighting each other,,html-keyboard-response,358,1796079,0.0-19.0-2.3,58460,List1B,black,woman,,,,null,,,,
8091,,,survey-text,359,1804173,0.0-19.0-3.3,58460,List1B,black,woman,,,,,"{""Q0"":""beth and fred are fighting each other""}","<img src=""stim_listB/fight2.gif""style=""height:400px;""></stim_listB>",are fighting each other,
null,"<div style=""font-size:60px;"">+</div>",,html-keyboard-response,360,1804679,0.0-19.0-0.4,58460,List1B,black,woman,,,,null,,,,
null,"<img src=""stim_listB/touch8.gif""style=""height:400px;""></stim_listB>",,html-keyboard-response,361,1806685,0.0-19.0-1.4,58460,List1B,black,woman,,,,null,,,,
null,are touching each other,,html-keyboard-response,362,1808687,0.0-19.0-2.4,58460,List1B,black,woman,,,,null,,,,
10104,,,survey-text,363,1818792,0.0-19.0-3.4,58460,List1B,black,woman,,,,,"{""Q0"":""beth and ruth are touching each other""}","<img src=""stim_listB/touch8.gif""style=""height:400px;""></stim_listB>",are touching each other,
null,"<div style=""font-size:60px;"">+</div>",,html-keyboard-response,364,1819295,0.0-19.0-0.5,58460,List1B,black,woman,,,,null,,,,
null,"<img src=""stim_listB/play8.gif""style=""height:400px;""></stim_listB>",,html-keyboard-response,365,1821301,0.0-19.0-1.5,58460,List1B,black,woman,,,,null,,,,
null,are playing with each other,,html-keyboard-response,366,1823306,0.0-19.0-2.5,58460,List1B,black,woman,,,,null,,,,
8964,,,survey-text,367,1832271,0.0-19.0-3.5,58460,List1B,black,woman,,,,,"{""Q0"":""beth and ruth are playing with each other""}","<img src=""stim_listB/play8.gif""style=""height:400px;""></stim_listB>",are playing with each other,
null,"<div style=""font-size:60px;"">+</div>",,html-keyboard-response,368,1832786,0.0-19.0-0.6,58460,List1B,black,woman,,,,null,,,,
null,"<img src=""stim_listB/shout3.gif""style=""height:400px;""></stim_listB>",,html-keyboard-response,369,1834789,0.0-19.0-1.6,58460,List1B,black,woman,,,,null,,,,
null,is shouting at,,html-keyboard-response,370,1836791,0.0-19.0-2.6,58460,List1B,black,woman,,,,null,,,,
6330,,,survey-text,371,1843123,0.0-19.0-3.6,58460,List1B,black,woman,,,,,"{""Q0"":""ruth is shouting at luke""}","<img src=""stim_listB/shout3.gif""style=""height:400px;""></stim_listB>",is shouting at,
null,"<div style=""font-size:60px;"">+</div>",,html-keyboard-response,372,1843627,0.0-19.0-0.7,58460,List1B,black,woman,,,,null,,,,
null,"<img src=""stim_listB/fight6.gif""style=""height:400px;""></stim_listB>",,html-keyboard-response,373,1845631,0.0-19.0-1.7,58460,List1B,black,woman,,,,null,,,,
null,are fighting each other,,html-keyboard-response,374,1847635,0.0-19.0-2.7,58460,List1B,black,woman,,,,null,,,,
10865,,,survey-text,375,1858502,0.0-19.0-3.7,58460,List1B,black,woman,,,,,"{""Q0"":""luke and fred are fighting each other""}","<img src=""stim_listB/fight6.gif""style=""height:400px;""></stim_listB>",are fighting each other,
null,"<div style=""font-size:60px;"">+</div>",,html-keyboard-response,376,1859005,0.0-19.0-0.8,58460,List1B,black,woman,,,,null,,,,
null,"<img src=""stim_listB/argue7.gif""style=""height:400px;""></stim_listB>",,html-keyboard-response,377,1861009,0.0-19.0-1.8,58460,List1B,black,woman,,,,null,,,,
null,is arguing with,,html-keyboard-response,378,1863011,0.0-19.0-2.8,58460,List1B,black,woman,,,,null,,,,
7102,,,survey-text,379,1870115,0.0-19.0-3.8,58460,List1B,black,woman,,,,,"{""Q0"":""ruth is arguing with kate""}","<img src=""stim_listB/argue7.gif""style=""height:400px;""></stim_listB>",is arguing with,
null,"<div style=""font-size:60px;"">+</div>",,html-keyboard-response,380,1870621,0.0-19.0-0.9,58460,List1B,black,woman,,,,null,,,,
null,"<img src=""stim_listB/argue1.gif""style=""height:400px;""></stim_listB>",,html-keyboard-response,381,1872624,0.0-19.0-1.9,58460,List1B,black,woman,,,,null,,,,
null,is arguing with,,html-keyboard-response,382,1874629,0.0-19.0-2.9,58460,List1B,black,woman,,,,null,,,,
7415,,,survey-text,383,1882046,0.0-19.0-3.9,58460,List1B,black,woman,,,,,"{""Q0"":""beth is arguing with mike""}","<img src=""stim_listB/argue1.gif""style=""height:400px;""></stim_listB>",is arguing with,
null,"<div style=""font-size:60px;"">+</div>",,html-keyboard-response,384,1882550,0.0-19.0-0.10,58460,List1B,black,woman,,,,null,,,,
null,"<img src=""stim_listB/kiss5.gif""style=""height:400px;""></stim_listB>",,html-keyboard-response,385,1884555,0.0-19.0-1.10,58460,List1B,black,woman,,,,null,,,,
null,is kissing,,html-keyboard-response,386,1886557,0.0-19.0-2.10,58460,List1B,black,woman,,,,null,,,,
11114,,,survey-text,387,1897673,0.0-19.0-3.10,58460,List1B,black,woman,,,,,"{""Q0"":""fred is kissing luke""}","<img src=""stim_listB/kiss5.gif""style=""height:400px;""></stim_listB>",is kissing,
null,"<div style=""font-size:60px;"">+</div>",,html-keyboard-response,388,1898175,0.0-19.0-0.11,58460,List1B,black,woman,,,,null,,,,
null,"<img src=""stim_listB/fight4.gif""style=""height:400px;""></stim_listB>",,html-keyboard-response,389,1900181,0.0-19.0-1.11,58460,List1B,black,woman,,,,null,,,,
null,are fighting each other,,html-keyboard-response,390,1902186,0.0-19.0-2.11,58460,List1B,black,woman,,,,null,,,,
8878,,,survey-text,391,1911065,0.0-19.0-3.11,58460,List1B,black,woman,,,,,"{""Q0"":""luke and ruth are fighting each other""}","<img src=""stim_listB/fight4.gif""style=""height:400px;""></stim_listB>",are fighting each other,
null,"<div style=""font-size:60px;"">+</div>",,html-keyboard-response,392,1911567,0.0-19.0-0.12,58460,List1B,black,woman,,,,null,,,,
null,"<img src=""stim_listB/talk7.gif""style=""height:400px;""></stim_listB>",,html-keyboard-response,393,1913570,0.0-19.0-1.12,58460,List1B,black,woman,,,,null,,,,
null,is talking to,,html-keyboard-response,394,1915573,0.0-19.0-2.12,58460,List1B,black,woman,,,,null,,,,
7374,,,survey-text,395,1922949,0.0-19.0-3.12,58460,List1B,black,woman,,,,,"{""Q0"":""jane is talking to beth""}","<img src=""stim_listB/talk7.gif""style=""height:400px;""></stim_listB>",is talking to,
null,"<div style=""font-size:60px;"">+</div>",,html-keyboard-response,396,1923452,0.0-19.0-0.13,58460,List1B,black,woman,,,,null,,,,
null,"<img src=""stim_listB/fight1.gif""style=""height:400px;""></stim_listB>",,html-keyboard-response,397,1925453,0.0-19.0-1.13,58460,List1B,black,woman,,,,null,,,,
null,is fighting,,html-keyboard-response,398,1927458,0.0-19.0-2.13,58460,List1B,black,woman,,,,null,,,,
7102,,,survey-text,399,1934562,0.0-19.0-3.13,58460,List1B,black,woman,,,,,"{""Q0"":""kate is fighting mike""}","<img src=""stim_listB/fight1.gif""style=""height:400px;""></stim_listB>",is fighting,
null,"<div style=""font-size:60px;"">+</div>",,html-keyboard-response,400,1935064,0.0-19.0-0.14,58460,List1B,black,woman,,,,null,,,,
null,"<img src=""stim_listB/shout7.gif""style=""height:400px;""></stim_listB>",,html-keyboard-response,401,1937071,0.0-19.0-1.14,58460,List1B,black,woman,,,,null,,,,
null,is shouting at,,html-keyboard-response,402,1939073,0.0-19.0-2.14,58460,List1B,black,woman,,,,null,,,,
6142,,,survey-text,403,1945216,0.0-19.0-3.14,58460,List1B,black,woman,,,,,"{""Q0"":""ruth is shouting at beth""}","<img src=""stim_listB/shout7.gif""style=""height:400px;""></stim_listB>",is shouting at,
null,"<div style=""font-size:60px;"">+</div>",,html-keyboard-response,404,1945720,0.0-19.0-0.15,58460,List1B,black,woman,,,,null,,,,
null,"<img src=""stim_listB/touch6.gif""style=""height:400px;""></stim_listB>",,html-keyboard-response,405,1947723,0.0-19.0-1.15,58460,List1B,black,woman,,,,null,,,,
null,are touching each other,,html-keyboard-response,406,1949724,0.0-19.0-2.15,58460,List1B,black,woman,,,,null,,,,
7436,,,survey-text,407,1957161,0.0-19.0-3.15,58460,List1B,black,woman,,,,,"{""Q0"":""fred and mike are touching each other""}","<img src=""stim_listB/touch6.gif""style=""height:400px;""></stim_listB>",are touching each other,
null,"<div style=""font-size:60px;"">+</div>",,html-keyboard-response,408,1957664,0.0-19.0-0.16,58460,List1B,black,woman,,,,null,,,,
null,"<img src=""stim_listB/marry5.gif""style=""height:400px;""></stim_listB>",,html-keyboard-response,409,1959670,0.0-19.0-1.16,58460,List1B,black,woman,,,,null,,,,
null,is marrying,,html-keyboard-response,410,1961674,0.0-19.0-2.16,58460,List1B,black,woman,,,,null,,,,
8350,,,survey-text,411,1970027,0.0-19.0-3.16,58460,List1B,black,woman,,,,,"{""Q0"":""mike is marrying luke""}","<img src=""stim_listB/marry5.gif""style=""height:400px;""></stim_listB>",is marrying,
null,"<div style=""font-size:60px;"">+</div>",,html-keyboard-response,412,1970530,0.0-19.0-0.17,58460,List1B,black,woman,,,,null,,,,
null,"<img src=""stim_listB/play1.gif""style=""height:400px;""></stim_listB>",,html-keyboard-response,413,1972533,0.0-19.0-1.17,58460,List1B,black,woman,,,,null,,,,
null,is playing with,,html-keyboard-response,414,1974538,0.0-19.0-2.17,58460,List1B,black,woman,,,,null,,,,
6155,,,survey-text,415,1980694,0.0-19.0-3.17,58460,List1B,black,woman,,,,,"{""Q0"":""mike is playing with kate""}","<img src=""stim_listB/play1.gif""style=""height:400px;""></stim_listB>",is playing with,
null,"<div style=""font-size:60px;"">+</div>",,html-keyboard-response,416,1981201,0.0-19.0-0.18,58460,List1B,black,woman,,,,null,,,,
null,"<img src=""stim_listB/shout1.gif""style=""height:400px;""></stim_listB>",,html-keyboard-response,417,1983205,0.0-19.0-1.18,58460,List1B,black,woman,,,,null,,,,
null,is shouting at,,html-keyboard-response,418,1985208,0.0-19.0-2.18,58460,List1B,black,woman,,,,null,,,,
5674,,,survey-text,419,1990884,0.0-19.0-3.18,58460,List1B,black,woman,,,,,"{""Q0"":""fred is shouting at beth""}","<img src=""stim_listB/shout1.gif""style=""height:400px;""></stim_listB>",is shouting at,
null,"<div style=""font-size:60px;"">+</div>",,html-keyboard-response,420,1991389,0.0-19.0-0.19,58460,List1B,black,woman,,,,null,,,,
null,"<img src=""stim_listB/play7.gif""style=""height:400px;""></stim_listB>",,html-keyboard-response,421,1993396,0.0-19.0-1.19,58460,List1B,black,woman,,,,null,,,,
null,is playing with,,html-keyboard-response,422,1995399,0.0-19.0-2.19,58460,List1B,black,woman,,,,null,,,,
7759,,,survey-text,423,2003160,0.0-19.0-3.19,58460,List1B,black,woman,,,,,"{""Q0"":""jane is playing with kate""}","<img src=""stim_listB/play7.gif""style=""height:400px;""></stim_listB>",is playing with,
2871,<p>Thank you for completing that task.</p><p>The final part of this session is a short questionnaire.</p><p>Press Continue.</p>,0,html-button-response,424,2006033,0.0-20.0,58460,List1B,black,woman,,,,,,,,
25871,,,survey-text,425,2032908,0.0-21.0,58460,List1B,black,woman,,,,,"{""Q0"":""30"",""Q1"":""english"",""Q2"":""english"",""Q3"":""England"",""Q4"":""Black"",""Q5"":""Female""}",,,demographics
21457,,,survey-likert,426,2054369,0.0-22.0,58460,List1B,black,woman,,,,,"{""Q0"":3}",,,likert_ESS
8641,,,survey-likert,427,2063037,0.0-23.0,58460,List1B,black,woman,,,,,"{""Q0"":0}",,,likert_NSSAL_Q1
3671,,,survey-likert,428,2066732,0.0-24.0,58460,List1B,black,woman,,,,,"{""Q0"":0}",,,likert_NSSAL_Q2
8509,,,survey-likert,429,2075266,0.0-25.0,58460,List1B,black,woman,,,,,"{""Q0"":4}",,,likert_CGRS_Q1
4421,,,survey-likert,430,2079710,0.0-26.0,58460,List1B,black,woman,,,,,"{""Q0"":4}",,,likert_CGRS_Q2
3279,,,survey-likert,431,2083014,0.0-27.0,58460,List1B,black,woman,,,,,"{""Q0"":4}",,,likert_CGRS_Q3
10324,,,survey-text,432,2093362,0.0-28.0,58460,List1B,black,woman,,,,,"{""Q0"":""ccc""}",,,worker_id
49595,,,external-html,433,2143032,0.0-29.0,58460,List1B,black,woman,debrief.html,,,,,,,
