rt,stimulus,button_pressed,trial_type,trial_index,time_elapsed,internal_node_id,subject,list,ppt_race,ppt_gender,url,first_guess,correct,key_press,responses,image_type,phrase_type,test_part
4424,Welcome to the experiment. Press Continue to begin.,0,html-button-response,0,4430,0.0-0.0,58476,List1A,white,man,,,,,,,,
62997,,,external-html,1,68625,0.0-1.0,58476,List1A,white,man,consent.html,,,,,,,
24796,"<p>On the next page, you will see portraits of 8 people and their names.</p><p>Your first task is to take a few minutes to memorise the names of these people.</p><p>You will have to recall their names during the rest of the experiment, so it is</p><p>essential that you try to memorise these people and their names as best as you can.</p><br><p><strong>You will then be tested on your memory of these names and portraits.</strong></p><br><p>The experiment will start after you have completed this memory test.</p><br><p>Ready?</p>",0,html-button-response,2,93425,0.0-2.0,58476,List1A,white,man,,,,,,,,
124406,"<img src='img/portrait_matrix_list1.jpg' style='width:900px;height:500px;''></img><p>If you have memorised all the portraits and names and are ready to start, press Continue.</p><p><strong>Please note: Your memory of these faces will be tested 4 times during this experiment.</strong></p>",0,html-button-response,3,218849,0.0-3.0-0.0,58476,List1A,white,man,,,,,,,,
18687,"<img src=""portrait/BW2.jpg""style=""height:400px;""></img>",2,html-button-response,4,238548,0.0-3.0-1.0,58476,List1A,white,man,,TRUE,2,,,,,
null,CORRECT,,html-keyboard-response,5,240086,0.0-3.0-2.0-0.0,58476,List1A,white,man,,,,null,,,,
5667,"<img src=""portrait/WW2.jpg""style=""height:400px;""></img>",3,html-button-response,6,245758,0.0-3.0-4.0,58476,List1A,white,man,,TRUE,3,,,,,
null,CORRECT,,html-keyboard-response,7,247298,0.0-3.0-5.0-0.0,58476,List1A,white,man,,,,null,,,,
2224,"<img src=""portrait/WW1.jpg""style=""height:400px;""></img>",1,html-button-response,8,249526,0.0-3.0-7.0,58476,List1A,white,man,,TRUE,1,,,,,
null,CORRECT,,html-keyboard-response,9,251059,0.0-3.0-8.0-0.0,58476,List1A,white,man,,,,null,,,,
2349,"<img src=""portrait/BM1.jpg""style=""height:400px;""></img>",4,html-button-response,10,253412,0.0-3.0-10.0,58476,List1A,white,man,,TRUE,4,,,,,
null,CORRECT,,html-keyboard-response,11,254937,0.0-3.0-11.0-0.0,58476,List1A,white,man,,,,null,,,,
3047,"<img src=""portrait/WM1.jpg""style=""height:400px;""></img>",6,html-button-response,12,257990,0.0-3.0-13.0,58476,List1A,white,man,,TRUE,6,,,,,
null,CORRECT,,html-keyboard-response,13,259527,0.0-3.0-14.0-0.0,58476,List1A,white,man,,,,null,,,,
6229,"<img src=""portrait/BW1.jpg""style=""height:400px;""></img>",0,html-button-response,14,265760,0.0-3.0-16.0,58476,List1A,white,man,,TRUE,0,,,,,
null,CORRECT,,html-keyboard-response,15,267293,0.0-3.0-17.0-0.0,58476,List1A,white,man,,,,null,,,,
5038,"<img src=""portrait/BM2.jpg""style=""height:400px;""></img>",5,html-button-response,16,272334,0.0-3.0-19.0,58476,List1A,white,man,,TRUE,5,,,,,
null,CORRECT,,html-keyboard-response,17,273857,0.0-3.0-20.0-0.0,58476,List1A,white,man,,,,null,,,,
1968,"<img src=""portrait/WM2.jpg""style=""height:400px;""></img>",7,html-button-response,18,275828,0.0-3.0-22.0,58476,List1A,white,man,,TRUE,7,,,,,
null,CORRECT,,html-keyboard-response,19,277367,0.0-3.0-23.0-0.0,58476,List1A,white,man,,,,null,,,,
4837,<p>You got 8 out of 8 right first time. Press Continue.</p>,0,html-button-response,20,282207,0.0-3.0-25.0,58476,List1A,white,man,,,,,,,,
65756,"<p>In this experiment, you will view photographs of the people from the memory game interacting.</p><p>By using the <strong>exact</strong> phrase given <i>after</i> the photograph appears and recalling the correct names of the people in the photographs, form a sentence describing the interaction. You do not need to capitalise names.</p><p>Type your answer in the space provided. Please complete every sentence before moving onto the next trial.</p><p>You will only have a few seconds to memorise each given photograph and phrase before you can respond, so try your best to focus.</p><p>An example is given below. Press 'Continue' when you are ready.</p><img src='img/speaking_example.jpg' style='width:800px;height:460px;''></img>",0,html-button-response,21,348987,0.0-4.0,58476,List1A,white,man,,,,,,,,
2755,"<p>Before the experiment starts, you will watch two example trials. Press 'Continue'.</p>",0,html-button-response,22,352764,0.0-5.0,58476,List1A,white,man,,,,,,,,
null,<img src='img/meet_eg.gif' style='height:400px;''></img>,,html-keyboard-response,23,355786,0.0-6.0,58476,List1A,white,man,,,,null,,,,
null,<p>is meeting</p>,,html-keyboard-response,24,357796,0.0-7.0,58476,List1A,white,man,,,,null,,,,
6624,<p><b>Answer:</b> kate is meeting beth</p>,0,html-button-response,25,364423,0.0-8.0,58476,List1A,white,man,,,,,,,,
null,<img src='img/look_eg.gif' style='height:400px;''></img>,,html-keyboard-response,26,367437,0.0-9.0,58476,List1A,white,man,,,,null,,,,
null,<p>are looking at each other</p>,,html-keyboard-response,27,369457,0.0-10.0,58476,List1A,white,man,,,,null,,,,
9848,<p><b>Answer:</b> luke and dave are looking at each other</p>,0,html-button-response,28,379305,0.0-11.0,58476,List1A,white,man,,,,,,,,
11574,"<p>Ready to start the experiment?</p><br><p><strong>Remember to describe the picture using a full sentence,</strong></p><p><strong>that combines the names of the people with the <i>exact</i> phrase given.</strong></p><p><strong>To receive full payment you must do this correctly.</strong></p><p><strong> You do not need to capitalise names or use punctuation.</strong></p><br><p>Press 'Continue' to begin.</p>",0,html-button-response,29,391893,0.0-12.0,58476,List1A,white,man,,,,,,,,
null,"<div style=""font-size:60px;"">+</div>",,html-keyboard-response,30,393417,0.0-13.0-0.0,58476,List1A,white,man,,,,null,,,,
null,"<img src=""stim_listA/fight6.gif""style=""height:400px;""></stim_listA>",,html-keyboard-response,31,395437,0.0-13.0-1.0,58476,List1A,white,man,,,,null,,,,
null,are fighting each other,,html-keyboard-response,32,397447,0.0-13.0-2.0,58476,List1A,white,man,,,,null,,,,
22835,,,survey-text,33,420285,0.0-13.0-3.0,58476,List1A,white,man,,,,,"{""Q0"":""luke and fred are fighting each other""}","<img src=""stim_listA/fight6.gif""style=""height:400px;""></stim_listA>",are fighting each other,
null,"<div style=""font-size:60px;"">+</div>",,html-keyboard-response,34,420796,0.0-13.0-0.1,58476,List1A,white,man,,,,null,,,,
null,"<img src=""stim_listA/fight3.gif""style=""height:400px;""></stim_listA>",,html-keyboard-response,35,422816,0.0-13.0-1.1,58476,List1A,white,man,,,,null,,,,
null,is fighting,,html-keyboard-response,36,424827,0.0-13.0-2.1,58476,List1A,white,man,,,,null,,,,
31445,,,survey-text,37,456275,0.0-13.0-3.1,58476,List1A,white,man,,,,,"{""Q0"":""dave is fighting jane""}","<img src=""stim_listA/fight3.gif""style=""height:400px;""></stim_listA>",is fighting,
null,"<div style=""font-size:60px;"">+</div>",,html-keyboard-response,38,456791,0.0-13.0-0.2,58476,List1A,white,man,,,,null,,,,
null,"<img src=""stim_listA/kiss4.gif""style=""height:400px;""></stim_listA>",,html-keyboard-response,39,458807,0.0-13.0-1.2,58476,List1A,white,man,,,,null,,,,
null,are kissing each other,,html-keyboard-response,40,460826,0.0-13.0-2.2,58476,List1A,white,man,,,,null,,,,
25931,,,survey-text,41,486760,0.0-13.0-3.2,58476,List1A,white,man,,,,,"{""Q0"":""dave and jane are kissing each other""}","<img src=""stim_listA/kiss4.gif""style=""height:400px;""></stim_listA>",are kissing each other,
null,"<div style=""font-size:60px;"">+</div>",,html-keyboard-response,42,487276,0.0-13.0-0.3,58476,List1A,white,man,,,,null,,,,
null,"<img src=""stim_listA/marry7.gif""style=""height:400px;""></stim_listA>",,html-keyboard-response,43,489288,0.0-13.0-1.3,58476,List1A,white,man,,,,null,,,,
null,is marrying,,html-keyboard-response,44,491307,0.0-13.0-2.3,58476,List1A,white,man,,,,null,,,,
32383,,,survey-text,45,523694,0.0-13.0-3.3,58476,List1A,white,man,,,,,"{""Q0"":""beth is marrying ruth""}","<img src=""stim_listA/marry7.gif""style=""height:400px;""></stim_listA>",is marrying,
null,"<div style=""font-size:60px;"">+</div>",,html-keyboard-response,46,524208,0.0-13.0-0.4,58476,List1A,white,man,,,,null,,,,
null,"<img src=""stim_listA/talk2.gif""style=""height:400px;""></stim_listA>",,html-keyboard-response,47,526212,0.0-13.0-1.4,58476,List1A,white,man,,,,null,,,,
null,are talking to each other,,html-keyboard-response,48,528216,0.0-13.0-2.4,58476,List1A,white,man,,,,null,,,,
34213,,,survey-text,49,562432,0.0-13.0-3.4,58476,List1A,white,man,,,,,"{""Q0"":""mike and beth are talking to each other""}","<img src=""stim_listA/talk2.gif""style=""height:400px;""></stim_listA>",are talking to each other,
null,"<div style=""font-size:60px;"">+</div>",,html-keyboard-response,50,562944,0.0-13.0-0.5,58476,List1A,white,man,,,,null,,,,
null,"<img src=""stim_listA/argue2.gif""style=""height:400px;""></stim_listA>",,html-keyboard-response,51,564968,0.0-13.0-1.5,58476,List1A,white,man,,,,null,,,,
null,are arguing with each other,,html-keyboard-response,52,566987,0.0-13.0-2.5,58476,List1A,white,man,,,,null,,,,
17689,,,survey-text,53,584678,0.0-13.0-3.5,58476,List1A,white,man,,,,,"{""Q0"":""beth and fred are arguing with each other""}","<img src=""stim_listA/argue2.gif""style=""height:400px;""></stim_listA>",are arguing with each other,
null,"<div style=""font-size:60px;"">+</div>",,html-keyboard-response,54,585187,0.0-13.0-0.6,58476,List1A,white,man,,,,null,,,,
null,"<img src=""stim_listA/touch3.gif""style=""height:400px;""></stim_listA>",,html-keyboard-response,55,587207,0.0-13.0-1.6,58476,List1A,white,man,,,,null,,,,
null,is touching,,html-keyboard-response,56,589217,0.0-13.0-2.6,58476,List1A,white,man,,,,null,,,,
18567,,,survey-text,57,607789,0.0-13.0-3.6,58476,List1A,white,man,,,,,"{""Q0"":""ruth is touching dave""}","<img src=""stim_listA/touch3.gif""style=""height:400px;""></stim_listA>",is touching,
null,"<div style=""font-size:60px;"">+</div>",,html-keyboard-response,58,608307,0.0-13.0-0.7,58476,List1A,white,man,,,,null,,,,
null,"<img src=""stim_listA/shout2.gif""style=""height:400px;""></stim_listA>",,html-keyboard-response,59,610327,0.0-13.0-1.7,58476,List1A,white,man,,,,null,,,,
null,are shouting at each other,,html-keyboard-response,60,612337,0.0-13.0-2.7,58476,List1A,white,man,,,,null,,,,
20144,,,survey-text,61,632481,0.0-13.0-3.7,58476,List1A,white,man,,,,,"{""Q0"":""beth and mike are shouting at each other""}","<img src=""stim_listA/shout2.gif""style=""height:400px;""></stim_listA>",are shouting at each other,
null,"<div style=""font-size:60px;"">+</div>",,html-keyboard-response,62,632997,0.0-13.0-0.8,58476,List1A,white,man,,,,null,,,,
null,"<img src=""stim_listA/marry6.gif""style=""height:400px;""></stim_listA>",,html-keyboard-response,63,635016,0.0-13.0-1.8,58476,List1A,white,man,,,,null,,,,
null,are marrying each other,,html-keyboard-response,64,637036,0.0-13.0-2.8,58476,List1A,white,man,,,,null,,,,
18284,,,survey-text,65,655325,0.0-13.0-3.8,58476,List1A,white,man,,,,,"{""Q0"":""dave and fred are marrying each other""}","<img src=""stim_listA/marry6.gif""style=""height:400px;""></stim_listA>",are marrying each other,
null,"<div style=""font-size:60px;"">+</div>",,html-keyboard-response,66,655837,0.0-13.0-0.9,58476,List1A,white,man,,,,null,,,,
null,"<img src=""stim_listA/play8.gif""style=""height:400px;""></stim_listA>",,html-keyboard-response,67,657856,0.0-13.0-1.9,58476,List1A,white,man,,,,null,,,,
null,are playing with each other,,html-keyboard-response,68,659871,0.0-13.0-2.9,58476,List1A,white,man,,,,null,,,,
26786,,,survey-text,69,686660,0.0-13.0-3.9,58476,List1A,white,man,,,,,"{""Q0"":""beth and ruth are playing with each other""}","<img src=""stim_listA/play8.gif""style=""height:400px;""></stim_listA>",are playing with each other,
null,"<div style=""font-size:60px;"">+</div>",,html-keyboard-response,70,687167,0.0-13.0-0.10,58476,List1A,white,man,,,,null,,,,
null,"<img src=""stim_listA/fight8.gif""style=""height:400px;""></stim_listA>",,html-keyboard-response,71,689176,0.0-13.0-1.10,58476,List1A,white,man,,,,null,,,,
null,are fighting each other,,html-keyboard-response,72,691197,0.0-13.0-2.10,58476,List1A,white,man,,,,null,,,,
16816,,,survey-text,73,708016,0.0-13.0-3.10,58476,List1A,white,man,,,,,"{""Q0"":""beth and ruth are fighting each other""}","<img src=""stim_listA/fight8.gif""style=""height:400px;""></stim_listA>",are fighting each other,
null,"<div style=""font-size:60px;"">+</div>",,html-keyboard-response,74,708526,0.0-13.0-0.11,58476,List1A,white,man,,,,null,,,,
null,"<img src=""stim_listA/kiss1.gif""style=""height:400px;""></stim_listA>",,html-keyboard-response,75,710547,0.0-13.0-1.11,58476,List1A,white,man,,,,null,,,,
null,is kissing,,html-keyboard-response,76,712557,0.0-13.0-2.11,58476,List1A,white,man,,,,null,,,,
12476,,,survey-text,77,725034,0.0-13.0-3.11,58476,List1A,white,man,,,,,"{""Q0"":""fred is kissing beth""}","<img src=""stim_listA/kiss1.gif""style=""height:400px;""></stim_listA>",is kissing,
null,"<div style=""font-size:60px;"">+</div>",,html-keyboard-response,78,725547,0.0-13.0-0.12,58476,List1A,white,man,,,,null,,,,
null,"<img src=""stim_listA/shout6.gif""style=""height:400px;""></stim_listA>",,html-keyboard-response,79,727556,0.0-13.0-1.12,58476,List1A,white,man,,,,null,,,,
null,are shouting at each other,,html-keyboard-response,80,729556,0.0-13.0-2.12,58476,List1A,white,man,,,,null,,,,
22048,,,survey-text,81,751607,0.0-13.0-3.12,58476,List1A,white,man,,,,,"{""Q0"":""dave and mike are shouting at each other""}","<img src=""stim_listA/shout6.gif""style=""height:400px;""></stim_listA>",are shouting at each other,
null,"<div style=""font-size:60px;"">+</div>",,html-keyboard-response,82,752117,0.0-13.0-0.13,58476,List1A,white,man,,,,null,,,,
null,"<img src=""stim_listA/play7.gif""style=""height:400px;""></stim_listA>",,html-keyboard-response,83,754136,0.0-13.0-1.13,58476,List1A,white,man,,,,null,,,,
null,is playing with,,html-keyboard-response,84,756146,0.0-13.0-2.13,58476,List1A,white,man,,,,null,,,,
36043,,,survey-text,85,792194,0.0-13.0-3.13,58476,List1A,white,man,,,,,"{""Q0"":""jane is shouting at beth""}","<img src=""stim_listA/play7.gif""style=""height:400px;""></stim_listA>",is playing with,
null,"<div style=""font-size:60px;"">+</div>",,html-keyboard-response,86,792697,0.0-13.0-0.14,58476,List1A,white,man,,,,null,,,,
null,"<img src=""stim_listA/shout1.gif""style=""height:400px;""></stim_listA>",,html-keyboard-response,87,794706,0.0-13.0-1.14,58476,List1A,white,man,,,,null,,,,
null,is shouting at,,html-keyboard-response,88,796728,0.0-13.0-2.14,58476,List1A,white,man,,,,null,,,,
11725,,,survey-text,89,808456,0.0-13.0-3.14,58476,List1A,white,man,,,,,"{""Q0"":""beth is shouting at fred""}","<img src=""stim_listA/shout1.gif""style=""height:400px;""></stim_listA>",is shouting at,
null,"<div style=""font-size:60px;"">+</div>",,html-keyboard-response,90,808978,0.0-13.0-0.15,58476,List1A,white,man,,,,null,,,,
null,"<img src=""stim_listA/argue8.gif""style=""height:400px;""></stim_listA>",,html-keyboard-response,91,810997,0.0-13.0-1.15,58476,List1A,white,man,,,,null,,,,
null,are arguing with each other,,html-keyboard-response,92,813017,0.0-13.0-2.15,58476,List1A,white,man,,,,null,,,,
30804,,,survey-text,93,843825,0.0-13.0-3.15,58476,List1A,white,man,,,,,"{""Q0"":""ruth and beth are arguing with each other""}","<img src=""stim_listA/argue8.gif""style=""height:400px;""></stim_listA>",are arguing with each other,
null,"<div style=""font-size:60px;"">+</div>",,html-keyboard-response,94,844348,0.0-13.0-0.16,58476,List1A,white,man,,,,null,,,,
null,"<img src=""stim_listA/play3.gif""style=""height:400px;""></stim_listA>",,html-keyboard-response,95,846367,0.0-13.0-1.16,58476,List1A,white,man,,,,null,,,,
null,is playing with,,html-keyboard-response,96,848387,0.0-13.0-2.16,58476,List1A,white,man,,,,null,,,,
14300,,,survey-text,97,862689,0.0-13.0-3.16,58476,List1A,white,man,,,,,"{""Q0"":""dave is playing with ruth""}","<img src=""stim_listA/play3.gif""style=""height:400px;""></stim_listA>",is playing with,
null,"<div style=""font-size:60px;"">+</div>",,html-keyboard-response,98,863197,0.0-13.0-0.17,58476,List1A,white,man,,,,null,,,,
null,"<img src=""stim_listA/play1.gif""style=""height:400px;""></stim_listA>",,html-keyboard-response,99,865206,0.0-13.0-1.17,58476,List1A,white,man,,,,null,,,,
null,is playing with,,html-keyboard-response,100,867227,0.0-13.0-2.17,58476,List1A,white,man,,,,null,,,,
15716,,,survey-text,101,882945,0.0-13.0-3.17,58476,List1A,white,man,,,,,"{""Q0"":""beth is playing with mike""}","<img src=""stim_listA/play1.gif""style=""height:400px;""></stim_listA>",is playing with,
null,"<div style=""font-size:60px;"">+</div>",,html-keyboard-response,102,883456,0.0-13.0-0.18,58476,List1A,white,man,,,,null,,,,
null,"<img src=""stim_listA/kiss2.gif""style=""height:400px;""></stim_listA>",,html-keyboard-response,103,885476,0.0-13.0-1.18,58476,List1A,white,man,,,,null,,,,
null,are kissing each other,,html-keyboard-response,104,887496,0.0-13.0-2.18,58476,List1A,white,man,,,,null,,,,
14739,,,survey-text,105,902237,0.0-13.0-3.18,58476,List1A,white,man,,,,,"{""Q0"":""beth and mike are kissing each other""}","<img src=""stim_listA/kiss2.gif""style=""height:400px;""></stim_listA>",are kissing each other,
null,"<div style=""font-size:60px;"">+</div>",,html-keyboard-response,106,902748,0.0-13.0-0.19,58476,List1A,white,man,,,,null,,,,
null,"<img src=""stim_listA/dance3.gif""style=""height:400px;""></stim_listA>",,html-keyboard-response,107,904766,0.0-13.0-1.19,58476,List1A,white,man,,,,null,,,,
null,is dancing with,,html-keyboard-response,108,906779,0.0-13.0-2.19,58476,List1A,white,man,,,,null,,,,
15200,,,survey-text,109,921982,0.0-13.0-3.19,58476,List1A,white,man,,,,,"{""Q0"":""luke is dancing with jane""}","<img src=""stim_listA/dance3.gif""style=""height:400px;""></stim_listA>",is dancing with,
45999,"<img src='img/portrait_matrix_list1.jpg' style='width:900px;height:500px;''></img><p>If you have memorised all the portraits and names and are ready to start, press Continue.</p><p><strong>Please note: Your memory of these faces will be tested 4 times during this experiment.</strong></p>",0,html-button-response,110,967983,0.0-14.0-0.0,58476,List1A,white,man,,,,,,,,
5588,"<img src=""portrait/WM2.jpg""style=""height:400px;""></img>",7,html-button-response,111,974582,0.0-14.0-1.0,58476,List1A,white,man,,TRUE,7,,,,,
null,CORRECT,,html-keyboard-response,112,976117,0.0-14.0-2.0-0.0,58476,List1A,white,man,,,,null,,,,
2981,"<img src=""portrait/WW2.jpg""style=""height:400px;""></img>",3,html-button-response,113,979102,0.0-14.0-4.0,58476,List1A,white,man,,TRUE,3,,,,,
null,CORRECT,,html-keyboard-response,114,980627,0.0-14.0-5.0-0.0,58476,List1A,white,man,,,,null,,,,
3133,"<img src=""portrait/WM1.jpg""style=""height:400px;""></img>",6,html-button-response,115,983767,0.0-14.0-7.0,58476,List1A,white,man,,TRUE,6,,,,,
null,CORRECT,,html-keyboard-response,116,985304,0.0-14.0-8.0-0.0,58476,List1A,white,man,,,,null,,,,
2561,"<img src=""portrait/WW1.jpg""style=""height:400px;""></img>",1,html-button-response,117,987871,0.0-14.0-10.0,58476,List1A,white,man,,TRUE,1,,,,,
null,CORRECT,,html-keyboard-response,118,989396,0.0-14.0-11.0-0.0,58476,List1A,white,man,,,,null,,,,
3762,"<img src=""portrait/BM1.jpg""style=""height:400px;""></img>",4,html-button-response,119,993164,0.0-14.0-13.0,58476,List1A,white,man,,TRUE,4,,,,,
null,CORRECT,,html-keyboard-response,120,994697,0.0-14.0-14.0-0.0,58476,List1A,white,man,,,,null,,,,
4362,"<img src=""portrait/BW1.jpg""style=""height:400px;""></img>",0,html-button-response,121,999062,0.0-14.0-16.0,58476,List1A,white,man,,TRUE,0,,,,,
null,CORRECT,,html-keyboard-response,122,1000577,0.0-14.0-17.0-0.0,58476,List1A,white,man,,,,null,,,,
3437,"<img src=""portrait/BW2.jpg""style=""height:400px;""></img>",2,html-button-response,123,1004017,0.0-14.0-19.0,58476,List1A,white,man,,TRUE,2,,,,,
null,CORRECT,,html-keyboard-response,124,1005557,0.0-14.0-20.0-0.0,58476,List1A,white,man,,,,null,,,,
2833,"<img src=""portrait/BM2.jpg""style=""height:400px;""></img>",5,html-button-response,125,1008393,0.0-14.0-22.0,58476,List1A,white,man,,TRUE,5,,,,,
null,CORRECT,,html-keyboard-response,126,1009917,0.0-14.0-23.0-0.0,58476,List1A,white,man,,,,null,,,,
4941,<p>You got 8 out of 8 right first time. Press Continue.</p>,0,html-button-response,127,1014860,0.0-14.0-25.0,58476,List1A,white,man,,,,,,,,
null,"<div style=""font-size:60px;"">+</div>",,html-keyboard-response,128,1016396,0.0-15.0-0.0,58476,List1A,white,man,,,,null,,,,
null,"<img src=""stim_listA/kiss5.gif""style=""height:400px;""></stim_listA>",,html-keyboard-response,129,1018407,0.0-15.0-1.0,58476,List1A,white,man,,,,null,,,,
null,is kissing,,html-keyboard-response,130,1020422,0.0-15.0-2.0,58476,List1A,white,man,,,,null,,,,
12004,,,survey-text,131,1032427,0.0-15.0-3.0,58476,List1A,white,man,,,,,"{""Q0"":""fred is kissing luke""}","<img src=""stim_listA/kiss5.gif""style=""height:400px;""></stim_listA>",is kissing,
null,"<div style=""font-size:60px;"">+</div>",,html-keyboard-response,132,1032936,0.0-15.0-0.1,58476,List1A,white,man,,,,null,,,,
null,"<img src=""stim_listA/talk7.gif""style=""height:400px;""></stim_listA>",,html-keyboard-response,133,1034957,0.0-15.0-1.1,58476,List1A,white,man,,,,null,,,,
null,is talking to,,html-keyboard-response,134,1036967,0.0-15.0-2.1,58476,List1A,white,man,,,,null,,,,
11597,,,survey-text,135,1048565,0.0-15.0-3.1,58476,List1A,white,man,,,,,"{""Q0"":""beth is talking to jane""}","<img src=""stim_listA/talk7.gif""style=""height:400px;""></stim_listA>",is talking to,
null,"<div style=""font-size:60px;"">+</div>",,html-keyboard-response,136,1049086,0.0-15.0-0.2,58476,List1A,white,man,,,,null,,,,
null,"<img src=""stim_listA/kiss7.gif""style=""height:400px;""></stim_listA>",,html-keyboard-response,137,1051106,0.0-15.0-1.2,58476,List1A,white,man,,,,null,,,,
null,is kissing,,html-keyboard-response,138,1053122,0.0-15.0-2.2,58476,List1A,white,man,,,,null,,,,
9919,,,survey-text,139,1063043,0.0-15.0-3.2,58476,List1A,white,man,,,,,"{""Q0"":""beth is kissing ruth""}","<img src=""stim_listA/kiss7.gif""style=""height:400px;""></stim_listA>",is kissing,
null,"<div style=""font-size:60px;"">+</div>",,html-keyboard-response,140,1063546,0.0-15.0-0.3,58476,List1A,white,man,,,,null,,,,
null,"<img src=""stim_listA/fight4.gif""style=""height:400px;""></stim_listA>",,html-keyboard-response,141,1065557,0.0-15.0-1.3,58476,List1A,white,man,,,,null,,,,
null,are fighting each other,,html-keyboard-response,142,1067576,0.0-15.0-2.3,58476,List1A,white,man,,,,null,,,,
16380,,,survey-text,143,1083958,0.0-15.0-3.3,58476,List1A,white,man,,,,,"{""Q0"":""luke and jane are fighting each other""}","<img src=""stim_listA/fight4.gif""style=""height:400px;""></stim_listA>",are fighting each other,
null,"<div style=""font-size:60px;"">+</div>",,html-keyboard-response,144,1084476,0.0-15.0-0.4,58476,List1A,white,man,,,,null,,,,
null,"<img src=""stim_listA/touch6.gif""style=""height:400px;""></stim_listA>",,html-keyboard-response,145,1086489,0.0-15.0-1.4,58476,List1A,white,man,,,,null,,,,
null,are touching each other,,html-keyboard-response,146,1088508,0.0-15.0-2.4,58476,List1A,white,man,,,,null,,,,
15017,,,survey-text,147,1103527,0.0-15.0-3.4,58476,List1A,white,man,,,,,"{""Q0"":""luke and fred are touching each other""}","<img src=""stim_listA/touch6.gif""style=""height:400px;""></stim_listA>",are touching each other,
null,"<div style=""font-size:60px;"">+</div>",,html-keyboard-response,148,1104037,0.0-15.0-0.5,58476,List1A,white,man,,,,null,,,,
null,"<img src=""stim_listA/kiss8.gif""style=""height:400px;""></stim_listA>",,html-keyboard-response,149,1106056,0.0-15.0-1.5,58476,List1A,white,man,,,,null,,,,
null,are kissing each other,,html-keyboard-response,150,1108077,0.0-15.0-2.5,58476,List1A,white,man,,,,null,,,,
14819,,,survey-text,151,1122897,0.0-15.0-3.5,58476,List1A,white,man,,,,,"{""Q0"":""kate and jane are kissing each other""}","<img src=""stim_listA/kiss8.gif""style=""height:400px;""></stim_listA>",are kissing each other,
null,"<div style=""font-size:60px;"">+</div>",,html-keyboard-response,152,1123416,0.0-15.0-0.6,58476,List1A,white,man,,,,null,,,,
null,"<img src=""stim_listA/fight5.gif""style=""height:400px;""></stim_listA>",,html-keyboard-response,153,1125436,0.0-15.0-1.6,58476,List1A,white,man,,,,null,,,,
null,is fighting,,html-keyboard-response,154,1127451,0.0-15.0-2.6,58476,List1A,white,man,,,,null,,,,
10262,,,survey-text,155,1137715,0.0-15.0-3.6,58476,List1A,white,man,,,,,"{""Q0"":""dave is fighting mike""}","<img src=""stim_listA/fight5.gif""style=""height:400px;""></stim_listA>",is fighting,
null,"<div style=""font-size:60px;"">+</div>",,html-keyboard-response,156,1138236,0.0-15.0-0.7,58476,List1A,white,man,,,,null,,,,
null,"<img src=""stim_listA/play5.gif""style=""height:400px;""></stim_listA>",,html-keyboard-response,157,1140257,0.0-15.0-1.7,58476,List1A,white,man,,,,null,,,,
null,is playing with,,html-keyboard-response,158,1142272,0.0-15.0-2.7,58476,List1A,white,man,,,,null,,,,
14885,,,survey-text,159,1157160,0.0-15.0-3.7,58476,List1A,white,man,,,,,"{""Q0"":""dave is playing with mike""}","<img src=""stim_listA/play5.gif""style=""height:400px;""></stim_listA>",is playing with,
null,"<div style=""font-size:60px;"">+</div>",,html-keyboard-response,160,1157667,0.0-15.0-0.8,58476,List1A,white,man,,,,null,,,,
null,"<img src=""stim_listA/marry5.gif""style=""height:400px;""></stim_listA>",,html-keyboard-response,161,1159677,0.0-15.0-1.8,58476,List1A,white,man,,,,null,,,,
null,is marrying,,html-keyboard-response,162,1161697,0.0-15.0-2.8,58476,List1A,white,man,,,,null,,,,
10071,,,survey-text,163,1171770,0.0-15.0-3.8,58476,List1A,white,man,,,,,"{""Q0"":""mike is marrying luke""}","<img src=""stim_listA/marry5.gif""style=""height:400px;""></stim_listA>",is marrying,
null,"<div style=""font-size:60px;"">+</div>",,html-keyboard-response,164,1172277,0.0-15.0-0.9,58476,List1A,white,man,,,,null,,,,
null,"<img src=""stim_listA/touch5.gif""style=""height:400px;""></stim_listA>",,html-keyboard-response,165,1174297,0.0-15.0-1.9,58476,List1A,white,man,,,,null,,,,
null,is touching,,html-keyboard-response,166,1176306,0.0-15.0-2.9,58476,List1A,white,man,,,,null,,,,
11667,,,survey-text,167,1187973,0.0-15.0-3.9,58476,List1A,white,man,,,,,"{""Q0"":""mike is touching dave""}","<img src=""stim_listA/touch5.gif""style=""height:400px;""></stim_listA>",is touching,
null,"<div style=""font-size:60px;"">+</div>",,html-keyboard-response,168,1188487,0.0-15.0-0.10,58476,List1A,white,man,,,,null,,,,
null,"<img src=""stim_listA/shout7.gif""style=""height:400px;""></stim_listA>",,html-keyboard-response,169,1190506,0.0-15.0-1.10,58476,List1A,white,man,,,,null,,,,
null,is shouting at,,html-keyboard-response,170,1192526,0.0-15.0-2.10,58476,List1A,white,man,,,,null,,,,
10280,,,survey-text,171,1202809,0.0-15.0-3.10,58476,List1A,white,man,,,,,"{""Q0"":""beth is shouting at ruth""}","<img src=""stim_listA/shout7.gif""style=""height:400px;""></stim_listA>",is shouting at,
null,"<div style=""font-size:60px;"">+</div>",,html-keyboard-response,172,1203316,0.0-15.0-0.11,58476,List1A,white,man,,,,null,,,,
null,"<img src=""stim_listA/flirt3.gif""style=""height:400px;""></stim_listA>",,html-keyboard-response,173,1205339,0.0-15.0-1.11,58476,List1A,white,man,,,,null,,,,
null,is flirting with,,html-keyboard-response,174,1207357,0.0-15.0-2.11,58476,List1A,white,man,,,,null,,,,
12525,,,survey-text,175,1219883,0.0-15.0-3.11,58476,List1A,white,man,,,,,"{""Q0"":""luke is flirting with jane""}","<img src=""stim_listA/flirt3.gif""style=""height:400px;""></stim_listA>",is flirting with,
null,"<div style=""font-size:60px;"">+</div>",,html-keyboard-response,176,1220387,0.0-15.0-0.12,58476,List1A,white,man,,,,null,,,,
null,"<img src=""stim_listA/argue3.gif""style=""height:400px;""></stim_listA>",,html-keyboard-response,177,1222408,0.0-15.0-1.12,58476,List1A,white,man,,,,null,,,,
null,is arguing with,,html-keyboard-response,178,1224419,0.0-15.0-2.12,58476,List1A,white,man,,,,null,,,,
11872,,,survey-text,179,1236293,0.0-15.0-3.12,58476,List1A,white,man,,,,,"{""Q0"":""dave is argiung with ruth""}","<img src=""stim_listA/argue3.gif""style=""height:400px;""></stim_listA>",is arguing with,
null,"<div style=""font-size:60px;"">+</div>",,html-keyboard-response,180,1236797,0.0-15.0-0.13,58476,List1A,white,man,,,,null,,,,
null,"<img src=""stim_listA/dance8.gif""style=""height:400px;""></stim_listA>",,html-keyboard-response,181,1238815,0.0-15.0-1.13,58476,List1A,white,man,,,,null,,,,
null,are dancing with each other,,html-keyboard-response,182,1240817,0.0-15.0-2.13,58476,List1A,white,man,,,,null,,,,
19743,,,survey-text,183,1260563,0.0-15.0-3.13,58476,List1A,white,man,,,,,"{""Q0"":""beth and ruth are dancing with each other""}","<img src=""stim_listA/dance8.gif""style=""height:400px;""></stim_listA>",are dancing with each other,
null,"<div style=""font-size:60px;"">+</div>",,html-keyboard-response,184,1261067,0.0-15.0-0.14,58476,List1A,white,man,,,,null,,,,
null,"<img src=""stim_listA/argue4.gif""style=""height:400px;""></stim_listA>",,html-keyboard-response,185,1263086,0.0-15.0-1.14,58476,List1A,white,man,,,,null,,,,
null,are arguing with each other,,html-keyboard-response,186,1265099,0.0-15.0-2.14,58476,List1A,white,man,,,,null,,,,
16299,,,survey-text,187,1281402,0.0-15.0-3.14,58476,List1A,white,man,,,,,"{""Q0"":""ruth and luke are arguing with each other""}","<img src=""stim_listA/argue4.gif""style=""height:400px;""></stim_listA>",are arguing with each other,
null,"<div style=""font-size:60px;"">+</div>",,html-keyboard-response,188,1281907,0.0-15.0-0.15,58476,List1A,white,man,,,,null,,,,
null,"<img src=""stim_listA/dance1.gif""style=""height:400px;""></stim_listA>",,html-keyboard-response,189,1283926,0.0-15.0-1.15,58476,List1A,white,man,,,,null,,,,
null,is dancing with,,html-keyboard-response,190,1285947,0.0-15.0-2.15,58476,List1A,white,man,,,,null,,,,
11248,,,survey-text,191,1297197,0.0-15.0-3.15,58476,List1A,white,man,,,,,"{""Q0"":""fred is dancing with beth""}","<img src=""stim_listA/dance1.gif""style=""height:400px;""></stim_listA>",is dancing with,
null,"<div style=""font-size:60px;"">+</div>",,html-keyboard-response,192,1297707,0.0-15.0-0.16,58476,List1A,white,man,,,,null,,,,
null,"<img src=""stim_listA/kiss6.gif""style=""height:400px;""></stim_listA>",,html-keyboard-response,193,1299716,0.0-15.0-1.16,58476,List1A,white,man,,,,null,,,,
null,are kissing each other,,html-keyboard-response,194,1301737,0.0-15.0-2.16,58476,List1A,white,man,,,,null,,,,
14231,,,survey-text,195,1315969,0.0-15.0-3.16,58476,List1A,white,man,,,,,"{""Q0"":""mike and dave are kissing each other""}","<img src=""stim_listA/kiss6.gif""style=""height:400px;""></stim_listA>",are kissing each other,
null,"<div style=""font-size:60px;"">+</div>",,html-keyboard-response,196,1316476,0.0-15.0-0.17,58476,List1A,white,man,,,,null,,,,
null,"<img src=""stim_listA/flirt1.gif""style=""height:400px;""></stim_listA>",,html-keyboard-response,197,1318496,0.0-15.0-1.17,58476,List1A,white,man,,,,null,,,,
null,is flirting with,,html-keyboard-response,198,1320504,0.0-15.0-2.17,58476,List1A,white,man,,,,null,,,,
11317,,,survey-text,199,1331822,0.0-15.0-3.17,58476,List1A,white,man,,,,,"{""Q0"":""beth is flirting with fred""}","<img src=""stim_listA/flirt1.gif""style=""height:400px;""></stim_listA>",is flirting with,
null,"<div style=""font-size:60px;"">+</div>",,html-keyboard-response,200,1332327,0.0-15.0-0.18,58476,List1A,white,man,,,,null,,,,
null,"<img src=""stim_listA/talk1.gif""style=""height:400px;""></stim_listA>",,html-keyboard-response,201,1334343,0.0-15.0-1.18,58476,List1A,white,man,,,,null,,,,
null,is talking to,,html-keyboard-response,202,1336347,0.0-15.0-2.18,58476,List1A,white,man,,,,null,,,,
9737,,,survey-text,203,1346088,0.0-15.0-3.18,58476,List1A,white,man,,,,,"{""Q0"":""fred is talking to beth""}","<img src=""stim_listA/talk1.gif""style=""height:400px;""></stim_listA>",is talking to,
null,"<div style=""font-size:60px;"">+</div>",,html-keyboard-response,204,1346596,0.0-15.0-0.19,58476,List1A,white,man,,,,null,,,,
null,"<img src=""stim_listA/talk5.gif""style=""height:400px;""></stim_listA>",,html-keyboard-response,205,1348617,0.0-15.0-1.19,58476,List1A,white,man,,,,null,,,,
null,is talking to,,html-keyboard-response,206,1350624,0.0-15.0-2.19,58476,List1A,white,man,,,,null,,,,
12464,,,survey-text,207,1363089,0.0-15.0-3.19,58476,List1A,white,man,,,,,"{""Q0"":""fred is talking to dave""}","<img src=""stim_listA/talk5.gif""style=""height:400px;""></stim_listA>",is talking to,
28637,"<img src='img/portrait_matrix_list1.jpg' style='width:900px;height:500px;''></img><p>If you have memorised all the portraits and names and are ready to start, press Continue.</p><p><strong>Please note: Your memory of these faces will be tested 4 times during this experiment.</strong></p>",0,html-button-response,208,1391729,0.0-16.0-0.0,58476,List1A,white,man,,,,,,,,
5411,"<img src=""portrait/BM2.jpg""style=""height:400px;""></img>",5,html-button-response,209,1398154,0.0-16.0-1.0,58476,List1A,white,man,,TRUE,5,,,,,
null,CORRECT,,html-keyboard-response,210,1399677,0.0-16.0-2.0-0.0,58476,List1A,white,man,,,,null,,,,
3911,"<img src=""portrait/BW2.jpg""style=""height:400px;""></img>",2,html-button-response,211,1403596,0.0-16.0-4.0,58476,List1A,white,man,,TRUE,2,,,,,
null,CORRECT,,html-keyboard-response,212,1405128,0.0-16.0-5.0-0.0,58476,List1A,white,man,,,,null,,,,
2286,"<img src=""portrait/BW1.jpg""style=""height:400px;""></img>",0,html-button-response,213,1407417,0.0-16.0-7.0,58476,List1A,white,man,,TRUE,0,,,,,
null,CORRECT,,html-keyboard-response,214,1408957,0.0-16.0-8.0-0.0,58476,List1A,white,man,,,,null,,,,
3085,"<img src=""portrait/WM1.jpg""style=""height:400px;""></img>",6,html-button-response,215,1412045,0.0-16.0-10.0,58476,List1A,white,man,,TRUE,6,,,,,
null,CORRECT,,html-keyboard-response,216,1413567,0.0-16.0-11.0-0.0,58476,List1A,white,man,,,,null,,,,
2631,"<img src=""portrait/WW1.jpg""style=""height:400px;""></img>",1,html-button-response,217,1416201,0.0-16.0-13.0,58476,List1A,white,man,,TRUE,1,,,,,
null,CORRECT,,html-keyboard-response,218,1417727,0.0-16.0-14.0-0.0,58476,List1A,white,man,,,,null,,,,
1861,"<img src=""portrait/WW2.jpg""style=""height:400px;""></img>",3,html-button-response,219,1419591,0.0-16.0-16.0,58476,List1A,white,man,,TRUE,3,,,,,
null,CORRECT,,html-keyboard-response,220,1421127,0.0-16.0-17.0-0.0,58476,List1A,white,man,,,,null,,,,
2192,"<img src=""portrait/BM1.jpg""style=""height:400px;""></img>",4,html-button-response,221,1423321,0.0-16.0-19.0,58476,List1A,white,man,,TRUE,4,,,,,
null,CORRECT,,html-keyboard-response,222,1424847,0.0-16.0-20.0-0.0,58476,List1A,white,man,,,,null,,,,
2194,"<img src=""portrait/WM2.jpg""style=""height:400px;""></img>",7,html-button-response,223,1427044,0.0-16.0-22.0,58476,List1A,white,man,,TRUE,7,,,,,
null,CORRECT,,html-keyboard-response,224,1428578,0.0-16.0-23.0-0.0,58476,List1A,white,man,,,,null,,,,
3188,<p>You got 8 out of 8 right first time. Press Continue.</p>,0,html-button-response,225,1431769,0.0-16.0-25.0,58476,List1A,white,man,,,,,,,,
null,"<div style=""font-size:60px;"">+</div>",,html-keyboard-response,226,1433307,0.0-17.0-0.0,58476,List1A,white,man,,,,null,,,,
null,"<img src=""stim_listA/flirt7.gif""style=""height:400px;""></stim_listA>",,html-keyboard-response,227,1435316,0.0-17.0-1.0,58476,List1A,white,man,,,,null,,,,
null,is flirting with,,html-keyboard-response,228,1437327,0.0-17.0-2.0,58476,List1A,white,man,,,,null,,,,
13757,,,survey-text,229,1451086,0.0-17.0-3.0,58476,List1A,white,man,,,,,"{""Q0"":""beth is flirting with jane""}","<img src=""stim_listA/flirt7.gif""style=""height:400px;""></stim_listA>",is flirting with,
null,"<div style=""font-size:60px;"">+</div>",,html-keyboard-response,230,1451597,0.0-17.0-0.1,58476,List1A,white,man,,,,null,,,,
null,"<img src=""stim_listA/shout8.gif""style=""height:400px;""></stim_listA>",,html-keyboard-response,231,1453617,0.0-17.0-1.1,58476,List1A,white,man,,,,null,,,,
null,are shouting at each other,,html-keyboard-response,232,1455627,0.0-17.0-2.1,58476,List1A,white,man,,,,null,,,,
16137,,,survey-text,233,1471767,0.0-17.0-3.1,58476,List1A,white,man,,,,,"{""Q0"":""jane and beth are shouting at each other""}","<img src=""stim_listA/shout8.gif""style=""height:400px;""></stim_listA>",are shouting at each other,
null,"<div style=""font-size:60px;"">+</div>",,html-keyboard-response,234,1472278,0.0-17.0-0.2,58476,List1A,white,man,,,,null,,,,
null,"<img src=""stim_listA/dance6.gif""style=""height:400px;""></stim_listA>",,html-keyboard-response,235,1474296,0.0-17.0-1.2,58476,List1A,white,man,,,,null,,,,
null,are dancing with each other,,html-keyboard-response,236,1476317,0.0-17.0-2.2,58476,List1A,white,man,,,,null,,,,
15442,,,survey-text,237,1491760,0.0-17.0-3.2,58476,List1A,white,man,,,,,"{""Q0"":""mike and luke are dancing with each other""}","<img src=""stim_listA/dance6.gif""style=""height:400px;""></stim_listA>",are dancing with each other,
null,"<div style=""font-size:60px;"">+</div>",,html-keyboard-response,238,1492277,0.0-17.0-0.3,58476,List1A,white,man,,,,null,,,,
null,"<img src=""stim_listA/argue1.gif""style=""height:400px;""></stim_listA>",,html-keyboard-response,239,1494298,0.0-17.0-1.3,58476,List1A,white,man,,,,null,,,,
null,is arguing with,,html-keyboard-response,240,1496307,0.0-17.0-2.3,58476,List1A,white,man,,,,null,,,,
11674,,,survey-text,241,1507982,0.0-17.0-3.3,58476,List1A,white,man,,,,,"{""Q0"":""mike is arguing with beth""}","<img src=""stim_listA/argue1.gif""style=""height:400px;""></stim_listA>",is arguing with,
null,"<div style=""font-size:60px;"">+</div>",,html-keyboard-response,242,1508496,0.0-17.0-0.4,58476,List1A,white,man,,,,null,,,,
null,"<img src=""stim_listA/touch8.gif""style=""height:400px;""></stim_listA>",,html-keyboard-response,243,1510507,0.0-17.0-1.4,58476,List1A,white,man,,,,null,,,,
null,are touching each other,,html-keyboard-response,244,1512517,0.0-17.0-2.4,58476,List1A,white,man,,,,null,,,,
15817,,,survey-text,245,1528335,0.0-17.0-3.4,58476,List1A,white,man,,,,,"{""Q0"":""beth and jane are touching each other""}","<img src=""stim_listA/touch8.gif""style=""height:400px;""></stim_listA>",are touching each other,
null,"<div style=""font-size:60px;"">+</div>",,html-keyboard-response,246,1528857,0.0-17.0-0.5,58476,List1A,white,man,,,,null,,,,
null,"<img src=""stim_listA/touch4.gif""style=""height:400px;""></stim_listA>",,html-keyboard-response,247,1530866,0.0-17.0-1.5,58476,List1A,white,man,,,,null,,,,
null,are touching each other,,html-keyboard-response,248,1532880,0.0-17.0-2.5,58476,List1A,white,man,,,,null,,,,
16623,,,survey-text,249,1549506,0.0-17.0-3.5,58476,List1A,white,man,,,,,"{""Q0"":""luke and jane are touching each other""}","<img src=""stim_listA/touch4.gif""style=""height:400px;""></stim_listA>",are touching each other,
null,"<div style=""font-size:60px;"">+</div>",,html-keyboard-response,250,1550026,0.0-17.0-0.6,58476,List1A,white,man,,,,null,,,,
null,"<img src=""stim_listA/fight1.gif""style=""height:400px;""></stim_listA>",,html-keyboard-response,251,1552047,0.0-17.0-1.6,58476,List1A,white,man,,,,null,,,,
null,is fighting,,html-keyboard-response,252,1554054,0.0-17.0-2.6,58476,List1A,white,man,,,,null,,,,
9312,,,survey-text,253,1563368,0.0-17.0-3.6,58476,List1A,white,man,,,,,"{""Q0"":""mike is fighting kate""}","<img src=""stim_listA/fight1.gif""style=""height:400px;""></stim_listA>",is fighting,
null,"<div style=""font-size:60px;"">+</div>",,html-keyboard-response,254,1563887,0.0-17.0-0.7,58476,List1A,white,man,,,,null,,,,
null,"<img src=""stim_listA/play2.gif""style=""height:400px;""></stim_listA>",,html-keyboard-response,255,1565906,0.0-17.0-1.7,58476,List1A,white,man,,,,null,,,,
null,are playing with each other,,html-keyboard-response,256,1567926,0.0-17.0-2.7,58476,List1A,white,man,,,,null,,,,
20025,,,survey-text,257,1587953,0.0-17.0-3.7,58476,List1A,white,man,,,,,"{""Q0"":""beth and fred are playing with each other""}","<img src=""stim_listA/play2.gif""style=""height:400px;""></stim_listA>",are playing with each other,
null,"<div style=""font-size:60px;"">+</div>",,html-keyboard-response,258,1588456,0.0-17.0-0.8,58476,List1A,white,man,,,,null,,,,
null,"<img src=""stim_listA/shout5.gif""style=""height:400px;""></stim_listA>",,html-keyboard-response,259,1590466,0.0-17.0-1.8,58476,List1A,white,man,,,,null,,,,
null,is shouting at,,html-keyboard-response,260,1592467,0.0-17.0-2.8,58476,List1A,white,man,,,,null,,,,
11509,,,survey-text,261,1603978,0.0-17.0-3.8,58476,List1A,white,man,,,,,"{""Q0"":""fred is shouting at luke""}","<img src=""stim_listA/shout5.gif""style=""height:400px;""></stim_listA>",is shouting at,
null,"<div style=""font-size:60px;"">+</div>",,html-keyboard-response,262,1604487,0.0-17.0-0.9,58476,List1A,white,man,,,,null,,,,
null,"<img src=""stim_listA/fight7.gif""style=""height:400px;""></stim_listA>",,html-keyboard-response,263,1606497,0.0-17.0-1.9,58476,List1A,white,man,,,,null,,,,
null,is fighting,,html-keyboard-response,264,1608516,0.0-17.0-2.9,58476,List1A,white,man,,,,null,,,,
15930,,,survey-text,265,1624449,0.0-17.0-3.9,58476,List1A,white,man,,,,,"{""Q0"":""kate is fighting jane""}","<img src=""stim_listA/fight7.gif""style=""height:400px;""></stim_listA>",is fighting,
null,"<div style=""font-size:60px;"">+</div>",,html-keyboard-response,266,1624956,0.0-17.0-0.10,58476,List1A,white,man,,,,null,,,,
null,"<img src=""stim_listA/fight2.gif""style=""height:400px;""></stim_listA>",,html-keyboard-response,267,1626967,0.0-17.0-1.10,58476,List1A,white,man,,,,null,,,,
null,are fighting each other,,html-keyboard-response,268,1628986,0.0-17.0-2.10,58476,List1A,white,man,,,,null,,,,
13841,,,survey-text,269,1642829,0.0-17.0-3.10,58476,List1A,white,man,,,,,"{""Q0"":""beth and fred are fighting each other""}","<img src=""stim_listA/fight2.gif""style=""height:400px;""></stim_listA>",are fighting each other,
null,"<div style=""font-size:60px;"">+</div>",,html-keyboard-response,270,1643347,0.0-17.0-0.11,58476,List1A,white,man,,,,null,,,,
null,"<img src=""stim_listA/flirt2.gif""style=""height:400px;""></stim_listA>",,html-keyboard-response,271,1645367,0.0-17.0-1.11,58476,List1A,white,man,,,,null,,,,
null,are flirting with each other,,html-keyboard-response,272,1647387,0.0-17.0-2.11,58476,List1A,white,man,,,,null,,,,
16594,,,survey-text,273,1663983,0.0-17.0-3.11,58476,List1A,white,man,,,,,"{""Q0"":""beth and mike are flirting with each other""}","<img src=""stim_listA/flirt2.gif""style=""height:400px;""></stim_listA>",are flirting with each other,
null,"<div style=""font-size:60px;"">+</div>",,html-keyboard-response,274,1664497,0.0-17.0-0.12,58476,List1A,white,man,,,,null,,,,
null,"<img src=""stim_listA/dance2.gif""style=""height:400px;""></stim_listA>",,html-keyboard-response,275,1666517,0.0-17.0-1.12,58476,List1A,white,man,,,,null,,,,
null,are dancing with each other,,html-keyboard-response,276,1668527,0.0-17.0-2.12,58476,List1A,white,man,,,,null,,,,
15378,,,survey-text,277,1683909,0.0-17.0-3.12,58476,List1A,white,man,,,,,"{""Q0"":""beth and mike are dancing with each other""}","<img src=""stim_listA/dance2.gif""style=""height:400px;""></stim_listA>",are dancing with each other,
null,"<div style=""font-size:60px;"">+</div>",,html-keyboard-response,278,1684417,0.0-17.0-0.13,58476,List1A,white,man,,,,null,,,,
null,"<img src=""stim_listA/marry8.gif""style=""height:400px;""></stim_listA>",,html-keyboard-response,279,1686437,0.0-17.0-1.13,58476,List1A,white,man,,,,null,,,,
null,are marrying each other,,html-keyboard-response,280,1688452,0.0-17.0-2.13,58476,List1A,white,man,,,,null,,,,
13552,,,survey-text,281,1702006,0.0-17.0-3.13,58476,List1A,white,man,,,,,"{""Q0"":""jane and beth are marrying each other""}","<img src=""stim_listA/marry8.gif""style=""height:400px;""></stim_listA>",are marrying each other,
null,"<div style=""font-size:60px;"">+</div>",,html-keyboard-response,282,1702517,0.0-17.0-0.14,58476,List1A,white,man,,,,null,,,,
null,"<img src=""stim_listA/flirt4.gif""style=""height:400px;""></stim_listA>",,html-keyboard-response,283,1704527,0.0-17.0-1.14,58476,List1A,white,man,,,,null,,,,
null,are flirting with each other,,html-keyboard-response,284,1706543,0.0-17.0-2.14,58476,List1A,white,man,,,,null,,,,
17323,,,survey-text,285,1723868,0.0-17.0-3.14,58476,List1A,white,man,,,,,"{""Q0"":""dave and jane are flirting with each other""}","<img src=""stim_listA/flirt4.gif""style=""height:400px;""></stim_listA>",are flirting with each other,
null,"<div style=""font-size:60px;"">+</div>",,html-keyboard-response,286,1724377,0.0-17.0-0.15,58476,List1A,white,man,,,,null,,,,
null,"<img src=""stim_listA/play6.gif""style=""height:400px;""></stim_listA>",,html-keyboard-response,287,1726383,0.0-17.0-1.15,58476,List1A,white,man,,,,null,,,,
null,are playing with each other,,html-keyboard-response,288,1728397,0.0-17.0-2.15,58476,List1A,white,man,,,,null,,,,
16290,,,survey-text,289,1744690,0.0-17.0-3.15,58476,List1A,white,man,,,,,"{""Q0"":""luke and fred are playing with each other""}","<img src=""stim_listA/play6.gif""style=""height:400px;""></stim_listA>",are playing with each other,
null,"<div style=""font-size:60px;"">+</div>",,html-keyboard-response,290,1745198,0.0-17.0-0.16,58476,List1A,white,man,,,,null,,,,
null,"<img src=""stim_listA/talk3.gif""style=""height:400px;""></stim_listA>",,html-keyboard-response,291,1747216,0.0-17.0-1.16,58476,List1A,white,man,,,,null,,,,
null,is talking to,,html-keyboard-response,292,1749237,0.0-17.0-2.16,58476,List1A,white,man,,,,null,,,,
14361,,,survey-text,293,1763599,0.0-17.0-3.16,58476,List1A,white,man,,,,,"{""Q0"":""jane is talking to luke""}","<img src=""stim_listA/talk3.gif""style=""height:400px;""></stim_listA>",is talking to,
null,"<div style=""font-size:60px;"">+</div>",,html-keyboard-response,294,1764117,0.0-17.0-0.17,58476,List1A,white,man,,,,null,,,,
null,"<img src=""stim_listA/argue7.gif""style=""height:400px;""></stim_listA>",,html-keyboard-response,295,1766137,0.0-17.0-1.17,58476,List1A,white,man,,,,null,,,,
null,is arguing with,,html-keyboard-response,296,1768147,0.0-17.0-2.17,58476,List1A,white,man,,,,null,,,,
11638,,,survey-text,297,1779787,0.0-17.0-3.17,58476,List1A,white,man,,,,,"{""Q0"":""kate is arguing with ruth""}","<img src=""stim_listA/argue7.gif""style=""height:400px;""></stim_listA>",is arguing with,
null,"<div style=""font-size:60px;"">+</div>",,html-keyboard-response,298,1780306,0.0-17.0-0.18,58476,List1A,white,man,,,,null,,,,
null,"<img src=""stim_listA/talk6.gif""style=""height:400px;""></stim_listA>",,html-keyboard-response,299,1782328,0.0-17.0-1.18,58476,List1A,white,man,,,,null,,,,
null,are talking to each other,,html-keyboard-response,300,1784347,0.0-17.0-2.18,58476,List1A,white,man,,,,null,,,,
15427,,,survey-text,301,1799775,0.0-17.0-3.18,58476,List1A,white,man,,,,,"{""Q0"":""luke and mike are talking to each other""}","<img src=""stim_listA/talk6.gif""style=""height:400px;""></stim_listA>",are talking to each other,
null,"<div style=""font-size:60px;"">+</div>",,html-keyboard-response,302,1800297,0.0-17.0-0.19,58476,List1A,white,man,,,,null,,,,
null,"<img src=""stim_listA/touch2.gif""style=""height:400px;""></stim_listA>",,html-keyboard-response,303,1802305,0.0-17.0-1.19,58476,List1A,white,man,,,,null,,,,
null,are touching each other,,html-keyboard-response,304,1804315,0.0-17.0-2.19,58476,List1A,white,man,,,,null,,,,
14709,,,survey-text,305,1819027,0.0-17.0-3.19,58476,List1A,white,man,,,,,"{""Q0"":""fred and beth are touching each other""}","<img src=""stim_listA/touch2.gif""style=""height:400px;""></stim_listA>",are touching each other,
24636,"<img src='img/portrait_matrix_list1.jpg' style='width:900px;height:500px;''></img><p>If you have memorised all the portraits and names and are ready to start, press Continue.</p><p><strong>Please note: Your memory of these faces will be tested 4 times during this experiment.</strong></p>",0,html-button-response,306,1843668,0.0-18.0-0.0,58476,List1A,white,man,,,,,,,,
3009,"<img src=""portrait/WW1.jpg""style=""height:400px;""></img>",1,html-button-response,307,1847701,0.0-18.0-1.0,58476,List1A,white,man,,TRUE,1,,,,,
null,CORRECT,,html-keyboard-response,308,1849238,0.0-18.0-2.0-0.0,58476,List1A,white,man,,,,null,,,,
2337,"<img src=""portrait/BW2.jpg""style=""height:400px;""></img>",2,html-button-response,309,1851579,0.0-18.0-4.0,58476,List1A,white,man,,TRUE,2,,,,,
null,CORRECT,,html-keyboard-response,310,1853106,0.0-18.0-5.0-0.0,58476,List1A,white,man,,,,null,,,,
3006,"<img src=""portrait/WM1.jpg""style=""height:400px;""></img>",6,html-button-response,311,1856116,0.0-18.0-7.0,58476,List1A,white,man,,TRUE,6,,,,,
null,CORRECT,,html-keyboard-response,312,1857627,0.0-18.0-8.0-0.0,58476,List1A,white,man,,,,null,,,,
2241,"<img src=""portrait/BM2.jpg""style=""height:400px;""></img>",5,html-button-response,313,1859871,0.0-18.0-10.0,58476,List1A,white,man,,TRUE,5,,,,,
null,CORRECT,,html-keyboard-response,314,1861397,0.0-18.0-11.0-0.0,58476,List1A,white,man,,,,null,,,,
1574,"<img src=""portrait/WM2.jpg""style=""height:400px;""></img>",7,html-button-response,315,1862976,0.0-18.0-13.0,58476,List1A,white,man,,TRUE,7,,,,,
null,CORRECT,,html-keyboard-response,316,1864492,0.0-18.0-14.0-0.0,58476,List1A,white,man,,,,null,,,,
2361,"<img src=""portrait/BM1.jpg""style=""height:400px;""></img>",4,html-button-response,317,1866856,0.0-18.0-16.0,58476,List1A,white,man,,TRUE,4,,,,,
null,CORRECT,,html-keyboard-response,318,1868377,0.0-18.0-17.0-0.0,58476,List1A,white,man,,,,null,,,,
4061,"<img src=""portrait/BW1.jpg""style=""height:400px;""></img>",0,html-button-response,319,1872441,0.0-18.0-19.0,58476,List1A,white,man,,TRUE,0,,,,,
null,CORRECT,,html-keyboard-response,320,1873967,0.0-18.0-20.0-0.0,58476,List1A,white,man,,,,null,,,,
1830,"<img src=""portrait/WW2.jpg""style=""height:400px;""></img>",3,html-button-response,321,1875800,0.0-18.0-22.0,58476,List1A,white,man,,TRUE,3,,,,,
null,CORRECT,,html-keyboard-response,322,1877337,0.0-18.0-23.0-0.0,58476,List1A,white,man,,,,null,,,,
2419,<p>You got 8 out of 8 right first time. Press Continue.</p>,0,html-button-response,323,1879761,0.0-18.0-25.0,58476,List1A,white,man,,,,,,,,
null,"<div style=""font-size:60px;"">+</div>",,html-keyboard-response,324,1881287,0.0-19.0-0.0,58476,List1A,white,man,,,,null,,,,
null,"<img src=""stim_listA/shout4.gif""style=""height:400px;""></stim_listA>",,html-keyboard-response,325,1883307,0.0-19.0-1.0,58476,List1A,white,man,,,,null,,,,
null,are shouting at each other,,html-keyboard-response,326,1885321,0.0-19.0-2.0,58476,List1A,white,man,,,,null,,,,
15179,,,survey-text,327,1900502,0.0-19.0-3.0,58476,List1A,white,man,,,,,"{""Q0"":""jane and dave are shouting at each other""}","<img src=""stim_listA/shout4.gif""style=""height:400px;""></stim_listA>",are shouting at each other,
null,"<div style=""font-size:60px;"">+</div>",,html-keyboard-response,328,1901018,0.0-19.0-0.1,58476,List1A,white,man,,,,null,,,,
null,"<img src=""stim_listA/dance5.gif""style=""height:400px;""></stim_listA>",,html-keyboard-response,329,1903026,0.0-19.0-1.1,58476,List1A,white,man,,,,null,,,,
null,is dancing with,,html-keyboard-response,330,1905043,0.0-19.0-2.1,58476,List1A,white,man,,,,null,,,,
11365,,,survey-text,331,1916411,0.0-19.0-3.1,58476,List1A,white,man,,,,,"{""Q0"":""dave is dancing with fred""}","<img src=""stim_listA/dance5.gif""style=""height:400px;""></stim_listA>",is dancing with,
null,"<div style=""font-size:60px;"">+</div>",,html-keyboard-response,332,1916917,0.0-19.0-0.2,58476,List1A,white,man,,,,null,,,,
null,"<img src=""stim_listA/marry3.gif""style=""height:400px;""></stim_listA>",,html-keyboard-response,333,1918927,0.0-19.0-1.2,58476,List1A,white,man,,,,null,,,,
null,is marrying,,html-keyboard-response,334,1920936,0.0-19.0-2.2,58476,List1A,white,man,,,,null,,,,
11322,,,survey-text,335,1932259,0.0-19.0-3.2,58476,List1A,white,man,,,,,"{""Q0"":""dave is marrying ruth""}","<img src=""stim_listA/marry3.gif""style=""height:400px;""></stim_listA>",is marrying,
null,"<div style=""font-size:60px;"">+</div>",,html-keyboard-response,336,1932764,0.0-19.0-0.3,58476,List1A,white,man,,,,null,,,,
null,"<img src=""stim_listA/flirt8.gif""style=""height:400px;""></stim_listA>",,html-keyboard-response,337,1934778,0.0-19.0-1.3,58476,List1A,white,man,,,,null,,,,
null,are flirting with each other,,html-keyboard-response,338,1936796,0.0-19.0-2.3,58476,List1A,white,man,,,,null,,,,
17351,,,survey-text,339,1954151,0.0-19.0-3.3,58476,List1A,white,man,,,,,"{""Q0"":""ruth and kate are flirting with each other""}","<img src=""stim_listA/flirt8.gif""style=""height:400px;""></stim_listA>",are flirting with each other,
null,"<div style=""font-size:60px;"">+</div>",,html-keyboard-response,340,1954657,0.0-19.0-0.4,58476,List1A,white,man,,,,null,,,,
null,"<img src=""stim_listA/touch1.gif""style=""height:400px;""></stim_listA>",,html-keyboard-response,341,1956679,0.0-19.0-1.4,58476,List1A,white,man,,,,null,,,,
null,is touching,,html-keyboard-response,342,1958697,0.0-19.0-2.4,58476,List1A,white,man,,,,null,,,,
10110,,,survey-text,343,1968811,0.0-19.0-3.4,58476,List1A,white,man,,,,,"{""Q0"":""mike is touching kate""}","<img src=""stim_listA/touch1.gif""style=""height:400px;""></stim_listA>",is touching,
null,"<div style=""font-size:60px;"">+</div>",,html-keyboard-response,344,1969327,0.0-19.0-0.5,58476,List1A,white,man,,,,null,,,,
null,"<img src=""stim_listA/argue6.gif""style=""height:400px;""></stim_listA>",,html-keyboard-response,345,1971346,0.0-19.0-1.5,58476,List1A,white,man,,,,null,,,,
null,are arguing with each other,,html-keyboard-response,346,1973357,0.0-19.0-2.5,58476,List1A,white,man,,,,null,,,,
11307,,,survey-text,347,1984665,0.0-19.0-3.5,58476,List1A,white,man,,,,,"{""Q0"":""dave is argiung with fred""}","<img src=""stim_listA/argue6.gif""style=""height:400px;""></stim_listA>",are arguing with each other,
null,"<div style=""font-size:60px;"">+</div>",,html-keyboard-response,348,1985177,0.0-19.0-0.6,58476,List1A,white,man,,,,null,,,,
null,"<img src=""stim_listA/kiss3.gif""style=""height:400px;""></stim_listA>",,html-keyboard-response,349,1987187,0.0-19.0-1.6,58476,List1A,white,man,,,,null,,,,
null,is kissing,,html-keyboard-response,350,1989197,0.0-19.0-2.6,58476,List1A,white,man,,,,null,,,,
9352,,,survey-text,351,1998551,0.0-19.0-3.6,58476,List1A,white,man,,,,,"{""Q0"":""luke is kissing jane""}","<img src=""stim_listA/kiss3.gif""style=""height:400px;""></stim_listA>",is kissing,
null,"<div style=""font-size:60px;"">+</div>",,html-keyboard-response,352,1999056,0.0-19.0-0.7,58476,List1A,white,man,,,,null,,,,
null,"<img src=""stim_listA/talk4.gif""style=""height:400px;""></stim_listA>",,html-keyboard-response,353,2001077,0.0-19.0-1.7,58476,List1A,white,man,,,,null,,,,
null,are talking to each other,,html-keyboard-response,354,2003087,0.0-19.0-2.7,58476,List1A,white,man,,,,null,,,,
14167,,,survey-text,355,2017257,0.0-19.0-3.7,58476,List1A,white,man,,,,,"{""Q0"":""jane and dave are talking to each other""}","<img src=""stim_listA/talk4.gif""style=""height:400px;""></stim_listA>",are talking to each other,
null,"<div style=""font-size:60px;"">+</div>",,html-keyboard-response,356,2017774,0.0-19.0-0.8,58476,List1A,white,man,,,,null,,,,
null,"<img src=""stim_listA/flirt6.gif""style=""height:400px;""></stim_listA>",,html-keyboard-response,357,2019797,0.0-19.0-1.8,58476,List1A,white,man,,,,null,,,,
null,are flirting with each other,,html-keyboard-response,358,2021815,0.0-19.0-2.8,58476,List1A,white,man,,,,null,,,,
15053,,,survey-text,359,2036874,0.0-19.0-3.8,58476,List1A,white,man,,,,,"{""Q0"":""luke and mike are flirting with each other""}","<img src=""stim_listA/flirt6.gif""style=""height:400px;""></stim_listA>",are flirting with each other,
null,"<div style=""font-size:60px;"">+</div>",,html-keyboard-response,360,2037393,0.0-19.0-0.9,58476,List1A,white,man,,,,null,,,,
null,"<img src=""stim_listA/dance4.gif""style=""height:400px;""></stim_listA>",,html-keyboard-response,361,2039407,0.0-19.0-1.9,58476,List1A,white,man,,,,null,,,,
null,are dancing with each other,,html-keyboard-response,362,2041425,0.0-19.0-2.9,58476,List1A,white,man,,,,null,,,,
19334,,,survey-text,363,2060762,0.0-19.0-3.9,58476,List1A,white,man,,,,,"{""Q0"":""dave and ruth are dancing with each other""}","<img src=""stim_listA/dance4.gif""style=""height:400px;""></stim_listA>",are dancing with each other,
null,"<div style=""font-size:60px;"">+</div>",,html-keyboard-response,364,2061287,0.0-19.0-0.10,58476,List1A,white,man,,,,null,,,,
null,"<img src=""stim_listA/play4.gif""style=""height:400px;""></stim_listA>",,html-keyboard-response,365,2063307,0.0-19.0-1.10,58476,List1A,white,man,,,,null,,,,
null,are playing with each other,,html-keyboard-response,366,2065316,0.0-19.0-2.10,58476,List1A,white,man,,,,null,,,,
18231,,,survey-text,367,2083550,0.0-19.0-3.10,58476,List1A,white,man,,,,,"{""Q0"":""luke and jane are playing with each other""}","<img src=""stim_listA/play4.gif""style=""height:400px;""></stim_listA>",are playing with each other,
null,"<div style=""font-size:60px;"">+</div>",,html-keyboard-response,368,2084067,0.0-19.0-0.11,58476,List1A,white,man,,,,null,,,,
null,"<img src=""stim_listA/flirt5.gif""style=""height:400px;""></stim_listA>",,html-keyboard-response,369,2086087,0.0-19.0-1.11,58476,List1A,white,man,,,,null,,,,
null,is flirting with,,html-keyboard-response,370,2088106,0.0-19.0-2.11,58476,List1A,white,man,,,,null,,,,
11837,,,survey-text,371,2099946,0.0-19.0-3.11,58476,List1A,white,man,,,,,"{""Q0"":""fred is flirting with dave""}","<img src=""stim_listA/flirt5.gif""style=""height:400px;""></stim_listA>",is flirting with,
null,"<div style=""font-size:60px;"">+</div>",,html-keyboard-response,372,2100457,0.0-19.0-0.12,58476,List1A,white,man,,,,null,,,,
null,"<img src=""stim_listA/marry2.gif""style=""height:400px;""></stim_listA>",,html-keyboard-response,373,2102477,0.0-19.0-1.12,58476,List1A,white,man,,,,null,,,,
null,are marrying each other,,html-keyboard-response,374,2104492,0.0-19.0-2.12,58476,List1A,white,man,,,,null,,,,
17332,,,survey-text,375,2121825,0.0-19.0-3.12,58476,List1A,white,man,,,,,"{""Q0"":""kate and fred are marrying each other""}","<img src=""stim_listA/marry2.gif""style=""height:400px;""></stim_listA>",are marrying each other,
null,"<div style=""font-size:60px;"">+</div>",,html-keyboard-response,376,2122327,0.0-19.0-0.13,58476,List1A,white,man,,,,null,,,,
null,"<img src=""stim_listA/argue5.gif""style=""height:400px;""></stim_listA>",,html-keyboard-response,377,2124338,0.0-19.0-1.13,58476,List1A,white,man,,,,null,,,,
null,is arguing with,,html-keyboard-response,378,2126355,0.0-19.0-2.13,58476,List1A,white,man,,,,null,,,,
12612,,,survey-text,379,2138969,0.0-19.0-3.13,58476,List1A,white,man,,,,,"{""Q0"":""luke is arguing with mike""}","<img src=""stim_listA/argue5.gif""style=""height:400px;""></stim_listA>",is arguing with,
null,"<div style=""font-size:60px;"">+</div>",,html-keyboard-response,380,2139472,0.0-19.0-0.14,58476,List1A,white,man,,,,null,,,,
null,"<img src=""stim_listA/dance7.gif""style=""height:400px;""></stim_listA>",,html-keyboard-response,381,2141477,0.0-19.0-1.14,58476,List1A,white,man,,,,null,,,,
null,is dancing with,,html-keyboard-response,382,2143498,0.0-19.0-2.14,58476,List1A,white,man,,,,null,,,,
10754,,,survey-text,383,2154255,0.0-19.0-3.14,58476,List1A,white,man,,,,,"{""Q0"":""beth is dancing with jane""}","<img src=""stim_listA/dance7.gif""style=""height:400px;""></stim_listA>",is dancing with,
null,"<div style=""font-size:60px;"">+</div>",,html-keyboard-response,384,2154777,0.0-19.0-0.15,58476,List1A,white,man,,,,null,,,,
null,"<img src=""stim_listA/touch7.gif""style=""height:400px;""></stim_listA>",,html-keyboard-response,385,2156787,0.0-19.0-1.15,58476,List1A,white,man,,,,null,,,,
null,is touching,,html-keyboard-response,386,2158799,0.0-19.0-2.15,58476,List1A,white,man,,,,null,,,,
9711,,,survey-text,387,2168511,0.0-19.0-3.15,58476,List1A,white,man,,,,,"{""Q0"":""jane is touching kate""}","<img src=""stim_listA/touch7.gif""style=""height:400px;""></stim_listA>",is touching,
null,"<div style=""font-size:60px;"">+</div>",,html-keyboard-response,388,2169017,0.0-19.0-0.16,58476,List1A,white,man,,,,null,,,,
null,"<img src=""stim_listA/marry1.gif""style=""height:400px;""></stim_listA>",,html-keyboard-response,389,2171037,0.0-19.0-1.16,58476,List1A,white,man,,,,null,,,,
null,is marrying,,html-keyboard-response,390,2173042,0.0-19.0-2.16,58476,List1A,white,man,,,,null,,,,
13494,,,survey-text,391,2186537,0.0-19.0-3.16,58476,List1A,white,man,,,,,"{""Q0"":""mike is marrying kate""}","<img src=""stim_listA/marry1.gif""style=""height:400px;""></stim_listA>",is marrying,
null,"<div style=""font-size:60px;"">+</div>",,html-keyboard-response,392,2187057,0.0-19.0-0.17,58476,List1A,white,man,,,,null,,,,
null,"<img src=""stim_listA/marry4.gif""style=""height:400px;""></stim_listA>",,html-keyboard-response,393,2189076,0.0-19.0-1.17,58476,List1A,white,man,,,,null,,,,
null,are marrying each other,,html-keyboard-response,394,2191097,0.0-19.0-2.17,58476,List1A,white,man,,,,null,,,,
14113,,,survey-text,395,2205212,0.0-19.0-3.17,58476,List1A,white,man,,,,,"{""Q0"":""luke and jane are marrying each other""}","<img src=""stim_listA/marry4.gif""style=""height:400px;""></stim_listA>",are marrying each other,
null,"<div style=""font-size:60px;"">+</div>",,html-keyboard-response,396,2205728,0.0-19.0-0.18,58476,List1A,white,man,,,,null,,,,
null,"<img src=""stim_listA/shout3.gif""style=""height:400px;""></stim_listA>",,html-keyboard-response,397,2207747,0.0-19.0-1.18,58476,List1A,white,man,,,,null,,,,
null,is shouting at,,html-keyboard-response,398,2209767,0.0-19.0-2.18,58476,List1A,white,man,,,,null,,,,
11051,,,survey-text,399,2220820,0.0-19.0-3.18,58476,List1A,white,man,,,,,"{""Q0"":""luke is shouting at ruth""}","<img src=""stim_listA/shout3.gif""style=""height:400px;""></stim_listA>",is shouting at,
null,"<div style=""font-size:60px;"">+</div>",,html-keyboard-response,400,2221326,0.0-19.0-0.19,58476,List1A,white,man,,,,null,,,,
null,"<img src=""stim_listA/talk8.gif""style=""height:400px;""></stim_listA>",,html-keyboard-response,401,2223348,0.0-19.0-1.19,58476,List1A,white,man,,,,null,,,,
null,are talking to each other,,html-keyboard-response,402,2225357,0.0-19.0-2.19,58476,List1A,white,man,,,,null,,,,
19645,,,survey-text,403,2245002,0.0-19.0-3.19,58476,List1A,white,man,,,,,"{""Q0"":""jane and kate are talking to each other""}","<img src=""stim_listA/talk8.gif""style=""height:400px;""></stim_listA>",are talking to each other,
2851,<p>Thank you for completing that task.</p><p>The final part of this session is a short questionnaire.</p><p>Press Continue.</p>,0,html-button-response,404,2247856,0.0-20.0,58476,List1A,white,man,,,,,,,,
32255,,,survey-text,405,2281138,0.0-21.0,58476,List1A,white,man,,,,,"{""Q0"":""63"",""Q1"":""english"",""Q2"":""english"",""Q3"":""Britain"",""Q4"":""white"",""Q5"":""male""}",,,demographics
14641,,,survey-likert,406,2295787,0.0-22.0,58476,List1A,white,man,,,,,"{""Q0"":3}",,,likert_ESS
13189,,,survey-likert,407,2308980,0.0-23.0,58476,List1A,white,man,,,,,"{""Q0"":4}",,,likert_NSSAL_Q1
5294,,,survey-likert,408,2314278,0.0-24.0,58476,List1A,white,man,,,,,"{""Q0"":4}",,,likert_NSSAL_Q2
8930,,,survey-likert,409,2323213,0.0-25.0,58476,List1A,white,man,,,,,"{""Q0"":4}",,,likert_CGRS_Q1
4511,,,survey-likert,410,2327732,0.0-26.0,58476,List1A,white,man,,,,,"{""Q0"":3}",,,likert_CGRS_Q2
5834,,,survey-likert,411,2333570,0.0-27.0,58476,List1A,white,man,,,,,"{""Q0"":3}",,,likert_CGRS_Q3
5674,,,survey-text,412,2339247,0.0-28.0,58476,List1A,white,man,,,,,"{""Q0"":""ccc""}",,,worker_id
32320,,,external-html,413,2371647,0.0-29.0,58476,List1A,white,man,debrief.html,,,,,,,
