rt,stimulus,button_pressed,trial_type,trial_index,time_elapsed,internal_node_id,subject,list,ppt_race,ppt_gender,url,first_guess,correct,key_press,responses,image_type,phrase_type,test_part
2077,Welcome to the experiment. Press Continue to begin.,0,html-button-response,0,2089,0.0-0.0,60110,List2B,black,man,,,,,,,,
7311,,,external-html,1,10941,0.0-1.0,60110,List2B,black,man,consent.html,,,,,,,
67809,"<p>On the next page, you will see portraits of 8 people and their names.</p><p>Your first task is to take a few minutes to memorise the names of these people.</p><p>You will have to recall their names during the rest of the experiment, so it is</p><p>essential that you try to memorise these people and their names as best as you can.</p><br><p><strong>You will then be tested on your memory of these names and portraits.</strong></p><br><p>The experiment will start after you have completed this memory test.</p><br><p>Ready?</p>",0,html-button-response,2,78764,0.0-2.0,60110,List2B,black,man,,,,,,,,
15007,"<img src='img/portrait_matrix_list2.jpg' style='width:900px;height:500px;''></img><p>If you have memorised all the portraits and names and are ready to start, press Continue.</p><p><strong>Please note: Your memory of these faces will be tested 4 times during this experiment.</strong></p>",0,html-button-response,3,94778,0.0-3.0-0.0,60110,List2B,black,man,,,,,,,,
6467,"<img src=""portrait/BM1.jpg""style=""height:400px;""></img>",4,html-button-response,4,102252,0.0-3.0-1.0,60110,List2B,black,man,,TRUE,4,,,,,
null,CORRECT,,html-keyboard-response,5,103759,0.0-3.0-2.0-0.0,60110,List2B,black,man,,,,null,,,,
4716,"<img src=""portrait/BW1.jpg""style=""height:400px;""></img>",0,html-button-response,6,108480,0.0-3.0-4.0,60110,List2B,black,man,,TRUE,0,,,,,
null,CORRECT,,html-keyboard-response,7,109984,0.0-3.0-5.0-0.0,60110,List2B,black,man,,,,null,,,,
4559,"<img src=""portrait/BM2.jpg""style=""height:400px;""></img>",5,html-button-response,8,114548,0.0-3.0-7.0,60110,List2B,black,man,,TRUE,5,,,,,
null,CORRECT,,html-keyboard-response,9,116054,0.0-3.0-8.0-0.0,60110,List2B,black,man,,,,null,,,,
4608,"<img src=""portrait/BW2.jpg""style=""height:400px;""></img>",2,html-button-response,10,120666,0.0-3.0-10.0,60110,List2B,black,man,,TRUE,2,,,,,
null,CORRECT,,html-keyboard-response,11,122170,0.0-3.0-11.0-0.0,60110,List2B,black,man,,,,null,,,,
4419,"<img src=""portrait/WW2.jpg""style=""height:400px;""></img>",3,html-button-response,12,126594,0.0-3.0-13.0,60110,List2B,black,man,,TRUE,3,,,,,
null,CORRECT,,html-keyboard-response,13,128099,0.0-3.0-14.0-0.0,60110,List2B,black,man,,,,null,,,,
6139,"<img src=""portrait/WM1.jpg""style=""height:400px;""></img>",6,html-button-response,14,134242,0.0-3.0-16.0,60110,List2B,black,man,,TRUE,6,,,,,
null,CORRECT,,html-keyboard-response,15,135748,0.0-3.0-17.0-0.0,60110,List2B,black,man,,,,null,,,,
6303,"<img src=""portrait/WM2.jpg""style=""height:400px;""></img>",7,html-button-response,16,142054,0.0-3.0-19.0,60110,List2B,black,man,,TRUE,7,,,,,
null,CORRECT,,html-keyboard-response,17,143559,0.0-3.0-20.0-0.0,60110,List2B,black,man,,,,null,,,,
21469,"<img src=""portrait/WW1.jpg""style=""height:400px;""></img>",1,html-button-response,18,165033,0.0-3.0-22.0,60110,List2B,black,man,,TRUE,1,,,,,
null,CORRECT,,html-keyboard-response,19,166538,0.0-3.0-23.0-0.0,60110,List2B,black,man,,,,null,,,,
2795,<p>You got 8 out of 8 right first time. Press Continue.</p>,0,html-button-response,20,169337,0.0-3.0-25.0,60110,List2B,black,man,,,,,,,,
24840,"<p>In this experiment, you will view photographs of the people from the memory game interacting.</p><p>By using the <strong>exact</strong> phrase given <i>after</i> the photograph appears and recalling the correct names of the people in the photographs, form a sentence describing the interaction. You do not need to capitalise names.</p><p>Type your answer in the space provided. Please complete every sentence before moving onto the next trial.</p><p>You will only have a few seconds to memorise each given photograph and phrase before you can respond, so try your best to focus.</p><p>An example is given below. Press 'Continue' when you are ready.</p><img src='img/speaking_example.jpg' style='width:800px;height:460px;''></img>",0,html-button-response,21,195185,0.0-4.0,60110,List2B,black,man,,,,,,,,
1774,"<p>Before the experiment starts, you will watch two example trials. Press 'Continue'.</p>",0,html-button-response,22,197964,0.0-5.0,60110,List2B,black,man,,,,,,,,
null,<img src='img/meet_eg.gif' style='height:400px;''></img>,,html-keyboard-response,23,200969,0.0-6.0,60110,List2B,black,man,,,,null,,,,
null,<p>is meeting</p>,,html-keyboard-response,24,202971,0.0-7.0,60110,List2B,black,man,,,,null,,,,
3072,<p><b>Answer:</b> jane is meeting ruth</p>,0,html-button-response,25,206045,0.0-8.0,60110,List2B,black,man,,,,,,,,
null,<img src='img/look_eg.gif' style='height:400px;''></img>,,html-keyboard-response,26,209052,0.0-9.0,60110,List2B,black,man,,,,null,,,,
null,<p>are looking at each other</p>,,html-keyboard-response,27,211054,0.0-10.0,60110,List2B,black,man,,,,null,,,,
1890,<p><b>Answer:</b> fred and mike are looking at each other</p>,0,html-button-response,28,212948,0.0-11.0,60110,List2B,black,man,,,,,,,,
9944,"<p>Ready to start the experiment?</p><br><p><strong>Remember to describe the picture using a full sentence,</strong></p><p><strong>that combines the names of the people with the <i>exact</i> phrase given.</strong></p><p><strong>To receive full payment you must do this correctly.</strong></p><p><strong> You do not need to capitalise names or use punctuation.</strong></p><br><p>Press 'Continue' to begin.</p>",0,html-button-response,29,223897,0.0-12.0,60110,List2B,black,man,,,,,,,,
null,"<div style=""font-size:60px;"">+</div>",,html-keyboard-response,30,225402,0.0-13.0-0.0,60110,List2B,black,man,,,,null,,,,
null,"<img src=""stim_listB/marry6.gif""style=""height:400px;""></stim_listB>",,html-keyboard-response,31,227406,0.0-13.0-1.0,60110,List2B,black,man,,,,null,,,,
null,are marrying each other,,html-keyboard-response,32,229410,0.0-13.0-2.0,60110,List2B,black,man,,,,null,,,,
15820,,,survey-text,33,245234,0.0-13.0-3.0,60110,List2B,black,man,,,,,"{""Q0"":""luke and mike are marrying each other""}","<img src=""stim_listB/marry6.gif""style=""height:400px;""></stim_listB>",are marrying each other,
null,"<div style=""font-size:60px;"">+</div>",,html-keyboard-response,34,245741,0.0-13.0-0.1,60110,List2B,black,man,,,,null,,,,
null,"<img src=""stim_listB/marry2.gif""style=""height:400px;""></stim_listB>",,html-keyboard-response,35,247744,0.0-13.0-1.1,60110,List2B,black,man,,,,null,,,,
null,are marrying each other,,html-keyboard-response,36,249747,0.0-13.0-2.1,60110,List2B,black,man,,,,null,,,,
12451,,,survey-text,37,262201,0.0-13.0-3.1,60110,List2B,black,man,,,,,"{""Q0"":""dave and ruth are marrying each other""}","<img src=""stim_listB/marry2.gif""style=""height:400px;""></stim_listB>",are marrying each other,
null,"<div style=""font-size:60px;"">+</div>",,html-keyboard-response,38,262705,0.0-13.0-0.2,60110,List2B,black,man,,,,null,,,,
null,"<img src=""stim_listB/shout8.gif""style=""height:400px;""></stim_listB>",,html-keyboard-response,39,264710,0.0-13.0-1.2,60110,List2B,black,man,,,,null,,,,
null,are shouting at each other,,html-keyboard-response,40,266714,0.0-13.0-2.2,60110,List2B,black,man,,,,null,,,,
14284,,,survey-text,41,281000,0.0-13.0-3.2,60110,List2B,black,man,,,,,"{""Q0"":""kate and jane are shouting at each other ""}","<img src=""stim_listB/shout8.gif""style=""height:400px;""></stim_listB>",are shouting at each other,
null,"<div style=""font-size:60px;"">+</div>",,html-keyboard-response,42,281505,0.0-13.0-0.3,60110,List2B,black,man,,,,null,,,,
null,"<img src=""stim_listB/argue8.gif""style=""height:400px;""></stim_listB>",,html-keyboard-response,43,283508,0.0-13.0-1.3,60110,List2B,black,man,,,,null,,,,
null,are arguing with each other,,html-keyboard-response,44,285512,0.0-13.0-2.3,60110,List2B,black,man,,,,null,,,,
9584,,,survey-text,45,295098,0.0-13.0-3.3,60110,List2B,black,man,,,,,"{""Q0"":""kate and ruth are arguing with each other""}","<img src=""stim_listB/argue8.gif""style=""height:400px;""></stim_listB>",are arguing with each other,
null,"<div style=""font-size:60px;"">+</div>",,html-keyboard-response,46,295603,0.0-13.0-0.4,60110,List2B,black,man,,,,null,,,,
null,"<img src=""stim_listB/argue3.gif""style=""height:400px;""></stim_listB>",,html-keyboard-response,47,297606,0.0-13.0-1.4,60110,List2B,black,man,,,,null,,,,
null,is arguing with,,html-keyboard-response,48,299609,0.0-13.0-2.4,60110,List2B,black,man,,,,null,,,,
8761,,,survey-text,49,308372,0.0-13.0-3.4,60110,List2B,black,man,,,,,"{""Q0"":""beth is arguing with mike""}","<img src=""stim_listB/argue3.gif""style=""height:400px;""></stim_listB>",is arguing with,
null,"<div style=""font-size:60px;"">+</div>",,html-keyboard-response,50,308876,0.0-13.0-0.5,60110,List2B,black,man,,,,null,,,,
null,"<img src=""stim_listB/play4.gif""style=""height:400px;""></stim_listB>",,html-keyboard-response,51,310879,0.0-13.0-1.5,60110,List2B,black,man,,,,null,,,,
null,are playing with each other,,html-keyboard-response,52,312881,0.0-13.0-2.5,60110,List2B,black,man,,,,null,,,,
13828,,,survey-text,53,326712,0.0-13.0-3.5,60110,List2B,black,man,,,,,"{""Q0"":""beth and fred are playing with each other ""}","<img src=""stim_listB/play4.gif""style=""height:400px;""></stim_listB>",are playing with each other,
null,"<div style=""font-size:60px;"">+</div>",,html-keyboard-response,54,327217,0.0-13.0-0.6,60110,List2B,black,man,,,,null,,,,
null,"<img src=""stim_listB/touch6.gif""style=""height:400px;""></stim_listB>",,html-keyboard-response,55,329222,0.0-13.0-1.6,60110,List2B,black,man,,,,null,,,,
null,are touching each other,,html-keyboard-response,56,331224,0.0-13.0-2.6,60110,List2B,black,man,,,,null,,,,
27520,,,survey-text,57,358748,0.0-13.0-3.6,60110,List2B,black,man,,,,,"{""Q0"":""luke and fred are touching each other""}","<img src=""stim_listB/touch6.gif""style=""height:400px;""></stim_listB>",are touching each other,
null,"<div style=""font-size:60px;"">+</div>",,html-keyboard-response,58,359256,0.0-13.0-0.7,60110,List2B,black,man,,,,null,,,,
null,"<img src=""stim_listB/kiss8.gif""style=""height:400px;""></stim_listB>",,html-keyboard-response,59,361260,0.0-13.0-1.7,60110,List2B,black,man,,,,null,,,,
null,are kissing each other,,html-keyboard-response,60,363262,0.0-13.0-2.7,60110,List2B,black,man,,,,null,,,,
9594,,,survey-text,61,372860,0.0-13.0-3.7,60110,List2B,black,man,,,,,"{""Q0"":""jane and kate are kissing each other""}","<img src=""stim_listB/kiss8.gif""style=""height:400px;""></stim_listB>",are kissing each other,
null,"<div style=""font-size:60px;"">+</div>",,html-keyboard-response,62,373366,0.0-13.0-0.8,60110,List2B,black,man,,,,null,,,,
null,"<img src=""stim_listB/dance7.gif""style=""height:400px;""></stim_listB>",,html-keyboard-response,63,375371,0.0-13.0-1.8,60110,List2B,black,man,,,,null,,,,
null,is dancing with,,html-keyboard-response,64,377375,0.0-13.0-2.8,60110,List2B,black,man,,,,null,,,,
11110,,,survey-text,65,388490,0.0-13.0-3.8,60110,List2B,black,man,,,,,"{""Q0"":""ruth is dancing with jane""}","<img src=""stim_listB/dance7.gif""style=""height:400px;""></stim_listB>",is dancing with,
null,"<div style=""font-size:60px;"">+</div>",,html-keyboard-response,66,389002,0.0-13.0-0.9,60110,List2B,black,man,,,,null,,,,
null,"<img src=""stim_listB/kiss1.gif""style=""height:400px;""></stim_listB>",,html-keyboard-response,67,391007,0.0-13.0-1.9,60110,List2B,black,man,,,,null,,,,
null,is kissing,,html-keyboard-response,68,393014,0.0-13.0-2.9,60110,List2B,black,man,,,,null,,,,
9701,,,survey-text,69,402719,0.0-13.0-3.9,60110,List2B,black,man,,,,,"{""Q0"":""luke is kissing ruth""}","<img src=""stim_listB/kiss1.gif""style=""height:400px;""></stim_listB>",is kissing,
null,"<div style=""font-size:60px;"">+</div>",,html-keyboard-response,70,403224,0.0-13.0-0.10,60110,List2B,black,man,,,,null,,,,
null,"<img src=""stim_listB/dance4.gif""style=""height:400px;""></stim_listB>",,html-keyboard-response,71,405230,0.0-13.0-1.10,60110,List2B,black,man,,,,null,,,,
null,are dancing with each other,,html-keyboard-response,72,407234,0.0-13.0-2.10,60110,List2B,black,man,,,,null,,,,
16320,,,survey-text,73,423559,0.0-13.0-3.10,60110,List2B,black,man,,,,,"{""Q0"":""mike and beth are dancing with each other""}","<img src=""stim_listB/dance4.gif""style=""height:400px;""></stim_listB>",are dancing with each other,
null,"<div style=""font-size:60px;"">+</div>",,html-keyboard-response,74,424067,0.0-13.0-0.11,60110,List2B,black,man,,,,null,,,,
null,"<img src=""stim_listB/touch8.gif""style=""height:400px;""></stim_listB>",,html-keyboard-response,75,426070,0.0-13.0-1.11,60110,List2B,black,man,,,,null,,,,
null,are touching each other,,html-keyboard-response,76,428073,0.0-13.0-2.11,60110,List2B,black,man,,,,null,,,,
9617,,,survey-text,77,437696,0.0-13.0-3.11,60110,List2B,black,man,,,,,"{""Q0"":""beth and ruth are touching each other""}","<img src=""stim_listB/touch8.gif""style=""height:400px;""></stim_listB>",are touching each other,
null,"<div style=""font-size:60px;"">+</div>",,html-keyboard-response,78,438203,0.0-13.0-0.12,60110,List2B,black,man,,,,null,,,,
null,"<img src=""stim_listB/marry3.gif""style=""height:400px;""></stim_listB>",,html-keyboard-response,79,440207,0.0-13.0-1.12,60110,List2B,black,man,,,,null,,,,
null,is marrying,,html-keyboard-response,80,442211,0.0-13.0-2.12,60110,List2B,black,man,,,,null,,,,
11081,,,survey-text,81,453296,0.0-13.0-3.12,60110,List2B,black,man,,,,,"{""Q0"":""beth and mike are marrying each other""}","<img src=""stim_listB/marry3.gif""style=""height:400px;""></stim_listB>",is marrying,
null,"<div style=""font-size:60px;"">+</div>",,html-keyboard-response,82,453803,0.0-13.0-0.13,60110,List2B,black,man,,,,null,,,,
null,"<img src=""stim_listB/dance6.gif""style=""height:400px;""></stim_listB>",,html-keyboard-response,83,455808,0.0-13.0-1.13,60110,List2B,black,man,,,,null,,,,
null,are dancing with each other,,html-keyboard-response,84,457810,0.0-13.0-2.13,60110,List2B,black,man,,,,null,,,,
16569,,,survey-text,85,474383,0.0-13.0-3.13,60110,List2B,black,man,,,,,"{""Q0"":""fred and dave are dancing with each other""}","<img src=""stim_listB/dance6.gif""style=""height:400px;""></stim_listB>",are dancing with each other,
null,"<div style=""font-size:60px;"">+</div>",,html-keyboard-response,86,474888,0.0-13.0-0.14,60110,List2B,black,man,,,,null,,,,
null,"<img src=""stim_listB/touch5.gif""style=""height:400px;""></stim_listB>",,html-keyboard-response,87,476897,0.0-13.0-1.14,60110,List2B,black,man,,,,null,,,,
null,is touching,,html-keyboard-response,88,478901,0.0-13.0-2.14,60110,List2B,black,man,,,,null,,,,
8409,,,survey-text,89,487314,0.0-13.0-3.14,60110,List2B,black,man,,,,,"{""Q0"":""mike is touching dave""}","<img src=""stim_listB/touch5.gif""style=""height:400px;""></stim_listB>",is touching,
null,"<div style=""font-size:60px;"">+</div>",,html-keyboard-response,90,487819,0.0-13.0-0.15,60110,List2B,black,man,,,,null,,,,
null,"<img src=""stim_listB/touch3.gif""style=""height:400px;""></stim_listB>",,html-keyboard-response,91,489825,0.0-13.0-1.15,60110,List2B,black,man,,,,null,,,,
null,is touching,,html-keyboard-response,92,491833,0.0-13.0-2.15,60110,List2B,black,man,,,,null,,,,
8741,,,survey-text,93,500576,0.0-13.0-3.15,60110,List2B,black,man,,,,,"{""Q0"":""kate is touching mike ""}","<img src=""stim_listB/touch3.gif""style=""height:400px;""></stim_listB>",is touching,
null,"<div style=""font-size:60px;"">+</div>",,html-keyboard-response,94,501079,0.0-13.0-0.16,60110,List2B,black,man,,,,null,,,,
null,"<img src=""stim_listB/marry8.gif""style=""height:400px;""></stim_listB>",,html-keyboard-response,95,503083,0.0-13.0-1.16,60110,List2B,black,man,,,,null,,,,
null,are marrying each other,,html-keyboard-response,96,505088,0.0-13.0-2.16,60110,List2B,black,man,,,,null,,,,
10052,,,survey-text,97,515144,0.0-13.0-3.16,60110,List2B,black,man,,,,,"{""Q0"":""kate is marrying ruth""}","<img src=""stim_listB/marry8.gif""style=""height:400px;""></stim_listB>",are marrying each other,
null,"<div style=""font-size:60px;"">+</div>",,html-keyboard-response,98,515648,0.0-13.0-0.17,60110,List2B,black,man,,,,null,,,,
null,"<img src=""stim_listB/shout6.gif""style=""height:400px;""></stim_listB>",,html-keyboard-response,99,517652,0.0-13.0-1.17,60110,List2B,black,man,,,,null,,,,
null,are shouting at each other,,html-keyboard-response,100,519656,0.0-13.0-2.17,60110,List2B,black,man,,,,null,,,,
10266,,,survey-text,101,529930,0.0-13.0-3.17,60110,List2B,black,man,,,,,"{""Q0"":""mike and dave are shouting at each other""}","<img src=""stim_listB/shout6.gif""style=""height:400px;""></stim_listB>",are shouting at each other,
null,"<div style=""font-size:60px;"">+</div>",,html-keyboard-response,102,530435,0.0-13.0-0.18,60110,List2B,black,man,,,,null,,,,
null,"<img src=""stim_listB/dance8.gif""style=""height:400px;""></stim_listB>",,html-keyboard-response,103,532443,0.0-13.0-1.18,60110,List2B,black,man,,,,null,,,,
null,are dancing with each other,,html-keyboard-response,104,534447,0.0-13.0-2.18,60110,List2B,black,man,,,,null,,,,
7769,,,survey-text,105,542219,0.0-13.0-3.18,60110,List2B,black,man,,,,,"{""Q0"":""beth and jane are dancing with each other""}","<img src=""stim_listB/dance8.gif""style=""height:400px;""></stim_listB>",are dancing with each other,
null,"<div style=""font-size:60px;"">+</div>",,html-keyboard-response,106,542728,0.0-13.0-0.19,60110,List2B,black,man,,,,null,,,,
null,"<img src=""stim_listB/talk5.gif""style=""height:400px;""></stim_listB>",,html-keyboard-response,107,544736,0.0-13.0-1.19,60110,List2B,black,man,,,,null,,,,
null,is talking to,,html-keyboard-response,108,546746,0.0-13.0-2.19,60110,List2B,black,man,,,,null,,,,
6439,,,survey-text,109,553188,0.0-13.0-3.19,60110,List2B,black,man,,,,,"{""Q0"":""luke is talking to mike""}","<img src=""stim_listB/talk5.gif""style=""height:400px;""></stim_listB>",is talking to,
8179,"<img src='img/portrait_matrix_list2.jpg' style='width:900px;height:500px;''></img><p>If you have memorised all the portraits and names and are ready to start, press Continue.</p><p><strong>Please note: Your memory of these faces will be tested 4 times during this experiment.</strong></p>",0,html-button-response,110,561374,0.0-14.0-0.0,60110,List2B,black,man,,,,,,,,
3988,"<img src=""portrait/BM2.jpg""style=""height:400px;""></img>",5,html-button-response,111,566370,0.0-14.0-1.0,60110,List2B,black,man,,TRUE,5,,,,,
null,CORRECT,,html-keyboard-response,112,567875,0.0-14.0-2.0-0.0,60110,List2B,black,man,,,,null,,,,
4249,"<img src=""portrait/BM1.jpg""style=""height:400px;""></img>",4,html-button-response,113,572131,0.0-14.0-4.0,60110,List2B,black,man,,TRUE,4,,,,,
null,CORRECT,,html-keyboard-response,114,573636,0.0-14.0-5.0-0.0,60110,List2B,black,man,,,,null,,,,
3819,"<img src=""portrait/WM1.jpg""style=""height:400px;""></img>",6,html-button-response,115,577463,0.0-14.0-7.0,60110,List2B,black,man,,TRUE,6,,,,,
null,CORRECT,,html-keyboard-response,116,578968,0.0-14.0-8.0-0.0,60110,List2B,black,man,,,,null,,,,
2898,"<img src=""portrait/WM2.jpg""style=""height:400px;""></img>",7,html-button-response,117,581871,0.0-14.0-10.0,60110,List2B,black,man,,TRUE,7,,,,,
null,CORRECT,,html-keyboard-response,118,583378,0.0-14.0-11.0-0.0,60110,List2B,black,man,,,,null,,,,
4273,"<img src=""portrait/BW1.jpg""style=""height:400px;""></img>",0,html-button-response,119,587655,0.0-14.0-13.0,60110,List2B,black,man,,TRUE,0,,,,,
null,CORRECT,,html-keyboard-response,120,589162,0.0-14.0-14.0-0.0,60110,List2B,black,man,,,,null,,,,
4424,"<img src=""portrait/WW1.jpg""style=""height:400px;""></img>",1,html-button-response,121,593593,0.0-14.0-16.0,60110,List2B,black,man,,TRUE,1,,,,,
null,CORRECT,,html-keyboard-response,122,595103,0.0-14.0-17.0-0.0,60110,List2B,black,man,,,,null,,,,
7021,"<img src=""portrait/WW2.jpg""style=""height:400px;""></img>",3,html-button-response,123,602130,0.0-14.0-19.0,60110,List2B,black,man,,TRUE,3,,,,,
null,CORRECT,,html-keyboard-response,124,603634,0.0-14.0-20.0-0.0,60110,List2B,black,man,,,,null,,,,
3346,"<img src=""portrait/BW2.jpg""style=""height:400px;""></img>",2,html-button-response,125,606988,0.0-14.0-22.0,60110,List2B,black,man,,TRUE,2,,,,,
null,CORRECT,,html-keyboard-response,126,608497,0.0-14.0-23.0-0.0,60110,List2B,black,man,,,,null,,,,
1346,<p>You got 8 out of 8 right first time. Press Continue.</p>,0,html-button-response,127,609848,0.0-14.0-25.0,60110,List2B,black,man,,,,,,,,
null,"<div style=""font-size:60px;"">+</div>",,html-keyboard-response,128,611355,0.0-15.0-0.0,60110,List2B,black,man,,,,null,,,,
null,"<img src=""stim_listB/fight1.gif""style=""height:400px;""></stim_listB>",,html-keyboard-response,129,613360,0.0-15.0-1.0,60110,List2B,black,man,,,,null,,,,
null,is fighting,,html-keyboard-response,130,615365,0.0-15.0-2.0,60110,List2B,black,man,,,,null,,,,
13222,,,survey-text,131,628591,0.0-15.0-3.0,60110,List2B,black,man,,,,,"{""Q0"":""jane is fighting dave""}","<img src=""stim_listB/fight1.gif""style=""height:400px;""></stim_listB>",is fighting,
null,"<div style=""font-size:60px;"">+</div>",,html-keyboard-response,132,629099,0.0-15.0-0.1,60110,List2B,black,man,,,,null,,,,
null,"<img src=""stim_listB/fight4.gif""style=""height:400px;""></stim_listB>",,html-keyboard-response,133,631109,0.0-15.0-1.1,60110,List2B,black,man,,,,null,,,,
null,are fighting each other,,html-keyboard-response,134,633118,0.0-15.0-2.1,60110,List2B,black,man,,,,null,,,,
9437,,,survey-text,135,642592,0.0-15.0-3.1,60110,List2B,black,man,,,,,"{""Q0"":""beth and fred are fighting each other""}","<img src=""stim_listB/fight4.gif""style=""height:400px;""></stim_listB>",are fighting each other,
null,"<div style=""font-size:60px;"">+</div>",,html-keyboard-response,136,643099,0.0-15.0-0.2,60110,List2B,black,man,,,,null,,,,
null,"<img src=""stim_listB/argue7.gif""style=""height:400px;""></stim_listB>",,html-keyboard-response,137,645103,0.0-15.0-1.2,60110,List2B,black,man,,,,null,,,,
null,is arguing with,,html-keyboard-response,138,647107,0.0-15.0-2.2,60110,List2B,black,man,,,,null,,,,
9156,,,survey-text,139,656266,0.0-15.0-3.2,60110,List2B,black,man,,,,,"{""Q0"":""jane is arguing with beth""}","<img src=""stim_listB/argue7.gif""style=""height:400px;""></stim_listB>",is arguing with,
null,"<div style=""font-size:60px;"">+</div>",,html-keyboard-response,140,656773,0.0-15.0-0.3,60110,List2B,black,man,,,,null,,,,
null,"<img src=""stim_listB/play5.gif""style=""height:400px;""></stim_listB>",,html-keyboard-response,141,658777,0.0-15.0-1.3,60110,List2B,black,man,,,,null,,,,
null,is playing with,,html-keyboard-response,142,660783,0.0-15.0-2.3,60110,List2B,black,man,,,,null,,,,
35923,,,survey-text,143,696709,0.0-15.0-3.3,60110,List2B,black,man,,,,,"{""Q0"":""mike is playing with dave""}","<img src=""stim_listB/play5.gif""style=""height:400px;""></stim_listB>",is playing with,
null,"<div style=""font-size:60px;"">+</div>",,html-keyboard-response,144,697214,0.0-15.0-0.4,60110,List2B,black,man,,,,null,,,,
null,"<img src=""stim_listB/marry4.gif""style=""height:400px;""></stim_listB>",,html-keyboard-response,145,699217,0.0-15.0-1.4,60110,List2B,black,man,,,,null,,,,
null,are marrying each other,,html-keyboard-response,146,701221,0.0-15.0-2.4,60110,List2B,black,man,,,,null,,,,
14638,,,survey-text,147,715862,0.0-15.0-3.4,60110,List2B,black,man,,,,,"{""Q0"":""kate and fred are marrying each other""}","<img src=""stim_listB/marry4.gif""style=""height:400px;""></stim_listB>",are marrying each other,
null,"<div style=""font-size:60px;"">+</div>",,html-keyboard-response,148,716365,0.0-15.0-0.5,60110,List2B,black,man,,,,null,,,,
null,"<img src=""stim_listB/shout3.gif""style=""height:400px;""></stim_listB>",,html-keyboard-response,149,718369,0.0-15.0-1.5,60110,List2B,black,man,,,,null,,,,
null,is shouting at,,html-keyboard-response,150,720373,0.0-15.0-2.5,60110,List2B,black,man,,,,null,,,,
7039,,,survey-text,151,727415,0.0-15.0-3.5,60110,List2B,black,man,,,,,"{""Q0"":""beth is shouting at fred""}","<img src=""stim_listB/shout3.gif""style=""height:400px;""></stim_listB>",is shouting at,
null,"<div style=""font-size:60px;"">+</div>",,html-keyboard-response,152,727919,0.0-15.0-0.6,60110,List2B,black,man,,,,null,,,,
null,"<img src=""stim_listB/kiss2.gif""style=""height:400px;""></stim_listB>",,html-keyboard-response,153,729922,0.0-15.0-1.6,60110,List2B,black,man,,,,null,,,,
null,are kissing each other,,html-keyboard-response,154,731924,0.0-15.0-2.6,60110,List2B,black,man,,,,null,,,,
9821,,,survey-text,155,741748,0.0-15.0-3.6,60110,List2B,black,man,,,,,"{""Q0"":""jane and dave are kissing each other""}","<img src=""stim_listB/kiss2.gif""style=""height:400px;""></stim_listB>",are kissing each other,
null,"<div style=""font-size:60px;"">+</div>",,html-keyboard-response,156,742253,0.0-15.0-0.7,60110,List2B,black,man,,,,null,,,,
null,"<img src=""stim_listB/flirt7.gif""style=""height:400px;""></stim_listB>",,html-keyboard-response,157,744257,0.0-15.0-1.7,60110,List2B,black,man,,,,null,,,,
null,is flirting with,,html-keyboard-response,158,746262,0.0-15.0-2.7,60110,List2B,black,man,,,,null,,,,
10193,,,survey-text,159,756458,0.0-15.0-3.7,60110,List2B,black,man,,,,,"{""Q0"":""kate is flirting with ruth""}","<img src=""stim_listB/flirt7.gif""style=""height:400px;""></stim_listB>",is flirting with,
null,"<div style=""font-size:60px;"">+</div>",,html-keyboard-response,160,756962,0.0-15.0-0.8,60110,List2B,black,man,,,,null,,,,
null,"<img src=""stim_listB/flirt6.gif""style=""height:400px;""></stim_listB>",,html-keyboard-response,161,758966,0.0-15.0-1.8,60110,List2B,black,man,,,,null,,,,
null,are flirting with each other,,html-keyboard-response,162,760969,0.0-15.0-2.8,60110,List2B,black,man,,,,null,,,,
10617,,,survey-text,163,771588,0.0-15.0-3.8,60110,List2B,black,man,,,,,"{""Q0"":""fred and dave are flirting with each other""}","<img src=""stim_listB/flirt6.gif""style=""height:400px;""></stim_listB>",are flirting with each other,
null,"<div style=""font-size:60px;"">+</div>",,html-keyboard-response,164,772092,0.0-15.0-0.9,60110,List2B,black,man,,,,null,,,,
null,"<img src=""stim_listB/argue2.gif""style=""height:400px;""></stim_listB>",,html-keyboard-response,165,774096,0.0-15.0-1.9,60110,List2B,black,man,,,,null,,,,
null,are arguing with each other,,html-keyboard-response,166,776099,0.0-15.0-2.9,60110,List2B,black,man,,,,null,,,,
9947,,,survey-text,167,786048,0.0-15.0-3.9,60110,List2B,black,man,,,,,"{""Q0"":""luke and jane are arguing with each other""}","<img src=""stim_listB/argue2.gif""style=""height:400px;""></stim_listB>",are arguing with each other,
null,"<div style=""font-size:60px;"">+</div>",,html-keyboard-response,168,786551,0.0-15.0-0.10,60110,List2B,black,man,,,,null,,,,
null,"<img src=""stim_listB/marry1.gif""style=""height:400px;""></stim_listB>",,html-keyboard-response,169,788555,0.0-15.0-1.10,60110,List2B,black,man,,,,null,,,,
null,is marrying,,html-keyboard-response,170,790557,0.0-15.0-2.10,60110,List2B,black,man,,,,null,,,,
11802,,,survey-text,171,802361,0.0-15.0-3.10,60110,List2B,black,man,,,,,"{""Q0"":""dave and ruth are marrying each other""}","<img src=""stim_listB/marry1.gif""style=""height:400px;""></stim_listB>",is marrying,
null,"<div style=""font-size:60px;"">+</div>",,html-keyboard-response,172,802865,0.0-15.0-0.11,60110,List2B,black,man,,,,null,,,,
null,"<img src=""stim_listB/talk8.gif""style=""height:400px;""></stim_listB>",,html-keyboard-response,173,804870,0.0-15.0-1.11,60110,List2B,black,man,,,,null,,,,
null,are talking to each other,,html-keyboard-response,174,806872,0.0-15.0-2.11,60110,List2B,black,man,,,,null,,,,
11313,,,survey-text,175,818187,0.0-15.0-3.11,60110,List2B,black,man,,,,,"{""Q0"":""beth and jane are talking to each other""}","<img src=""stim_listB/talk8.gif""style=""height:400px;""></stim_listB>",are talking to each other,
null,"<div style=""font-size:60px;"">+</div>",,html-keyboard-response,176,818692,0.0-15.0-0.12,60110,List2B,black,man,,,,null,,,,
null,"<img src=""stim_listB/argue6.gif""style=""height:400px;""></stim_listB>",,html-keyboard-response,177,820695,0.0-15.0-1.12,60110,List2B,black,man,,,,null,,,,
null,are arguing with each other,,html-keyboard-response,178,822697,0.0-15.0-2.12,60110,List2B,black,man,,,,null,,,,
9785,,,survey-text,179,832486,0.0-15.0-3.12,60110,List2B,black,man,,,,,"{""Q0"":""luke and mike are arguing with each other""}","<img src=""stim_listB/argue6.gif""style=""height:400px;""></stim_listB>",are arguing with each other,
null,"<div style=""font-size:60px;"">+</div>",,html-keyboard-response,180,832989,0.0-15.0-0.13,60110,List2B,black,man,,,,null,,,,
null,"<img src=""stim_listB/shout4.gif""style=""height:400px;""></stim_listB>",,html-keyboard-response,181,834993,0.0-15.0-1.13,60110,List2B,black,man,,,,null,,,,
null,are shouting at each other,,html-keyboard-response,182,836995,0.0-15.0-2.13,60110,List2B,black,man,,,,null,,,,
13565,,,survey-text,183,850564,0.0-15.0-3.13,60110,List2B,black,man,,,,,"{""Q0"":""kate and mike are shouting at each other""}","<img src=""stim_listB/shout4.gif""style=""height:400px;""></stim_listB>",are shouting at each other,
null,"<div style=""font-size:60px;"">+</div>",,html-keyboard-response,184,851067,0.0-15.0-0.14,60110,List2B,black,man,,,,null,,,,
null,"<img src=""stim_listB/touch7.gif""style=""height:400px;""></stim_listB>",,html-keyboard-response,185,853071,0.0-15.0-1.14,60110,List2B,black,man,,,,null,,,,
null,is touching,,html-keyboard-response,186,855074,0.0-15.0-2.14,60110,List2B,black,man,,,,null,,,,
16442,,,survey-text,187,871518,0.0-15.0-3.14,60110,List2B,black,man,,,,,"{""Q0"":""jane is touching kate""}","<img src=""stim_listB/touch7.gif""style=""height:400px;""></stim_listB>",is touching,
null,"<div style=""font-size:60px;"">+</div>",,html-keyboard-response,188,872022,0.0-15.0-0.15,60110,List2B,black,man,,,,null,,,,
null,"<img src=""stim_listB/flirt5.gif""style=""height:400px;""></stim_listB>",,html-keyboard-response,189,874026,0.0-15.0-1.15,60110,List2B,black,man,,,,null,,,,
null,is flirting with,,html-keyboard-response,190,876028,0.0-15.0-2.15,60110,List2B,black,man,,,,null,,,,
9163,,,survey-text,191,885194,0.0-15.0-3.15,60110,List2B,black,man,,,,,"{""Q0"":""luke is flirting with mike""}","<img src=""stim_listB/flirt5.gif""style=""height:400px;""></stim_listB>",is flirting with,
null,"<div style=""font-size:60px;"">+</div>",,html-keyboard-response,192,885698,0.0-15.0-0.16,60110,List2B,black,man,,,,null,,,,
null,"<img src=""stim_listB/play1.gif""style=""height:400px;""></stim_listB>",,html-keyboard-response,193,887702,0.0-15.0-1.16,60110,List2B,black,man,,,,null,,,,
null,is playing with,,html-keyboard-response,194,889705,0.0-15.0-2.16,60110,List2B,black,man,,,,null,,,,
9239,,,survey-text,195,898946,0.0-15.0-3.16,60110,List2B,black,man,,,,,"{""Q0"":""jane is playing with dave""}","<img src=""stim_listB/play1.gif""style=""height:400px;""></stim_listB>",is playing with,
null,"<div style=""font-size:60px;"">+</div>",,html-keyboard-response,196,899451,0.0-15.0-0.17,60110,List2B,black,man,,,,null,,,,
null,"<img src=""stim_listB/talk6.gif""style=""height:400px;""></stim_listB>",,html-keyboard-response,197,901454,0.0-15.0-1.17,60110,List2B,black,man,,,,null,,,,
null,are talking to each other,,html-keyboard-response,198,903457,0.0-15.0-2.17,60110,List2B,black,man,,,,null,,,,
7677,,,survey-text,199,911136,0.0-15.0-3.17,60110,List2B,black,man,,,,,"{""Q0"":""fred and dave are talking to each other""}","<img src=""stim_listB/talk6.gif""style=""height:400px;""></stim_listB>",are talking to each other,
null,"<div style=""font-size:60px;"">+</div>",,html-keyboard-response,200,911640,0.0-15.0-0.18,60110,List2B,black,man,,,,null,,,,
null,"<img src=""stim_listB/dance5.gif""style=""height:400px;""></stim_listB>",,html-keyboard-response,201,913644,0.0-15.0-1.18,60110,List2B,black,man,,,,null,,,,
null,is dancing with,,html-keyboard-response,202,915659,0.0-15.0-2.18,60110,List2B,black,man,,,,null,,,,
9556,,,survey-text,203,925218,0.0-15.0-3.18,60110,List2B,black,man,,,,,"{""Q0"":""mike is dancing with luke""}","<img src=""stim_listB/dance5.gif""style=""height:400px;""></stim_listB>",is dancing with,
null,"<div style=""font-size:60px;"">+</div>",,html-keyboard-response,204,925722,0.0-15.0-0.19,60110,List2B,black,man,,,,null,,,,
null,"<img src=""stim_listB/kiss7.gif""style=""height:400px;""></stim_listB>",,html-keyboard-response,205,927724,0.0-15.0-1.19,60110,List2B,black,man,,,,null,,,,
null,is kissing,,html-keyboard-response,206,929727,0.0-15.0-2.19,60110,List2B,black,man,,,,null,,,,
6561,,,survey-text,207,936291,0.0-15.0-3.19,60110,List2B,black,man,,,,,"{""Q0"":""beth is kissing ruth""}","<img src=""stim_listB/kiss7.gif""style=""height:400px;""></stim_listB>",is kissing,
60192,"<img src='img/portrait_matrix_list2.jpg' style='width:900px;height:500px;''></img><p>If you have memorised all the portraits and names and are ready to start, press Continue.</p><p><strong>Please note: Your memory of these faces will be tested 4 times during this experiment.</strong></p>",0,html-button-response,208,996488,0.0-16.0-0.0,60110,List2B,black,man,,,,,,,,
4399,"<img src=""portrait/WW1.jpg""style=""height:400px;""></img>",1,html-button-response,209,1001894,0.0-16.0-1.0,60110,List2B,black,man,,TRUE,1,,,,,
null,CORRECT,,html-keyboard-response,210,1003398,0.0-16.0-2.0-0.0,60110,List2B,black,man,,,,null,,,,
3808,"<img src=""portrait/WM2.jpg""style=""height:400px;""></img>",7,html-button-response,211,1007211,0.0-16.0-4.0,60110,List2B,black,man,,TRUE,7,,,,,
null,CORRECT,,html-keyboard-response,212,1008716,0.0-16.0-5.0-0.0,60110,List2B,black,man,,,,null,,,,
3745,"<img src=""portrait/BM2.jpg""style=""height:400px;""></img>",5,html-button-response,213,1012466,0.0-16.0-7.0,60110,List2B,black,man,,TRUE,5,,,,,
null,CORRECT,,html-keyboard-response,214,1013971,0.0-16.0-8.0-0.0,60110,List2B,black,man,,,,null,,,,
3664,"<img src=""portrait/BM1.jpg""style=""height:400px;""></img>",4,html-button-response,215,1017639,0.0-16.0-10.0,60110,List2B,black,man,,TRUE,4,,,,,
null,CORRECT,,html-keyboard-response,216,1019151,0.0-16.0-11.0-0.0,60110,List2B,black,man,,,,null,,,,
3929,"<img src=""portrait/BW1.jpg""style=""height:400px;""></img>",0,html-button-response,217,1023085,0.0-16.0-13.0,60110,List2B,black,man,,TRUE,0,,,,,
null,CORRECT,,html-keyboard-response,218,1024611,0.0-16.0-14.0-0.0,60110,List2B,black,man,,,,null,,,,
7403,"<img src=""portrait/WM1.jpg""style=""height:400px;""></img>",6,html-button-response,219,1032025,0.0-16.0-16.0,60110,List2B,black,man,,TRUE,6,,,,,
null,CORRECT,,html-keyboard-response,220,1033529,0.0-16.0-17.0-0.0,60110,List2B,black,man,,,,null,,,,
3772,"<img src=""portrait/WW2.jpg""style=""height:400px;""></img>",3,html-button-response,221,1037308,0.0-16.0-19.0,60110,List2B,black,man,,TRUE,3,,,,,
null,CORRECT,,html-keyboard-response,222,1038813,0.0-16.0-20.0-0.0,60110,List2B,black,man,,,,null,,,,
3426,"<img src=""portrait/BW2.jpg""style=""height:400px;""></img>",2,html-button-response,223,1042244,0.0-16.0-22.0,60110,List2B,black,man,,TRUE,2,,,,,
null,CORRECT,,html-keyboard-response,224,1043748,0.0-16.0-23.0-0.0,60110,List2B,black,man,,,,null,,,,
7966,<p>You got 8 out of 8 right first time. Press Continue.</p>,0,html-button-response,225,1051717,0.0-16.0-25.0,60110,List2B,black,man,,,,,,,,
null,"<div style=""font-size:60px;"">+</div>",,html-keyboard-response,226,1053223,0.0-17.0-0.0,60110,List2B,black,man,,,,null,,,,
null,"<img src=""stim_listB/argue4.gif""style=""height:400px;""></stim_listB>",,html-keyboard-response,227,1055227,0.0-17.0-1.0,60110,List2B,black,man,,,,null,,,,
null,are arguing with each other,,html-keyboard-response,228,1057230,0.0-17.0-2.0,60110,List2B,black,man,,,,null,,,,
18156,,,survey-text,229,1075390,0.0-17.0-3.0,60110,List2B,black,man,,,,,"{""Q0"":""fred and kate are arguing with each other""}","<img src=""stim_listB/argue4.gif""style=""height:400px;""></stim_listB>",are arguing with each other,
null,"<div style=""font-size:60px;"">+</div>",,html-keyboard-response,230,1075894,0.0-17.0-0.1,60110,List2B,black,man,,,,null,,,,
null,"<img src=""stim_listB/flirt3.gif""style=""height:400px;""></stim_listB>",,html-keyboard-response,231,1077898,0.0-17.0-1.1,60110,List2B,black,man,,,,null,,,,
null,is flirting with,,html-keyboard-response,232,1079900,0.0-17.0-2.1,60110,List2B,black,man,,,,null,,,,
9459,,,survey-text,233,1089363,0.0-17.0-3.1,60110,List2B,black,man,,,,,"{""Q0"":""kate is flirting with fred""}","<img src=""stim_listB/flirt3.gif""style=""height:400px;""></stim_listB>",is flirting with,
null,"<div style=""font-size:60px;"">+</div>",,html-keyboard-response,234,1089870,0.0-17.0-0.2,60110,List2B,black,man,,,,null,,,,
null,"<img src=""stim_listB/fight2.gif""style=""height:400px;""></stim_listB>",,html-keyboard-response,235,1091873,0.0-17.0-1.2,60110,List2B,black,man,,,,null,,,,
null,are fighting each other,,html-keyboard-response,236,1093876,0.0-17.0-2.2,60110,List2B,black,man,,,,null,,,,
12901,,,survey-text,237,1106779,0.0-17.0-3.2,60110,List2B,black,man,,,,,"{""Q0"":""luke and ruth are fighting each other""}","<img src=""stim_listB/fight2.gif""style=""height:400px;""></stim_listB>",are fighting each other,
null,"<div style=""font-size:60px;"">+</div>",,html-keyboard-response,238,1107283,0.0-17.0-0.3,60110,List2B,black,man,,,,null,,,,
null,"<img src=""stim_listB/dance1.gif""style=""height:400px;""></stim_listB>",,html-keyboard-response,239,1109287,0.0-17.0-1.3,60110,List2B,black,man,,,,null,,,,
null,is dancing with,,html-keyboard-response,240,1111291,0.0-17.0-2.3,60110,List2B,black,man,,,,null,,,,
8595,,,survey-text,241,1119889,0.0-17.0-3.3,60110,List2B,black,man,,,,,"{""Q0"":""jane is dancing with luke""}","<img src=""stim_listB/dance1.gif""style=""height:400px;""></stim_listB>",is dancing with,
null,"<div style=""font-size:60px;"">+</div>",,html-keyboard-response,242,1120392,0.0-17.0-0.4,60110,List2B,black,man,,,,null,,,,
null,"<img src=""stim_listB/touch2.gif""style=""height:400px;""></stim_listB>",,html-keyboard-response,243,1122396,0.0-17.0-1.4,60110,List2B,black,man,,,,null,,,,
null,are touching each other,,html-keyboard-response,244,1124399,0.0-17.0-2.4,60110,List2B,black,man,,,,null,,,,
33727,,,survey-text,245,1158129,0.0-17.0-3.4,60110,List2B,black,man,,,,,"{""Q0"":""luke and ruth are touching each other""}","<img src=""stim_listB/touch2.gif""style=""height:400px;""></stim_listB>",are touching each other,
null,"<div style=""font-size:60px;"">+</div>",,html-keyboard-response,246,1158632,0.0-17.0-0.5,60110,List2B,black,man,,,,null,,,,
null,"<img src=""stim_listB/kiss3.gif""style=""height:400px;""></stim_listB>",,html-keyboard-response,247,1160636,0.0-17.0-1.5,60110,List2B,black,man,,,,null,,,,
null,is kissing,,html-keyboard-response,248,1162639,0.0-17.0-2.5,60110,List2B,black,man,,,,null,,,,
11339,,,survey-text,249,1173981,0.0-17.0-3.5,60110,List2B,black,man,,,,,"{""Q0"":""beth is kissing fred""}","<img src=""stim_listB/kiss3.gif""style=""height:400px;""></stim_listB>",is kissing,
null,"<div style=""font-size:60px;"">+</div>",,html-keyboard-response,250,1174485,0.0-17.0-0.6,60110,List2B,black,man,,,,null,,,,
null,"<img src=""stim_listB/play7.gif""style=""height:400px;""></stim_listB>",,html-keyboard-response,251,1176489,0.0-17.0-1.6,60110,List2B,black,man,,,,null,,,,
null,is playing with,,html-keyboard-response,252,1178492,0.0-17.0-2.6,60110,List2B,black,man,,,,null,,,,
7900,,,survey-text,253,1186396,0.0-17.0-3.6,60110,List2B,black,man,,,,,"{""Q0"":""jane is playing with kate""}","<img src=""stim_listB/play7.gif""style=""height:400px;""></stim_listB>",is playing with,
null,"<div style=""font-size:60px;"">+</div>",,html-keyboard-response,254,1186900,0.0-17.0-0.7,60110,List2B,black,man,,,,null,,,,
null,"<img src=""stim_listB/fight3.gif""style=""height:400px;""></stim_listB>",,html-keyboard-response,255,1188904,0.0-17.0-1.7,60110,List2B,black,man,,,,null,,,,
null,is fighting,,html-keyboard-response,256,1190906,0.0-17.0-2.7,60110,List2B,black,man,,,,null,,,,
6756,,,survey-text,257,1197665,0.0-17.0-3.7,60110,List2B,black,man,,,,,"{""Q0"":""mike is fighting kate""}","<img src=""stim_listB/fight3.gif""style=""height:400px;""></stim_listB>",is fighting,
null,"<div style=""font-size:60px;"">+</div>",,html-keyboard-response,258,1198168,0.0-17.0-0.8,60110,List2B,black,man,,,,null,,,,
null,"<img src=""stim_listB/talk7.gif""style=""height:400px;""></stim_listB>",,html-keyboard-response,259,1200172,0.0-17.0-1.8,60110,List2B,black,man,,,,null,,,,
null,is talking to,,html-keyboard-response,260,1202175,0.0-17.0-2.8,60110,List2B,black,man,,,,null,,,,
8295,,,survey-text,261,1210475,0.0-17.0-3.8,60110,List2B,black,man,,,,,"{""Q0"":""kate is talking to ruth""}","<img src=""stim_listB/talk7.gif""style=""height:400px;""></stim_listB>",is talking to,
null,"<div style=""font-size:60px;"">+</div>",,html-keyboard-response,262,1210979,0.0-17.0-0.9,60110,List2B,black,man,,,,null,,,,
null,"<img src=""stim_listB/talk2.gif""style=""height:400px;""></stim_listB>",,html-keyboard-response,263,1212983,0.0-17.0-1.9,60110,List2B,black,man,,,,null,,,,
null,are talking to each other,,html-keyboard-response,264,1214985,0.0-17.0-2.9,60110,List2B,black,man,,,,null,,,,
13141,,,survey-text,265,1228129,0.0-17.0-3.9,60110,List2B,black,man,,,,,"{""Q0"":""dave is talking to ruth""}","<img src=""stim_listB/talk2.gif""style=""height:400px;""></stim_listB>",are talking to each other,
null,"<div style=""font-size:60px;"">+</div>",,html-keyboard-response,266,1228633,0.0-17.0-0.10,60110,List2B,black,man,,,,null,,,,
null,"<img src=""stim_listB/touch4.gif""style=""height:400px;""></stim_listB>",,html-keyboard-response,267,1230637,0.0-17.0-1.10,60110,List2B,black,man,,,,null,,,,
null,are touching each other,,html-keyboard-response,268,1232640,0.0-17.0-2.10,60110,List2B,black,man,,,,null,,,,
10637,,,survey-text,269,1243280,0.0-17.0-3.10,60110,List2B,black,man,,,,,"{""Q0"":""beth and fred are touching each other""}","<img src=""stim_listB/touch4.gif""style=""height:400px;""></stim_listB>",are touching each other,
null,"<div style=""font-size:60px;"">+</div>",,html-keyboard-response,270,1243783,0.0-17.0-0.11,60110,List2B,black,man,,,,null,,,,
null,"<img src=""stim_listB/talk4.gif""style=""height:400px;""></stim_listB>",,html-keyboard-response,271,1245788,0.0-17.0-1.11,60110,List2B,black,man,,,,null,,,,
null,are talking to each other,,html-keyboard-response,272,1247791,0.0-17.0-2.11,60110,List2B,black,man,,,,null,,,,
527833,,,survey-text,273,1775628,0.0-17.0-3.11,60110,List2B,black,man,,,,,"{""Q0"":""mike and beth are talking to each other ""}","<img src=""stim_listB/talk4.gif""style=""height:400px;""></stim_listB>",are talking to each other,
null,"<div style=""font-size:60px;"">+</div>",,html-keyboard-response,274,1776141,0.0-17.0-0.12,60110,List2B,black,man,,,,null,,,,
null,"<img src=""stim_listB/flirt4.gif""style=""height:400px;""></stim_listB>",,html-keyboard-response,275,1778148,0.0-17.0-1.12,60110,List2B,black,man,,,,null,,,,
null,are flirting with each other,,html-keyboard-response,276,1780165,0.0-17.0-2.12,60110,List2B,black,man,,,,null,,,,
17280,,,survey-text,277,1797448,0.0-17.0-3.12,60110,List2B,black,man,,,,,"{""Q0"":""mike and beth are flirting with each other""}","<img src=""stim_listB/flirt4.gif""style=""height:400px;""></stim_listB>",are flirting with each other,
null,"<div style=""font-size:60px;"">+</div>",,html-keyboard-response,278,1797953,0.0-17.0-0.13,60110,List2B,black,man,,,,null,,,,
null,"<img src=""stim_listB/dance3.gif""style=""height:400px;""></stim_listB>",,html-keyboard-response,279,1799957,0.0-17.0-1.13,60110,List2B,black,man,,,,null,,,,
null,is dancing with,,html-keyboard-response,280,1801961,0.0-17.0-2.13,60110,List2B,black,man,,,,null,,,,
23162,,,survey-text,281,1825126,0.0-17.0-3.13,60110,List2B,black,man,,,,,"{""Q0"":""kate is dancing with fred""}","<img src=""stim_listB/dance3.gif""style=""height:400px;""></stim_listB>",is dancing with,
null,"<div style=""font-size:60px;"">+</div>",,html-keyboard-response,282,1825630,0.0-17.0-0.14,60110,List2B,black,man,,,,null,,,,
null,"<img src=""stim_listB/argue1.gif""style=""height:400px;""></stim_listB>",,html-keyboard-response,283,1827635,0.0-17.0-1.14,60110,List2B,black,man,,,,null,,,,
null,is arguing with,,html-keyboard-response,284,1829638,0.0-17.0-2.14,60110,List2B,black,man,,,,null,,,,
26140,,,survey-text,285,1855781,0.0-17.0-3.14,60110,List2B,black,man,,,,,"{""Q0"":""dave is arguing with ruth ""}","<img src=""stim_listB/argue1.gif""style=""height:400px;""></stim_listB>",is arguing with,
null,"<div style=""font-size:60px;"">+</div>",,html-keyboard-response,286,1856289,0.0-17.0-0.15,60110,List2B,black,man,,,,null,,,,
null,"<img src=""stim_listB/kiss5.gif""style=""height:400px;""></stim_listB>",,html-keyboard-response,287,1858297,0.0-17.0-1.15,60110,List2B,black,man,,,,null,,,,
null,is kissing,,html-keyboard-response,288,1860305,0.0-17.0-2.15,60110,List2B,black,man,,,,null,,,,
14381,,,survey-text,289,1874692,0.0-17.0-3.15,60110,List2B,black,man,,,,,"{""Q0"":""luke is kissing fred""}","<img src=""stim_listB/kiss5.gif""style=""height:400px;""></stim_listB>",is kissing,
null,"<div style=""font-size:60px;"">+</div>",,html-keyboard-response,290,1875198,0.0-17.0-0.16,60110,List2B,black,man,,,,null,,,,
null,"<img src=""stim_listB/fight5.gif""style=""height:400px;""></stim_listB>",,html-keyboard-response,291,1877201,0.0-17.0-1.16,60110,List2B,black,man,,,,null,,,,
null,is fighting,,html-keyboard-response,292,1879208,0.0-17.0-2.16,60110,List2B,black,man,,,,null,,,,
14111,,,survey-text,293,1893325,0.0-17.0-3.16,60110,List2B,black,man,,,,,"{""Q0"":""mike is fighting dave""}","<img src=""stim_listB/fight5.gif""style=""height:400px;""></stim_listB>",is fighting,
null,"<div style=""font-size:60px;"">+</div>",,html-keyboard-response,294,1893828,0.0-17.0-0.17,60110,List2B,black,man,,,,null,,,,
null,"<img src=""stim_listB/touch1.gif""style=""height:400px;""></stim_listB>",,html-keyboard-response,295,1895832,0.0-17.0-1.17,60110,List2B,black,man,,,,null,,,,
null,is touching,,html-keyboard-response,296,1897839,0.0-17.0-2.17,60110,List2B,black,man,,,,null,,,,
19086,,,survey-text,297,1916928,0.0-17.0-3.17,60110,List2B,black,man,,,,,"{""Q0"":""jane is touching dave""}","<img src=""stim_listB/touch1.gif""style=""height:400px;""></stim_listB>",is touching,
null,"<div style=""font-size:60px;"">+</div>",,html-keyboard-response,298,1917432,0.0-17.0-0.18,60110,List2B,black,man,,,,null,,,,
null,"<img src=""stim_listB/shout1.gif""style=""height:400px;""></stim_listB>",,html-keyboard-response,299,1919437,0.0-17.0-1.18,60110,List2B,black,man,,,,null,,,,
null,is shouting at,,html-keyboard-response,300,1921439,0.0-17.0-2.18,60110,List2B,black,man,,,,null,,,,
17987,,,survey-text,301,1939430,0.0-17.0-3.18,60110,List2B,black,man,,,,,"{""Q0"":""luke is shouting at ruth""}","<img src=""stim_listB/shout1.gif""style=""height:400px;""></stim_listB>",is shouting at,
null,"<div style=""font-size:60px;"">+</div>",,html-keyboard-response,302,1939938,0.0-17.0-0.19,60110,List2B,black,man,,,,null,,,,
null,"<img src=""stim_listB/talk1.gif""style=""height:400px;""></stim_listB>",,html-keyboard-response,303,1941947,0.0-17.0-1.19,60110,List2B,black,man,,,,null,,,,
null,is talking to,,html-keyboard-response,304,1943959,0.0-17.0-2.19,60110,List2B,black,man,,,,null,,,,
232787,,,survey-text,305,2176751,0.0-17.0-3.19,60110,List2B,black,man,,,,,"{""Q0"":""jane is talking to luke""}","<img src=""stim_listB/talk1.gif""style=""height:400px;""></stim_listB>",is talking to,
2523,"<img src='img/portrait_matrix_list2.jpg' style='width:900px;height:500px;''></img><p>If you have memorised all the portraits and names and are ready to start, press Continue.</p><p><strong>Please note: Your memory of these faces will be tested 4 times during this experiment.</strong></p>",0,html-button-response,306,2179282,0.0-18.0-0.0,60110,List2B,black,man,,,,,,,,
2845,"<img src=""portrait/WW2.jpg""style=""height:400px;""></img>",3,html-button-response,307,2183140,0.0-18.0-1.0,60110,List2B,black,man,,TRUE,3,,,,,
null,CORRECT,,html-keyboard-response,308,2184648,0.0-18.0-2.0-0.0,60110,List2B,black,man,,,,null,,,,
3105,"<img src=""portrait/WM1.jpg""style=""height:400px;""></img>",6,html-button-response,309,2187759,0.0-18.0-4.0,60110,List2B,black,man,,TRUE,6,,,,,
null,CORRECT,,html-keyboard-response,310,2189268,0.0-18.0-5.0-0.0,60110,List2B,black,man,,,,null,,,,
2528,"<img src=""portrait/WW1.jpg""style=""height:400px;""></img>",1,html-button-response,311,2191801,0.0-18.0-7.0,60110,List2B,black,man,,TRUE,1,,,,,
null,CORRECT,,html-keyboard-response,312,2193307,0.0-18.0-8.0-0.0,60110,List2B,black,man,,,,null,,,,
2920,"<img src=""portrait/BM2.jpg""style=""height:400px;""></img>",5,html-button-response,313,2196233,0.0-18.0-10.0,60110,List2B,black,man,,TRUE,5,,,,,
null,CORRECT,,html-keyboard-response,314,2197738,0.0-18.0-11.0-0.0,60110,List2B,black,man,,,,null,,,,
3983,"<img src=""portrait/BW2.jpg""style=""height:400px;""></img>",2,html-button-response,315,2201730,0.0-18.0-13.0,60110,List2B,black,man,,TRUE,2,,,,,
null,CORRECT,,html-keyboard-response,316,2203233,0.0-18.0-14.0-0.0,60110,List2B,black,man,,,,null,,,,
3755,"<img src=""portrait/BM1.jpg""style=""height:400px;""></img>",4,html-button-response,317,2206993,0.0-18.0-16.0,60110,List2B,black,man,,TRUE,4,,,,,
null,CORRECT,,html-keyboard-response,318,2208499,0.0-18.0-17.0-0.0,60110,List2B,black,man,,,,null,,,,
3085,"<img src=""portrait/WM2.jpg""style=""height:400px;""></img>",7,html-button-response,319,2211591,0.0-18.0-19.0,60110,List2B,black,man,,TRUE,7,,,,,
null,CORRECT,,html-keyboard-response,320,2213099,0.0-18.0-20.0-0.0,60110,List2B,black,man,,,,null,,,,
11238,"<img src=""portrait/BW1.jpg""style=""height:400px;""></img>",0,html-button-response,321,2224343,0.0-18.0-22.0,60110,List2B,black,man,,TRUE,0,,,,,
null,CORRECT,,html-keyboard-response,322,2225849,0.0-18.0-23.0-0.0,60110,List2B,black,man,,,,null,,,,
1737,<p>You got 8 out of 8 right first time. Press Continue.</p>,0,html-button-response,323,2227591,0.0-18.0-25.0,60110,List2B,black,man,,,,,,,,
null,"<div style=""font-size:60px;"">+</div>",,html-keyboard-response,324,2229099,0.0-19.0-0.0,60110,List2B,black,man,,,,null,,,,
null,"<img src=""stim_listB/play3.gif""style=""height:400px;""></stim_listB>",,html-keyboard-response,325,2231101,0.0-19.0-1.0,60110,List2B,black,man,,,,null,,,,
null,is playing with,,html-keyboard-response,326,2233150,0.0-19.0-2.0,60110,List2B,black,man,,,,null,,,,
21721,,,survey-text,327,2254882,0.0-19.0-3.0,60110,List2B,black,man,,,,,"{""Q0"":""mike is playing with kate""}","<img src=""stim_listB/play3.gif""style=""height:400px;""></stim_listB>",is playing with,
null,"<div style=""font-size:60px;"">+</div>",,html-keyboard-response,328,2255390,0.0-19.0-0.1,60110,List2B,black,man,,,,null,,,,
null,"<img src=""stim_listB/talk3.gif""style=""height:400px;""></stim_listB>",,html-keyboard-response,329,2257401,0.0-19.0-1.1,60110,List2B,black,man,,,,null,,,,
null,is talking to,,html-keyboard-response,330,2259439,0.0-19.0-2.1,60110,List2B,black,man,,,,null,,,,
8639,,,survey-text,331,2268082,0.0-19.0-3.1,60110,List2B,black,man,,,,,"{""Q0"":""fred is talking to kate""}","<img src=""stim_listB/talk3.gif""style=""height:400px;""></stim_listB>",is talking to,
null,"<div style=""font-size:60px;"">+</div>",,html-keyboard-response,332,2268586,0.0-19.0-0.2,60110,List2B,black,man,,,,null,,,,
null,"<img src=""stim_listB/marry7.gif""style=""height:400px;""></stim_listB>",,html-keyboard-response,333,2270593,0.0-19.0-1.2,60110,List2B,black,man,,,,null,,,,
null,is marrying,,html-keyboard-response,334,2272599,0.0-19.0-2.2,60110,List2B,black,man,,,,null,,,,
10619,,,survey-text,335,2283221,0.0-19.0-3.2,60110,List2B,black,man,,,,,"{""Q0"":""jane is marrying beth""}","<img src=""stim_listB/marry7.gif""style=""height:400px;""></stim_listB>",is marrying,
null,"<div style=""font-size:60px;"">+</div>",,html-keyboard-response,336,2283725,0.0-19.0-0.3,60110,List2B,black,man,,,,null,,,,
null,"<img src=""stim_listB/shout7.gif""style=""height:400px;""></stim_listB>",,html-keyboard-response,337,2285731,0.0-19.0-1.3,60110,List2B,black,man,,,,null,,,,
null,is shouting at,,html-keyboard-response,338,2287734,0.0-19.0-2.3,60110,List2B,black,man,,,,null,,,,
12518,,,survey-text,339,2300255,0.0-19.0-3.3,60110,List2B,black,man,,,,,"{""Q0"":""beth is shouting at ruth""}","<img src=""stim_listB/shout7.gif""style=""height:400px;""></stim_listB>",is shouting at,
null,"<div style=""font-size:60px;"">+</div>",,html-keyboard-response,340,2300759,0.0-19.0-0.4,60110,List2B,black,man,,,,null,,,,
null,"<img src=""stim_listB/flirt1.gif""style=""height:400px;""></stim_listB>",,html-keyboard-response,341,2302765,0.0-19.0-1.4,60110,List2B,black,man,,,,null,,,,
null,is flirting with,,html-keyboard-response,342,2304776,0.0-19.0-2.4,60110,List2B,black,man,,,,null,,,,
8219,,,survey-text,343,2312998,0.0-19.0-3.4,60110,List2B,black,man,,,,,"{""Q0"":""jane is flirting with luke""}","<img src=""stim_listB/flirt1.gif""style=""height:400px;""></stim_listB>",is flirting with,
null,"<div style=""font-size:60px;"">+</div>",,html-keyboard-response,344,2313505,0.0-19.0-0.5,60110,List2B,black,man,,,,null,,,,
null,"<img src=""stim_listB/play2.gif""style=""height:400px;""></stim_listB>",,html-keyboard-response,345,2315510,0.0-19.0-1.5,60110,List2B,black,man,,,,null,,,,
null,are playing with each other,,html-keyboard-response,346,2317514,0.0-19.0-2.5,60110,List2B,black,man,,,,null,,,,
6450,,,survey-text,347,2323970,0.0-19.0-3.5,60110,List2B,black,man,,,,,"{""Q0"":""luke and ruth are playing with each other""}","<img src=""stim_listB/play2.gif""style=""height:400px;""></stim_listB>",are playing with each other,
null,"<div style=""font-size:60px;"">+</div>",,html-keyboard-response,348,2324477,0.0-19.0-0.6,60110,List2B,black,man,,,,null,,,,
null,"<img src=""stim_listB/shout2.gif""style=""height:400px;""></stim_listB>",,html-keyboard-response,349,2326482,0.0-19.0-1.6,60110,List2B,black,man,,,,null,,,,
null,are shouting at each other,,html-keyboard-response,350,2328487,0.0-19.0-2.6,60110,List2B,black,man,,,,null,,,,
7178,,,survey-text,351,2335674,0.0-19.0-3.6,60110,List2B,black,man,,,,,"{""Q0"":""jane and dave are shouting at each other""}","<img src=""stim_listB/shout2.gif""style=""height:400px;""></stim_listB>",are shouting at each other,
null,"<div style=""font-size:60px;"">+</div>",,html-keyboard-response,352,2336181,0.0-19.0-0.7,60110,List2B,black,man,,,,null,,,,
null,"<img src=""stim_listB/kiss6.gif""style=""height:400px;""></stim_listB>",,html-keyboard-response,353,2338187,0.0-19.0-1.7,60110,List2B,black,man,,,,null,,,,
null,are kissing each other,,html-keyboard-response,354,2340193,0.0-19.0-2.7,60110,List2B,black,man,,,,null,,,,
7494,,,survey-text,355,2347690,0.0-19.0-3.7,60110,List2B,black,man,,,,,"{""Q0"":""mike and dave are kissing each other""}","<img src=""stim_listB/kiss6.gif""style=""height:400px;""></stim_listB>",are kissing each other,
null,"<div style=""font-size:60px;"">+</div>",,html-keyboard-response,356,2348195,0.0-19.0-0.8,60110,List2B,black,man,,,,null,,,,
null,"<img src=""stim_listB/kiss4.gif""style=""height:400px;""></stim_listB>",,html-keyboard-response,357,2350200,0.0-19.0-1.8,60110,List2B,black,man,,,,null,,,,
null,are kissing each other,,html-keyboard-response,358,2352206,0.0-19.0-2.8,60110,List2B,black,man,,,,null,,,,
13843,,,survey-text,359,2366054,0.0-19.0-3.8,60110,List2B,black,man,,,,,"{""Q0"":""mike and kate are kissing each other""}","<img src=""stim_listB/kiss4.gif""style=""height:400px;""></stim_listB>",are kissing each other,
null,"<div style=""font-size:60px;"">+</div>",,html-keyboard-response,360,2366560,0.0-19.0-0.9,60110,List2B,black,man,,,,null,,,,
null,"<img src=""stim_listB/play6.gif""style=""height:400px;""></stim_listB>",,html-keyboard-response,361,2368562,0.0-19.0-1.9,60110,List2B,black,man,,,,null,,,,
null,are playing with each other,,html-keyboard-response,362,2370567,0.0-19.0-2.9,60110,List2B,black,man,,,,null,,,,
9601,,,survey-text,363,2380180,0.0-19.0-3.9,60110,List2B,black,man,,,,,"{""Q0"":""fred and luke are playing with each other""}","<img src=""stim_listB/play6.gif""style=""height:400px;""></stim_listB>",are playing with each other,
null,"<div style=""font-size:60px;"">+</div>",,html-keyboard-response,364,2380690,0.0-19.0-0.10,60110,List2B,black,man,,,,null,,,,
null,"<img src=""stim_listB/fight7.gif""style=""height:400px;""></stim_listB>",,html-keyboard-response,365,2382701,0.0-19.0-1.10,60110,List2B,black,man,,,,null,,,,
null,is fighting,,html-keyboard-response,366,2384710,0.0-19.0-2.10,60110,List2B,black,man,,,,null,,,,
6288,,,survey-text,367,2391001,0.0-19.0-3.10,60110,List2B,black,man,,,,,"{""Q0"":""kate is fighting jane""}","<img src=""stim_listB/fight7.gif""style=""height:400px;""></stim_listB>",is fighting,
null,"<div style=""font-size:60px;"">+</div>",,html-keyboard-response,368,2391506,0.0-19.0-0.11,60110,List2B,black,man,,,,null,,,,
null,"<img src=""stim_listB/fight6.gif""style=""height:400px;""></stim_listB>",,html-keyboard-response,369,2393512,0.0-19.0-1.11,60110,List2B,black,man,,,,null,,,,
null,are fighting each other,,html-keyboard-response,370,2395517,0.0-19.0-2.11,60110,List2B,black,man,,,,null,,,,
6979,,,survey-text,371,2402498,0.0-19.0-3.11,60110,List2B,black,man,,,,,"{""Q0"":""fred and luke are fighting each other""}","<img src=""stim_listB/fight6.gif""style=""height:400px;""></stim_listB>",are fighting each other,
null,"<div style=""font-size:60px;"">+</div>",,html-keyboard-response,372,2403002,0.0-19.0-0.12,60110,List2B,black,man,,,,null,,,,
null,"<img src=""stim_listB/shout5.gif""style=""height:400px;""></stim_listB>",,html-keyboard-response,373,2405007,0.0-19.0-1.12,60110,List2B,black,man,,,,null,,,,
null,is shouting at,,html-keyboard-response,374,2407011,0.0-19.0-2.12,60110,List2B,black,man,,,,null,,,,
7679,,,survey-text,375,2414694,0.0-19.0-3.12,60110,List2B,black,man,,,,,"{""Q0"":""luke is shouting at fred""}","<img src=""stim_listB/shout5.gif""style=""height:400px;""></stim_listB>",is shouting at,
null,"<div style=""font-size:60px;"">+</div>",,html-keyboard-response,376,2415203,0.0-19.0-0.13,60110,List2B,black,man,,,,null,,,,
null,"<img src=""stim_listB/dance2.gif""style=""height:400px;""></stim_listB>",,html-keyboard-response,377,2417210,0.0-19.0-1.13,60110,List2B,black,man,,,,null,,,,
null,are dancing with each other,,html-keyboard-response,378,2419213,0.0-19.0-2.13,60110,List2B,black,man,,,,null,,,,
15212,,,survey-text,379,2434428,0.0-19.0-3.13,60110,List2B,black,man,,,,,"{""Q0"":""dave and ruth are dancing with each other""}","<img src=""stim_listB/dance2.gif""style=""height:400px;""></stim_listB>",are dancing with each other,
null,"<div style=""font-size:60px;"">+</div>",,html-keyboard-response,380,2434939,0.0-19.0-0.14,60110,List2B,black,man,,,,null,,,,
null,"<img src=""stim_listB/flirt2.gif""style=""height:400px;""></stim_listB>",,html-keyboard-response,381,2436946,0.0-19.0-1.14,60110,List2B,black,man,,,,null,,,,
null,are flirting with each other,,html-keyboard-response,382,2438950,0.0-19.0-2.14,60110,List2B,black,man,,,,null,,,,
7274,,,survey-text,383,2446227,0.0-19.0-3.14,60110,List2B,black,man,,,,,"{""Q0"":""dave and ruth are flirting with each other""}","<img src=""stim_listB/flirt2.gif""style=""height:400px;""></stim_listB>",are flirting with each other,
null,"<div style=""font-size:60px;"">+</div>",,html-keyboard-response,384,2446734,0.0-19.0-0.15,60110,List2B,black,man,,,,null,,,,
null,"<img src=""stim_listB/flirt8.gif""style=""height:400px;""></stim_listB>",,html-keyboard-response,385,2448742,0.0-19.0-1.15,60110,List2B,black,man,,,,null,,,,
null,are flirting with each other,,html-keyboard-response,386,2450752,0.0-19.0-2.15,60110,List2B,black,man,,,,null,,,,
9520,,,survey-text,387,2460276,0.0-19.0-3.15,60110,List2B,black,man,,,,,"{""Q0"":""jane and beth are flirting with each other""}","<img src=""stim_listB/flirt8.gif""style=""height:400px;""></stim_listB>",are flirting with each other,
null,"<div style=""font-size:60px;"">+</div>",,html-keyboard-response,388,2460782,0.0-19.0-0.16,60110,List2B,black,man,,,,null,,,,
null,"<img src=""stim_listB/marry5.gif""style=""height:400px;""></stim_listB>",,html-keyboard-response,389,2462787,0.0-19.0-1.16,60110,List2B,black,man,,,,null,,,,
null,is marrying,,html-keyboard-response,390,2464797,0.0-19.0-2.16,60110,List2B,black,man,,,,null,,,,
10209,,,survey-text,391,2475013,0.0-19.0-3.16,60110,List2B,black,man,,,,,"{""Q0"":""fred is marrying dave""}","<img src=""stim_listB/marry5.gif""style=""height:400px;""></stim_listB>",is marrying,
null,"<div style=""font-size:60px;"">+</div>",,html-keyboard-response,392,2475520,0.0-19.0-0.17,60110,List2B,black,man,,,,null,,,,
null,"<img src=""stim_listB/play8.gif""style=""height:400px;""></stim_listB>",,html-keyboard-response,393,2477524,0.0-19.0-1.17,60110,List2B,black,man,,,,null,,,,
null,are playing with each other,,html-keyboard-response,394,2479528,0.0-19.0-2.17,60110,List2B,black,man,,,,null,,,,
8558,,,survey-text,395,2488096,0.0-19.0-3.17,60110,List2B,black,man,,,,,"{""Q0"":""beth and ruth are playing with each other""}","<img src=""stim_listB/play8.gif""style=""height:400px;""></stim_listB>",are playing with each other,
null,"<div style=""font-size:60px;"">+</div>",,html-keyboard-response,396,2488608,0.0-19.0-0.18,60110,List2B,black,man,,,,null,,,,
null,"<img src=""stim_listB/fight8.gif""style=""height:400px;""></stim_listB>",,html-keyboard-response,397,2490614,0.0-19.0-1.18,60110,List2B,black,man,,,,null,,,,
null,are fighting each other,,html-keyboard-response,398,2492662,0.0-19.0-2.18,60110,List2B,black,man,,,,null,,,,
6974,,,survey-text,399,2499654,0.0-19.0-3.18,60110,List2B,black,man,,,,,"{""Q0"":""beth and ruth are fighting each other""}","<img src=""stim_listB/fight8.gif""style=""height:400px;""></stim_listB>",are fighting each other,
null,"<div style=""font-size:60px;"">+</div>",,html-keyboard-response,400,2500160,0.0-19.0-0.19,60110,List2B,black,man,,,,null,,,,
null,"<img src=""stim_listB/argue5.gif""style=""height:400px;""></stim_listB>",,html-keyboard-response,401,2502164,0.0-19.0-1.19,60110,List2B,black,man,,,,null,,,,
null,is arguing with,,html-keyboard-response,402,2504167,0.0-19.0-2.19,60110,List2B,black,man,,,,null,,,,
7914,,,survey-text,403,2512085,0.0-19.0-3.19,60110,List2B,black,man,,,,,"{""Q0"":""dave is arguing with fred""}","<img src=""stim_listB/argue5.gif""style=""height:400px;""></stim_listB>",is arguing with,
1423,<p>Thank you for completing that task.</p><p>The final part of this session is a short questionnaire.</p><p>Press Continue.</p>,0,html-button-response,404,2513514,0.0-20.0,60110,List2B,black,man,,,,,,,,
15105,,,survey-text,405,2529635,0.0-21.0,60110,List2B,black,man,,,,,"{""Q0"":""19"",""Q1"":""English"",""Q2"":""English"",""Q3"":""United States"",""Q4"":""Black"",""Q5"":""Male""}",,,demographics
8016,,,survey-likert,406,2537667,0.0-22.0,60110,List2B,black,man,,,,,"{""Q0"":4}",,,likert_ESS
4113,,,survey-likert,407,2541857,0.0-23.0,60110,List2B,black,man,,,,,"{""Q0"":4}",,,likert_NSSAL_Q1
4250,,,survey-likert,408,2546191,0.0-24.0,60110,List2B,black,man,,,,,"{""Q0"":4}",,,likert_NSSAL_Q2
4085,,,survey-likert,409,2550349,0.0-25.0,60110,List2B,black,man,,,,,"{""Q0"":4}",,,likert_CGRS_Q1
2505,,,survey-likert,410,2552939,0.0-26.0,60110,List2B,black,man,,,,,"{""Q0"":4}",,,likert_CGRS_Q2
4858,,,survey-likert,411,2557903,0.0-27.0,60110,List2B,black,man,,,,,"{""Q0"":4}",,,likert_CGRS_Q3
10064,,,survey-text,412,2568050,0.0-28.0,60110,List2B,black,man,,,,,"{""Q0"":""ccc""}",,,worker_id
8050,,,external-html,413,2576505,0.0-29.0,60110,List2B,black,man,debrief.html,,,,,,,
