rt,stimulus,button_pressed,trial_type,trial_index,time_elapsed,internal_node_id,subject,list,ppt_race,ppt_gender,url,first_guess,correct,key_press,responses,image_type,phrase_type,test_part
2961,Welcome to the experiment. Press Continue to begin.,0,html-button-response,0,2964,0.0-0.0,60432,List2B,black,man,,,,,,,,
52771,,,external-html,1,56760,0.0-1.0,60432,List2B,black,man,consent.html,,,,,,,
34621,"<p>On the next page, you will see portraits of 8 people and their names.</p><p>Your first task is to take a few minutes to memorise the names of these people.</p><p>You will have to recall their names during the rest of the experiment, so it is</p><p>essential that you try to memorise these people and their names as best as you can.</p><br><p><strong>You will then be tested on your memory of these names and portraits.</strong></p><br><p>The experiment will start after you have completed this memory test.</p><br><p>Ready?</p>",0,html-button-response,2,91383,0.0-2.0,60432,List2B,black,man,,,,,,,,
77390,"<img src='img/portrait_matrix_list2.jpg' style='width:900px;height:500px;''></img><p>If you have memorised all the portraits and names and are ready to start, press Continue.</p><p><strong>Please note: Your memory of these faces will be tested 4 times during this experiment.</strong></p>",0,html-button-response,3,169775,0.0-3.0-0.0,60432,List2B,black,man,,,,,,,,
19230,"<img src=""portrait/BW2.jpg""style=""height:400px;""></img>",2,html-button-response,4,190007,0.0-3.0-1.0,60432,List2B,black,man,,TRUE,2,,,,,
null,CORRECT,,html-keyboard-response,5,191511,0.0-3.0-2.0-0.0,60432,List2B,black,man,,,,null,,,,
1743,"<img src=""portrait/WM2.jpg""style=""height:400px;""></img>",7,html-button-response,6,193255,0.0-3.0-4.0,60432,List2B,black,man,,TRUE,7,,,,,
null,CORRECT,,html-keyboard-response,7,194759,0.0-3.0-5.0-0.0,60432,List2B,black,man,,,,null,,,,
1719,"<img src=""portrait/WM1.jpg""style=""height:400px;""></img>",6,html-button-response,8,196479,0.0-3.0-7.0,60432,List2B,black,man,,TRUE,6,,,,,
null,CORRECT,,html-keyboard-response,9,197983,0.0-3.0-8.0-0.0,60432,List2B,black,man,,,,null,,,,
3231,"<img src=""portrait/WW2.jpg""style=""height:400px;""></img>",3,html-button-response,10,201215,0.0-3.0-10.0,60432,List2B,black,man,,TRUE,3,,,,,
null,CORRECT,,html-keyboard-response,11,202718,0.0-3.0-11.0-0.0,60432,List2B,black,man,,,,null,,,,
1864,"<img src=""portrait/BW1.jpg""style=""height:400px;""></img>",0,html-button-response,12,204583,0.0-3.0-13.0,60432,List2B,black,man,,TRUE,0,,,,,
null,CORRECT,,html-keyboard-response,13,206086,0.0-3.0-14.0-0.0,60432,List2B,black,man,,,,null,,,,
1784,"<img src=""portrait/BM1.jpg""style=""height:400px;""></img>",4,html-button-response,14,207871,0.0-3.0-16.0,60432,List2B,black,man,,TRUE,4,,,,,
null,CORRECT,,html-keyboard-response,15,209373,0.0-3.0-17.0-0.0,60432,List2B,black,man,,,,null,,,,
1857,"<img src=""portrait/BM2.jpg""style=""height:400px;""></img>",5,html-button-response,16,211232,0.0-3.0-19.0,60432,List2B,black,man,,TRUE,5,,,,,
null,CORRECT,,html-keyboard-response,17,212734,0.0-3.0-20.0-0.0,60432,List2B,black,man,,,,null,,,,
2719,"<img src=""portrait/WW1.jpg""style=""height:400px;""></img>",1,html-button-response,18,215455,0.0-3.0-22.0,60432,List2B,black,man,,TRUE,1,,,,,
null,CORRECT,,html-keyboard-response,19,216957,0.0-3.0-23.0-0.0,60432,List2B,black,man,,,,null,,,,
2384,<p>You got 8 out of 8 right first time. Press Continue.</p>,0,html-button-response,20,219343,0.0-3.0-25.0,60432,List2B,black,man,,,,,,,,
78445,"<p>In this experiment, you will view photographs of the people from the memory game interacting.</p><p>By using the <strong>exact</strong> phrase given <i>after</i> the photograph appears and recalling the correct names of the people in the photographs, form a sentence describing the interaction. You do not need to capitalise names.</p><p>Type your answer in the space provided. Please complete every sentence before moving onto the next trial.</p><p>You will only have a few seconds to memorise each given photograph and phrase before you can respond, so try your best to focus.</p><p>An example is given below. Press 'Continue' when you are ready.</p><img src='img/speaking_example.jpg' style='width:800px;height:460px;''></img>",0,html-button-response,21,298790,0.0-4.0,60432,List2B,black,man,,,,,,,,
5175,"<p>Before the experiment starts, you will watch two example trials. Press 'Continue'.</p>",0,html-button-response,22,304966,0.0-5.0,60432,List2B,black,man,,,,,,,,
null,<img src='img/meet_eg.gif' style='height:400px;''></img>,,html-keyboard-response,23,307968,0.0-6.0,60432,List2B,black,man,,,,null,,,,
null,<p>is meeting</p>,,html-keyboard-response,24,309969,0.0-7.0,60432,List2B,black,man,,,,null,,,,
5844,<p><b>Answer:</b> jane is meeting ruth</p>,0,html-button-response,25,315814,0.0-8.0,60432,List2B,black,man,,,,,,,,
null,<img src='img/look_eg.gif' style='height:400px;''></img>,,html-keyboard-response,26,318816,0.0-9.0,60432,List2B,black,man,,,,null,,,,
null,<p>are looking at each other</p>,,html-keyboard-response,27,320817,0.0-10.0,60432,List2B,black,man,,,,null,,,,
3413,<p><b>Answer:</b> fred and mike are looking at each other</p>,0,html-button-response,28,324230,0.0-11.0,60432,List2B,black,man,,,,,,,,
11567,"<p>Ready to start the experiment?</p><br><p><strong>Remember to describe the picture using a full sentence,</strong></p><p><strong>that combines the names of the people with the <i>exact</i> phrase given.</strong></p><p><strong>To receive full payment you must do this correctly.</strong></p><p><strong> You do not need to capitalise names or use punctuation.</strong></p><br><p>Press 'Continue' to begin.</p>",0,html-button-response,29,336798,0.0-12.0,60432,List2B,black,man,,,,,,,,
null,"<div style=""font-size:60px;"">+</div>",,html-keyboard-response,30,338300,0.0-13.0-0.0,60432,List2B,black,man,,,,null,,,,
null,"<img src=""stim_listB/flirt5.gif""style=""height:400px;""></stim_listB>",,html-keyboard-response,31,340302,0.0-13.0-1.0,60432,List2B,black,man,,,,null,,,,
null,is flirting with,,html-keyboard-response,32,342303,0.0-13.0-2.0,60432,List2B,black,man,,,,null,,,,
17440,,,survey-text,33,359745,0.0-13.0-3.0,60432,List2B,black,man,,,,,"{""Q0"":""Mike is flirting with Luke""}","<img src=""stim_listB/flirt5.gif""style=""height:400px;""></stim_listB>",is flirting with,
null,"<div style=""font-size:60px;"">+</div>",,html-keyboard-response,34,360248,0.0-13.0-0.1,60432,List2B,black,man,,,,null,,,,
null,"<img src=""stim_listB/fight6.gif""style=""height:400px;""></stim_listB>",,html-keyboard-response,35,362249,0.0-13.0-1.1,60432,List2B,black,man,,,,null,,,,
null,are fighting each other,,html-keyboard-response,36,364251,0.0-13.0-2.1,60432,List2B,black,man,,,,null,,,,
16396,,,survey-text,37,380647,0.0-13.0-3.1,60432,List2B,black,man,,,,,"{""Q0"":""Luke and Fred are fighting each other""}","<img src=""stim_listB/fight6.gif""style=""height:400px;""></stim_listB>",are fighting each other,
null,"<div style=""font-size:60px;"">+</div>",,html-keyboard-response,38,381149,0.0-13.0-0.2,60432,List2B,black,man,,,,null,,,,
null,"<img src=""stim_listB/argue3.gif""style=""height:400px;""></stim_listB>",,html-keyboard-response,39,383151,0.0-13.0-1.2,60432,List2B,black,man,,,,null,,,,
null,is arguing with,,html-keyboard-response,40,385152,0.0-13.0-2.2,60432,List2B,black,man,,,,null,,,,
22016,,,survey-text,41,407168,0.0-13.0-3.2,60432,List2B,black,man,,,,,"{""Q0"":""Mike and Kate are arguing with each other""}","<img src=""stim_listB/argue3.gif""style=""height:400px;""></stim_listB>",is arguing with,
null,"<div style=""font-size:60px;"">+</div>",,html-keyboard-response,42,407669,0.0-13.0-0.3,60432,List2B,black,man,,,,null,,,,
null,"<img src=""stim_listB/flirt6.gif""style=""height:400px;""></stim_listB>",,html-keyboard-response,43,409671,0.0-13.0-1.3,60432,List2B,black,man,,,,null,,,,
null,are flirting with each other,,html-keyboard-response,44,411672,0.0-13.0-2.3,60432,List2B,black,man,,,,null,,,,
16806,,,survey-text,45,428479,0.0-13.0-3.3,60432,List2B,black,man,,,,,"{""Q0"":""Dave and Fred are flirting with each other""}","<img src=""stim_listB/flirt6.gif""style=""height:400px;""></stim_listB>",are flirting with each other,
null,"<div style=""font-size:60px;"">+</div>",,html-keyboard-response,46,428980,0.0-13.0-0.4,60432,List2B,black,man,,,,null,,,,
null,"<img src=""stim_listB/argue2.gif""style=""height:400px;""></stim_listB>",,html-keyboard-response,47,430982,0.0-13.0-1.4,60432,List2B,black,man,,,,null,,,,
null,are arguing with each other,,html-keyboard-response,48,432984,0.0-13.0-2.4,60432,List2B,black,man,,,,null,,,,
27909,,,survey-text,49,460895,0.0-13.0-3.4,60432,List2B,black,man,,,,,"{""Q0"":""Luke and Kate are arguing with each other""}","<img src=""stim_listB/argue2.gif""style=""height:400px;""></stim_listB>",are arguing with each other,
null,"<div style=""font-size:60px;"">+</div>",,html-keyboard-response,50,461395,0.0-13.0-0.5,60432,List2B,black,man,,,,null,,,,
null,"<img src=""stim_listB/argue6.gif""style=""height:400px;""></stim_listB>",,html-keyboard-response,51,463398,0.0-13.0-1.5,60432,List2B,black,man,,,,null,,,,
null,are arguing with each other,,html-keyboard-response,52,465399,0.0-13.0-2.5,60432,List2B,black,man,,,,null,,,,
11158,,,survey-text,53,476559,0.0-13.0-3.5,60432,List2B,black,man,,,,,"{""Q0"":""Luke and Mike are arguing with each other""}","<img src=""stim_listB/argue6.gif""style=""height:400px;""></stim_listB>",are arguing with each other,
null,"<div style=""font-size:60px;"">+</div>",,html-keyboard-response,54,477061,0.0-13.0-0.6,60432,List2B,black,man,,,,null,,,,
null,"<img src=""stim_listB/play8.gif""style=""height:400px;""></stim_listB>",,html-keyboard-response,55,479063,0.0-13.0-1.6,60432,List2B,black,man,,,,null,,,,
null,are playing with each other,,html-keyboard-response,56,481065,0.0-13.0-2.6,60432,List2B,black,man,,,,null,,,,
24069,,,survey-text,57,505135,0.0-13.0-3.6,60432,List2B,black,man,,,,,"{""Q0"":""Ruth and Kate are playing cards with each other""}","<img src=""stim_listB/play8.gif""style=""height:400px;""></stim_listB>",are playing with each other,
null,"<div style=""font-size:60px;"">+</div>",,html-keyboard-response,58,505638,0.0-13.0-0.7,60432,List2B,black,man,,,,null,,,,
null,"<img src=""stim_listB/argue7.gif""style=""height:400px;""></stim_listB>",,html-keyboard-response,59,507639,0.0-13.0-1.7,60432,List2B,black,man,,,,null,,,,
null,is arguing with,,html-keyboard-response,60,509641,0.0-13.0-2.7,60432,List2B,black,man,,,,null,,,,
11437,,,survey-text,61,521079,0.0-13.0-3.7,60432,List2B,black,man,,,,,"{""Q0"":""Jane is arguing with Kate""}","<img src=""stim_listB/argue7.gif""style=""height:400px;""></stim_listB>",is arguing with,
null,"<div style=""font-size:60px;"">+</div>",,html-keyboard-response,62,521580,0.0-13.0-0.8,60432,List2B,black,man,,,,null,,,,
null,"<img src=""stim_listB/marry4.gif""style=""height:400px;""></stim_listB>",,html-keyboard-response,63,523582,0.0-13.0-1.8,60432,List2B,black,man,,,,null,,,,
null,are marrying each other,,html-keyboard-response,64,525584,0.0-13.0-2.8,60432,List2B,black,man,,,,null,,,,
16030,,,survey-text,65,541615,0.0-13.0-3.8,60432,List2B,black,man,,,,,"{""Q0"":""Fred is marrying ""}","<img src=""stim_listB/marry4.gif""style=""height:400px;""></stim_listB>",are marrying each other,
null,"<div style=""font-size:60px;"">+</div>",,html-keyboard-response,66,542118,0.0-13.0-0.9,60432,List2B,black,man,,,,null,,,,
null,"<img src=""stim_listB/touch6.gif""style=""height:400px;""></stim_listB>",,html-keyboard-response,67,544119,0.0-13.0-1.9,60432,List2B,black,man,,,,null,,,,
null,are touching each other,,html-keyboard-response,68,546121,0.0-13.0-2.9,60432,List2B,black,man,,,,null,,,,
16421,,,survey-text,69,562543,0.0-13.0-3.9,60432,List2B,black,man,,,,,"{""Q0"":""Luke and Fred are touching each other""}","<img src=""stim_listB/touch6.gif""style=""height:400px;""></stim_listB>",are touching each other,
null,"<div style=""font-size:60px;"">+</div>",,html-keyboard-response,70,563044,0.0-13.0-0.10,60432,List2B,black,man,,,,null,,,,
null,"<img src=""stim_listB/kiss1.gif""style=""height:400px;""></stim_listB>",,html-keyboard-response,71,565046,0.0-13.0-1.10,60432,List2B,black,man,,,,null,,,,
null,is kissing,,html-keyboard-response,72,567047,0.0-13.0-2.10,60432,List2B,black,man,,,,null,,,,
8231,,,survey-text,73,575279,0.0-13.0-3.10,60432,List2B,black,man,,,,,"{""Q0"":""Luke is kissing Ruth""}","<img src=""stim_listB/kiss1.gif""style=""height:400px;""></stim_listB>",is kissing,
null,"<div style=""font-size:60px;"">+</div>",,html-keyboard-response,74,575780,0.0-13.0-0.11,60432,List2B,black,man,,,,null,,,,
null,"<img src=""stim_listB/argue4.gif""style=""height:400px;""></stim_listB>",,html-keyboard-response,75,577782,0.0-13.0-1.11,60432,List2B,black,man,,,,null,,,,
null,are arguing with each other,,html-keyboard-response,76,579784,0.0-13.0-2.11,60432,List2B,black,man,,,,null,,,,
25983,,,survey-text,77,605767,0.0-13.0-3.11,60432,List2B,black,man,,,,,"{""Q0"":""Fred and X are arguing with each other""}","<img src=""stim_listB/argue4.gif""style=""height:400px;""></stim_listB>",are arguing with each other,
null,"<div style=""font-size:60px;"">+</div>",,html-keyboard-response,78,606269,0.0-13.0-0.12,60432,List2B,black,man,,,,null,,,,
null,"<img src=""stim_listB/play6.gif""style=""height:400px;""></stim_listB>",,html-keyboard-response,79,608270,0.0-13.0-1.12,60432,List2B,black,man,,,,null,,,,
null,are playing with each other,,html-keyboard-response,80,610271,0.0-13.0-2.12,60432,List2B,black,man,,,,null,,,,
15439,,,survey-text,81,625711,0.0-13.0-3.12,60432,List2B,black,man,,,,,"{""Q0"":""Fred and Luke are playing each other""}","<img src=""stim_listB/play6.gif""style=""height:400px;""></stim_listB>",are playing with each other,
null,"<div style=""font-size:60px;"">+</div>",,html-keyboard-response,82,626212,0.0-13.0-0.13,60432,List2B,black,man,,,,null,,,,
null,"<img src=""stim_listB/shout1.gif""style=""height:400px;""></stim_listB>",,html-keyboard-response,83,628214,0.0-13.0-1.13,60432,List2B,black,man,,,,null,,,,
null,is shouting at,,html-keyboard-response,84,630215,0.0-13.0-2.13,60432,List2B,black,man,,,,null,,,,
12960,,,survey-text,85,643175,0.0-13.0-3.13,60432,List2B,black,man,,,,,"{""Q0"":""Ruth is shouting at Luke""}","<img src=""stim_listB/shout1.gif""style=""height:400px;""></stim_listB>",is shouting at,
null,"<div style=""font-size:60px;"">+</div>",,html-keyboard-response,86,643678,0.0-13.0-0.14,60432,List2B,black,man,,,,null,,,,
null,"<img src=""stim_listB/dance7.gif""style=""height:400px;""></stim_listB>",,html-keyboard-response,87,645680,0.0-13.0-1.14,60432,List2B,black,man,,,,null,,,,
null,is dancing with,,html-keyboard-response,88,647681,0.0-13.0-2.14,60432,List2B,black,man,,,,null,,,,
11597,,,survey-text,89,659279,0.0-13.0-3.14,60432,List2B,black,man,,,,,"{""Q0"":""Ruth is dancing with Beth""}","<img src=""stim_listB/dance7.gif""style=""height:400px;""></stim_listB>",is dancing with,
null,"<div style=""font-size:60px;"">+</div>",,html-keyboard-response,90,659781,0.0-13.0-0.15,60432,List2B,black,man,,,,null,,,,
null,"<img src=""stim_listB/dance2.gif""style=""height:400px;""></stim_listB>",,html-keyboard-response,91,661782,0.0-13.0-1.15,60432,List2B,black,man,,,,null,,,,
null,are dancing with each other,,html-keyboard-response,92,663784,0.0-13.0-2.15,60432,List2B,black,man,,,,null,,,,
12278,,,survey-text,93,676063,0.0-13.0-3.15,60432,List2B,black,man,,,,,"{""Q0"":""Ruth and Dave are dancing with each other""}","<img src=""stim_listB/dance2.gif""style=""height:400px;""></stim_listB>",are dancing with each other,
null,"<div style=""font-size:60px;"">+</div>",,html-keyboard-response,94,676564,0.0-13.0-0.16,60432,List2B,black,man,,,,null,,,,
null,"<img src=""stim_listB/fight1.gif""style=""height:400px;""></stim_listB>",,html-keyboard-response,95,678566,0.0-13.0-1.16,60432,List2B,black,man,,,,null,,,,
null,is fighting,,html-keyboard-response,96,680567,0.0-13.0-2.16,60432,List2B,black,man,,,,null,,,,
9264,,,survey-text,97,689831,0.0-13.0-3.16,60432,List2B,black,man,,,,,"{""Q0"":""Dave is fighting Jane""}","<img src=""stim_listB/fight1.gif""style=""height:400px;""></stim_listB>",is fighting,
null,"<div style=""font-size:60px;"">+</div>",,html-keyboard-response,98,690333,0.0-13.0-0.17,60432,List2B,black,man,,,,null,,,,
null,"<img src=""stim_listB/talk2.gif""style=""height:400px;""></stim_listB>",,html-keyboard-response,99,692335,0.0-13.0-1.17,60432,List2B,black,man,,,,null,,,,
null,are talking to each other,,html-keyboard-response,100,694336,0.0-13.0-2.17,60432,List2B,black,man,,,,null,,,,
14966,,,survey-text,101,709303,0.0-13.0-3.17,60432,List2B,black,man,,,,,"{""Q0"":""Ruth and Dave are talking with each other""}","<img src=""stim_listB/talk2.gif""style=""height:400px;""></stim_listB>",are talking to each other,
null,"<div style=""font-size:60px;"">+</div>",,html-keyboard-response,102,709804,0.0-13.0-0.18,60432,List2B,black,man,,,,null,,,,
null,"<img src=""stim_listB/flirt2.gif""style=""height:400px;""></stim_listB>",,html-keyboard-response,103,711809,0.0-13.0-1.18,60432,List2B,black,man,,,,null,,,,
null,are flirting with each other,,html-keyboard-response,104,713810,0.0-13.0-2.18,60432,List2B,black,man,,,,null,,,,
11996,,,survey-text,105,725807,0.0-13.0-3.18,60432,List2B,black,man,,,,,"{""Q0"":""Ruth and Dave and flirting with each other""}","<img src=""stim_listB/flirt2.gif""style=""height:400px;""></stim_listB>",are flirting with each other,
null,"<div style=""font-size:60px;"">+</div>",,html-keyboard-response,106,726309,0.0-13.0-0.19,60432,List2B,black,man,,,,null,,,,
null,"<img src=""stim_listB/argue1.gif""style=""height:400px;""></stim_listB>",,html-keyboard-response,107,728310,0.0-13.0-1.19,60432,List2B,black,man,,,,null,,,,
null,is arguing with,,html-keyboard-response,108,730311,0.0-13.0-2.19,60432,List2B,black,man,,,,null,,,,
8047,,,survey-text,109,738359,0.0-13.0-3.19,60432,List2B,black,man,,,,,"{""Q0"":""Fred is arguing with Ruth""}","<img src=""stim_listB/argue1.gif""style=""height:400px;""></stim_listB>",is arguing with,
12478,"<img src='img/portrait_matrix_list2.jpg' style='width:900px;height:500px;''></img><p>If you have memorised all the portraits and names and are ready to start, press Continue.</p><p><strong>Please note: Your memory of these faces will be tested 4 times during this experiment.</strong></p>",0,html-button-response,110,750839,0.0-14.0-0.0,60432,List2B,black,man,,,,,,,,
3109,"<img src=""portrait/WM1.jpg""style=""height:400px;""></img>",6,html-button-response,111,754951,0.0-14.0-1.0,60432,List2B,black,man,,TRUE,6,,,,,
null,CORRECT,,html-keyboard-response,112,756453,0.0-14.0-2.0-0.0,60432,List2B,black,man,,,,null,,,,
1312,"<img src=""portrait/WM2.jpg""style=""height:400px;""></img>",7,html-button-response,113,757767,0.0-14.0-4.0,60432,List2B,black,man,,TRUE,7,,,,,
null,CORRECT,,html-keyboard-response,114,759270,0.0-14.0-5.0-0.0,60432,List2B,black,man,,,,null,,,,
1623,"<img src=""portrait/BM2.jpg""style=""height:400px;""></img>",5,html-button-response,115,760895,0.0-14.0-7.0,60432,List2B,black,man,,TRUE,5,,,,,
null,CORRECT,,html-keyboard-response,116,762398,0.0-14.0-8.0-0.0,60432,List2B,black,man,,,,null,,,,
3111,"<img src=""portrait/BW1.jpg""style=""height:400px;""></img>",0,html-button-response,117,765511,0.0-14.0-10.0,60432,List2B,black,man,,TRUE,0,,,,,
null,CORRECT,,html-keyboard-response,118,767013,0.0-14.0-11.0-0.0,60432,List2B,black,man,,,,null,,,,
1592,"<img src=""portrait/WW1.jpg""style=""height:400px;""></img>",1,html-button-response,119,768607,0.0-14.0-13.0,60432,List2B,black,man,,TRUE,1,,,,,
null,CORRECT,,html-keyboard-response,120,770109,0.0-14.0-14.0-0.0,60432,List2B,black,man,,,,null,,,,
3672,"<img src=""portrait/BW2.jpg""style=""height:400px;""></img>",2,html-button-response,121,773783,0.0-14.0-16.0,60432,List2B,black,man,,TRUE,2,,,,,
null,CORRECT,,html-keyboard-response,122,775286,0.0-14.0-17.0-0.0,60432,List2B,black,man,,,,null,,,,
1112,"<img src=""portrait/WW2.jpg""style=""height:400px;""></img>",3,html-button-response,123,776399,0.0-14.0-19.0,60432,List2B,black,man,,TRUE,3,,,,,
null,CORRECT,,html-keyboard-response,124,777902,0.0-14.0-20.0-0.0,60432,List2B,black,man,,,,null,,,,
2184,"<img src=""portrait/BM1.jpg""style=""height:400px;""></img>",4,html-button-response,125,780087,0.0-14.0-22.0,60432,List2B,black,man,,TRUE,4,,,,,
null,CORRECT,,html-keyboard-response,126,781589,0.0-14.0-23.0-0.0,60432,List2B,black,man,,,,null,,,,
1520,<p>You got 8 out of 8 right first time. Press Continue.</p>,0,html-button-response,127,783111,0.0-14.0-25.0,60432,List2B,black,man,,,,,,,,
null,"<div style=""font-size:60px;"">+</div>",,html-keyboard-response,128,784613,0.0-15.0-0.0,60432,List2B,black,man,,,,null,,,,
null,"<img src=""stim_listB/play4.gif""style=""height:400px;""></stim_listB>",,html-keyboard-response,129,786615,0.0-15.0-1.0,60432,List2B,black,man,,,,null,,,,
null,are playing with each other,,html-keyboard-response,130,788616,0.0-15.0-2.0,60432,List2B,black,man,,,,null,,,,
15095,,,survey-text,131,803711,0.0-15.0-3.0,60432,List2B,black,man,,,,,"{""Q0"":""Fred and Beth are playing each other""}","<img src=""stim_listB/play4.gif""style=""height:400px;""></stim_listB>",are playing with each other,
null,"<div style=""font-size:60px;"">+</div>",,html-keyboard-response,132,804213,0.0-15.0-0.1,60432,List2B,black,man,,,,null,,,,
null,"<img src=""stim_listB/touch1.gif""style=""height:400px;""></stim_listB>",,html-keyboard-response,133,806215,0.0-15.0-1.1,60432,List2B,black,man,,,,null,,,,
null,is touching,,html-keyboard-response,134,808216,0.0-15.0-2.1,60432,List2B,black,man,,,,null,,,,
9582,,,survey-text,135,817799,0.0-15.0-3.1,60432,List2B,black,man,,,,,"{""Q0"":""Dave is touching Jane""}","<img src=""stim_listB/touch1.gif""style=""height:400px;""></stim_listB>",is touching,
null,"<div style=""font-size:60px;"">+</div>",,html-keyboard-response,136,818300,0.0-15.0-0.2,60432,List2B,black,man,,,,null,,,,
null,"<img src=""stim_listB/touch3.gif""style=""height:400px;""></stim_listB>",,html-keyboard-response,137,820302,0.0-15.0-1.2,60432,List2B,black,man,,,,null,,,,
null,is touching,,html-keyboard-response,138,822304,0.0-15.0-2.2,60432,List2B,black,man,,,,null,,,,
14799,,,survey-text,139,837103,0.0-15.0-3.2,60432,List2B,black,man,,,,,"{""Q0"":""Mike is touching Kate""}","<img src=""stim_listB/touch3.gif""style=""height:400px;""></stim_listB>",is touching,
null,"<div style=""font-size:60px;"">+</div>",,html-keyboard-response,140,837605,0.0-15.0-0.3,60432,List2B,black,man,,,,null,,,,
null,"<img src=""stim_listB/play5.gif""style=""height:400px;""></stim_listB>",,html-keyboard-response,141,839607,0.0-15.0-1.3,60432,List2B,black,man,,,,null,,,,
null,is playing with,,html-keyboard-response,142,841609,0.0-15.0-2.3,60432,List2B,black,man,,,,null,,,,
16869,,,survey-text,143,858479,0.0-15.0-3.3,60432,List2B,black,man,,,,,"{""Q0"":""Dave is playing with Mike""}","<img src=""stim_listB/play5.gif""style=""height:400px;""></stim_listB>",is playing with,
null,"<div style=""font-size:60px;"">+</div>",,html-keyboard-response,144,858980,0.0-15.0-0.4,60432,List2B,black,man,,,,null,,,,
null,"<img src=""stim_listB/shout3.gif""style=""height:400px;""></stim_listB>",,html-keyboard-response,145,860982,0.0-15.0-1.4,60432,List2B,black,man,,,,null,,,,
null,is shouting at,,html-keyboard-response,146,862983,0.0-15.0-2.4,60432,List2B,black,man,,,,null,,,,
8694,,,survey-text,147,871679,0.0-15.0-3.4,60432,List2B,black,man,,,,,"{""Q0"":""Beth is shouting with Fred""}","<img src=""stim_listB/shout3.gif""style=""height:400px;""></stim_listB>",is shouting at,
null,"<div style=""font-size:60px;"">+</div>",,html-keyboard-response,148,872182,0.0-15.0-0.5,60432,List2B,black,man,,,,null,,,,
null,"<img src=""stim_listB/shout2.gif""style=""height:400px;""></stim_listB>",,html-keyboard-response,149,874183,0.0-15.0-1.5,60432,List2B,black,man,,,,null,,,,
null,are shouting at each other,,html-keyboard-response,150,876184,0.0-15.0-2.5,60432,List2B,black,man,,,,null,,,,
17229,,,survey-text,151,893415,0.0-15.0-3.5,60432,List2B,black,man,,,,,"{""Q0"":""Jane and Dave are shouting with each other""}","<img src=""stim_listB/shout2.gif""style=""height:400px;""></stim_listB>",are shouting at each other,
null,"<div style=""font-size:60px;"">+</div>",,html-keyboard-response,152,893916,0.0-15.0-0.6,60432,List2B,black,man,,,,null,,,,
null,"<img src=""stim_listB/talk1.gif""style=""height:400px;""></stim_listB>",,html-keyboard-response,153,895918,0.0-15.0-1.6,60432,List2B,black,man,,,,null,,,,
null,is talking to,,html-keyboard-response,154,897920,0.0-15.0-2.6,60432,List2B,black,man,,,,null,,,,
13511,,,survey-text,155,911431,0.0-15.0-3.6,60432,List2B,black,man,,,,,"{""Q0"":""Luke is talking with Jane""}","<img src=""stim_listB/talk1.gif""style=""height:400px;""></stim_listB>",is talking to,
null,"<div style=""font-size:60px;"">+</div>",,html-keyboard-response,156,911932,0.0-15.0-0.7,60432,List2B,black,man,,,,null,,,,
null,"<img src=""stim_listB/flirt8.gif""style=""height:400px;""></stim_listB>",,html-keyboard-response,157,913934,0.0-15.0-1.7,60432,List2B,black,man,,,,null,,,,
null,are flirting with each other,,html-keyboard-response,158,915935,0.0-15.0-2.7,60432,List2B,black,man,,,,null,,,,
14255,,,survey-text,159,930191,0.0-15.0-3.7,60432,List2B,black,man,,,,,"{""Q0"":""Beth and Jane and flirting with each other""}","<img src=""stim_listB/flirt8.gif""style=""height:400px;""></stim_listB>",are flirting with each other,
null,"<div style=""font-size:60px;"">+</div>",,html-keyboard-response,160,930692,0.0-15.0-0.8,60432,List2B,black,man,,,,null,,,,
null,"<img src=""stim_listB/dance3.gif""style=""height:400px;""></stim_listB>",,html-keyboard-response,161,932695,0.0-15.0-1.8,60432,List2B,black,man,,,,null,,,,
null,is dancing with,,html-keyboard-response,162,934696,0.0-15.0-2.8,60432,List2B,black,man,,,,null,,,,
14630,,,survey-text,163,949327,0.0-15.0-3.8,60432,List2B,black,man,,,,,"{""Q0"":""Fred is dancing with Kate""}","<img src=""stim_listB/dance3.gif""style=""height:400px;""></stim_listB>",is dancing with,
null,"<div style=""font-size:60px;"">+</div>",,html-keyboard-response,164,949829,0.0-15.0-0.9,60432,List2B,black,man,,,,null,,,,
null,"<img src=""stim_listB/fight8.gif""style=""height:400px;""></stim_listB>",,html-keyboard-response,165,951831,0.0-15.0-1.9,60432,List2B,black,man,,,,null,,,,
null,are fighting each other,,html-keyboard-response,166,953833,0.0-15.0-2.9,60432,List2B,black,man,,,,null,,,,
12662,,,survey-text,167,966496,0.0-15.0-3.9,60432,List2B,black,man,,,,,"{""Q0"":""Beth is fighting with Ruth""}","<img src=""stim_listB/fight8.gif""style=""height:400px;""></stim_listB>",are fighting each other,
null,"<div style=""font-size:60px;"">+</div>",,html-keyboard-response,168,966998,0.0-15.0-0.10,60432,List2B,black,man,,,,null,,,,
null,"<img src=""stim_listB/shout6.gif""style=""height:400px;""></stim_listB>",,html-keyboard-response,169,968999,0.0-15.0-1.10,60432,List2B,black,man,,,,null,,,,
null,are shouting at each other,,html-keyboard-response,170,971002,0.0-15.0-2.10,60432,List2B,black,man,,,,null,,,,
10899,,,survey-text,171,981903,0.0-15.0-3.10,60432,List2B,black,man,,,,,"{""Q0"":""mike and Dave are shouting with each other""}","<img src=""stim_listB/shout6.gif""style=""height:400px;""></stim_listB>",are shouting at each other,
null,"<div style=""font-size:60px;"">+</div>",,html-keyboard-response,172,982405,0.0-15.0-0.11,60432,List2B,black,man,,,,null,,,,
null,"<img src=""stim_listB/kiss7.gif""style=""height:400px;""></stim_listB>",,html-keyboard-response,173,984407,0.0-15.0-1.11,60432,List2B,black,man,,,,null,,,,
null,is kissing,,html-keyboard-response,174,986408,0.0-15.0-2.11,60432,List2B,black,man,,,,null,,,,
7173,,,survey-text,175,993583,0.0-15.0-3.11,60432,List2B,black,man,,,,,"{""Q0"":""Ruth is kissing Beth""}","<img src=""stim_listB/kiss7.gif""style=""height:400px;""></stim_listB>",is kissing,
null,"<div style=""font-size:60px;"">+</div>",,html-keyboard-response,176,994084,0.0-15.0-0.12,60432,List2B,black,man,,,,null,,,,
null,"<img src=""stim_listB/touch7.gif""style=""height:400px;""></stim_listB>",,html-keyboard-response,177,996086,0.0-15.0-1.12,60432,List2B,black,man,,,,null,,,,
null,is touching,,html-keyboard-response,178,998087,0.0-15.0-2.12,60432,List2B,black,man,,,,null,,,,
11872,,,survey-text,179,1009960,0.0-15.0-3.12,60432,List2B,black,man,,,,,"{""Q0"":""Kate is touching Jane""}","<img src=""stim_listB/touch7.gif""style=""height:400px;""></stim_listB>",is touching,
null,"<div style=""font-size:60px;"">+</div>",,html-keyboard-response,180,1010461,0.0-15.0-0.13,60432,List2B,black,man,,,,null,,,,
null,"<img src=""stim_listB/kiss2.gif""style=""height:400px;""></stim_listB>",,html-keyboard-response,181,1012463,0.0-15.0-1.13,60432,List2B,black,man,,,,null,,,,
null,are kissing each other,,html-keyboard-response,182,1014464,0.0-15.0-2.13,60432,List2B,black,man,,,,null,,,,
14383,,,survey-text,183,1028847,0.0-15.0-3.13,60432,List2B,black,man,,,,,"{""Q0"":""Jane and Dave are kissing each other""}","<img src=""stim_listB/kiss2.gif""style=""height:400px;""></stim_listB>",are kissing each other,
null,"<div style=""font-size:60px;"">+</div>",,html-keyboard-response,184,1029348,0.0-15.0-0.14,60432,List2B,black,man,,,,null,,,,
null,"<img src=""stim_listB/dance1.gif""style=""height:400px;""></stim_listB>",,html-keyboard-response,185,1031350,0.0-15.0-1.14,60432,List2B,black,man,,,,null,,,,
null,is dancing with,,html-keyboard-response,186,1033352,0.0-15.0-2.14,60432,List2B,black,man,,,,null,,,,
8159,,,survey-text,187,1041511,0.0-15.0-3.14,60432,List2B,black,man,,,,,"{""Q0"":""Luke is dancing with Jane""}","<img src=""stim_listB/dance1.gif""style=""height:400px;""></stim_listB>",is dancing with,
null,"<div style=""font-size:60px;"">+</div>",,html-keyboard-response,188,1042012,0.0-15.0-0.15,60432,List2B,black,man,,,,null,,,,
null,"<img src=""stim_listB/shout4.gif""style=""height:400px;""></stim_listB>",,html-keyboard-response,189,1044013,0.0-15.0-1.15,60432,List2B,black,man,,,,null,,,,
null,are shouting at each other,,html-keyboard-response,190,1046014,0.0-15.0-2.15,60432,List2B,black,man,,,,null,,,,
12256,,,survey-text,191,1058271,0.0-15.0-3.15,60432,List2B,black,man,,,,,"{""Q0"":""Mike and Kate are shouting with each other""}","<img src=""stim_listB/shout4.gif""style=""height:400px;""></stim_listB>",are shouting at each other,
null,"<div style=""font-size:60px;"">+</div>",,html-keyboard-response,192,1058773,0.0-15.0-0.16,60432,List2B,black,man,,,,null,,,,
null,"<img src=""stim_listB/shout5.gif""style=""height:400px;""></stim_listB>",,html-keyboard-response,193,1060774,0.0-15.0-1.16,60432,List2B,black,man,,,,null,,,,
null,is shouting at,,html-keyboard-response,194,1062776,0.0-15.0-2.16,60432,List2B,black,man,,,,null,,,,
10623,,,survey-text,195,1073399,0.0-15.0-3.16,60432,List2B,black,man,,,,,"{""Q0"":""Luke is shouting with Fred""}","<img src=""stim_listB/shout5.gif""style=""height:400px;""></stim_listB>",is shouting at,
null,"<div style=""font-size:60px;"">+</div>",,html-keyboard-response,196,1073901,0.0-15.0-0.17,60432,List2B,black,man,,,,null,,,,
null,"<img src=""stim_listB/flirt7.gif""style=""height:400px;""></stim_listB>",,html-keyboard-response,197,1075904,0.0-15.0-1.17,60432,List2B,black,man,,,,null,,,,
null,is flirting with,,html-keyboard-response,198,1077906,0.0-15.0-2.17,60432,List2B,black,man,,,,null,,,,
10764,,,survey-text,199,1088671,0.0-15.0-3.17,60432,List2B,black,man,,,,,"{""Q0"":""Kate is flirting with Ruth""}","<img src=""stim_listB/flirt7.gif""style=""height:400px;""></stim_listB>",is flirting with,
null,"<div style=""font-size:60px;"">+</div>",,html-keyboard-response,200,1089174,0.0-15.0-0.18,60432,List2B,black,man,,,,null,,,,
null,"<img src=""stim_listB/fight3.gif""style=""height:400px;""></stim_listB>",,html-keyboard-response,201,1091175,0.0-15.0-1.18,60432,List2B,black,man,,,,null,,,,
null,is fighting,,html-keyboard-response,202,1093176,0.0-15.0-2.18,60432,List2B,black,man,,,,null,,,,
10486,,,survey-text,203,1103663,0.0-15.0-3.18,60432,List2B,black,man,,,,,"{""Q0"":""Mike is fighting Kate""}","<img src=""stim_listB/fight3.gif""style=""height:400px;""></stim_listB>",is fighting,
null,"<div style=""font-size:60px;"">+</div>",,html-keyboard-response,204,1104164,0.0-15.0-0.19,60432,List2B,black,man,,,,null,,,,
null,"<img src=""stim_listB/talk4.gif""style=""height:400px;""></stim_listB>",,html-keyboard-response,205,1106166,0.0-15.0-1.19,60432,List2B,black,man,,,,null,,,,
null,are talking to each other,,html-keyboard-response,206,1108168,0.0-15.0-2.19,60432,List2B,black,man,,,,null,,,,
17319,,,survey-text,207,1125487,0.0-15.0-3.19,60432,List2B,black,man,,,,,"{""Q0"":""Mike and Beth are talking with each other""}","<img src=""stim_listB/talk4.gif""style=""height:400px;""></stim_listB>",are talking to each other,
2070,"<img src='img/portrait_matrix_list2.jpg' style='width:900px;height:500px;''></img><p>If you have memorised all the portraits and names and are ready to start, press Continue.</p><p><strong>Please note: Your memory of these faces will be tested 4 times during this experiment.</strong></p>",0,html-button-response,208,1127559,0.0-16.0-0.0,60432,List2B,black,man,,,,,,,,
1869,"<img src=""portrait/WW1.jpg""style=""height:400px;""></img>",1,html-button-response,209,1130431,0.0-16.0-1.0,60432,List2B,black,man,,TRUE,1,,,,,
null,CORRECT,,html-keyboard-response,210,1131934,0.0-16.0-2.0-0.0,60432,List2B,black,man,,,,null,,,,
1735,"<img src=""portrait/BW1.jpg""style=""height:400px;""></img>",0,html-button-response,211,1133671,0.0-16.0-4.0,60432,List2B,black,man,,TRUE,0,,,,,
null,CORRECT,,html-keyboard-response,212,1135173,0.0-16.0-5.0-0.0,60432,List2B,black,man,,,,null,,,,
1416,"<img src=""portrait/WM1.jpg""style=""height:400px;""></img>",6,html-button-response,213,1136591,0.0-16.0-7.0,60432,List2B,black,man,,TRUE,6,,,,,
null,CORRECT,,html-keyboard-response,214,1138093,0.0-16.0-8.0-0.0,60432,List2B,black,man,,,,null,,,,
1193,"<img src=""portrait/BM2.jpg""style=""height:400px;""></img>",5,html-button-response,215,1139287,0.0-16.0-10.0,60432,List2B,black,man,,TRUE,5,,,,,
null,CORRECT,,html-keyboard-response,216,1140790,0.0-16.0-11.0-0.0,60432,List2B,black,man,,,,null,,,,
2184,"<img src=""portrait/BW2.jpg""style=""height:400px;""></img>",2,html-button-response,217,1142975,0.0-16.0-13.0,60432,List2B,black,man,,TRUE,2,,,,,
null,CORRECT,,html-keyboard-response,218,1144479,0.0-16.0-14.0-0.0,60432,List2B,black,man,,,,null,,,,
1191,"<img src=""portrait/WW2.jpg""style=""height:400px;""></img>",3,html-button-response,219,1145671,0.0-16.0-16.0,60432,List2B,black,man,,TRUE,3,,,,,
null,CORRECT,,html-keyboard-response,220,1147174,0.0-16.0-17.0-0.0,60432,List2B,black,man,,,,null,,,,
1712,"<img src=""portrait/WM2.jpg""style=""height:400px;""></img>",6,html-button-response,221,1148887,0.0-16.0-19.0,60432,List2B,black,man,,TRUE,7,,,,,
3285,"<img src=""portrait/WM2.jpg""style=""height:400px;""></img>",7,html-button-response,222,1153175,0.0-16.0-21.0-0.0,60432,List2B,black,man,,FALSE,7,,,,,
null,CORRECT,,html-keyboard-response,223,1154677,0.0-16.0-21.0-1.0-0.0,60432,List2B,black,man,,,,null,,,,
1921,"<img src=""portrait/BM1.jpg""style=""height:400px;""></img>",4,html-button-response,224,1156599,0.0-16.0-22.0,60432,List2B,black,man,,TRUE,4,,,,,
null,CORRECT,,html-keyboard-response,225,1158102,0.0-16.0-23.0-0.0,60432,List2B,black,man,,,,null,,,,
1575,<p>You got 7 out of 8 right first time. Press Continue.</p>,0,html-button-response,226,1159678,0.0-16.0-25.0,60432,List2B,black,man,,,,,,,,
7574,"As you did not score 100%, the memory game will repeat. Press Continue.",0,html-button-response,227,1168255,0.0-16.0-26.0-0.0,60432,List2B,black,man,,,,,,,,
1862,"<img src='img/portrait_matrix_list2.jpg' style='width:900px;height:500px;''></img><p>If you have memorised all the portraits and names and are ready to start, press Continue.</p><p><strong>Please note: Your memory of these faces will be tested 4 times during this experiment.</strong></p>",0,html-button-response,228,1171119,0.0-16.1-0.1,60432,List2B,black,man,,,,,,,,
3214,"<img src=""portrait/WW1.jpg""style=""height:400px;""></img>",1,html-button-response,229,1175335,0.0-16.1-1.1,60432,List2B,black,man,,TRUE,1,,,,,
null,CORRECT,,html-keyboard-response,230,1176837,0.0-16.1-2.1-0.1,60432,List2B,black,man,,,,null,,,,
1705,"<img src=""portrait/BW1.jpg""style=""height:400px;""></img>",0,html-button-response,231,1178543,0.0-16.1-4.1,60432,List2B,black,man,,TRUE,0,,,,,
null,CORRECT,,html-keyboard-response,232,1180045,0.0-16.1-5.1-0.1,60432,List2B,black,man,,,,null,,,,
1448,"<img src=""portrait/WM1.jpg""style=""height:400px;""></img>",6,html-button-response,233,1181495,0.0-16.1-7.1,60432,List2B,black,man,,TRUE,6,,,,,
null,CORRECT,,html-keyboard-response,234,1182999,0.0-16.1-8.1-0.1,60432,List2B,black,man,,,,null,,,,
1350,"<img src=""portrait/BM2.jpg""style=""height:400px;""></img>",5,html-button-response,235,1184351,0.0-16.1-10.1,60432,List2B,black,man,,TRUE,5,,,,,
null,CORRECT,,html-keyboard-response,236,1185853,0.0-16.1-11.1-0.1,60432,List2B,black,man,,,,null,,,,
3232,"<img src=""portrait/BW2.jpg""style=""height:400px;""></img>",2,html-button-response,237,1189087,0.0-16.1-13.1,60432,List2B,black,man,,TRUE,2,,,,,
null,CORRECT,,html-keyboard-response,238,1190588,0.0-16.1-14.1-0.1,60432,List2B,black,man,,,,null,,,,
1105,"<img src=""portrait/WW2.jpg""style=""height:400px;""></img>",3,html-button-response,239,1191695,0.0-16.1-16.1,60432,List2B,black,man,,TRUE,3,,,,,
null,CORRECT,,html-keyboard-response,240,1193197,0.0-16.1-17.1-0.1,60432,List2B,black,man,,,,null,,,,
1680,"<img src=""portrait/WM2.jpg""style=""height:400px;""></img>",7,html-button-response,241,1194879,0.0-16.1-19.1,60432,List2B,black,man,,TRUE,7,,,,,
null,CORRECT,,html-keyboard-response,242,1196381,0.0-16.1-20.1-0.1,60432,List2B,black,man,,,,null,,,,
1992,"<img src=""portrait/BM1.jpg""style=""height:400px;""></img>",4,html-button-response,243,1198375,0.0-16.1-22.1,60432,List2B,black,man,,TRUE,4,,,,,
null,CORRECT,,html-keyboard-response,244,1199877,0.0-16.1-23.1-0.1,60432,List2B,black,man,,,,null,,,,
1168,<p>You got 8 out of 8 right first time. Press Continue.</p>,0,html-button-response,245,1201046,0.0-16.1-25.1,60432,List2B,black,man,,,,,,,,
null,"<div style=""font-size:60px;"">+</div>",,html-keyboard-response,246,1202550,0.0-17.0-0.0,60432,List2B,black,man,,,,null,,,,
null,"<img src=""stim_listB/shout7.gif""style=""height:400px;""></stim_listB>",,html-keyboard-response,247,1204552,0.0-17.0-1.0,60432,List2B,black,man,,,,null,,,,
null,is shouting at,,html-keyboard-response,248,1206554,0.0-17.0-2.0,60432,List2B,black,man,,,,null,,,,
11765,,,survey-text,249,1218319,0.0-17.0-3.0,60432,List2B,black,man,,,,,"{""Q0"":""Beth is shouting at Ruth""}","<img src=""stim_listB/shout7.gif""style=""height:400px;""></stim_listB>",is shouting at,
null,"<div style=""font-size:60px;"">+</div>",,html-keyboard-response,250,1218821,0.0-17.0-0.1,60432,List2B,black,man,,,,null,,,,
null,"<img src=""stim_listB/marry1.gif""style=""height:400px;""></stim_listB>",,html-keyboard-response,251,1220823,0.0-17.0-1.1,60432,List2B,black,man,,,,null,,,,
null,is marrying,,html-keyboard-response,252,1222824,0.0-17.0-2.1,60432,List2B,black,man,,,,null,,,,
7607,,,survey-text,253,1230431,0.0-17.0-3.1,60432,List2B,black,man,,,,,"{""Q0"":""Ruth is marrying Dave""}","<img src=""stim_listB/marry1.gif""style=""height:400px;""></stim_listB>",is marrying,
null,"<div style=""font-size:60px;"">+</div>",,html-keyboard-response,254,1230934,0.0-17.0-0.2,60432,List2B,black,man,,,,null,,,,
null,"<img src=""stim_listB/flirt3.gif""style=""height:400px;""></stim_listB>",,html-keyboard-response,255,1232937,0.0-17.0-1.2,60432,List2B,black,man,,,,null,,,,
null,is flirting with,,html-keyboard-response,256,1234939,0.0-17.0-2.2,60432,List2B,black,man,,,,null,,,,
15947,,,survey-text,257,1250888,0.0-17.0-3.2,60432,List2B,black,man,,,,,"{""Q0"":""Fred is flirting with Kate""}","<img src=""stim_listB/flirt3.gif""style=""height:400px;""></stim_listB>",is flirting with,
null,"<div style=""font-size:60px;"">+</div>",,html-keyboard-response,258,1251389,0.0-17.0-0.3,60432,List2B,black,man,,,,null,,,,
null,"<img src=""stim_listB/shout8.gif""style=""height:400px;""></stim_listB>",,html-keyboard-response,259,1253391,0.0-17.0-1.3,60432,List2B,black,man,,,,null,,,,
null,are shouting at each other,,html-keyboard-response,260,1255393,0.0-17.0-2.3,60432,List2B,black,man,,,,null,,,,
13317,,,survey-text,261,1268711,0.0-17.0-3.3,60432,List2B,black,man,,,,,"{""Q0"":""Jane is shouting with Kate""}","<img src=""stim_listB/shout8.gif""style=""height:400px;""></stim_listB>",are shouting at each other,
null,"<div style=""font-size:60px;"">+</div>",,html-keyboard-response,262,1269212,0.0-17.0-0.4,60432,List2B,black,man,,,,null,,,,
null,"<img src=""stim_listB/marry2.gif""style=""height:400px;""></stim_listB>",,html-keyboard-response,263,1271214,0.0-17.0-1.4,60432,List2B,black,man,,,,null,,,,
null,are marrying each other,,html-keyboard-response,264,1273215,0.0-17.0-2.4,60432,List2B,black,man,,,,null,,,,
12454,,,survey-text,265,1285671,0.0-17.0-3.4,60432,List2B,black,man,,,,,"{""Q0"":""Luke and Jane are marrying each other""}","<img src=""stim_listB/marry2.gif""style=""height:400px;""></stim_listB>",are marrying each other,
null,"<div style=""font-size:60px;"">+</div>",,html-keyboard-response,266,1286172,0.0-17.0-0.5,60432,List2B,black,man,,,,null,,,,
null,"<img src=""stim_listB/talk3.gif""style=""height:400px;""></stim_listB>",,html-keyboard-response,267,1288173,0.0-17.0-1.5,60432,List2B,black,man,,,,null,,,,
null,is talking to,,html-keyboard-response,268,1290175,0.0-17.0-2.5,60432,List2B,black,man,,,,null,,,,
8383,,,survey-text,269,1298559,0.0-17.0-3.5,60432,List2B,black,man,,,,,"{""Q0"":""Fred is talking to Kate""}","<img src=""stim_listB/talk3.gif""style=""height:400px;""></stim_listB>",is talking to,
null,"<div style=""font-size:60px;"">+</div>",,html-keyboard-response,270,1299060,0.0-17.0-0.6,60432,List2B,black,man,,,,null,,,,
null,"<img src=""stim_listB/marry3.gif""style=""height:400px;""></stim_listB>",,html-keyboard-response,271,1301062,0.0-17.0-1.6,60432,List2B,black,man,,,,null,,,,
null,is marrying,,html-keyboard-response,272,1303063,0.0-17.0-2.6,60432,List2B,black,man,,,,null,,,,
8207,,,survey-text,273,1311271,0.0-17.0-3.6,60432,List2B,black,man,,,,,"{""Q0"":""Beth is marrying Mike""}","<img src=""stim_listB/marry3.gif""style=""height:400px;""></stim_listB>",is marrying,
null,"<div style=""font-size:60px;"">+</div>",,html-keyboard-response,274,1311773,0.0-17.0-0.7,60432,List2B,black,man,,,,null,,,,
null,"<img src=""stim_listB/kiss4.gif""style=""height:400px;""></stim_listB>",,html-keyboard-response,275,1313774,0.0-17.0-1.7,60432,List2B,black,man,,,,null,,,,
null,are kissing each other,,html-keyboard-response,276,1315776,0.0-17.0-2.7,60432,List2B,black,man,,,,null,,,,
8694,,,survey-text,277,1324471,0.0-17.0-3.7,60432,List2B,black,man,,,,,"{""Q0"":""Kate is kissing Mike""}","<img src=""stim_listB/kiss4.gif""style=""height:400px;""></stim_listB>",are kissing each other,
null,"<div style=""font-size:60px;"">+</div>",,html-keyboard-response,278,1324974,0.0-17.0-0.8,60432,List2B,black,man,,,,null,,,,
null,"<img src=""stim_listB/play1.gif""style=""height:400px;""></stim_listB>",,html-keyboard-response,279,1326975,0.0-17.0-1.8,60432,List2B,black,man,,,,null,,,,
null,is playing with,,html-keyboard-response,280,1328977,0.0-17.0-2.8,60432,List2B,black,man,,,,null,,,,
17702,,,survey-text,281,1346679,0.0-17.0-3.8,60432,List2B,black,man,,,,,"{""Q0"":""Jane is playing cards with Dave""}","<img src=""stim_listB/play1.gif""style=""height:400px;""></stim_listB>",is playing with,
null,"<div style=""font-size:60px;"">+</div>",,html-keyboard-response,282,1347181,0.0-17.0-0.9,60432,List2B,black,man,,,,null,,,,
null,"<img src=""stim_listB/talk7.gif""style=""height:400px;""></stim_listB>",,html-keyboard-response,283,1349182,0.0-17.0-1.9,60432,List2B,black,man,,,,null,,,,
null,is talking to,,html-keyboard-response,284,1351184,0.0-17.0-2.9,60432,List2B,black,man,,,,null,,,,
16110,,,survey-text,285,1367295,0.0-17.0-3.9,60432,List2B,black,man,,,,,"{""Q0"":""Ruth is talking to Kate""}","<img src=""stim_listB/talk7.gif""style=""height:400px;""></stim_listB>",is talking to,
null,"<div style=""font-size:60px;"">+</div>",,html-keyboard-response,286,1367797,0.0-17.0-0.10,60432,List2B,black,man,,,,null,,,,
null,"<img src=""stim_listB/play3.gif""style=""height:400px;""></stim_listB>",,html-keyboard-response,287,1369799,0.0-17.0-1.10,60432,List2B,black,man,,,,null,,,,
null,is playing with,,html-keyboard-response,288,1371801,0.0-17.0-2.10,60432,List2B,black,man,,,,null,,,,
7517,,,survey-text,289,1379319,0.0-17.0-3.10,60432,List2B,black,man,,,,,"{""Q0"":""Kate is playing with Mike""}","<img src=""stim_listB/play3.gif""style=""height:400px;""></stim_listB>",is playing with,
null,"<div style=""font-size:60px;"">+</div>",,html-keyboard-response,290,1379821,0.0-17.0-0.11,60432,List2B,black,man,,,,null,,,,
null,"<img src=""stim_listB/marry8.gif""style=""height:400px;""></stim_listB>",,html-keyboard-response,291,1381823,0.0-17.0-1.11,60432,List2B,black,man,,,,null,,,,
null,are marrying each other,,html-keyboard-response,292,1383824,0.0-17.0-2.11,60432,List2B,black,man,,,,null,,,,
8975,,,survey-text,293,1392799,0.0-17.0-3.11,60432,List2B,black,man,,,,,"{""Q0"":""Ruth and Kate are marrying each other""}","<img src=""stim_listB/marry8.gif""style=""height:400px;""></stim_listB>",are marrying each other,
null,"<div style=""font-size:60px;"">+</div>",,html-keyboard-response,294,1393301,0.0-17.0-0.12,60432,List2B,black,man,,,,null,,,,
null,"<img src=""stim_listB/touch4.gif""style=""height:400px;""></stim_listB>",,html-keyboard-response,295,1395303,0.0-17.0-1.12,60432,List2B,black,man,,,,null,,,,
null,are touching each other,,html-keyboard-response,296,1397304,0.0-17.0-2.12,60432,List2B,black,man,,,,null,,,,
774,,,survey-text,297,1398078,0.0-17.0-3.12,60432,List2B,black,man,,,,,"{""Q0"":""""}","<img src=""stim_listB/touch4.gif""style=""height:400px;""></stim_listB>",are touching each other,
null,"<div style=""font-size:60px;"">+</div>",,html-keyboard-response,298,1398581,0.0-17.0-0.13,60432,List2B,black,man,,,,null,,,,
null,"<img src=""stim_listB/touch5.gif""style=""height:400px;""></stim_listB>",,html-keyboard-response,299,1400583,0.0-17.0-1.13,60432,List2B,black,man,,,,null,,,,
null,is touching,,html-keyboard-response,300,1402585,0.0-17.0-2.13,60432,List2B,black,man,,,,null,,,,
7173,,,survey-text,301,1409758,0.0-17.0-3.13,60432,List2B,black,man,,,,,"{""Q0"":""""}","<img src=""stim_listB/touch5.gif""style=""height:400px;""></stim_listB>",is touching,
null,"<div style=""font-size:60px;"">+</div>",,html-keyboard-response,302,1410259,0.0-17.0-0.14,60432,List2B,black,man,,,,null,,,,
null,"<img src=""stim_listB/fight7.gif""style=""height:400px;""></stim_listB>",,html-keyboard-response,303,1412261,0.0-17.0-1.14,60432,List2B,black,man,,,,null,,,,
null,is fighting,,html-keyboard-response,304,1414261,0.0-17.0-2.14,60432,List2B,black,man,,,,null,,,,
11632,,,survey-text,305,1425895,0.0-17.0-3.14,60432,List2B,black,man,,,,,"{""Q0"":""Kate is fighting with Jane""}","<img src=""stim_listB/fight7.gif""style=""height:400px;""></stim_listB>",is fighting,
null,"<div style=""font-size:60px;"">+</div>",,html-keyboard-response,306,1426397,0.0-17.0-0.15,60432,List2B,black,man,,,,null,,,,
null,"<img src=""stim_listB/dance8.gif""style=""height:400px;""></stim_listB>",,html-keyboard-response,307,1428399,0.0-17.0-1.15,60432,List2B,black,man,,,,null,,,,
null,are dancing with each other,,html-keyboard-response,308,1430400,0.0-17.0-2.15,60432,List2B,black,man,,,,null,,,,
14590,,,survey-text,309,1444991,0.0-17.0-3.15,60432,List2B,black,man,,,,,"{""Q0"":""Beth and Jane are dancing with each other""}","<img src=""stim_listB/dance8.gif""style=""height:400px;""></stim_listB>",are dancing with each other,
null,"<div style=""font-size:60px;"">+</div>",,html-keyboard-response,310,1445493,0.0-17.0-0.16,60432,List2B,black,man,,,,null,,,,
null,"<img src=""stim_listB/flirt4.gif""style=""height:400px;""></stim_listB>",,html-keyboard-response,311,1447495,0.0-17.0-1.16,60432,List2B,black,man,,,,null,,,,
null,are flirting with each other,,html-keyboard-response,312,1449498,0.0-17.0-2.16,60432,List2B,black,man,,,,null,,,,
12764,,,survey-text,313,1462263,0.0-17.0-3.16,60432,List2B,black,man,,,,,"{""Q0"":""Mike and Beth are flirting with each other""}","<img src=""stim_listB/flirt4.gif""style=""height:400px;""></stim_listB>",are flirting with each other,
null,"<div style=""font-size:60px;"">+</div>",,html-keyboard-response,314,1462764,0.0-17.0-0.17,60432,List2B,black,man,,,,null,,,,
null,"<img src=""stim_listB/marry6.gif""style=""height:400px;""></stim_listB>",,html-keyboard-response,315,1464766,0.0-17.0-1.17,60432,List2B,black,man,,,,null,,,,
null,are marrying each other,,html-keyboard-response,316,1466768,0.0-17.0-2.17,60432,List2B,black,man,,,,null,,,,
8830,,,survey-text,317,1475599,0.0-17.0-3.17,60432,List2B,black,man,,,,,"{""Q0"":""Mike and Luke are marrying each other""}","<img src=""stim_listB/marry6.gif""style=""height:400px;""></stim_listB>",are marrying each other,
null,"<div style=""font-size:60px;"">+</div>",,html-keyboard-response,318,1476100,0.0-17.0-0.18,60432,List2B,black,man,,,,null,,,,
null,"<img src=""stim_listB/talk6.gif""style=""height:400px;""></stim_listB>",,html-keyboard-response,319,1478101,0.0-17.0-1.18,60432,List2B,black,man,,,,null,,,,
null,are talking to each other,,html-keyboard-response,320,1480103,0.0-17.0-2.18,60432,List2B,black,man,,,,null,,,,
10014,,,survey-text,321,1490119,0.0-17.0-3.18,60432,List2B,black,man,,,,,"{""Q0"":""Dave and Fred are talking to each other""}","<img src=""stim_listB/talk6.gif""style=""height:400px;""></stim_listB>",are talking to each other,
null,"<div style=""font-size:60px;"">+</div>",,html-keyboard-response,322,1490620,0.0-17.0-0.19,60432,List2B,black,man,,,,null,,,,
null,"<img src=""stim_listB/play2.gif""style=""height:400px;""></stim_listB>",,html-keyboard-response,323,1492622,0.0-17.0-1.19,60432,List2B,black,man,,,,null,,,,
null,are playing with each other,,html-keyboard-response,324,1494623,0.0-17.0-2.19,60432,List2B,black,man,,,,null,,,,
9599,,,survey-text,325,1504224,0.0-17.0-3.19,60432,List2B,black,man,,,,,"{""Q0"":""Ruth and Luke are playing with each other""}","<img src=""stim_listB/play2.gif""style=""height:400px;""></stim_listB>",are playing with each other,
1741,"<img src='img/portrait_matrix_list2.jpg' style='width:900px;height:500px;''></img><p>If you have memorised all the portraits and names and are ready to start, press Continue.</p><p><strong>Please note: Your memory of these faces will be tested 4 times during this experiment.</strong></p>",0,html-button-response,326,1505967,0.0-18.0-0.0,60432,List2B,black,man,,,,,,,,
1940,"<img src=""portrait/BM1.jpg""style=""height:400px;""></img>",4,html-button-response,327,1508911,0.0-18.0-1.0,60432,List2B,black,man,,TRUE,4,,,,,
null,CORRECT,,html-keyboard-response,328,1510413,0.0-18.0-2.0-0.0,60432,List2B,black,man,,,,null,,,,
1328,"<img src=""portrait/WW1.jpg""style=""height:400px;""></img>",1,html-button-response,329,1511742,0.0-18.0-4.0,60432,List2B,black,man,,TRUE,1,,,,,
null,CORRECT,,html-keyboard-response,330,1513244,0.0-18.0-5.0-0.0,60432,List2B,black,man,,,,null,,,,
1489,"<img src=""portrait/BM2.jpg""style=""height:400px;""></img>",5,html-button-response,331,1514734,0.0-18.0-7.0,60432,List2B,black,man,,TRUE,5,,,,,
null,CORRECT,,html-keyboard-response,332,1516237,0.0-18.0-8.0-0.0,60432,List2B,black,man,,,,null,,,,
2361,"<img src=""portrait/WM1.jpg""style=""height:400px;""></img>",6,html-button-response,333,1518598,0.0-18.0-10.0,60432,List2B,black,man,,TRUE,6,,,,,
null,CORRECT,,html-keyboard-response,334,1520100,0.0-18.0-11.0-0.0,60432,List2B,black,man,,,,null,,,,
2865,"<img src=""portrait/BW2.jpg""style=""height:400px;""></img>",2,html-button-response,335,1522966,0.0-18.0-13.0,60432,List2B,black,man,,TRUE,2,,,,,
null,CORRECT,,html-keyboard-response,336,1524469,0.0-18.0-14.0-0.0,60432,List2B,black,man,,,,null,,,,
2369,"<img src=""portrait/WM2.jpg""style=""height:400px;""></img>",7,html-button-response,337,1526839,0.0-18.0-16.0,60432,List2B,black,man,,TRUE,7,,,,,
null,CORRECT,,html-keyboard-response,338,1528341,0.0-18.0-17.0-0.0,60432,List2B,black,man,,,,null,,,,
1648,"<img src=""portrait/BW1.jpg""style=""height:400px;""></img>",0,html-button-response,339,1529990,0.0-18.0-19.0,60432,List2B,black,man,,TRUE,0,,,,,
null,CORRECT,,html-keyboard-response,340,1531493,0.0-18.0-20.0-0.0,60432,List2B,black,man,,,,null,,,,
2040,"<img src=""portrait/WW2.jpg""style=""height:400px;""></img>",3,html-button-response,341,1533534,0.0-18.0-22.0,60432,List2B,black,man,,TRUE,3,,,,,
null,CORRECT,,html-keyboard-response,342,1535038,0.0-18.0-23.0-0.0,60432,List2B,black,man,,,,null,,,,
1184,<p>You got 8 out of 8 right first time. Press Continue.</p>,0,html-button-response,343,1536222,0.0-18.0-25.0,60432,List2B,black,man,,,,,,,,
null,"<div style=""font-size:60px;"">+</div>",,html-keyboard-response,344,1537726,0.0-19.0-0.0,60432,List2B,black,man,,,,null,,,,
null,"<img src=""stim_listB/marry5.gif""style=""height:400px;""></stim_listB>",,html-keyboard-response,345,1539728,0.0-19.0-1.0,60432,List2B,black,man,,,,null,,,,
null,is marrying,,html-keyboard-response,346,1541729,0.0-19.0-2.0,60432,List2B,black,man,,,,null,,,,
6821,,,survey-text,347,1548551,0.0-19.0-3.0,60432,List2B,black,man,,,,,"{""Q0"":""Luke is marrying Fred""}","<img src=""stim_listB/marry5.gif""style=""height:400px;""></stim_listB>",is marrying,
null,"<div style=""font-size:60px;"">+</div>",,html-keyboard-response,348,1549054,0.0-19.0-0.1,60432,List2B,black,man,,,,null,,,,
null,"<img src=""stim_listB/touch8.gif""style=""height:400px;""></stim_listB>",,html-keyboard-response,349,1551055,0.0-19.0-1.1,60432,List2B,black,man,,,,null,,,,
null,are touching each other,,html-keyboard-response,350,1553057,0.0-19.0-2.1,60432,List2B,black,man,,,,null,,,,
11381,,,survey-text,351,1564438,0.0-19.0-3.1,60432,List2B,black,man,,,,,"{""Q0"":""Beth and Ruth are touching each other""}","<img src=""stim_listB/touch8.gif""style=""height:400px;""></stim_listB>",are touching each other,
null,"<div style=""font-size:60px;"">+</div>",,html-keyboard-response,352,1564940,0.0-19.0-0.2,60432,List2B,black,man,,,,null,,,,
null,"<img src=""stim_listB/play7.gif""style=""height:400px;""></stim_listB>",,html-keyboard-response,353,1566941,0.0-19.0-1.2,60432,List2B,black,man,,,,null,,,,
null,is playing with,,html-keyboard-response,354,1568942,0.0-19.0-2.2,60432,List2B,black,man,,,,null,,,,
13552,,,survey-text,355,1582495,0.0-19.0-3.2,60432,List2B,black,man,,,,,"{""Q0"":""Kate is playing with Jane""}","<img src=""stim_listB/play7.gif""style=""height:400px;""></stim_listB>",is playing with,
null,"<div style=""font-size:60px;"">+</div>",,html-keyboard-response,356,1582997,0.0-19.0-0.3,60432,List2B,black,man,,,,null,,,,
null,"<img src=""stim_listB/talk5.gif""style=""height:400px;""></stim_listB>",,html-keyboard-response,357,1584999,0.0-19.0-1.3,60432,List2B,black,man,,,,null,,,,
null,is talking to,,html-keyboard-response,358,1587000,0.0-19.0-2.3,60432,List2B,black,man,,,,null,,,,
7126,,,survey-text,359,1594127,0.0-19.0-3.3,60432,List2B,black,man,,,,,"{""Q0"":""Luke is talking to Mike""}","<img src=""stim_listB/talk5.gif""style=""height:400px;""></stim_listB>",is talking to,
null,"<div style=""font-size:60px;"">+</div>",,html-keyboard-response,360,1594628,0.0-19.0-0.4,60432,List2B,black,man,,,,null,,,,
null,"<img src=""stim_listB/kiss5.gif""style=""height:400px;""></stim_listB>",,html-keyboard-response,361,1596630,0.0-19.0-1.4,60432,List2B,black,man,,,,null,,,,
null,is kissing,,html-keyboard-response,362,1598632,0.0-19.0-2.4,60432,List2B,black,man,,,,null,,,,
11823,,,survey-text,363,1610455,0.0-19.0-3.4,60432,List2B,black,man,,,,,"{""Q0"":""Fred is kissing Luke""}","<img src=""stim_listB/kiss5.gif""style=""height:400px;""></stim_listB>",is kissing,
null,"<div style=""font-size:60px;"">+</div>",,html-keyboard-response,364,1610957,0.0-19.0-0.5,60432,List2B,black,man,,,,null,,,,
null,"<img src=""stim_listB/fight5.gif""style=""height:400px;""></stim_listB>",,html-keyboard-response,365,1612958,0.0-19.0-1.5,60432,List2B,black,man,,,,null,,,,
null,is fighting,,html-keyboard-response,366,1614959,0.0-19.0-2.5,60432,List2B,black,man,,,,null,,,,
9111,,,survey-text,367,1624071,0.0-19.0-3.5,60432,List2B,black,man,,,,,"{""Q0"":""Mike is fighting Dave""}","<img src=""stim_listB/fight5.gif""style=""height:400px;""></stim_listB>",is fighting,
null,"<div style=""font-size:60px;"">+</div>",,html-keyboard-response,368,1624572,0.0-19.0-0.6,60432,List2B,black,man,,,,null,,,,
null,"<img src=""stim_listB/dance5.gif""style=""height:400px;""></stim_listB>",,html-keyboard-response,369,1626574,0.0-19.0-1.6,60432,List2B,black,man,,,,null,,,,
null,is dancing with,,html-keyboard-response,370,1628575,0.0-19.0-2.6,60432,List2B,black,man,,,,null,,,,
7263,,,survey-text,371,1635839,0.0-19.0-3.6,60432,List2B,black,man,,,,,"{""Q0"":""Mike is dancing with Luke""}","<img src=""stim_listB/dance5.gif""style=""height:400px;""></stim_listB>",is dancing with,
null,"<div style=""font-size:60px;"">+</div>",,html-keyboard-response,372,1636340,0.0-19.0-0.7,60432,List2B,black,man,,,,null,,,,
null,"<img src=""stim_listB/flirt1.gif""style=""height:400px;""></stim_listB>",,html-keyboard-response,373,1638341,0.0-19.0-1.7,60432,List2B,black,man,,,,null,,,,
null,is flirting with,,html-keyboard-response,374,1640344,0.0-19.0-2.7,60432,List2B,black,man,,,,null,,,,
10478,,,survey-text,375,1650823,0.0-19.0-3.7,60432,List2B,black,man,,,,,"{""Q0"":""Jane is flirting with Luke""}","<img src=""stim_listB/flirt1.gif""style=""height:400px;""></stim_listB>",is flirting with,
null,"<div style=""font-size:60px;"">+</div>",,html-keyboard-response,376,1651326,0.0-19.0-0.8,60432,List2B,black,man,,,,null,,,,
null,"<img src=""stim_listB/argue5.gif""style=""height:400px;""></stim_listB>",,html-keyboard-response,377,1653327,0.0-19.0-1.8,60432,List2B,black,man,,,,null,,,,
null,is arguing with,,html-keyboard-response,378,1655328,0.0-19.0-2.8,60432,List2B,black,man,,,,null,,,,
7958,,,survey-text,379,1663286,0.0-19.0-3.8,60432,List2B,black,man,,,,,"{""Q0"":""Fred is arguing with Dave""}","<img src=""stim_listB/argue5.gif""style=""height:400px;""></stim_listB>",is arguing with,
null,"<div style=""font-size:60px;"">+</div>",,html-keyboard-response,380,1663788,0.0-19.0-0.9,60432,List2B,black,man,,,,null,,,,
null,"<img src=""stim_listB/marry7.gif""style=""height:400px;""></stim_listB>",,html-keyboard-response,381,1665789,0.0-19.0-1.9,60432,List2B,black,man,,,,null,,,,
null,is marrying,,html-keyboard-response,382,1667790,0.0-19.0-2.9,60432,List2B,black,man,,,,null,,,,
9160,,,survey-text,383,1676951,0.0-19.0-3.9,60432,List2B,black,man,,,,,"{""Q0"":""Beth is marrying Jane""}","<img src=""stim_listB/marry7.gif""style=""height:400px;""></stim_listB>",is marrying,
null,"<div style=""font-size:60px;"">+</div>",,html-keyboard-response,384,1677452,0.0-19.0-0.10,60432,List2B,black,man,,,,null,,,,
null,"<img src=""stim_listB/argue8.gif""style=""height:400px;""></stim_listB>",,html-keyboard-response,385,1679454,0.0-19.0-1.10,60432,List2B,black,man,,,,null,,,,
null,are arguing with each other,,html-keyboard-response,386,1681455,0.0-19.0-2.10,60432,List2B,black,man,,,,null,,,,
13558,,,survey-text,387,1695015,0.0-19.0-3.10,60432,List2B,black,man,,,,,"{""Q0"":""kate is arguing with Ruth""}","<img src=""stim_listB/argue8.gif""style=""height:400px;""></stim_listB>",are arguing with each other,
null,"<div style=""font-size:60px;"">+</div>",,html-keyboard-response,388,1695516,0.0-19.0-0.11,60432,List2B,black,man,,,,null,,,,
null,"<img src=""stim_listB/touch2.gif""style=""height:400px;""></stim_listB>",,html-keyboard-response,389,1697518,0.0-19.0-1.11,60432,List2B,black,man,,,,null,,,,
null,are touching each other,,html-keyboard-response,390,1699520,0.0-19.0-2.11,60432,List2B,black,man,,,,null,,,,
27839,,,survey-text,391,1727359,0.0-19.0-3.11,60432,List2B,black,man,,,,,"{""Q0"":""Luke is arguing with Fred""}","<img src=""stim_listB/touch2.gif""style=""height:400px;""></stim_listB>",are touching each other,
null,"<div style=""font-size:60px;"">+</div>",,html-keyboard-response,392,1727861,0.0-19.0-0.12,60432,List2B,black,man,,,,null,,,,
null,"<img src=""stim_listB/kiss6.gif""style=""height:400px;""></stim_listB>",,html-keyboard-response,393,1729862,0.0-19.0-1.12,60432,List2B,black,man,,,,null,,,,
null,are kissing each other,,html-keyboard-response,394,1731863,0.0-19.0-2.12,60432,List2B,black,man,,,,null,,,,
15038,,,survey-text,395,1746903,0.0-19.0-3.12,60432,List2B,black,man,,,,,"{""Q0"":""Dave is kissing with Mike""}","<img src=""stim_listB/kiss6.gif""style=""height:400px;""></stim_listB>",are kissing each other,
null,"<div style=""font-size:60px;"">+</div>",,html-keyboard-response,396,1747404,0.0-19.0-0.13,60432,List2B,black,man,,,,null,,,,
null,"<img src=""stim_listB/fight2.gif""style=""height:400px;""></stim_listB>",,html-keyboard-response,397,1749406,0.0-19.0-1.13,60432,List2B,black,man,,,,null,,,,
null,are fighting each other,,html-keyboard-response,398,1751409,0.0-19.0-2.13,60432,List2B,black,man,,,,null,,,,
10917,,,survey-text,399,1762327,0.0-19.0-3.13,60432,List2B,black,man,,,,,"{""Q0"":""Ruth and Luke are fighting with each other""}","<img src=""stim_listB/fight2.gif""style=""height:400px;""></stim_listB>",are fighting each other,
null,"<div style=""font-size:60px;"">+</div>",,html-keyboard-response,400,1762829,0.0-19.0-0.14,60432,List2B,black,man,,,,null,,,,
null,"<img src=""stim_listB/kiss8.gif""style=""height:400px;""></stim_listB>",,html-keyboard-response,401,1764830,0.0-19.0-1.14,60432,List2B,black,man,,,,null,,,,
null,are kissing each other,,html-keyboard-response,402,1766831,0.0-19.0-2.14,60432,List2B,black,man,,,,null,,,,
17024,,,survey-text,403,1783855,0.0-19.0-3.14,60432,List2B,black,man,,,,,"{""Q0"":""Kate and Jane are kissing each other""}","<img src=""stim_listB/kiss8.gif""style=""height:400px;""></stim_listB>",are kissing each other,
null,"<div style=""font-size:60px;"">+</div>",,html-keyboard-response,404,1784357,0.0-19.0-0.15,60432,List2B,black,man,,,,null,,,,
null,"<img src=""stim_listB/kiss3.gif""style=""height:400px;""></stim_listB>",,html-keyboard-response,405,1786359,0.0-19.0-1.15,60432,List2B,black,man,,,,null,,,,
null,is kissing,,html-keyboard-response,406,1788361,0.0-19.0-2.15,60432,List2B,black,man,,,,null,,,,
7748,,,survey-text,407,1796111,0.0-19.0-3.15,60432,List2B,black,man,,,,,"{""Q0"":""Beth is kissing Fred""}","<img src=""stim_listB/kiss3.gif""style=""height:400px;""></stim_listB>",is kissing,
null,"<div style=""font-size:60px;"">+</div>",,html-keyboard-response,408,1796612,0.0-19.0-0.16,60432,List2B,black,man,,,,null,,,,
null,"<img src=""stim_listB/dance6.gif""style=""height:400px;""></stim_listB>",,html-keyboard-response,409,1798614,0.0-19.0-1.16,60432,List2B,black,man,,,,null,,,,
null,are dancing with each other,,html-keyboard-response,410,1800615,0.0-19.0-2.16,60432,List2B,black,man,,,,null,,,,
10598,,,survey-text,411,1811215,0.0-19.0-3.16,60432,List2B,black,man,,,,,"{""Q0"":""Fred and Dave are dancing with each other""}","<img src=""stim_listB/dance6.gif""style=""height:400px;""></stim_listB>",are dancing with each other,
null,"<div style=""font-size:60px;"">+</div>",,html-keyboard-response,412,1811716,0.0-19.0-0.17,60432,List2B,black,man,,,,null,,,,
null,"<img src=""stim_listB/talk8.gif""style=""height:400px;""></stim_listB>",,html-keyboard-response,413,1813719,0.0-19.0-1.17,60432,List2B,black,man,,,,null,,,,
null,are talking to each other,,html-keyboard-response,414,1815721,0.0-19.0-2.17,60432,List2B,black,man,,,,null,,,,
9238,,,survey-text,415,1824959,0.0-19.0-3.17,60432,List2B,black,man,,,,,"{""Q0"":""Jane and Beth are talking with each other""}","<img src=""stim_listB/talk8.gif""style=""height:400px;""></stim_listB>",are talking to each other,
null,"<div style=""font-size:60px;"">+</div>",,html-keyboard-response,416,1825462,0.0-19.0-0.18,60432,List2B,black,man,,,,null,,,,
null,"<img src=""stim_listB/fight4.gif""style=""height:400px;""></stim_listB>",,html-keyboard-response,417,1827465,0.0-19.0-1.18,60432,List2B,black,man,,,,null,,,,
null,are fighting each other,,html-keyboard-response,418,1829466,0.0-19.0-2.18,60432,List2B,black,man,,,,null,,,,
19572,,,survey-text,419,1849040,0.0-19.0-3.18,60432,List2B,black,man,,,,,"{""Q0"":""Dont know""}","<img src=""stim_listB/fight4.gif""style=""height:400px;""></stim_listB>",are fighting each other,
null,"<div style=""font-size:60px;"">+</div>",,html-keyboard-response,420,1849542,0.0-19.0-0.19,60432,List2B,black,man,,,,null,,,,
null,"<img src=""stim_listB/dance4.gif""style=""height:400px;""></stim_listB>",,html-keyboard-response,421,1851544,0.0-19.0-1.19,60432,List2B,black,man,,,,null,,,,
null,are dancing with each other,,html-keyboard-response,422,1853545,0.0-19.0-2.19,60432,List2B,black,man,,,,null,,,,
9780,,,survey-text,423,1863327,0.0-19.0-3.19,60432,List2B,black,man,,,,,"{""Q0"":""Mike and Beth are dancing with each other""}","<img src=""stim_listB/dance4.gif""style=""height:400px;""></stim_listB>",are dancing with each other,
3127,<p>Thank you for completing that task.</p><p>The final part of this session is a short questionnaire.</p><p>Press Continue.</p>,0,html-button-response,424,1866455,0.0-20.0,60432,List2B,black,man,,,,,,,,
34951,,,survey-text,425,1902407,0.0-21.0,60432,List2B,black,man,,,,,"{""Q0"":""44"",""Q1"":""English"",""Q2"":""English"",""Q3"":""England"",""Q4"":""Afro-Caribbean"",""Q5"":""Male""}",,,demographics
21174,,,survey-likert,426,1923583,0.0-22.0,60432,List2B,black,man,,,,,"{""Q0"":3}",,,likert_ESS
20804,,,survey-likert,427,1944415,0.0-23.0,60432,List2B,black,man,,,,,"{""Q0"":0}",,,likert_NSSAL_Q1
5525,,,survey-likert,428,1949967,0.0-24.0,60432,List2B,black,man,,,,,"{""Q0"":0}",,,likert_NSSAL_Q2
6766,,,survey-likert,429,1956759,0.0-25.0,60432,List2B,black,man,,,,,"{""Q0"":4}",,,likert_CGRS_Q1
3750,,,survey-likert,430,1960535,0.0-26.0,60432,List2B,black,man,,,,,"{""Q0"":4}",,,likert_CGRS_Q2
4173,,,survey-likert,431,1964735,0.0-27.0,60432,List2B,black,man,,,,,"{""Q0"":4}",,,likert_CGRS_Q3
5291,,,survey-text,432,1970052,0.0-28.0,60432,List2B,black,man,,,,,"{""Q0"":""ccc""}",,,worker_id
18262,,,external-html,433,1988375,0.0-29.0,60432,List2B,black,man,debrief.html,,,,,,,
