rt,stimulus,button_pressed,trial_type,trial_index,time_elapsed,internal_node_id,subject,list,ppt_race,ppt_gender,url,first_guess,correct,key_press,responses,image_type,phrase_type,test_part
11361,Welcome to the experiment. Press Continue to begin.,0,html-button-response,0,11518,0.0-0.0,6131,List2A,white,woman,,,,,,,,
67850,,,external-html,1,81733,0.0-1.0,6131,List2A,white,woman,consent.html,,,,,,,
13202,"<p>On the next page, you will see portraits of 8 people and their names.</p><p>Your first task is to take a few minutes to memorise the names of these people.</p><p>You will have to recall their names during the rest of the experiment, so it is</p><p>essential that you try to memorise these people and their names as best as you can.</p><br><p><strong>You will then be tested on your memory of these names and portraits.</strong></p><br><p>The experiment will start after you have completed this memory test.</p><br><p>Ready?</p>",0,html-button-response,2,94941,0.0-2.0,6131,List2A,white,woman,,,,,,,,
54702,"<img src='img/portrait_matrix_list2.jpg' style='width:900px;height:500px;''></img><p>If you have memorised all the portraits and names and are ready to start, press Continue.</p><p><strong>Please note: Your memory of these faces will be tested 4 times during this experiment.</strong></p>",0,html-button-response,3,150667,0.0-3.0-0.0,6131,List2A,white,woman,,,,,,,,
2479,"<img src=""portrait/BM1.jpg""style=""height:400px;""></img>",4,html-button-response,4,154156,0.0-3.0-1.0,6131,List2A,white,woman,,TRUE,4,,,,,
null,CORRECT,,html-keyboard-response,5,155691,0.0-3.0-2.0-0.0,6131,List2A,white,woman,,,,null,,,,
2535,"<img src=""portrait/WM2.jpg""style=""height:400px;""></img>",7,html-button-response,6,158234,0.0-3.0-4.0,6131,List2A,white,woman,,TRUE,7,,,,,
null,CORRECT,,html-keyboard-response,7,159766,0.0-3.0-5.0-0.0,6131,List2A,white,woman,,,,null,,,,
4283,"<img src=""portrait/WM1.jpg""style=""height:400px;""></img>",6,html-button-response,8,164052,0.0-3.0-7.0,6131,List2A,white,woman,,TRUE,6,,,,,
null,CORRECT,,html-keyboard-response,9,165573,0.0-3.0-8.0-0.0,6131,List2A,white,woman,,,,null,,,,
4693,"<img src=""portrait/BW1.jpg""style=""height:400px;""></img>",0,html-button-response,10,170270,0.0-3.0-10.0,6131,List2A,white,woman,,TRUE,0,,,,,
null,CORRECT,,html-keyboard-response,11,171795,0.0-3.0-11.0-0.0,6131,List2A,white,woman,,,,null,,,,
3620,"<img src=""portrait/WW2.jpg""style=""height:400px;""></img>",3,html-button-response,12,175421,0.0-3.0-13.0,6131,List2A,white,woman,,TRUE,3,,,,,
null,CORRECT,,html-keyboard-response,13,176954,0.0-3.0-14.0-0.0,6131,List2A,white,woman,,,,null,,,,
4812,"<img src=""portrait/WW1.jpg""style=""height:400px;""></img>",1,html-button-response,14,181770,0.0-3.0-16.0,6131,List2A,white,woman,,TRUE,1,,,,,
null,CORRECT,,html-keyboard-response,15,183286,0.0-3.0-17.0-0.0,6131,List2A,white,woman,,,,null,,,,
2857,"<img src=""portrait/BW2.jpg""style=""height:400px;""></img>",2,html-button-response,16,186148,0.0-3.0-19.0,6131,List2A,white,woman,,TRUE,2,,,,,
null,CORRECT,,html-keyboard-response,17,187669,0.0-3.0-20.0-0.0,6131,List2A,white,woman,,,,null,,,,
3021,"<img src=""portrait/BM2.jpg""style=""height:400px;""></img>",5,html-button-response,18,190693,0.0-3.0-22.0,6131,List2A,white,woman,,TRUE,5,,,,,
null,CORRECT,,html-keyboard-response,19,192207,0.0-3.0-23.0-0.0,6131,List2A,white,woman,,,,null,,,,
1573,<p>You got 8 out of 8 right first time. Press Continue.</p>,0,html-button-response,20,193783,0.0-3.0-25.0,6131,List2A,white,woman,,,,,,,,
39972,"<p>In this experiment, you will view photographs of the people from the memory game interacting.</p><p>By using the <strong>exact</strong> phrase given <i>after</i> the photograph appears and recalling the correct names of the people in the photographs, form a sentence describing the interaction. You do not need to capitalise names.</p><p>Type your answer in the space provided. Please complete every sentence before moving onto the next trial.</p><p>You will only have a few seconds to memorise each given photograph and phrase before you can respond, so try your best to focus.</p><p>An example is given below. Press 'Continue' when you are ready.</p><img src='img/speaking_example.jpg' style='width:800px;height:460px;''></img>",0,html-button-response,21,234773,0.0-4.0,6131,List2A,white,woman,,,,,,,,
2534,"<p>Before the experiment starts, you will watch two example trials. Press 'Continue'.</p>",0,html-button-response,22,238321,0.0-5.0,6131,List2A,white,woman,,,,,,,,
null,<img src='img/meet_eg.gif' style='height:400px;''></img>,,html-keyboard-response,23,241338,0.0-6.0,6131,List2A,white,woman,,,,null,,,,
null,<p>is meeting</p>,,html-keyboard-response,24,243348,0.0-7.0,6131,List2A,white,woman,,,,null,,,,
4014,<p><b>Answer:</b> jane is meeting ruth</p>,0,html-button-response,25,247363,0.0-8.0,6131,List2A,white,woman,,,,,,,,
null,<img src='img/look_eg.gif' style='height:400px;''></img>,,html-keyboard-response,26,250384,0.0-9.0,6131,List2A,white,woman,,,,null,,,,
null,<p>are looking at each other</p>,,html-keyboard-response,27,252402,0.0-10.0,6131,List2A,white,woman,,,,null,,,,
5092,<p><b>Answer:</b> fred and mike are looking at each other</p>,0,html-button-response,28,257497,0.0-11.0,6131,List2A,white,woman,,,,,,,,
17712,"<p>Ready to start the experiment?</p><br><p><strong>Remember to describe the picture using a full sentence,</strong></p><p><strong>that combines the names of the people with the <i>exact</i> phrase given.</strong></p><p><strong>To receive full payment you must do this correctly.</strong></p><p><strong> You do not need to capitalise names or use punctuation.</strong></p><br><p>Press 'Continue' to begin.</p>",0,html-button-response,29,276226,0.0-12.0,6131,List2A,white,woman,,,,,,,,
null,"<div style=""font-size:60px;"">+</div>",,html-keyboard-response,30,277749,0.0-13.0-0.0,6131,List2A,white,woman,,,,null,,,,
null,"<img src=""stim_listA/talk6.gif""style=""height:400px;""></stim_listA>",,html-keyboard-response,31,279751,0.0-13.0-1.0,6131,List2A,white,woman,,,,null,,,,
null,are talking to each other,,html-keyboard-response,32,281753,0.0-13.0-2.0,6131,List2A,white,woman,,,,null,,,,
30094,,,survey-text,33,311849,0.0-13.0-3.0,6131,List2A,white,woman,,,,,"{""Q0"":""fred and dave are talking to each other""}","<img src=""stim_listA/talk6.gif""style=""height:400px;""></stim_listA>",are talking to each other,
null,"<div style=""font-size:60px;"">+</div>",,html-keyboard-response,34,312355,0.0-13.0-0.1,6131,List2A,white,woman,,,,null,,,,
null,"<img src=""stim_listA/play5.gif""style=""height:400px;""></stim_listA>",,html-keyboard-response,35,314359,0.0-13.0-1.1,6131,List2A,white,woman,,,,null,,,,
null,is playing with,,html-keyboard-response,36,316374,0.0-13.0-2.1,6131,List2A,white,woman,,,,null,,,,
24156,,,survey-text,37,340534,0.0-13.0-3.1,6131,List2A,white,woman,,,,,"{""Q0"":""mike is playing with dave""}","<img src=""stim_listA/play5.gif""style=""height:400px;""></stim_listA>",is playing with,
null,"<div style=""font-size:60px;"">+</div>",,html-keyboard-response,38,341049,0.0-13.0-0.2,6131,List2A,white,woman,,,,null,,,,
null,"<img src=""stim_listA/touch2.gif""style=""height:400px;""></stim_listA>",,html-keyboard-response,39,343053,0.0-13.0-1.2,6131,List2A,white,woman,,,,null,,,,
null,are touching each other,,html-keyboard-response,40,345063,0.0-13.0-2.2,6131,List2A,white,woman,,,,null,,,,
31452,,,survey-text,41,376518,0.0-13.0-3.2,6131,List2A,white,woman,,,,,"{""Q0"":""luke and ruth are touching each other""}","<img src=""stim_listA/touch2.gif""style=""height:400px;""></stim_listA>",are touching each other,
null,"<div style=""font-size:60px;"">+</div>",,html-keyboard-response,42,377033,0.0-13.0-0.3,6131,List2A,white,woman,,,,null,,,,
null,"<img src=""stim_listA/shout5.gif""style=""height:400px;""></stim_listA>",,html-keyboard-response,43,379039,0.0-13.0-1.3,6131,List2A,white,woman,,,,null,,,,
null,is shouting at,,html-keyboard-response,44,381043,0.0-13.0-2.3,6131,List2A,white,woman,,,,null,,,,
26096,,,survey-text,45,407141,0.0-13.0-3.3,6131,List2A,white,woman,,,,,"{""Q0"":""fred is shouting at dave""}","<img src=""stim_listA/shout5.gif""style=""height:400px;""></stim_listA>",is shouting at,
null,"<div style=""font-size:60px;"">+</div>",,html-keyboard-response,46,407661,0.0-13.0-0.4,6131,List2A,white,woman,,,,null,,,,
null,"<img src=""stim_listA/kiss7.gif""style=""height:400px;""></stim_listA>",,html-keyboard-response,47,409665,0.0-13.0-1.4,6131,List2A,white,woman,,,,null,,,,
null,is kissing,,html-keyboard-response,48,411675,0.0-13.0-2.4,6131,List2A,white,woman,,,,null,,,,
18807,,,survey-text,49,430485,0.0-13.0-3.4,6131,List2A,white,woman,,,,,"{""Q0"":""beth is kissing ruth""}","<img src=""stim_listA/kiss7.gif""style=""height:400px;""></stim_listA>",is kissing,
null,"<div style=""font-size:60px;"">+</div>",,html-keyboard-response,50,430994,0.0-13.0-0.5,6131,List2A,white,woman,,,,null,,,,
null,"<img src=""stim_listA/dance5.gif""style=""height:400px;""></stim_listA>",,html-keyboard-response,51,433002,0.0-13.0-1.5,6131,List2A,white,woman,,,,null,,,,
null,is dancing with,,html-keyboard-response,52,435004,0.0-13.0-2.5,6131,List2A,white,woman,,,,null,,,,
29389,,,survey-text,53,464395,0.0-13.0-3.5,6131,List2A,white,woman,,,,,"{""Q0"":""mike is dancing with luke""}","<img src=""stim_listA/dance5.gif""style=""height:400px;""></stim_listA>",is dancing with,
null,"<div style=""font-size:60px;"">+</div>",,html-keyboard-response,54,464907,0.0-13.0-0.6,6131,List2A,white,woman,,,,null,,,,
null,"<img src=""stim_listA/flirt7.gif""style=""height:400px;""></stim_listA>",,html-keyboard-response,55,466911,0.0-13.0-1.6,6131,List2A,white,woman,,,,null,,,,
null,is flirting with,,html-keyboard-response,56,468926,0.0-13.0-2.6,6131,List2A,white,woman,,,,null,,,,
28222,,,survey-text,57,497150,0.0-13.0-3.6,6131,List2A,white,woman,,,,,"{""Q0"":""kate is flirting with ruth""}","<img src=""stim_listA/flirt7.gif""style=""height:400px;""></stim_listA>",is flirting with,
null,"<div style=""font-size:60px;"">+</div>",,html-keyboard-response,58,497656,0.0-13.0-0.7,6131,List2A,white,woman,,,,null,,,,
null,"<img src=""stim_listA/argue6.gif""style=""height:400px;""></stim_listA>",,html-keyboard-response,59,499664,0.0-13.0-1.7,6131,List2A,white,woman,,,,null,,,,
null,are arguing with each other,,html-keyboard-response,60,501670,0.0-13.0-2.7,6131,List2A,white,woman,,,,null,,,,
34458,,,survey-text,61,536131,0.0-13.0-3.7,6131,List2A,white,woman,,,,,"{""Q0"":""luke and mike are arguing with each other""}","<img src=""stim_listA/argue6.gif""style=""height:400px;""></stim_listA>",are arguing with each other,
null,"<div style=""font-size:60px;"">+</div>",,html-keyboard-response,62,536642,0.0-13.0-0.8,6131,List2A,white,woman,,,,null,,,,
null,"<img src=""stim_listA/kiss1.gif""style=""height:400px;""></stim_listA>",,html-keyboard-response,63,538647,0.0-13.0-1.8,6131,List2A,white,woman,,,,null,,,,
null,is kissing,,html-keyboard-response,64,540651,0.0-13.0-2.8,6131,List2A,white,woman,,,,null,,,,
35022,,,survey-text,65,575676,0.0-13.0-3.8,6131,List2A,white,woman,,,,,"{""Q0"":""ruth is kissing luke""}","<img src=""stim_listA/kiss1.gif""style=""height:400px;""></stim_listA>",is kissing,
null,"<div style=""font-size:60px;"">+</div>",,html-keyboard-response,66,576193,0.0-13.0-0.9,6131,List2A,white,woman,,,,null,,,,
null,"<img src=""stim_listA/fight5.gif""style=""height:400px;""></stim_listA>",,html-keyboard-response,67,578199,0.0-13.0-1.9,6131,List2A,white,woman,,,,null,,,,
null,is fighting,,html-keyboard-response,68,580204,0.0-13.0-2.9,6131,List2A,white,woman,,,,null,,,,
8778,,,survey-text,69,588985,0.0-13.0-3.9,6131,List2A,white,woman,,,,,"{""Q0"":""mike is fighting dave""}","<img src=""stim_listA/fight5.gif""style=""height:400px;""></stim_listA>",is fighting,
null,"<div style=""font-size:60px;"">+</div>",,html-keyboard-response,70,589499,0.0-13.0-0.10,6131,List2A,white,woman,,,,null,,,,
null,"<img src=""stim_listA/marry2.gif""style=""height:400px;""></stim_listA>",,html-keyboard-response,71,591504,0.0-13.0-1.10,6131,List2A,white,woman,,,,null,,,,
null,are marrying each other,,html-keyboard-response,72,593508,0.0-13.0-2.10,6131,List2A,white,woman,,,,null,,,,
32922,,,survey-text,73,626432,0.0-13.0-3.10,6131,List2A,white,woman,,,,,"{""Q0"":""jane and luke are marrying each other""}","<img src=""stim_listA/marry2.gif""style=""height:400px;""></stim_listA>",are marrying each other,
null,"<div style=""font-size:60px;"">+</div>",,html-keyboard-response,74,626943,0.0-13.0-0.11,6131,List2A,white,woman,,,,null,,,,
null,"<img src=""stim_listA/fight3.gif""style=""height:400px;""></stim_listA>",,html-keyboard-response,75,628949,0.0-13.0-1.11,6131,List2A,white,woman,,,,null,,,,
null,is fighting,,html-keyboard-response,76,630955,0.0-13.0-2.11,6131,List2A,white,woman,,,,null,,,,
20630,,,survey-text,77,651588,0.0-13.0-3.11,6131,List2A,white,woman,,,,,"{""Q0"":""mike is fighting kate""}","<img src=""stim_listA/fight3.gif""style=""height:400px;""></stim_listA>",is fighting,
null,"<div style=""font-size:60px;"">+</div>",,html-keyboard-response,78,652102,0.0-13.0-0.12,6131,List2A,white,woman,,,,null,,,,
null,"<img src=""stim_listA/talk7.gif""style=""height:400px;""></stim_listA>",,html-keyboard-response,79,654109,0.0-13.0-1.12,6131,List2A,white,woman,,,,null,,,,
null,is talking to,,html-keyboard-response,80,656124,0.0-13.0-2.12,6131,List2A,white,woman,,,,null,,,,
8633,,,survey-text,81,664759,0.0-13.0-3.12,6131,List2A,white,woman,,,,,"{""Q0"":""ruth is talking to kate""}","<img src=""stim_listA/talk7.gif""style=""height:400px;""></stim_listA>",is talking to,
null,"<div style=""font-size:60px;"">+</div>",,html-keyboard-response,82,665267,0.0-13.0-0.13,6131,List2A,white,woman,,,,null,,,,
null,"<img src=""stim_listA/argue1.gif""style=""height:400px;""></stim_listA>",,html-keyboard-response,83,667273,0.0-13.0-1.13,6131,List2A,white,woman,,,,null,,,,
null,is arguing with,,html-keyboard-response,84,669290,0.0-13.0-2.13,6131,List2A,white,woman,,,,null,,,,
8101,,,survey-text,85,677392,0.0-13.0-3.13,6131,List2A,white,woman,,,,,"{""Q0"":""ruth is arguing with dave""}","<img src=""stim_listA/argue1.gif""style=""height:400px;""></stim_listA>",is arguing with,
null,"<div style=""font-size:60px;"">+</div>",,html-keyboard-response,86,677898,0.0-13.0-0.14,6131,List2A,white,woman,,,,null,,,,
null,"<img src=""stim_listA/marry4.gif""style=""height:400px;""></stim_listA>",,html-keyboard-response,87,679907,0.0-13.0-1.14,6131,List2A,white,woman,,,,null,,,,
null,are marrying each other,,html-keyboard-response,88,681922,0.0-13.0-2.14,6131,List2A,white,woman,,,,null,,,,
31087,,,survey-text,89,713010,0.0-13.0-3.14,6131,List2A,white,woman,,,,,"{""Q0"":""fred and kate are marrying each other""}","<img src=""stim_listA/marry4.gif""style=""height:400px;""></stim_listA>",are marrying each other,
null,"<div style=""font-size:60px;"">+</div>",,html-keyboard-response,90,713515,0.0-13.0-0.15,6131,List2A,white,woman,,,,null,,,,
null,"<img src=""stim_listA/marry8.gif""style=""height:400px;""></stim_listA>",,html-keyboard-response,91,715519,0.0-13.0-1.15,6131,List2A,white,woman,,,,null,,,,
null,are marrying each other,,html-keyboard-response,92,717522,0.0-13.0-2.15,6131,List2A,white,woman,,,,null,,,,
12601,,,survey-text,93,730125,0.0-13.0-3.15,6131,List2A,white,woman,,,,,"{""Q0"":""ruth and kate are marrying each other""}","<img src=""stim_listA/marry8.gif""style=""height:400px;""></stim_listA>",are marrying each other,
null,"<div style=""font-size:60px;"">+</div>",,html-keyboard-response,94,730640,0.0-13.0-0.16,6131,List2A,white,woman,,,,null,,,,
null,"<img src=""stim_listA/argue7.gif""style=""height:400px;""></stim_listA>",,html-keyboard-response,95,732645,0.0-13.0-1.16,6131,List2A,white,woman,,,,null,,,,
null,is arguing with,,html-keyboard-response,96,734658,0.0-13.0-2.16,6131,List2A,white,woman,,,,null,,,,
9111,,,survey-text,97,743771,0.0-13.0-3.16,6131,List2A,white,woman,,,,,"{""Q0"":""jane is arguing with beth""}","<img src=""stim_listA/argue7.gif""style=""height:400px;""></stim_listA>",is arguing with,
null,"<div style=""font-size:60px;"">+</div>",,html-keyboard-response,98,744285,0.0-13.0-0.17,6131,List2A,white,woman,,,,null,,,,
null,"<img src=""stim_listA/kiss8.gif""style=""height:400px;""></stim_listA>",,html-keyboard-response,99,746291,0.0-13.0-1.17,6131,List2A,white,woman,,,,null,,,,
null,are kissing each other,,html-keyboard-response,100,748298,0.0-13.0-2.17,6131,List2A,white,woman,,,,null,,,,
29074,,,survey-text,101,777374,0.0-13.0-3.17,6131,List2A,white,woman,,,,,"{""Q0"":""jane and beth are kissing each other""}","<img src=""stim_listA/kiss8.gif""style=""height:400px;""></stim_listA>",are kissing each other,
null,"<div style=""font-size:60px;"">+</div>",,html-keyboard-response,102,777878,0.0-13.0-0.18,6131,List2A,white,woman,,,,null,,,,
null,"<img src=""stim_listA/dance2.gif""style=""height:400px;""></stim_listA>",,html-keyboard-response,103,779884,0.0-13.0-1.18,6131,List2A,white,woman,,,,null,,,,
null,are dancing with each other,,html-keyboard-response,104,781886,0.0-13.0-2.18,6131,List2A,white,woman,,,,null,,,,
10675,,,survey-text,105,792562,0.0-13.0-3.18,6131,List2A,white,woman,,,,,"{""Q0"":""ruth and dave are dancing with each other""}","<img src=""stim_listA/dance2.gif""style=""height:400px;""></stim_listA>",are dancing with each other,
null,"<div style=""font-size:60px;"">+</div>",,html-keyboard-response,106,793067,0.0-13.0-0.19,6131,List2A,white,woman,,,,null,,,,
null,"<img src=""stim_listA/play1.gif""style=""height:400px;""></stim_listA>",,html-keyboard-response,107,795073,0.0-13.0-1.19,6131,List2A,white,woman,,,,null,,,,
null,is playing with,,html-keyboard-response,108,797077,0.0-13.0-2.19,6131,List2A,white,woman,,,,null,,,,
6235,,,survey-text,109,803314,0.0-13.0-3.19,6131,List2A,white,woman,,,,,"{""Q0"":""jane is playing with dave""}","<img src=""stim_listA/play1.gif""style=""height:400px;""></stim_listA>",is playing with,
9057,"<img src='img/portrait_matrix_list2.jpg' style='width:900px;height:500px;''></img><p>If you have memorised all the portraits and names and are ready to start, press Continue.</p><p><strong>Please note: Your memory of these faces will be tested 4 times during this experiment.</strong></p>",0,html-button-response,110,812372,0.0-14.0-0.0,6131,List2A,white,woman,,,,,,,,
7443,"<img src=""portrait/WW2.jpg""style=""height:400px;""></img>",3,html-button-response,111,820827,0.0-14.0-1.0,6131,List2A,white,woman,,TRUE,3,,,,,
null,CORRECT,,html-keyboard-response,112,822349,0.0-14.0-2.0-0.0,6131,List2A,white,woman,,,,null,,,,
3419,"<img src=""portrait/BW2.jpg""style=""height:400px;""></img>",2,html-button-response,113,825770,0.0-14.0-4.0,6131,List2A,white,woman,,TRUE,2,,,,,
null,CORRECT,,html-keyboard-response,114,827292,0.0-14.0-5.0-0.0,6131,List2A,white,woman,,,,null,,,,
2037,"<img src=""portrait/BM1.jpg""style=""height:400px;""></img>",4,html-button-response,115,829331,0.0-14.0-7.0,6131,List2A,white,woman,,TRUE,4,,,,,
null,CORRECT,,html-keyboard-response,116,830842,0.0-14.0-8.0-0.0,6131,List2A,white,woman,,,,null,,,,
2192,"<img src=""portrait/BW1.jpg""style=""height:400px;""></img>",0,html-button-response,117,833036,0.0-14.0-10.0,6131,List2A,white,woman,,TRUE,0,,,,,
null,CORRECT,,html-keyboard-response,118,834556,0.0-14.0-11.0-0.0,6131,List2A,white,woman,,,,null,,,,
2356,"<img src=""portrait/WM2.jpg""style=""height:400px;""></img>",7,html-button-response,119,836915,0.0-14.0-13.0,6131,List2A,white,woman,,TRUE,7,,,,,
null,CORRECT,,html-keyboard-response,120,838432,0.0-14.0-14.0-0.0,6131,List2A,white,woman,,,,null,,,,
2025,"<img src=""portrait/WM1.jpg""style=""height:400px;""></img>",6,html-button-response,121,840460,0.0-14.0-16.0,6131,List2A,white,woman,,TRUE,6,,,,,
null,CORRECT,,html-keyboard-response,122,841986,0.0-14.0-17.0-0.0,6131,List2A,white,woman,,,,null,,,,
1987,"<img src=""portrait/WW1.jpg""style=""height:400px;""></img>",1,html-button-response,123,843975,0.0-14.0-19.0,6131,List2A,white,woman,,TRUE,1,,,,,
null,CORRECT,,html-keyboard-response,124,845490,0.0-14.0-20.0-0.0,6131,List2A,white,woman,,,,null,,,,
3474,"<img src=""portrait/BM2.jpg""style=""height:400px;""></img>",5,html-button-response,125,848967,0.0-14.0-22.0,6131,List2A,white,woman,,TRUE,5,,,,,
null,CORRECT,,html-keyboard-response,126,850473,0.0-14.0-23.0-0.0,6131,List2A,white,woman,,,,null,,,,
1738,<p>You got 8 out of 8 right first time. Press Continue.</p>,0,html-button-response,127,852212,0.0-14.0-25.0,6131,List2A,white,woman,,,,,,,,
null,"<div style=""font-size:60px;"">+</div>",,html-keyboard-response,128,853734,0.0-15.0-0.0,6131,List2A,white,woman,,,,null,,,,
null,"<img src=""stim_listA/talk4.gif""style=""height:400px;""></stim_listA>",,html-keyboard-response,129,855742,0.0-15.0-1.0,6131,List2A,white,woman,,,,null,,,,
null,are talking to each other,,html-keyboard-response,130,857756,0.0-15.0-2.0,6131,List2A,white,woman,,,,null,,,,
9916,,,survey-text,131,867676,0.0-15.0-3.0,6131,List2A,white,woman,,,,,"{""Q0"":""beth and mike are talking to each other""}","<img src=""stim_listA/talk4.gif""style=""height:400px;""></stim_listA>",are talking to each other,
null,"<div style=""font-size:60px;"">+</div>",,html-keyboard-response,132,868189,0.0-15.0-0.1,6131,List2A,white,woman,,,,null,,,,
null,"<img src=""stim_listA/fight6.gif""style=""height:400px;""></stim_listA>",,html-keyboard-response,133,870193,0.0-15.0-1.1,6131,List2A,white,woman,,,,null,,,,
null,are fighting each other,,html-keyboard-response,134,872201,0.0-15.0-2.1,6131,List2A,white,woman,,,,null,,,,
19076,,,survey-text,135,891279,0.0-15.0-3.1,6131,List2A,white,woman,,,,,"{""Q0"":""fred and dave are fighting each other""}","<img src=""stim_listA/fight6.gif""style=""height:400px;""></stim_listA>",are fighting each other,
null,"<div style=""font-size:60px;"">+</div>",,html-keyboard-response,136,891782,0.0-15.0-0.2,6131,List2A,white,woman,,,,null,,,,
null,"<img src=""stim_listA/flirt3.gif""style=""height:400px;""></stim_listA>",,html-keyboard-response,137,893789,0.0-15.0-1.2,6131,List2A,white,woman,,,,null,,,,
null,is flirting with,,html-keyboard-response,138,895799,0.0-15.0-2.2,6131,List2A,white,woman,,,,null,,,,
9978,,,survey-text,139,905779,0.0-15.0-3.2,6131,List2A,white,woman,,,,,"{""Q0"":""kate is flirting with fred""}","<img src=""stim_listA/flirt3.gif""style=""height:400px;""></stim_listA>",is flirting with,
null,"<div style=""font-size:60px;"">+</div>",,html-keyboard-response,140,906286,0.0-15.0-0.3,6131,List2A,white,woman,,,,null,,,,
null,"<img src=""stim_listA/touch5.gif""style=""height:400px;""></stim_listA>",,html-keyboard-response,141,908294,0.0-15.0-1.3,6131,List2A,white,woman,,,,null,,,,
null,is touching,,html-keyboard-response,142,910297,0.0-15.0-2.3,6131,List2A,white,woman,,,,null,,,,
6290,,,survey-text,143,916589,0.0-15.0-3.3,6131,List2A,white,woman,,,,,"{""Q0"":""dave is touching mike""}","<img src=""stim_listA/touch5.gif""style=""height:400px;""></stim_listA>",is touching,
null,"<div style=""font-size:60px;"">+</div>",,html-keyboard-response,144,917099,0.0-15.0-0.4,6131,List2A,white,woman,,,,null,,,,
null,"<img src=""stim_listA/play8.gif""style=""height:400px;""></stim_listA>",,html-keyboard-response,145,919102,0.0-15.0-1.4,6131,List2A,white,woman,,,,null,,,,
null,are playing with each other,,html-keyboard-response,146,921107,0.0-15.0-2.4,6131,List2A,white,woman,,,,null,,,,
12822,,,survey-text,147,933931,0.0-15.0-3.4,6131,List2A,white,woman,,,,,"{""Q0"":""ruth and beth are playing with each other""}","<img src=""stim_listA/play8.gif""style=""height:400px;""></stim_listA>",are playing with each other,
null,"<div style=""font-size:60px;"">+</div>",,html-keyboard-response,148,934442,0.0-15.0-0.5,6131,List2A,white,woman,,,,null,,,,
null,"<img src=""stim_listA/shout8.gif""style=""height:400px;""></stim_listA>",,html-keyboard-response,149,936450,0.0-15.0-1.5,6131,List2A,white,woman,,,,null,,,,
null,are shouting at each other,,html-keyboard-response,150,938451,0.0-15.0-2.5,6131,List2A,white,woman,,,,null,,,,
13057,,,survey-text,151,951509,0.0-15.0-3.5,6131,List2A,white,woman,,,,,"{""Q0"":""jane and beth are shouting at each other""}","<img src=""stim_listA/shout8.gif""style=""height:400px;""></stim_listA>",are shouting at each other,
null,"<div style=""font-size:60px;"">+</div>",,html-keyboard-response,152,952026,0.0-15.0-0.6,6131,List2A,white,woman,,,,null,,,,
null,"<img src=""stim_listA/kiss4.gif""style=""height:400px;""></stim_listA>",,html-keyboard-response,153,954030,0.0-15.0-1.6,6131,List2A,white,woman,,,,null,,,,
null,are kissing each other,,html-keyboard-response,154,956047,0.0-15.0-2.6,6131,List2A,white,woman,,,,null,,,,
9004,,,survey-text,155,965052,0.0-15.0-3.6,6131,List2A,white,woman,,,,,"{""Q0"":""kate and mike are kissing each other""}","<img src=""stim_listA/kiss4.gif""style=""height:400px;""></stim_listA>",are kissing each other,
null,"<div style=""font-size:60px;"">+</div>",,html-keyboard-response,156,965560,0.0-15.0-0.7,6131,List2A,white,woman,,,,null,,,,
null,"<img src=""stim_listA/marry1.gif""style=""height:400px;""></stim_listA>",,html-keyboard-response,157,967576,0.0-15.0-1.7,6131,List2A,white,woman,,,,null,,,,
null,is marrying,,html-keyboard-response,158,969583,0.0-15.0-2.7,6131,List2A,white,woman,,,,null,,,,
7218,,,survey-text,159,976803,0.0-15.0-3.7,6131,List2A,white,woman,,,,,"{""Q0"":""dave is marrying ruth""}","<img src=""stim_listA/marry1.gif""style=""height:400px;""></stim_listA>",is marrying,
null,"<div style=""font-size:60px;"">+</div>",,html-keyboard-response,160,977318,0.0-15.0-0.8,6131,List2A,white,woman,,,,null,,,,
null,"<img src=""stim_listA/fight7.gif""style=""height:400px;""></stim_listA>",,html-keyboard-response,161,979324,0.0-15.0-1.8,6131,List2A,white,woman,,,,null,,,,
null,is fighting,,html-keyboard-response,162,981331,0.0-15.0-2.8,6131,List2A,white,woman,,,,null,,,,
11753,,,survey-text,163,993086,0.0-15.0-3.8,6131,List2A,white,woman,,,,,"{""Q0"":""jane is fighting kate""}","<img src=""stim_listA/fight7.gif""style=""height:400px;""></stim_listA>",is fighting,
null,"<div style=""font-size:60px;"">+</div>",,html-keyboard-response,164,993590,0.0-15.0-0.9,6131,List2A,white,woman,,,,null,,,,
null,"<img src=""stim_listA/play3.gif""style=""height:400px;""></stim_listA>",,html-keyboard-response,165,995596,0.0-15.0-1.9,6131,List2A,white,woman,,,,null,,,,
null,is playing with,,html-keyboard-response,166,997609,0.0-15.0-2.9,6131,List2A,white,woman,,,,null,,,,
6539,,,survey-text,167,1004154,0.0-15.0-3.9,6131,List2A,white,woman,,,,,"{""Q0"":""mike is playing with kate""}","<img src=""stim_listA/play3.gif""style=""height:400px;""></stim_listA>",is playing with,
null,"<div style=""font-size:60px;"">+</div>",,html-keyboard-response,168,1004669,0.0-15.0-0.10,6131,List2A,white,woman,,,,null,,,,
null,"<img src=""stim_listA/flirt5.gif""style=""height:400px;""></stim_listA>",,html-keyboard-response,169,1006672,0.0-15.0-1.10,6131,List2A,white,woman,,,,null,,,,
null,is flirting with,,html-keyboard-response,170,1008690,0.0-15.0-2.10,6131,List2A,white,woman,,,,null,,,,
7149,,,survey-text,171,1015841,0.0-15.0-3.10,6131,List2A,white,woman,,,,,"{""Q0"":""mike is flirting with luke""}","<img src=""stim_listA/flirt5.gif""style=""height:400px;""></stim_listA>",is flirting with,
null,"<div style=""font-size:60px;"">+</div>",,html-keyboard-response,172,1016357,0.0-15.0-0.11,6131,List2A,white,woman,,,,null,,,,
null,"<img src=""stim_listA/flirt6.gif""style=""height:400px;""></stim_listA>",,html-keyboard-response,173,1018377,0.0-15.0-1.11,6131,List2A,white,woman,,,,null,,,,
null,are flirting with each other,,html-keyboard-response,174,1020394,0.0-15.0-2.11,6131,List2A,white,woman,,,,null,,,,
17004,,,survey-text,175,1037401,0.0-15.0-3.11,6131,List2A,white,woman,,,,,"{""Q0"":""dave and fred are flirting with each other""}","<img src=""stim_listA/flirt6.gif""style=""height:400px;""></stim_listA>",are flirting with each other,
null,"<div style=""font-size:60px;"">+</div>",,html-keyboard-response,176,1037910,0.0-15.0-0.12,6131,List2A,white,woman,,,,null,,,,
null,"<img src=""stim_listA/dance8.gif""style=""height:400px;""></stim_listA>",,html-keyboard-response,177,1039921,0.0-15.0-1.12,6131,List2A,white,woman,,,,null,,,,
null,are dancing with each other,,html-keyboard-response,178,1041941,0.0-15.0-2.12,6131,List2A,white,woman,,,,null,,,,
13358,,,survey-text,179,1055301,0.0-15.0-3.12,6131,List2A,white,woman,,,,,"{""Q0"":""beth and jane are dancing with each other""}","<img src=""stim_listA/dance8.gif""style=""height:400px;""></stim_listA>",are dancing with each other,
null,"<div style=""font-size:60px;"">+</div>",,html-keyboard-response,180,1055813,0.0-15.0-0.13,6131,List2A,white,woman,,,,null,,,,
null,"<img src=""stim_listA/flirt4.gif""style=""height:400px;""></stim_listA>",,html-keyboard-response,181,1057816,0.0-15.0-1.13,6131,List2A,white,woman,,,,null,,,,
null,are flirting with each other,,html-keyboard-response,182,1059818,0.0-15.0-2.13,6131,List2A,white,woman,,,,null,,,,
8058,,,survey-text,183,1067878,0.0-15.0-3.13,6131,List2A,white,woman,,,,,"{""Q0"":""mike and beth are flirting with each other""}","<img src=""stim_listA/flirt4.gif""style=""height:400px;""></stim_listA>",are flirting with each other,
null,"<div style=""font-size:60px;"">+</div>",,html-keyboard-response,184,1068392,0.0-15.0-0.14,6131,List2A,white,woman,,,,null,,,,
null,"<img src=""stim_listA/play7.gif""style=""height:400px;""></stim_listA>",,html-keyboard-response,185,1070400,0.0-15.0-1.14,6131,List2A,white,woman,,,,null,,,,
null,is playing with,,html-keyboard-response,186,1072406,0.0-15.0-2.14,6131,List2A,white,woman,,,,null,,,,
5749,,,survey-text,187,1078158,0.0-15.0-3.14,6131,List2A,white,woman,,,,,"{""Q0"":""jane is playing with kate""}","<img src=""stim_listA/play7.gif""style=""height:400px;""></stim_listA>",is playing with,
null,"<div style=""font-size:60px;"">+</div>",,html-keyboard-response,188,1078664,0.0-15.0-0.15,6131,List2A,white,woman,,,,null,,,,
null,"<img src=""stim_listA/talk3.gif""style=""height:400px;""></stim_listA>",,html-keyboard-response,189,1080670,0.0-15.0-1.15,6131,List2A,white,woman,,,,null,,,,
null,is talking to,,html-keyboard-response,190,1082672,0.0-15.0-2.15,6131,List2A,white,woman,,,,null,,,,
6361,,,survey-text,191,1089035,0.0-15.0-3.15,6131,List2A,white,woman,,,,,"{""Q0"":""fred is talking to kate""}","<img src=""stim_listA/talk3.gif""style=""height:400px;""></stim_listA>",is talking to,
null,"<div style=""font-size:60px;"">+</div>",,html-keyboard-response,192,1089549,0.0-15.0-0.16,6131,List2A,white,woman,,,,null,,,,
null,"<img src=""stim_listA/talk2.gif""style=""height:400px;""></stim_listA>",,html-keyboard-response,193,1091555,0.0-15.0-1.16,6131,List2A,white,woman,,,,null,,,,
null,are talking to each other,,html-keyboard-response,194,1093568,0.0-15.0-2.16,6131,List2A,white,woman,,,,null,,,,
9001,,,survey-text,195,1102572,0.0-15.0-3.16,6131,List2A,white,woman,,,,,"{""Q0"":""ruth and dave are talking to each other""}","<img src=""stim_listA/talk2.gif""style=""height:400px;""></stim_listA>",are talking to each other,
null,"<div style=""font-size:60px;"">+</div>",,html-keyboard-response,196,1103076,0.0-15.0-0.17,6131,List2A,white,woman,,,,null,,,,
null,"<img src=""stim_listA/kiss3.gif""style=""height:400px;""></stim_listA>",,html-keyboard-response,197,1105078,0.0-15.0-1.17,6131,List2A,white,woman,,,,null,,,,
null,is kissing,,html-keyboard-response,198,1107086,0.0-15.0-2.17,6131,List2A,white,woman,,,,null,,,,
7013,,,survey-text,199,1114100,0.0-15.0-3.17,6131,List2A,white,woman,,,,,"{""Q0"":""beth is kissing fred""}","<img src=""stim_listA/kiss3.gif""style=""height:400px;""></stim_listA>",is kissing,
null,"<div style=""font-size:60px;"">+</div>",,html-keyboard-response,200,1114618,0.0-15.0-0.18,6131,List2A,white,woman,,,,null,,,,
null,"<img src=""stim_listA/shout6.gif""style=""height:400px;""></stim_listA>",,html-keyboard-response,201,1116635,0.0-15.0-1.18,6131,List2A,white,woman,,,,null,,,,
null,are shouting at each other,,html-keyboard-response,202,1118659,0.0-15.0-2.18,6131,List2A,white,woman,,,,null,,,,
10472,,,survey-text,203,1129134,0.0-15.0-3.18,6131,List2A,white,woman,,,,,"{""Q0"":""dave and mike are shouting at each other""}","<img src=""stim_listA/shout6.gif""style=""height:400px;""></stim_listA>",are shouting at each other,
null,"<div style=""font-size:60px;"">+</div>",,html-keyboard-response,204,1129651,0.0-15.0-0.19,6131,List2A,white,woman,,,,null,,,,
null,"<img src=""stim_listA/dance4.gif""style=""height:400px;""></stim_listA>",,html-keyboard-response,205,1131666,0.0-15.0-1.19,6131,List2A,white,woman,,,,null,,,,
null,are dancing with each other,,html-keyboard-response,206,1133680,0.0-15.0-2.19,6131,List2A,white,woman,,,,null,,,,
9679,,,survey-text,207,1143364,0.0-15.0-3.19,6131,List2A,white,woman,,,,,"{""Q0"":""mike and ruth are dancing with each other""}","<img src=""stim_listA/dance4.gif""style=""height:400px;""></stim_listA>",are dancing with each other,
3537,"<img src='img/portrait_matrix_list2.jpg' style='width:900px;height:500px;''></img><p>If you have memorised all the portraits and names and are ready to start, press Continue.</p><p><strong>Please note: Your memory of these faces will be tested 4 times during this experiment.</strong></p>",0,html-button-response,208,1146904,0.0-16.0-0.0,6131,List2A,white,woman,,,,,,,,
3840,"<img src=""portrait/WW1.jpg""style=""height:400px;""></img>",1,html-button-response,209,1151754,0.0-16.0-1.0,6131,List2A,white,woman,,TRUE,1,,,,,
null,CORRECT,,html-keyboard-response,210,1153264,0.0-16.0-2.0-0.0,6131,List2A,white,woman,,,,null,,,,
1619,"<img src=""portrait/WM1.jpg""style=""height:400px;""></img>",6,html-button-response,211,1154887,0.0-16.0-4.0,6131,List2A,white,woman,,TRUE,6,,,,,
null,CORRECT,,html-keyboard-response,212,1156404,0.0-16.0-5.0-0.0,6131,List2A,white,woman,,,,null,,,,
1249,"<img src=""portrait/WM2.jpg""style=""height:400px;""></img>",7,html-button-response,213,1157655,0.0-16.0-7.0,6131,List2A,white,woman,,TRUE,7,,,,,
null,CORRECT,,html-keyboard-response,214,1159190,0.0-16.0-8.0-0.0,6131,List2A,white,woman,,,,null,,,,
2415,"<img src=""portrait/BW1.jpg""style=""height:400px;""></img>",1,html-button-response,215,1161608,0.0-16.0-10.0,6131,List2A,white,woman,,TRUE,0,,,,,
5853,"<img src=""portrait/BW1.jpg""style=""height:400px;""></img>",0,html-button-response,216,1168470,0.0-16.0-12.0-0.0,6131,List2A,white,woman,,FALSE,0,,,,,
null,CORRECT,,html-keyboard-response,217,1169982,0.0-16.0-12.0-1.0-0.0,6131,List2A,white,woman,,,,null,,,,
3025,"<img src=""portrait/BM2.jpg""style=""height:400px;""></img>",5,html-button-response,218,1173010,0.0-16.0-13.0,6131,List2A,white,woman,,TRUE,5,,,,,
null,CORRECT,,html-keyboard-response,219,1174531,0.0-16.0-14.0-0.0,6131,List2A,white,woman,,,,null,,,,
1778,"<img src=""portrait/WW2.jpg""style=""height:400px;""></img>",3,html-button-response,220,1176313,0.0-16.0-16.0,6131,List2A,white,woman,,TRUE,3,,,,,
null,CORRECT,,html-keyboard-response,221,1177841,0.0-16.0-17.0-0.0,6131,List2A,white,woman,,,,null,,,,
2380,"<img src=""portrait/BW2.jpg""style=""height:400px;""></img>",2,html-button-response,222,1180225,0.0-16.0-19.0,6131,List2A,white,woman,,TRUE,2,,,,,
null,CORRECT,,html-keyboard-response,223,1181751,0.0-16.0-20.0-0.0,6131,List2A,white,woman,,,,null,,,,
2451,"<img src=""portrait/BM1.jpg""style=""height:400px;""></img>",4,html-button-response,224,1184207,0.0-16.0-22.0,6131,List2A,white,woman,,TRUE,4,,,,,
null,CORRECT,,html-keyboard-response,225,1185741,0.0-16.0-23.0-0.0,6131,List2A,white,woman,,,,null,,,,
1581,<p>You got 7 out of 8 right first time. Press Continue.</p>,0,html-button-response,226,1187324,0.0-16.0-25.0,6131,List2A,white,woman,,,,,,,,
4531,"As you did not score 100%, the memory game will repeat. Press Continue.",0,html-button-response,227,1192860,0.0-16.0-26.0-0.0,6131,List2A,white,woman,,,,,,,,
2485,"<img src='img/portrait_matrix_list2.jpg' style='width:900px;height:500px;''></img><p>If you have memorised all the portraits and names and are ready to start, press Continue.</p><p><strong>Please note: Your memory of these faces will be tested 4 times during this experiment.</strong></p>",0,html-button-response,228,1196358,0.0-16.1-0.1,6131,List2A,white,woman,,,,,,,,
3026,"<img src=""portrait/WW1.jpg""style=""height:400px;""></img>",1,html-button-response,229,1200399,0.0-16.1-1.1,6131,List2A,white,woman,,TRUE,1,,,,,
null,CORRECT,,html-keyboard-response,230,1201931,0.0-16.1-2.1-0.1,6131,List2A,white,woman,,,,null,,,,
2920,"<img src=""portrait/WM1.jpg""style=""height:400px;""></img>",6,html-button-response,231,1204855,0.0-16.1-4.1,6131,List2A,white,woman,,TRUE,6,,,,,
null,CORRECT,,html-keyboard-response,232,1206369,0.0-16.1-5.1-0.1,6131,List2A,white,woman,,,,null,,,,
1699,"<img src=""portrait/WM2.jpg""style=""height:400px;""></img>",7,html-button-response,233,1208072,0.0-16.1-7.1,6131,List2A,white,woman,,TRUE,7,,,,,
null,CORRECT,,html-keyboard-response,234,1209592,0.0-16.1-8.1-0.1,6131,List2A,white,woman,,,,null,,,,
2518,"<img src=""portrait/BW1.jpg""style=""height:400px;""></img>",0,html-button-response,235,1212114,0.0-16.1-10.1,6131,List2A,white,woman,,TRUE,0,,,,,
null,CORRECT,,html-keyboard-response,236,1213637,0.0-16.1-11.1-0.1,6131,List2A,white,woman,,,,null,,,,
2213,"<img src=""portrait/BM2.jpg""style=""height:400px;""></img>",5,html-button-response,237,1215852,0.0-16.1-13.1,6131,List2A,white,woman,,TRUE,5,,,,,
null,CORRECT,,html-keyboard-response,238,1217368,0.0-16.1-14.1-0.1,6131,List2A,white,woman,,,,null,,,,
1453,"<img src=""portrait/WW2.jpg""style=""height:400px;""></img>",3,html-button-response,239,1218824,0.0-16.1-16.1,6131,List2A,white,woman,,TRUE,3,,,,,
null,CORRECT,,html-keyboard-response,240,1220339,0.0-16.1-17.1-0.1,6131,List2A,white,woman,,,,null,,,,
1472,"<img src=""portrait/BW2.jpg""style=""height:400px;""></img>",2,html-button-response,241,1221814,0.0-16.1-19.1,6131,List2A,white,woman,,TRUE,2,,,,,
null,CORRECT,,html-keyboard-response,242,1223331,0.0-16.1-20.1-0.1,6131,List2A,white,woman,,,,null,,,,
3439,"<img src=""portrait/BM1.jpg""style=""height:400px;""></img>",4,html-button-response,243,1226771,0.0-16.1-22.1,6131,List2A,white,woman,,TRUE,4,,,,,
null,CORRECT,,html-keyboard-response,244,1228287,0.0-16.1-23.1-0.1,6131,List2A,white,woman,,,,null,,,,
1597,<p>You got 8 out of 8 right first time. Press Continue.</p>,0,html-button-response,245,1229886,0.0-16.1-25.1,6131,List2A,white,woman,,,,,,,,
null,"<div style=""font-size:60px;"">+</div>",,html-keyboard-response,246,1231413,0.0-17.0-0.0,6131,List2A,white,woman,,,,null,,,,
null,"<img src=""stim_listA/kiss2.gif""style=""height:400px;""></stim_listA>",,html-keyboard-response,247,1233415,0.0-17.0-1.0,6131,List2A,white,woman,,,,null,,,,
null,are kissing each other,,html-keyboard-response,248,1235418,0.0-17.0-2.0,6131,List2A,white,woman,,,,null,,,,
10524,,,survey-text,249,1245944,0.0-17.0-3.0,6131,List2A,white,woman,,,,,"{""Q0"":""jane and dave are kissing each other""}","<img src=""stim_listA/kiss2.gif""style=""height:400px;""></stim_listA>",are kissing each other,
null,"<div style=""font-size:60px;"">+</div>",,html-keyboard-response,250,1246447,0.0-17.0-0.1,6131,List2A,white,woman,,,,null,,,,
null,"<img src=""stim_listA/talk8.gif""style=""height:400px;""></stim_listA>",,html-keyboard-response,251,1248458,0.0-17.0-1.1,6131,List2A,white,woman,,,,null,,,,
null,are talking to each other,,html-keyboard-response,252,1250463,0.0-17.0-2.1,6131,List2A,white,woman,,,,null,,,,
9896,,,survey-text,253,1260364,0.0-17.0-3.1,6131,List2A,white,woman,,,,,"{""Q0"":""jane and beth are talking to each other""}","<img src=""stim_listA/talk8.gif""style=""height:400px;""></stim_listA>",are talking to each other,
null,"<div style=""font-size:60px;"">+</div>",,html-keyboard-response,254,1260870,0.0-17.0-0.2,6131,List2A,white,woman,,,,null,,,,
null,"<img src=""stim_listA/kiss6.gif""style=""height:400px;""></stim_listA>",,html-keyboard-response,255,1262875,0.0-17.0-1.2,6131,List2A,white,woman,,,,null,,,,
null,are kissing each other,,html-keyboard-response,256,1264879,0.0-17.0-2.2,6131,List2A,white,woman,,,,null,,,,
8128,,,survey-text,257,1273010,0.0-17.0-3.2,6131,List2A,white,woman,,,,,"{""Q0"":""dave and mike are kissing each other""}","<img src=""stim_listA/kiss6.gif""style=""height:400px;""></stim_listA>",are kissing each other,
null,"<div style=""font-size:60px;"">+</div>",,html-keyboard-response,258,1273527,0.0-17.0-0.3,6131,List2A,white,woman,,,,null,,,,
null,"<img src=""stim_listA/talk5.gif""style=""height:400px;""></stim_listA>",,html-keyboard-response,259,1275533,0.0-17.0-1.3,6131,List2A,white,woman,,,,null,,,,
null,is talking to,,html-keyboard-response,260,1277546,0.0-17.0-2.3,6131,List2A,white,woman,,,,null,,,,
6138,,,survey-text,261,1283687,0.0-17.0-3.3,6131,List2A,white,woman,,,,,"{""Q0"":""luke is talking to mike""}","<img src=""stim_listA/talk5.gif""style=""height:400px;""></stim_listA>",is talking to,
null,"<div style=""font-size:60px;"">+</div>",,html-keyboard-response,262,1284200,0.0-17.0-0.4,6131,List2A,white,woman,,,,null,,,,
null,"<img src=""stim_listA/play6.gif""style=""height:400px;""></stim_listA>",,html-keyboard-response,263,1286206,0.0-17.0-1.4,6131,List2A,white,woman,,,,null,,,,
null,are playing with each other,,html-keyboard-response,264,1288221,0.0-17.0-2.4,6131,List2A,white,woman,,,,null,,,,
11481,,,survey-text,265,1299706,0.0-17.0-3.4,6131,List2A,white,woman,,,,,"{""Q0"":""fred and luke are playing with each other""}","<img src=""stim_listA/play6.gif""style=""height:400px;""></stim_listA>",are playing with each other,
null,"<div style=""font-size:60px;"">+</div>",,html-keyboard-response,266,1300212,0.0-17.0-0.5,6131,List2A,white,woman,,,,null,,,,
null,"<img src=""stim_listA/talk1.gif""style=""height:400px;""></stim_listA>",,html-keyboard-response,267,1302220,0.0-17.0-1.5,6131,List2A,white,woman,,,,null,,,,
null,is talking to,,html-keyboard-response,268,1304221,0.0-17.0-2.5,6131,List2A,white,woman,,,,null,,,,
6159,,,survey-text,269,1310382,0.0-17.0-3.5,6131,List2A,white,woman,,,,,"{""Q0"":""jane is talking to luke""}","<img src=""stim_listA/talk1.gif""style=""height:400px;""></stim_listA>",is talking to,
null,"<div style=""font-size:60px;"">+</div>",,html-keyboard-response,270,1310885,0.0-17.0-0.6,6131,List2A,white,woman,,,,null,,,,
null,"<img src=""stim_listA/fight4.gif""style=""height:400px;""></stim_listA>",,html-keyboard-response,271,1312893,0.0-17.0-1.6,6131,List2A,white,woman,,,,null,,,,
null,are fighting each other,,html-keyboard-response,272,1314903,0.0-17.0-2.6,6131,List2A,white,woman,,,,null,,,,
9764,,,survey-text,273,1324668,0.0-17.0-3.6,6131,List2A,white,woman,,,,,"{""Q0"":""beth and fred are fighting each other""}","<img src=""stim_listA/fight4.gif""style=""height:400px;""></stim_listA>",are fighting each other,
null,"<div style=""font-size:60px;"">+</div>",,html-keyboard-response,274,1325183,0.0-17.0-0.7,6131,List2A,white,woman,,,,null,,,,
null,"<img src=""stim_listA/argue5.gif""style=""height:400px;""></stim_listA>",,html-keyboard-response,275,1327187,0.0-17.0-1.7,6131,List2A,white,woman,,,,null,,,,
null,is arguing with,,html-keyboard-response,276,1329192,0.0-17.0-2.7,6131,List2A,white,woman,,,,null,,,,
9123,,,survey-text,277,1338318,0.0-17.0-3.7,6131,List2A,white,woman,,,,,"{""Q0"":""dave is arguing with fred""}","<img src=""stim_listA/argue5.gif""style=""height:400px;""></stim_listA>",is arguing with,
null,"<div style=""font-size:60px;"">+</div>",,html-keyboard-response,278,1338836,0.0-17.0-0.8,6131,List2A,white,woman,,,,null,,,,
null,"<img src=""stim_listA/dance6.gif""style=""height:400px;""></stim_listA>",,html-keyboard-response,279,1340841,0.0-17.0-1.8,6131,List2A,white,woman,,,,null,,,,
null,are dancing with each other,,html-keyboard-response,280,1342844,0.0-17.0-2.8,6131,List2A,white,woman,,,,null,,,,
10386,,,survey-text,281,1353232,0.0-17.0-3.8,6131,List2A,white,woman,,,,,"{""Q0"":""dave and fred are dancing with each other""}","<img src=""stim_listA/dance6.gif""style=""height:400px;""></stim_listA>",are dancing with each other,
null,"<div style=""font-size:60px;"">+</div>",,html-keyboard-response,282,1353736,0.0-17.0-0.9,6131,List2A,white,woman,,,,null,,,,
null,"<img src=""stim_listA/flirt8.gif""style=""height:400px;""></stim_listA>",,html-keyboard-response,283,1355741,0.0-17.0-1.9,6131,List2A,white,woman,,,,null,,,,
null,are flirting with each other,,html-keyboard-response,284,1357743,0.0-17.0-2.9,6131,List2A,white,woman,,,,null,,,,
10228,,,survey-text,285,1367972,0.0-17.0-3.9,6131,List2A,white,woman,,,,,"{""Q0"":""beth and jane are flirting with each other""}","<img src=""stim_listA/flirt8.gif""style=""height:400px;""></stim_listA>",are flirting with each other,
null,"<div style=""font-size:60px;"">+</div>",,html-keyboard-response,286,1368480,0.0-17.0-0.10,6131,List2A,white,woman,,,,null,,,,
null,"<img src=""stim_listA/argue4.gif""style=""height:400px;""></stim_listA>",,html-keyboard-response,287,1370486,0.0-17.0-1.10,6131,List2A,white,woman,,,,null,,,,
null,are arguing with each other,,html-keyboard-response,288,1372509,0.0-17.0-2.10,6131,List2A,white,woman,,,,null,,,,
9904,,,survey-text,289,1382415,0.0-17.0-3.10,6131,List2A,white,woman,,,,,"{""Q0"":""fred and kate are arguing with each other""}","<img src=""stim_listA/argue4.gif""style=""height:400px;""></stim_listA>",are arguing with each other,
null,"<div style=""font-size:60px;"">+</div>",,html-keyboard-response,290,1382923,0.0-17.0-0.11,6131,List2A,white,woman,,,,null,,,,
null,"<img src=""stim_listA/marry3.gif""style=""height:400px;""></stim_listA>",,html-keyboard-response,291,1384931,0.0-17.0-1.11,6131,List2A,white,woman,,,,null,,,,
null,is marrying,,html-keyboard-response,292,1386932,0.0-17.0-2.11,6131,List2A,white,woman,,,,null,,,,
7252,,,survey-text,293,1394186,0.0-17.0-3.11,6131,List2A,white,woman,,,,,"{""Q0"":""beth is marrying mike""}","<img src=""stim_listA/marry3.gif""style=""height:400px;""></stim_listA>",is marrying,
null,"<div style=""font-size:60px;"">+</div>",,html-keyboard-response,294,1394689,0.0-17.0-0.12,6131,List2A,white,woman,,,,null,,,,
null,"<img src=""stim_listA/dance1.gif""style=""height:400px;""></stim_listA>",,html-keyboard-response,295,1396692,0.0-17.0-1.12,6131,List2A,white,woman,,,,null,,,,
null,is dancing with,,html-keyboard-response,296,1398720,0.0-17.0-2.12,6131,List2A,white,woman,,,,null,,,,
7515,,,survey-text,297,1406237,0.0-17.0-3.12,6131,List2A,white,woman,,,,,"{""Q0"":""jane is dancing with luke""}","<img src=""stim_listA/dance1.gif""style=""height:400px;""></stim_listA>",is dancing with,
null,"<div style=""font-size:60px;"">+</div>",,html-keyboard-response,298,1406744,0.0-17.0-0.13,6131,List2A,white,woman,,,,null,,,,
null,"<img src=""stim_listA/flirt2.gif""style=""height:400px;""></stim_listA>",,html-keyboard-response,299,1408752,0.0-17.0-1.13,6131,List2A,white,woman,,,,null,,,,
null,are flirting with each other,,html-keyboard-response,300,1410756,0.0-17.0-2.13,6131,List2A,white,woman,,,,null,,,,
11698,,,survey-text,301,1422457,0.0-17.0-3.13,6131,List2A,white,woman,,,,,"{""Q0"":""dave and ruth are flirting with each other""}","<img src=""stim_listA/flirt2.gif""style=""height:400px;""></stim_listA>",are flirting with each other,
null,"<div style=""font-size:60px;"">+</div>",,html-keyboard-response,302,1422965,0.0-17.0-0.14,6131,List2A,white,woman,,,,null,,,,
null,"<img src=""stim_listA/dance7.gif""style=""height:400px;""></stim_listA>",,html-keyboard-response,303,1424970,0.0-17.0-1.14,6131,List2A,white,woman,,,,null,,,,
null,is dancing with,,html-keyboard-response,304,1426973,0.0-17.0-2.14,6131,List2A,white,woman,,,,null,,,,
6118,,,survey-text,305,1433093,0.0-17.0-3.14,6131,List2A,white,woman,,,,,"{""Q0"":""ruth is dancing with kate""}","<img src=""stim_listA/dance7.gif""style=""height:400px;""></stim_listA>",is dancing with,
null,"<div style=""font-size:60px;"">+</div>",,html-keyboard-response,306,1433601,0.0-17.0-0.15,6131,List2A,white,woman,,,,null,,,,
null,"<img src=""stim_listA/argue8.gif""style=""height:400px;""></stim_listA>",,html-keyboard-response,307,1435603,0.0-17.0-1.15,6131,List2A,white,woman,,,,null,,,,
null,are arguing with each other,,html-keyboard-response,308,1437610,0.0-17.0-2.15,6131,List2A,white,woman,,,,null,,,,
14482,,,survey-text,309,1452094,0.0-17.0-3.15,6131,List2A,white,woman,,,,,"{""Q0"":""kate and ruth are arguing with each other""}","<img src=""stim_listA/argue8.gif""style=""height:400px;""></stim_listA>",are arguing with each other,
null,"<div style=""font-size:60px;"">+</div>",,html-keyboard-response,310,1452597,0.0-17.0-0.16,6131,List2A,white,woman,,,,null,,,,
null,"<img src=""stim_listA/marry5.gif""style=""height:400px;""></stim_listA>",,html-keyboard-response,311,1454604,0.0-17.0-1.16,6131,List2A,white,woman,,,,null,,,,
null,is marrying,,html-keyboard-response,312,1456621,0.0-17.0-2.16,6131,List2A,white,woman,,,,null,,,,
5657,,,survey-text,313,1462281,0.0-17.0-3.16,6131,List2A,white,woman,,,,,"{""Q0"":""fred is marrying dave""}","<img src=""stim_listA/marry5.gif""style=""height:400px;""></stim_listA>",is marrying,
null,"<div style=""font-size:60px;"">+</div>",,html-keyboard-response,314,1462792,0.0-17.0-0.17,6131,List2A,white,woman,,,,null,,,,
null,"<img src=""stim_listA/dance3.gif""style=""height:400px;""></stim_listA>",,html-keyboard-response,315,1464801,0.0-17.0-1.17,6131,List2A,white,woman,,,,null,,,,
null,is dancing with,,html-keyboard-response,316,1466815,0.0-17.0-2.17,6131,List2A,white,woman,,,,null,,,,
7133,,,survey-text,317,1473950,0.0-17.0-3.17,6131,List2A,white,woman,,,,,"{""Q0"":""fred is dancing with kate""}","<img src=""stim_listA/dance3.gif""style=""height:400px;""></stim_listA>",is dancing with,
null,"<div style=""font-size:60px;"">+</div>",,html-keyboard-response,318,1474464,0.0-17.0-0.18,6131,List2A,white,woman,,,,null,,,,
null,"<img src=""stim_listA/touch3.gif""style=""height:400px;""></stim_listA>",,html-keyboard-response,319,1476470,0.0-17.0-1.18,6131,List2A,white,woman,,,,null,,,,
null,is touching,,html-keyboard-response,320,1478474,0.0-17.0-2.18,6131,List2A,white,woman,,,,null,,,,
4633,,,survey-text,321,1483109,0.0-17.0-3.18,6131,List2A,white,woman,,,,,"{""Q0"":""mike is touching kate""}","<img src=""stim_listA/touch3.gif""style=""height:400px;""></stim_listA>",is touching,
null,"<div style=""font-size:60px;"">+</div>",,html-keyboard-response,322,1483622,0.0-17.0-0.19,6131,List2A,white,woman,,,,null,,,,
null,"<img src=""stim_listA/shout2.gif""style=""height:400px;""></stim_listA>",,html-keyboard-response,323,1485634,0.0-17.0-1.19,6131,List2A,white,woman,,,,null,,,,
null,are shouting at each other,,html-keyboard-response,324,1487647,0.0-17.0-2.19,6131,List2A,white,woman,,,,null,,,,
13727,,,survey-text,325,1501377,0.0-17.0-3.19,6131,List2A,white,woman,,,,,"{""Q0"":""dave and jane are shouting at each other""}","<img src=""stim_listA/shout2.gif""style=""height:400px;""></stim_listA>",are shouting at each other,
2953,"<img src='img/portrait_matrix_list2.jpg' style='width:900px;height:500px;''></img><p>If you have memorised all the portraits and names and are ready to start, press Continue.</p><p><strong>Please note: Your memory of these faces will be tested 4 times during this experiment.</strong></p>",0,html-button-response,326,1504333,0.0-18.0-0.0,6131,List2A,white,woman,,,,,,,,
2898,"<img src=""portrait/WW1.jpg""style=""height:400px;""></img>",1,html-button-response,327,1508238,0.0-18.0-1.0,6131,List2A,white,woman,,TRUE,1,,,,,
null,CORRECT,,html-keyboard-response,328,1509758,0.0-18.0-2.0-0.0,6131,List2A,white,woman,,,,null,,,,
2143,"<img src=""portrait/WM1.jpg""style=""height:400px;""></img>",6,html-button-response,329,1511904,0.0-18.0-4.0,6131,List2A,white,woman,,TRUE,6,,,,,
null,CORRECT,,html-keyboard-response,330,1513424,0.0-18.0-5.0-0.0,6131,List2A,white,woman,,,,null,,,,
1425,"<img src=""portrait/WW2.jpg""style=""height:400px;""></img>",3,html-button-response,331,1514852,0.0-18.0-7.0,6131,List2A,white,woman,,TRUE,3,,,,,
null,CORRECT,,html-keyboard-response,332,1516359,0.0-18.0-8.0-0.0,6131,List2A,white,woman,,,,null,,,,
1744,"<img src=""portrait/BW2.jpg""style=""height:400px;""></img>",2,html-button-response,333,1518107,0.0-18.0-10.0,6131,List2A,white,woman,,TRUE,2,,,,,
null,CORRECT,,html-keyboard-response,334,1519617,0.0-18.0-11.0-0.0,6131,List2A,white,woman,,,,null,,,,
1795,"<img src=""portrait/BM2.jpg""style=""height:400px;""></img>",5,html-button-response,335,1521416,0.0-18.0-13.0,6131,List2A,white,woman,,TRUE,5,,,,,
null,CORRECT,,html-keyboard-response,336,1522943,0.0-18.0-14.0-0.0,6131,List2A,white,woman,,,,null,,,,
1719,"<img src=""portrait/WM2.jpg""style=""height:400px;""></img>",7,html-button-response,337,1524666,0.0-18.0-16.0,6131,List2A,white,woman,,TRUE,7,,,,,
null,CORRECT,,html-keyboard-response,338,1526180,0.0-18.0-17.0-0.0,6131,List2A,white,woman,,,,null,,,,
2223,"<img src=""portrait/BW1.jpg""style=""height:400px;""></img>",0,html-button-response,339,1528406,0.0-18.0-19.0,6131,List2A,white,woman,,TRUE,0,,,,,
null,CORRECT,,html-keyboard-response,340,1529928,0.0-18.0-20.0-0.0,6131,List2A,white,woman,,,,null,,,,
1600,"<img src=""portrait/BM1.jpg""style=""height:400px;""></img>",4,html-button-response,341,1531532,0.0-18.0-22.0,6131,List2A,white,woman,,TRUE,4,,,,,
null,CORRECT,,html-keyboard-response,342,1533045,0.0-18.0-23.0-0.0,6131,List2A,white,woman,,,,null,,,,
1256,<p>You got 8 out of 8 right first time. Press Continue.</p>,0,html-button-response,343,1534304,0.0-18.0-25.0,6131,List2A,white,woman,,,,,,,,
null,"<div style=""font-size:60px;"">+</div>",,html-keyboard-response,344,1535838,0.0-19.0-0.0,6131,List2A,white,woman,,,,null,,,,
null,"<img src=""stim_listA/play4.gif""style=""height:400px;""></stim_listA>",,html-keyboard-response,345,1537844,0.0-19.0-1.0,6131,List2A,white,woman,,,,null,,,,
null,are playing with each other,,html-keyboard-response,346,1539846,0.0-19.0-2.0,6131,List2A,white,woman,,,,null,,,,
12035,,,survey-text,347,1551885,0.0-19.0-3.0,6131,List2A,white,woman,,,,,"{""Q0"":""beth and fred are playing with each other""}","<img src=""stim_listA/play4.gif""style=""height:400px;""></stim_listA>",are playing with each other,
null,"<div style=""font-size:60px;"">+</div>",,html-keyboard-response,348,1552397,0.0-19.0-0.1,6131,List2A,white,woman,,,,null,,,,
null,"<img src=""stim_listA/flirt1.gif""style=""height:400px;""></stim_listA>",,html-keyboard-response,349,1554402,0.0-19.0-1.1,6131,List2A,white,woman,,,,null,,,,
null,is flirting with,,html-keyboard-response,350,1556407,0.0-19.0-2.1,6131,List2A,white,woman,,,,null,,,,
6833,,,survey-text,351,1563242,0.0-19.0-3.1,6131,List2A,white,woman,,,,,"{""Q0"":""jane is flirting with luke""}","<img src=""stim_listA/flirt1.gif""style=""height:400px;""></stim_listA>",is flirting with,
null,"<div style=""font-size:60px;"">+</div>",,html-keyboard-response,352,1563753,0.0-19.0-0.2,6131,List2A,white,woman,,,,null,,,,
null,"<img src=""stim_listA/shout7.gif""style=""height:400px;""></stim_listA>",,html-keyboard-response,353,1565760,0.0-19.0-1.2,6131,List2A,white,woman,,,,null,,,,
null,is shouting at,,html-keyboard-response,354,1567762,0.0-19.0-2.2,6131,List2A,white,woman,,,,null,,,,
7414,,,survey-text,355,1575178,0.0-19.0-3.2,6131,List2A,white,woman,,,,,"{""Q0"":""beth is shouting at ruth""}","<img src=""stim_listA/shout7.gif""style=""height:400px;""></stim_listA>",is shouting at,
null,"<div style=""font-size:60px;"">+</div>",,html-keyboard-response,356,1575693,0.0-19.0-0.3,6131,List2A,white,woman,,,,null,,,,
null,"<img src=""stim_listA/touch6.gif""style=""height:400px;""></stim_listA>",,html-keyboard-response,357,1577700,0.0-19.0-1.3,6131,List2A,white,woman,,,,null,,,,
null,are touching each other,,html-keyboard-response,358,1579706,0.0-19.0-2.3,6131,List2A,white,woman,,,,null,,,,
9048,,,survey-text,359,1588756,0.0-19.0-3.3,6131,List2A,white,woman,,,,,"{""Q0"":""luke and fred are touching each other""}","<img src=""stim_listA/touch6.gif""style=""height:400px;""></stim_listA>",are touching each other,
null,"<div style=""font-size:60px;"">+</div>",,html-keyboard-response,360,1589261,0.0-19.0-0.4,6131,List2A,white,woman,,,,null,,,,
null,"<img src=""stim_listA/fight1.gif""style=""height:400px;""></stim_listA>",,html-keyboard-response,361,1591276,0.0-19.0-1.4,6131,List2A,white,woman,,,,null,,,,
null,is fighting,,html-keyboard-response,362,1593279,0.0-19.0-2.4,6131,List2A,white,woman,,,,null,,,,
5734,,,survey-text,363,1599016,0.0-19.0-3.4,6131,List2A,white,woman,,,,,"{""Q0"":""jane is fighting dave""}","<img src=""stim_listA/fight1.gif""style=""height:400px;""></stim_listA>",is fighting,
null,"<div style=""font-size:60px;"">+</div>",,html-keyboard-response,364,1599524,0.0-19.0-0.5,6131,List2A,white,woman,,,,null,,,,
null,"<img src=""stim_listA/argue2.gif""style=""height:400px;""></stim_listA>",,html-keyboard-response,365,1601531,0.0-19.0-1.5,6131,List2A,white,woman,,,,null,,,,
null,are arguing with each other,,html-keyboard-response,366,1603552,0.0-19.0-2.5,6131,List2A,white,woman,,,,null,,,,
11620,,,survey-text,367,1615174,0.0-19.0-3.5,6131,List2A,white,woman,,,,,"{""Q0"":""luke and jane are fighting with each other""}","<img src=""stim_listA/argue2.gif""style=""height:400px;""></stim_listA>",are arguing with each other,
null,"<div style=""font-size:60px;"">+</div>",,html-keyboard-response,368,1615699,0.0-19.0-0.6,6131,List2A,white,woman,,,,null,,,,
null,"<img src=""stim_listA/touch4.gif""style=""height:400px;""></stim_listA>",,html-keyboard-response,369,1617705,0.0-19.0-1.6,6131,List2A,white,woman,,,,null,,,,
null,are touching each other,,html-keyboard-response,370,1619713,0.0-19.0-2.6,6131,List2A,white,woman,,,,null,,,,
8893,,,survey-text,371,1628608,0.0-19.0-3.6,6131,List2A,white,woman,,,,,"{""Q0"":""beth and fred are touching each other""}","<img src=""stim_listA/touch4.gif""style=""height:400px;""></stim_listA>",are touching each other,
null,"<div style=""font-size:60px;"">+</div>",,html-keyboard-response,372,1629118,0.0-19.0-0.7,6131,List2A,white,woman,,,,null,,,,
null,"<img src=""stim_listA/shout3.gif""style=""height:400px;""></stim_listA>",,html-keyboard-response,373,1631128,0.0-19.0-1.7,6131,List2A,white,woman,,,,null,,,,
null,is shouting at,,html-keyboard-response,374,1633142,0.0-19.0-2.7,6131,List2A,white,woman,,,,null,,,,
13503,,,survey-text,375,1646647,0.0-19.0-3.7,6131,List2A,white,woman,,,,,"{""Q0"":""beth is shouting at fred""}","<img src=""stim_listA/shout3.gif""style=""height:400px;""></stim_listA>",is shouting at,
null,"<div style=""font-size:60px;"">+</div>",,html-keyboard-response,376,1647150,0.0-19.0-0.8,6131,List2A,white,woman,,,,null,,,,
null,"<img src=""stim_listA/marry6.gif""style=""height:400px;""></stim_listA>",,html-keyboard-response,377,1649154,0.0-19.0-1.8,6131,List2A,white,woman,,,,null,,,,
null,are marrying each other,,html-keyboard-response,378,1651159,0.0-19.0-2.8,6131,List2A,white,woman,,,,null,,,,
11205,,,survey-text,379,1662366,0.0-19.0-3.8,6131,List2A,white,woman,,,,,"{""Q0"":""mike and luke are marrying each other""}","<img src=""stim_listA/marry6.gif""style=""height:400px;""></stim_listA>",are marrying each other,
null,"<div style=""font-size:60px;"">+</div>",,html-keyboard-response,380,1662880,0.0-19.0-0.9,6131,List2A,white,woman,,,,null,,,,
null,"<img src=""stim_listA/marry7.gif""style=""height:400px;""></stim_listA>",,html-keyboard-response,381,1664890,0.0-19.0-1.9,6131,List2A,white,woman,,,,null,,,,
null,is marrying,,html-keyboard-response,382,1666901,0.0-19.0-2.9,6131,List2A,white,woman,,,,null,,,,
8378,,,survey-text,383,1675282,0.0-19.0-3.9,6131,List2A,white,woman,,,,,"{""Q0"":""beth is marrying jane""}","<img src=""stim_listA/marry7.gif""style=""height:400px;""></stim_listA>",is marrying,
null,"<div style=""font-size:60px;"">+</div>",,html-keyboard-response,384,1675791,0.0-19.0-0.10,6131,List2A,white,woman,,,,null,,,,
null,"<img src=""stim_listA/argue3.gif""style=""height:400px;""></stim_listA>",,html-keyboard-response,385,1677802,0.0-19.0-1.10,6131,List2A,white,woman,,,,null,,,,
null,is arguing with,,html-keyboard-response,386,1679808,0.0-19.0-2.10,6131,List2A,white,woman,,,,null,,,,
6389,,,survey-text,387,1686199,0.0-19.0-3.10,6131,List2A,white,woman,,,,,"{""Q0"":""mike is arguing with beth""}","<img src=""stim_listA/argue3.gif""style=""height:400px;""></stim_listA>",is arguing with,
null,"<div style=""font-size:60px;"">+</div>",,html-keyboard-response,388,1686715,0.0-19.0-0.11,6131,List2A,white,woman,,,,null,,,,
null,"<img src=""stim_listA/fight2.gif""style=""height:400px;""></stim_listA>",,html-keyboard-response,389,1688720,0.0-19.0-1.11,6131,List2A,white,woman,,,,null,,,,
null,are fighting each other,,html-keyboard-response,390,1690727,0.0-19.0-2.11,6131,List2A,white,woman,,,,null,,,,
10370,,,survey-text,391,1701100,0.0-19.0-3.11,6131,List2A,white,woman,,,,,"{""Q0"":""ruth and luke are fighting each other""}","<img src=""stim_listA/fight2.gif""style=""height:400px;""></stim_listA>",are fighting each other,
null,"<div style=""font-size:60px;"">+</div>",,html-keyboard-response,392,1701604,0.0-19.0-0.12,6131,List2A,white,woman,,,,null,,,,
null,"<img src=""stim_listA/shout4.gif""style=""height:400px;""></stim_listA>",,html-keyboard-response,393,1703610,0.0-19.0-1.12,6131,List2A,white,woman,,,,null,,,,
null,are shouting at each other,,html-keyboard-response,394,1705621,0.0-19.0-2.12,6131,List2A,white,woman,,,,null,,,,
15879,,,survey-text,395,1721503,0.0-19.0-3.12,6131,List2A,white,woman,,,,,"{""Q0"":""mike and kate are shouting at each other""}","<img src=""stim_listA/shout4.gif""style=""height:400px;""></stim_listA>",are shouting at each other,
null,"<div style=""font-size:60px;"">+</div>",,html-keyboard-response,396,1722007,0.0-19.0-0.13,6131,List2A,white,woman,,,,null,,,,
null,"<img src=""stim_listA/shout1.gif""style=""height:400px;""></stim_listA>",,html-keyboard-response,397,1724011,0.0-19.0-1.13,6131,List2A,white,woman,,,,null,,,,
null,is shouting at,,html-keyboard-response,398,1726016,0.0-19.0-2.13,6131,List2A,white,woman,,,,null,,,,
11483,,,survey-text,399,1737501,0.0-19.0-3.13,6131,List2A,white,woman,,,,,"{""Q0"":""ruth is shouting at luke""}","<img src=""stim_listA/shout1.gif""style=""height:400px;""></stim_listA>",is shouting at,
null,"<div style=""font-size:60px;"">+</div>",,html-keyboard-response,400,1738013,0.0-19.0-0.14,6131,List2A,white,woman,,,,null,,,,
null,"<img src=""stim_listA/fight8.gif""style=""height:400px;""></stim_listA>",,html-keyboard-response,401,1740016,0.0-19.0-1.14,6131,List2A,white,woman,,,,null,,,,
null,are fighting each other,,html-keyboard-response,402,1742025,0.0-19.0-2.14,6131,List2A,white,woman,,,,null,,,,
9474,,,survey-text,403,1751501,0.0-19.0-3.14,6131,List2A,white,woman,,,,,"{""Q0"":""ruth and beth are fighting each other""}","<img src=""stim_listA/fight8.gif""style=""height:400px;""></stim_listA>",are fighting each other,
null,"<div style=""font-size:60px;"">+</div>",,html-keyboard-response,404,1752005,0.0-19.0-0.15,6131,List2A,white,woman,,,,null,,,,
null,"<img src=""stim_listA/play2.gif""style=""height:400px;""></stim_listA>",,html-keyboard-response,405,1754008,0.0-19.0-1.15,6131,List2A,white,woman,,,,null,,,,
null,are playing with each other,,html-keyboard-response,406,1756010,0.0-19.0-2.15,6131,List2A,white,woman,,,,null,,,,
8901,,,survey-text,407,1764913,0.0-19.0-3.15,6131,List2A,white,woman,,,,,"{""Q0"":""luke are ruth are playing with each other""}","<img src=""stim_listA/play2.gif""style=""height:400px;""></stim_listA>",are playing with each other,
null,"<div style=""font-size:60px;"">+</div>",,html-keyboard-response,408,1765419,0.0-19.0-0.16,6131,List2A,white,woman,,,,null,,,,
null,"<img src=""stim_listA/kiss5.gif""style=""height:400px;""></stim_listA>",,html-keyboard-response,409,1767428,0.0-19.0-1.16,6131,List2A,white,woman,,,,null,,,,
null,is kissing,,html-keyboard-response,410,1769430,0.0-19.0-2.16,6131,List2A,white,woman,,,,null,,,,
6212,,,survey-text,411,1775644,0.0-19.0-3.16,6131,List2A,white,woman,,,,,"{""Q0"":""fred is kissing luke""}","<img src=""stim_listA/kiss5.gif""style=""height:400px;""></stim_listA>",is kissing,
null,"<div style=""font-size:60px;"">+</div>",,html-keyboard-response,412,1776157,0.0-19.0-0.17,6131,List2A,white,woman,,,,null,,,,
null,"<img src=""stim_listA/touch7.gif""style=""height:400px;""></stim_listA>",,html-keyboard-response,413,1778163,0.0-19.0-1.17,6131,List2A,white,woman,,,,null,,,,
null,is touching,,html-keyboard-response,414,1780165,0.0-19.0-2.17,6131,List2A,white,woman,,,,null,,,,
7537,,,survey-text,415,1787704,0.0-19.0-3.17,6131,List2A,white,woman,,,,,"{""Q0"":""jane is touching kate""}","<img src=""stim_listA/touch7.gif""style=""height:400px;""></stim_listA>",is touching,
null,"<div style=""font-size:60px;"">+</div>",,html-keyboard-response,416,1788218,0.0-19.0-0.18,6131,List2A,white,woman,,,,null,,,,
null,"<img src=""stim_listA/touch8.gif""style=""height:400px;""></stim_listA>",,html-keyboard-response,417,1790224,0.0-19.0-1.18,6131,List2A,white,woman,,,,null,,,,
null,are touching each other,,html-keyboard-response,418,1792239,0.0-19.0-2.18,6131,List2A,white,woman,,,,null,,,,
8466,,,survey-text,419,1800707,0.0-19.0-3.18,6131,List2A,white,woman,,,,,"{""Q0"":""ruth and beth are touching each other""}","<img src=""stim_listA/touch8.gif""style=""height:400px;""></stim_listA>",are touching each other,
null,"<div style=""font-size:60px;"">+</div>",,html-keyboard-response,420,1801209,0.0-19.0-0.19,6131,List2A,white,woman,,,,null,,,,
null,"<img src=""stim_listA/touch1.gif""style=""height:400px;""></stim_listA>",,html-keyboard-response,421,1803215,0.0-19.0-1.19,6131,List2A,white,woman,,,,null,,,,
null,is touching,,html-keyboard-response,422,1805221,0.0-19.0-2.19,6131,List2A,white,woman,,,,null,,,,
7566,,,survey-text,423,1812789,0.0-19.0-3.19,6131,List2A,white,woman,,,,,"{""Q0"":""dave is touching jane""}","<img src=""stim_listA/touch1.gif""style=""height:400px;""></stim_listA>",is touching,
2544,<p>Thank you for completing that task.</p><p>The final part of this session is a short questionnaire.</p><p>Press Continue.</p>,0,html-button-response,424,1815336,0.0-20.0,6131,List2A,white,woman,,,,,,,,
30252,,,survey-text,425,1846602,0.0-21.0,6131,List2A,white,woman,,,,,"{""Q0"":""32"",""Q1"":""English"",""Q2"":""English"",""Q3"":""United Kingdom"",""Q4"":""British"",""Q5"":""Female""}",,,demographics
6066,,,survey-likert,426,1852763,0.0-22.0,6131,List2A,white,woman,,,,,"{""Q0"":4}",,,likert_ESS
6255,,,survey-likert,427,1859022,0.0-23.0,6131,List2A,white,woman,,,,,"{""Q0"":4}",,,likert_NSSAL_Q1
2911,,,survey-likert,428,1861938,0.0-24.0,6131,List2A,white,woman,,,,,"{""Q0"":4}",,,likert_NSSAL_Q2
4580,,,survey-likert,429,1866522,0.0-25.0,6131,List2A,white,woman,,,,,"{""Q0"":4}",,,likert_CGRS_Q1
2495,,,survey-likert,430,1869020,0.0-26.0,6131,List2A,white,woman,,,,,"{""Q0"":4}",,,likert_CGRS_Q2
2620,,,survey-likert,431,1871643,0.0-27.0,6131,List2A,white,woman,,,,,"{""Q0"":4}",,,likert_CGRS_Q3
3563,,,survey-text,432,1875210,0.0-28.0,6131,List2A,white,woman,,,,,"{""Q0"":""ccc""}",,,worker_id
30735,,,external-html,433,1906844,0.0-29.0,6131,List2A,white,woman,debrief.html,,,,,,,
