rt,stimulus,button_pressed,trial_type,trial_index,time_elapsed,internal_node_id,subject,list,ppt_race,ppt_gender,url,first_guess,correct,key_press,responses,image_type,phrase_type,test_part
1376,Welcome to the experiment. Press Continue to begin.,0,html-button-response,0,1381,0.0-0.0,61322,List1B,black,woman,,,,,,,,
6342,,,external-html,1,8835,0.0-1.0,61322,List1B,black,woman,consent.html,,,,,,,
11276,"<p>On the next page, you will see portraits of 8 people and their names.</p><p>Your first task is to take a few minutes to memorise the names of these people.</p><p>You will have to recall their names during the rest of the experiment, so it is</p><p>essential that you try to memorise these people and their names as best as you can.</p><br><p><strong>You will then be tested on your memory of these names and portraits.</strong></p><br><p>The experiment will start after you have completed this memory test.</p><br><p>Ready?</p>",0,html-button-response,2,20114,0.0-2.0,61322,List1B,black,woman,,,,,,,,
72514,"<img src='img/portrait_matrix_list1.jpg' style='width:900px;height:500px;''></img><p>If you have memorised all the portraits and names and are ready to start, press Continue.</p><p><strong>Please note: Your memory of these faces will be tested 4 times during this experiment.</strong></p>",0,html-button-response,3,93636,0.0-3.0-0.0,61322,List1B,black,woman,,,,,,,,
3914,"<img src=""portrait/BW2.jpg""style=""height:400px;""></img>",2,html-button-response,4,98556,0.0-3.0-1.0,61322,List1B,black,woman,,TRUE,2,,,,,
null,CORRECT,,html-keyboard-response,5,100065,0.0-3.0-2.0-0.0,61322,List1B,black,woman,,,,null,,,,
1912,"<img src=""portrait/WW2.jpg""style=""height:400px;""></img>",3,html-button-response,6,101979,0.0-3.0-4.0,61322,List1B,black,woman,,TRUE,3,,,,,
null,CORRECT,,html-keyboard-response,7,103490,0.0-3.0-5.0-0.0,61322,List1B,black,woman,,,,null,,,,
2143,"<img src=""portrait/BM2.jpg""style=""height:400px;""></img>",5,html-button-response,8,105636,0.0-3.0-7.0,61322,List1B,black,woman,,TRUE,5,,,,,
null,CORRECT,,html-keyboard-response,9,107140,0.0-3.0-8.0-0.0,61322,List1B,black,woman,,,,null,,,,
2292,"<img src=""portrait/WM1.jpg""style=""height:400px;""></img>",6,html-button-response,10,109436,0.0-3.0-10.0,61322,List1B,black,woman,,TRUE,6,,,,,
null,CORRECT,,html-keyboard-response,11,110940,0.0-3.0-11.0-0.0,61322,List1B,black,woman,,,,null,,,,
2156,"<img src=""portrait/BM1.jpg""style=""height:400px;""></img>",4,html-button-response,12,113098,0.0-3.0-13.0,61322,List1B,black,woman,,TRUE,4,,,,,
null,CORRECT,,html-keyboard-response,13,114605,0.0-3.0-14.0-0.0,61322,List1B,black,woman,,,,null,,,,
4956,"<img src=""portrait/WW1.jpg""style=""height:400px;""></img>",1,html-button-response,14,119563,0.0-3.0-16.0,61322,List1B,black,woman,,TRUE,1,,,,,
null,CORRECT,,html-keyboard-response,15,121072,0.0-3.0-17.0-0.0,61322,List1B,black,woman,,,,null,,,,
2417,"<img src=""portrait/BW1.jpg""style=""height:400px;""></img>",0,html-button-response,16,123491,0.0-3.0-19.0,61322,List1B,black,woman,,TRUE,0,,,,,
null,CORRECT,,html-keyboard-response,17,124995,0.0-3.0-20.0-0.0,61322,List1B,black,woman,,,,null,,,,
1909,"<img src=""portrait/WM2.jpg""style=""height:400px;""></img>",7,html-button-response,18,126906,0.0-3.0-22.0,61322,List1B,black,woman,,TRUE,7,,,,,
null,CORRECT,,html-keyboard-response,19,128409,0.0-3.0-23.0-0.0,61322,List1B,black,woman,,,,null,,,,
1541,<p>You got 8 out of 8 right first time. Press Continue.</p>,0,html-button-response,20,129954,0.0-3.0-25.0,61322,List1B,black,woman,,,,,,,,
20474,"<p>In this experiment, you will view photographs of the people from the memory game interacting.</p><p>By using the <strong>exact</strong> phrase given <i>after</i> the photograph appears and recalling the correct names of the people in the photographs, form a sentence describing the interaction. You do not need to capitalise names.</p><p>Type your answer in the space provided. Please complete every sentence before moving onto the next trial.</p><p>You will only have a few seconds to memorise each given photograph and phrase before you can respond, so try your best to focus.</p><p>An example is given below. Press 'Continue' when you are ready.</p><img src='img/speaking_example.jpg' style='width:800px;height:460px;''></img>",0,html-button-response,21,151434,0.0-4.0,61322,List1B,black,woman,,,,,,,,
2164,"<p>Before the experiment starts, you will watch two example trials. Press 'Continue'.</p>",0,html-button-response,22,154602,0.0-5.0,61322,List1B,black,woman,,,,,,,,
null,<img src='img/meet_eg.gif' style='height:400px;''></img>,,html-keyboard-response,23,157607,0.0-6.0,61322,List1B,black,woman,,,,null,,,,
null,<p>is meeting</p>,,html-keyboard-response,24,159608,0.0-7.0,61322,List1B,black,woman,,,,null,,,,
2192,<p><b>Answer:</b> kate is meeting beth</p>,0,html-button-response,25,161802,0.0-8.0,61322,List1B,black,woman,,,,,,,,
null,<img src='img/look_eg.gif' style='height:400px;''></img>,,html-keyboard-response,26,164806,0.0-9.0,61322,List1B,black,woman,,,,null,,,,
null,<p>are looking at each other</p>,,html-keyboard-response,27,166808,0.0-10.0,61322,List1B,black,woman,,,,null,,,,
1792,<p><b>Answer:</b> luke and dave are looking at each other</p>,0,html-button-response,28,168602,0.0-11.0,61322,List1B,black,woman,,,,,,,,
9236,"<p>Ready to start the experiment?</p><br><p><strong>Remember to describe the picture using a full sentence,</strong></p><p><strong>that combines the names of the people with the <i>exact</i> phrase given.</strong></p><p><strong>To receive full payment you must do this correctly.</strong></p><p><strong> You do not need to capitalise names or use punctuation.</strong></p><br><p>Press 'Continue' to begin.</p>",0,html-button-response,29,178842,0.0-12.0,61322,List1B,black,woman,,,,,,,,
null,"<div style=""font-size:60px;"">+</div>",,html-keyboard-response,30,180349,0.0-13.0-0.0,61322,List1B,black,woman,,,,null,,,,
null,"<img src=""stim_listB/argue8.gif""style=""height:400px;""></stim_listB>",,html-keyboard-response,31,182353,0.0-13.0-1.0,61322,List1B,black,woman,,,,null,,,,
null,are arguing with each other,,html-keyboard-response,32,184355,0.0-13.0-2.0,61322,List1B,black,woman,,,,null,,,,
21085,,,survey-text,33,205443,0.0-13.0-3.0,61322,List1B,black,woman,,,,,"{""Q0"":""Beth and Jane are arguing with each other.""}","<img src=""stim_listB/argue8.gif""style=""height:400px;""></stim_listB>",are arguing with each other,
null,"<div style=""font-size:60px;"">+</div>",,html-keyboard-response,34,205948,0.0-13.0-0.1,61322,List1B,black,woman,,,,null,,,,
null,"<img src=""stim_listB/play7.gif""style=""height:400px;""></stim_listB>",,html-keyboard-response,35,207950,0.0-13.0-1.1,61322,List1B,black,woman,,,,null,,,,
null,is playing with,,html-keyboard-response,36,209952,0.0-13.0-2.1,61322,List1B,black,woman,,,,null,,,,
15742,,,survey-text,37,225697,0.0-13.0-3.1,61322,List1B,black,woman,,,,,"{""Q0"":""Beth and Jane are playing with each other.""}","<img src=""stim_listB/play7.gif""style=""height:400px;""></stim_listB>",is playing with,
null,"<div style=""font-size:60px;"">+</div>",,html-keyboard-response,38,226200,0.0-13.0-0.2,61322,List1B,black,woman,,,,null,,,,
null,"<img src=""stim_listB/shout1.gif""style=""height:400px;""></stim_listB>",,html-keyboard-response,39,228203,0.0-13.0-1.2,61322,List1B,black,woman,,,,null,,,,
null,is shouting at,,html-keyboard-response,40,230206,0.0-13.0-2.2,61322,List1B,black,woman,,,,null,,,,
7656,,,survey-text,41,237865,0.0-13.0-3.2,61322,List1B,black,woman,,,,,"{""Q0"":""Beth is shouting at Fred.""}","<img src=""stim_listB/shout1.gif""style=""height:400px;""></stim_listB>",is shouting at,
null,"<div style=""font-size:60px;"">+</div>",,html-keyboard-response,42,238369,0.0-13.0-0.3,61322,List1B,black,woman,,,,null,,,,
null,"<img src=""stim_listB/fight2.gif""style=""height:400px;""></stim_listB>",,html-keyboard-response,43,240371,0.0-13.0-1.3,61322,List1B,black,woman,,,,null,,,,
null,are fighting each other,,html-keyboard-response,44,242374,0.0-13.0-2.3,61322,List1B,black,woman,,,,null,,,,
12809,,,survey-text,45,255185,0.0-13.0-3.3,61322,List1B,black,woman,,,,,"{""Q0"":""Beth and Fred are fighting each other.""}","<img src=""stim_listB/fight2.gif""style=""height:400px;""></stim_listB>",are fighting each other,
null,"<div style=""font-size:60px;"">+</div>",,html-keyboard-response,46,255688,0.0-13.0-0.4,61322,List1B,black,woman,,,,null,,,,
null,"<img src=""stim_listB/argue2.gif""style=""height:400px;""></stim_listB>",,html-keyboard-response,47,257693,0.0-13.0-1.4,61322,List1B,black,woman,,,,null,,,,
null,are arguing with each other,,html-keyboard-response,48,259694,0.0-13.0-2.4,61322,List1B,black,woman,,,,null,,,,
12642,,,survey-text,49,272337,0.0-13.0-3.4,61322,List1B,black,woman,,,,,"{""Q0"":""Fred and Kate are arguing with each other.""}","<img src=""stim_listB/argue2.gif""style=""height:400px;""></stim_listB>",are arguing with each other,
null,"<div style=""font-size:60px;"">+</div>",,html-keyboard-response,50,272841,0.0-13.0-0.5,61322,List1B,black,woman,,,,null,,,,
null,"<img src=""stim_listB/dance5.gif""style=""height:400px;""></stim_listB>",,html-keyboard-response,51,274844,0.0-13.0-1.5,61322,List1B,black,woman,,,,null,,,,
null,is dancing with,,html-keyboard-response,52,276847,0.0-13.0-2.5,61322,List1B,black,woman,,,,null,,,,
8712,,,survey-text,53,285561,0.0-13.0-3.5,61322,List1B,black,woman,,,,,"{""Q0"":""Dave is dancing with Fred.""}","<img src=""stim_listB/dance5.gif""style=""height:400px;""></stim_listB>",is dancing with,
null,"<div style=""font-size:60px;"">+</div>",,html-keyboard-response,54,286065,0.0-13.0-0.6,61322,List1B,black,woman,,,,null,,,,
null,"<img src=""stim_listB/flirt6.gif""style=""height:400px;""></stim_listB>",,html-keyboard-response,55,288069,0.0-13.0-1.6,61322,List1B,black,woman,,,,null,,,,
null,are flirting with each other,,html-keyboard-response,56,290071,0.0-13.0-2.6,61322,List1B,black,woman,,,,null,,,,
8973,,,survey-text,57,299050,0.0-13.0-3.6,61322,List1B,black,woman,,,,,"{""Q0"":""Mike and Luke are flirting with each other.""}","<img src=""stim_listB/flirt6.gif""style=""height:400px;""></stim_listB>",are flirting with each other,
null,"<div style=""font-size:60px;"">+</div>",,html-keyboard-response,58,299553,0.0-13.0-0.7,61322,List1B,black,woman,,,,null,,,,
null,"<img src=""stim_listB/talk3.gif""style=""height:400px;""></stim_listB>",,html-keyboard-response,59,301562,0.0-13.0-1.7,61322,List1B,black,woman,,,,null,,,,
null,is talking to,,html-keyboard-response,60,303566,0.0-13.0-2.7,61322,List1B,black,woman,,,,null,,,,
12393,,,survey-text,61,315961,0.0-13.0-3.7,61322,List1B,black,woman,,,,,"{""Q0"":""Luke is talking to Jane.""}","<img src=""stim_listB/talk3.gif""style=""height:400px;""></stim_listB>",is talking to,
null,"<div style=""font-size:60px;"">+</div>",,html-keyboard-response,62,316464,0.0-13.0-0.8,61322,List1B,black,woman,,,,null,,,,
null,"<img src=""stim_listB/touch6.gif""style=""height:400px;""></stim_listB>",,html-keyboard-response,63,318467,0.0-13.0-1.8,61322,List1B,black,woman,,,,null,,,,
null,are touching each other,,html-keyboard-response,64,320469,0.0-13.0-2.8,61322,List1B,black,woman,,,,null,,,,
11090,,,survey-text,65,331561,0.0-13.0-3.8,61322,List1B,black,woman,,,,,"{""Q0"":""Luke and Fred are touching each other.""}","<img src=""stim_listB/touch6.gif""style=""height:400px;""></stim_listB>",are touching each other,
null,"<div style=""font-size:60px;"">+</div>",,html-keyboard-response,66,332066,0.0-13.0-0.9,61322,List1B,black,woman,,,,null,,,,
null,"<img src=""stim_listB/touch5.gif""style=""height:400px;""></stim_listB>",,html-keyboard-response,67,334068,0.0-13.0-1.9,61322,List1B,black,woman,,,,null,,,,
null,is touching,,html-keyboard-response,68,336074,0.0-13.0-2.9,61322,List1B,black,woman,,,,null,,,,
7086,,,survey-text,69,343162,0.0-13.0-3.9,61322,List1B,black,woman,,,,,"{""Q0"":""Dave is touching Mike.""}","<img src=""stim_listB/touch5.gif""style=""height:400px;""></stim_listB>",is touching,
null,"<div style=""font-size:60px;"">+</div>",,html-keyboard-response,70,343665,0.0-13.0-0.10,61322,List1B,black,woman,,,,null,,,,
null,"<img src=""stim_listB/shout3.gif""style=""height:400px;""></stim_listB>",,html-keyboard-response,71,345669,0.0-13.0-1.10,61322,List1B,black,woman,,,,null,,,,
null,is shouting at,,html-keyboard-response,72,347673,0.0-13.0-2.10,61322,List1B,black,woman,,,,null,,,,
7286,,,survey-text,73,354962,0.0-13.0-3.10,61322,List1B,black,woman,,,,,"{""Q0"":""Ruth is shouting at Luke.""}","<img src=""stim_listB/shout3.gif""style=""height:400px;""></stim_listB>",is shouting at,
null,"<div style=""font-size:60px;"">+</div>",,html-keyboard-response,74,355466,0.0-13.0-0.11,61322,List1B,black,woman,,,,null,,,,
null,"<img src=""stim_listB/shout4.gif""style=""height:400px;""></stim_listB>",,html-keyboard-response,75,357470,0.0-13.0-1.11,61322,List1B,black,woman,,,,null,,,,
null,are shouting at each other,,html-keyboard-response,76,359474,0.0-13.0-2.11,61322,List1B,black,woman,,,,null,,,,
15030,,,survey-text,77,374506,0.0-13.0-3.11,61322,List1B,black,woman,,,,,"{""Q0"":""Dave and Jane are shouting at each other.""}","<img src=""stim_listB/shout4.gif""style=""height:400px;""></stim_listB>",are shouting at each other,
null,"<div style=""font-size:60px;"">+</div>",,html-keyboard-response,78,375009,0.0-13.0-0.12,61322,List1B,black,woman,,,,null,,,,
null,"<img src=""stim_listB/touch1.gif""style=""height:400px;""></stim_listB>",,html-keyboard-response,79,377011,0.0-13.0-1.12,61322,List1B,black,woman,,,,null,,,,
null,is touching,,html-keyboard-response,80,379014,0.0-13.0-2.12,61322,List1B,black,woman,,,,null,,,,
8882,,,survey-text,81,387897,0.0-13.0-3.12,61322,List1B,black,woman,,,,,"{""Q0"":""Kate is touching Mike.""}","<img src=""stim_listB/touch1.gif""style=""height:400px;""></stim_listB>",is touching,
null,"<div style=""font-size:60px;"">+</div>",,html-keyboard-response,82,388400,0.0-13.0-0.13,61322,List1B,black,woman,,,,null,,,,
null,"<img src=""stim_listB/touch4.gif""style=""height:400px;""></stim_listB>",,html-keyboard-response,83,390405,0.0-13.0-1.13,61322,List1B,black,woman,,,,null,,,,
null,are touching each other,,html-keyboard-response,84,392408,0.0-13.0-2.13,61322,List1B,black,woman,,,,null,,,,
11768,,,survey-text,85,404178,0.0-13.0-3.13,61322,List1B,black,woman,,,,,"{""Q0"":""Luke and Ruth are touching each other.""}","<img src=""stim_listB/touch4.gif""style=""height:400px;""></stim_listB>",are touching each other,
null,"<div style=""font-size:60px;"">+</div>",,html-keyboard-response,86,404681,0.0-13.0-0.14,61322,List1B,black,woman,,,,null,,,,
null,"<img src=""stim_listB/marry7.gif""style=""height:400px;""></stim_listB>",,html-keyboard-response,87,406688,0.0-13.0-1.14,61322,List1B,black,woman,,,,null,,,,
null,is marrying,,html-keyboard-response,88,408691,0.0-13.0-2.14,61322,List1B,black,woman,,,,null,,,,
9317,,,survey-text,89,418010,0.0-13.0-3.14,61322,List1B,black,woman,,,,,"{""Q0"":""Ruth is marrying Kate.""}","<img src=""stim_listB/marry7.gif""style=""height:400px;""></stim_listB>",is marrying,
null,"<div style=""font-size:60px;"">+</div>",,html-keyboard-response,90,418513,0.0-13.0-0.15,61322,List1B,black,woman,,,,null,,,,
null,"<img src=""stim_listB/fight7.gif""style=""height:400px;""></stim_listB>",,html-keyboard-response,91,420522,0.0-13.0-1.15,61322,List1B,black,woman,,,,null,,,,
null,is fighting,,html-keyboard-response,92,422526,0.0-13.0-2.15,61322,List1B,black,woman,,,,null,,,,
16642,,,survey-text,93,439169,0.0-13.0-3.15,61322,List1B,black,woman,,,,,"{""Q0"":""Jane is fighting Kate.""}","<img src=""stim_listB/fight7.gif""style=""height:400px;""></stim_listB>",is fighting,
null,"<div style=""font-size:60px;"">+</div>",,html-keyboard-response,94,439674,0.0-13.0-0.16,61322,List1B,black,woman,,,,null,,,,
null,"<img src=""stim_listB/touch3.gif""style=""height:400px;""></stim_listB>",,html-keyboard-response,95,441686,0.0-13.0-1.16,61322,List1B,black,woman,,,,null,,,,
null,is touching,,html-keyboard-response,96,443689,0.0-13.0-2.16,61322,List1B,black,woman,,,,null,,,,
6694,,,survey-text,97,450385,0.0-13.0-3.16,61322,List1B,black,woman,,,,,"{""Q0"":""Jane is touching Dave.""}","<img src=""stim_listB/touch3.gif""style=""height:400px;""></stim_listB>",is touching,
null,"<div style=""font-size:60px;"">+</div>",,html-keyboard-response,98,450887,0.0-13.0-0.17,61322,List1B,black,woman,,,,null,,,,
null,"<img src=""stim_listB/flirt4.gif""style=""height:400px;""></stim_listB>",,html-keyboard-response,99,452890,0.0-13.0-1.17,61322,List1B,black,woman,,,,null,,,,
null,are flirting with each other,,html-keyboard-response,100,454892,0.0-13.0-2.17,61322,List1B,black,woman,,,,null,,,,
12442,,,survey-text,101,467337,0.0-13.0-3.17,61322,List1B,black,woman,,,,,"{""Q0"":""Dave and Ruth are flirting with each other.""}","<img src=""stim_listB/flirt4.gif""style=""height:400px;""></stim_listB>",are flirting with each other,
null,"<div style=""font-size:60px;"">+</div>",,html-keyboard-response,102,467841,0.0-13.0-0.18,61322,List1B,black,woman,,,,null,,,,
null,"<img src=""stim_listB/shout7.gif""style=""height:400px;""></stim_listB>",,html-keyboard-response,103,469844,0.0-13.0-1.18,61322,List1B,black,woman,,,,null,,,,
null,is shouting at,,html-keyboard-response,104,471847,0.0-13.0-2.18,61322,List1B,black,woman,,,,null,,,,
10879,,,survey-text,105,482728,0.0-13.0-3.18,61322,List1B,black,woman,,,,,"{""Q0"":""Beth is shouting at Ruth.""}","<img src=""stim_listB/shout7.gif""style=""height:400px;""></stim_listB>",is shouting at,
null,"<div style=""font-size:60px;"">+</div>",,html-keyboard-response,106,483232,0.0-13.0-0.19,61322,List1B,black,woman,,,,null,,,,
null,"<img src=""stim_listB/play8.gif""style=""height:400px;""></stim_listB>",,html-keyboard-response,107,485235,0.0-13.0-1.19,61322,List1B,black,woman,,,,null,,,,
null,are playing with each other,,html-keyboard-response,108,487238,0.0-13.0-2.19,61322,List1B,black,woman,,,,null,,,,
12537,,,survey-text,109,499776,0.0-13.0-3.19,61322,List1B,black,woman,,,,,"{""Q0"":""Beth and Ruth are playing cards.""}","<img src=""stim_listB/play8.gif""style=""height:400px;""></stim_listB>",are playing with each other,
13598,"<img src='img/portrait_matrix_list1.jpg' style='width:900px;height:500px;''></img><p>If you have memorised all the portraits and names and are ready to start, press Continue.</p><p><strong>Please note: Your memory of these faces will be tested 4 times during this experiment.</strong></p>",0,html-button-response,110,513379,0.0-14.0-0.0,61322,List1B,black,woman,,,,,,,,
3107,"<img src=""portrait/BW2.jpg""style=""height:400px;""></img>",2,html-button-response,111,517491,0.0-14.0-1.0,61322,List1B,black,woman,,TRUE,2,,,,,
null,CORRECT,,html-keyboard-response,112,519000,0.0-14.0-2.0-0.0,61322,List1B,black,woman,,,,null,,,,
2128,"<img src=""portrait/WM1.jpg""style=""height:400px;""></img>",6,html-button-response,113,521131,0.0-14.0-4.0,61322,List1B,black,woman,,TRUE,6,,,,,
null,CORRECT,,html-keyboard-response,114,522635,0.0-14.0-5.0-0.0,61322,List1B,black,woman,,,,null,,,,
1068,"<img src=""portrait/WM2.jpg""style=""height:400px;""></img>",7,html-button-response,115,523705,0.0-14.0-7.0,61322,List1B,black,woman,,TRUE,7,,,,,
null,CORRECT,,html-keyboard-response,116,525209,0.0-14.0-8.0-0.0,61322,List1B,black,woman,,,,null,,,,
1916,"<img src=""portrait/WW1.jpg""style=""height:400px;""></img>",1,html-button-response,117,527130,0.0-14.0-10.0,61322,List1B,black,woman,,TRUE,1,,,,,
null,CORRECT,,html-keyboard-response,118,528635,0.0-14.0-11.0-0.0,61322,List1B,black,woman,,,,null,,,,
1748,"<img src=""portrait/BM1.jpg""style=""height:400px;""></img>",4,html-button-response,119,530386,0.0-14.0-13.0,61322,List1B,black,woman,,TRUE,4,,,,,
null,CORRECT,,html-keyboard-response,120,531889,0.0-14.0-14.0-0.0,61322,List1B,black,woman,,,,null,,,,
1504,"<img src=""portrait/BM2.jpg""style=""height:400px;""></img>",5,html-button-response,121,533396,0.0-14.0-16.0,61322,List1B,black,woman,,TRUE,5,,,,,
null,CORRECT,,html-keyboard-response,122,534899,0.0-14.0-17.0-0.0,61322,List1B,black,woman,,,,null,,,,
4132,"<img src=""portrait/WW2.jpg""style=""height:400px;""></img>",3,html-button-response,123,539034,0.0-14.0-19.0,61322,List1B,black,woman,,TRUE,3,,,,,
null,CORRECT,,html-keyboard-response,124,540539,0.0-14.0-20.0-0.0,61322,List1B,black,woman,,,,null,,,,
1813,"<img src=""portrait/BW1.jpg""style=""height:400px;""></img>",0,html-button-response,125,542354,0.0-14.0-22.0,61322,List1B,black,woman,,TRUE,0,,,,,
null,CORRECT,,html-keyboard-response,126,543858,0.0-14.0-23.0-0.0,61322,List1B,black,woman,,,,null,,,,
1107,<p>You got 8 out of 8 right first time. Press Continue.</p>,0,html-button-response,127,544969,0.0-14.0-25.0,61322,List1B,black,woman,,,,,,,,
null,"<div style=""font-size:60px;"">+</div>",,html-keyboard-response,128,546473,0.0-15.0-0.0,61322,List1B,black,woman,,,,null,,,,
null,"<img src=""stim_listB/play1.gif""style=""height:400px;""></stim_listB>",,html-keyboard-response,129,548482,0.0-15.0-1.0,61322,List1B,black,woman,,,,null,,,,
null,is playing with,,html-keyboard-response,130,550485,0.0-15.0-2.0,61322,List1B,black,woman,,,,null,,,,
10858,,,survey-text,131,561345,0.0-15.0-3.0,61322,List1B,black,woman,,,,,"{""Q0"":""Mike is playing with Kate.""}","<img src=""stim_listB/play1.gif""style=""height:400px;""></stim_listB>",is playing with,
null,"<div style=""font-size:60px;"">+</div>",,html-keyboard-response,132,561847,0.0-15.0-0.1,61322,List1B,black,woman,,,,null,,,,
null,"<img src=""stim_listB/flirt3.gif""style=""height:400px;""></stim_listB>",,html-keyboard-response,133,563851,0.0-15.0-1.1,61322,List1B,black,woman,,,,null,,,,
null,is flirting with,,html-keyboard-response,134,565853,0.0-15.0-2.1,61322,List1B,black,woman,,,,null,,,,
10179,,,survey-text,135,576034,0.0-15.0-3.1,61322,List1B,black,woman,,,,,"{""Q0"":""Luke is flirting with Jane.""}","<img src=""stim_listB/flirt3.gif""style=""height:400px;""></stim_listB>",is flirting with,
null,"<div style=""font-size:60px;"">+</div>",,html-keyboard-response,136,576537,0.0-15.0-0.2,61322,List1B,black,woman,,,,null,,,,
null,"<img src=""stim_listB/argue7.gif""style=""height:400px;""></stim_listB>",,html-keyboard-response,137,578543,0.0-15.0-1.2,61322,List1B,black,woman,,,,null,,,,
null,is arguing with,,html-keyboard-response,138,580548,0.0-15.0-2.2,61322,List1B,black,woman,,,,null,,,,
14915,,,survey-text,139,595465,0.0-15.0-3.2,61322,List1B,black,woman,,,,,"{""Q0"":""Ruth is arguing with Kate.""}","<img src=""stim_listB/argue7.gif""style=""height:400px;""></stim_listB>",is arguing with,
null,"<div style=""font-size:60px;"">+</div>",,html-keyboard-response,140,595968,0.0-15.0-0.3,61322,List1B,black,woman,,,,null,,,,
null,"<img src=""stim_listB/talk2.gif""style=""height:400px;""></stim_listB>",,html-keyboard-response,141,597971,0.0-15.0-1.3,61322,List1B,black,woman,,,,null,,,,
null,are talking to each other,,html-keyboard-response,142,599973,0.0-15.0-2.3,61322,List1B,black,woman,,,,null,,,,
12051,,,survey-text,143,612026,0.0-15.0-3.3,61322,List1B,black,woman,,,,,"{""Q0"":""Mike and Beth are talking to each other.""}","<img src=""stim_listB/talk2.gif""style=""height:400px;""></stim_listB>",are talking to each other,
null,"<div style=""font-size:60px;"">+</div>",,html-keyboard-response,144,612529,0.0-15.0-0.4,61322,List1B,black,woman,,,,null,,,,
null,"<img src=""stim_listB/touch8.gif""style=""height:400px;""></stim_listB>",,html-keyboard-response,145,614532,0.0-15.0-1.4,61322,List1B,black,woman,,,,null,,,,
null,are touching each other,,html-keyboard-response,146,616534,0.0-15.0-2.4,61322,List1B,black,woman,,,,null,,,,
11929,,,survey-text,147,628465,0.0-15.0-3.4,61322,List1B,black,woman,,,,,"{""Q0"":""Beth and Ruth are touching each other.""}","<img src=""stim_listB/touch8.gif""style=""height:400px;""></stim_listB>",are touching each other,
null,"<div style=""font-size:60px;"">+</div>",,html-keyboard-response,148,628967,0.0-15.0-0.5,61322,List1B,black,woman,,,,null,,,,
null,"<img src=""stim_listB/marry5.gif""style=""height:400px;""></stim_listB>",,html-keyboard-response,149,630970,0.0-15.0-1.5,61322,List1B,black,woman,,,,null,,,,
null,is marrying,,html-keyboard-response,150,632974,0.0-15.0-2.5,61322,List1B,black,woman,,,,null,,,,
10273,,,survey-text,151,643249,0.0-15.0-3.5,61322,List1B,black,woman,,,,,"{""Q0"":""Mike is marrying Luke.""}","<img src=""stim_listB/marry5.gif""style=""height:400px;""></stim_listB>",is marrying,
null,"<div style=""font-size:60px;"">+</div>",,html-keyboard-response,152,643754,0.0-15.0-0.6,61322,List1B,black,woman,,,,null,,,,
null,"<img src=""stim_listB/talk8.gif""style=""height:400px;""></stim_listB>",,html-keyboard-response,153,645758,0.0-15.0-1.6,61322,List1B,black,woman,,,,null,,,,
null,are talking to each other,,html-keyboard-response,154,647760,0.0-15.0-2.6,61322,List1B,black,woman,,,,null,,,,
14368,,,survey-text,155,662129,0.0-15.0-3.6,61322,List1B,black,woman,,,,,"{""Q0"":""Ruth and Kate are talking to each other.""}","<img src=""stim_listB/talk8.gif""style=""height:400px;""></stim_listB>",are talking to each other,
null,"<div style=""font-size:60px;"">+</div>",,html-keyboard-response,156,662632,0.0-15.0-0.7,61322,List1B,black,woman,,,,null,,,,
null,"<img src=""stim_listB/flirt8.gif""style=""height:400px;""></stim_listB>",,html-keyboard-response,157,664638,0.0-15.0-1.7,61322,List1B,black,woman,,,,null,,,,
null,are flirting with each other,,html-keyboard-response,158,666644,0.0-15.0-2.7,61322,List1B,black,woman,,,,null,,,,
18579,,,survey-text,159,685224,0.0-15.0-3.7,61322,List1B,black,woman,,,,,"{""Q0"":""Kate and Ruth are flirting with each other.""}","<img src=""stim_listB/flirt8.gif""style=""height:400px;""></stim_listB>",are flirting with each other,
null,"<div style=""font-size:60px;"">+</div>",,html-keyboard-response,160,685727,0.0-15.0-0.8,61322,List1B,black,woman,,,,null,,,,
null,"<img src=""stim_listB/shout5.gif""style=""height:400px;""></stim_listB>",,html-keyboard-response,161,687729,0.0-15.0-1.8,61322,List1B,black,woman,,,,null,,,,
null,is shouting at,,html-keyboard-response,162,689731,0.0-15.0-2.8,61322,List1B,black,woman,,,,null,,,,
15980,,,survey-text,163,705713,0.0-15.0-3.8,61322,List1B,black,woman,,,,,"{""Q0"":""Luke and Fred are fighting each other.""}","<img src=""stim_listB/shout5.gif""style=""height:400px;""></stim_listB>",is shouting at,
null,"<div style=""font-size:60px;"">+</div>",,html-keyboard-response,164,706215,0.0-15.0-0.9,61322,List1B,black,woman,,,,null,,,,
null,"<img src=""stim_listB/shout6.gif""style=""height:400px;""></stim_listB>",,html-keyboard-response,165,708222,0.0-15.0-1.9,61322,List1B,black,woman,,,,null,,,,
null,are shouting at each other,,html-keyboard-response,166,710226,0.0-15.0-2.9,61322,List1B,black,woman,,,,null,,,,
18085,,,survey-text,167,728313,0.0-15.0-3.9,61322,List1B,black,woman,,,,,"{""Q0"":""Dave and Mike are shouting at each other.""}","<img src=""stim_listB/shout6.gif""style=""height:400px;""></stim_listB>",are shouting at each other,
null,"<div style=""font-size:60px;"">+</div>",,html-keyboard-response,168,728816,0.0-15.0-0.10,61322,List1B,black,woman,,,,null,,,,
null,"<img src=""stim_listB/fight4.gif""style=""height:400px;""></stim_listB>",,html-keyboard-response,169,730820,0.0-15.0-1.10,61322,List1B,black,woman,,,,null,,,,
null,are fighting each other,,html-keyboard-response,170,732822,0.0-15.0-2.10,61322,List1B,black,woman,,,,null,,,,
11881,,,survey-text,171,744705,0.0-15.0-3.10,61322,List1B,black,woman,,,,,"{""Q0"":""Luke and Ruth are fighting each other.""}","<img src=""stim_listB/fight4.gif""style=""height:400px;""></stim_listB>",are fighting each other,
null,"<div style=""font-size:60px;"">+</div>",,html-keyboard-response,172,745207,0.0-15.0-0.11,61322,List1B,black,woman,,,,null,,,,
null,"<img src=""stim_listB/talk7.gif""style=""height:400px;""></stim_listB>",,html-keyboard-response,173,747210,0.0-15.0-1.11,61322,List1B,black,woman,,,,null,,,,
null,is talking to,,html-keyboard-response,174,749213,0.0-15.0-2.11,61322,List1B,black,woman,,,,null,,,,
12487,,,survey-text,175,761706,0.0-15.0-3.11,61322,List1B,black,woman,,,,,"{""Q0"":""Beth is talking to Jane.""}","<img src=""stim_listB/talk7.gif""style=""height:400px;""></stim_listB>",is talking to,
null,"<div style=""font-size:60px;"">+</div>",,html-keyboard-response,176,762208,0.0-15.0-0.12,61322,List1B,black,woman,,,,null,,,,
null,"<img src=""stim_listB/kiss4.gif""style=""height:400px;""></stim_listB>",,html-keyboard-response,177,764211,0.0-15.0-1.12,61322,List1B,black,woman,,,,null,,,,
null,are kissing each other,,html-keyboard-response,178,766216,0.0-15.0-2.12,61322,List1B,black,woman,,,,null,,,,
15127,,,survey-text,179,781346,0.0-15.0-3.12,61322,List1B,black,woman,,,,,"{""Q0"":""Dave and Jane are kissing each other.""}","<img src=""stim_listB/kiss4.gif""style=""height:400px;""></stim_listB>",are kissing each other,
null,"<div style=""font-size:60px;"">+</div>",,html-keyboard-response,180,781849,0.0-15.0-0.13,61322,List1B,black,woman,,,,null,,,,
null,"<img src=""stim_listB/argue1.gif""style=""height:400px;""></stim_listB>",,html-keyboard-response,181,783852,0.0-15.0-1.13,61322,List1B,black,woman,,,,null,,,,
null,is arguing with,,html-keyboard-response,182,785854,0.0-15.0-2.13,61322,List1B,black,woman,,,,null,,,,
10608,,,survey-text,183,796465,0.0-15.0-3.13,61322,List1B,black,woman,,,,,"{""Q0"":""Beth is arguing with Mike.""}","<img src=""stim_listB/argue1.gif""style=""height:400px;""></stim_listB>",is arguing with,
null,"<div style=""font-size:60px;"">+</div>",,html-keyboard-response,184,796967,0.0-15.0-0.14,61322,List1B,black,woman,,,,null,,,,
null,"<img src=""stim_listB/flirt7.gif""style=""height:400px;""></stim_listB>",,html-keyboard-response,185,798970,0.0-15.0-1.14,61322,List1B,black,woman,,,,null,,,,
null,is flirting with,,html-keyboard-response,186,800972,0.0-15.0-2.14,61322,List1B,black,woman,,,,null,,,,
8035,,,survey-text,187,809009,0.0-15.0-3.14,61322,List1B,black,woman,,,,,"{""Q0"":""Beth is flirting with Jane.""}","<img src=""stim_listB/flirt7.gif""style=""height:400px;""></stim_listB>",is flirting with,
null,"<div style=""font-size:60px;"">+</div>",,html-keyboard-response,188,809513,0.0-15.0-0.15,61322,List1B,black,woman,,,,null,,,,
null,"<img src=""stim_listB/kiss8.gif""style=""height:400px;""></stim_listB>",,html-keyboard-response,189,811517,0.0-15.0-1.15,61322,List1B,black,woman,,,,null,,,,
null,are kissing each other,,html-keyboard-response,190,813521,0.0-15.0-2.15,61322,List1B,black,woman,,,,null,,,,
7286,,,survey-text,191,820809,0.0-15.0-3.15,61322,List1B,black,woman,,,,,"{""Q0"":""Kate and Jane are kissing.""}","<img src=""stim_listB/kiss8.gif""style=""height:400px;""></stim_listB>",are kissing each other,
null,"<div style=""font-size:60px;"">+</div>",,html-keyboard-response,192,821313,0.0-15.0-0.16,61322,List1B,black,woman,,,,null,,,,
null,"<img src=""stim_listB/fight6.gif""style=""height:400px;""></stim_listB>",,html-keyboard-response,193,823316,0.0-15.0-1.16,61322,List1B,black,woman,,,,null,,,,
null,are fighting each other,,html-keyboard-response,194,825319,0.0-15.0-2.16,61322,List1B,black,woman,,,,null,,,,
11025,,,survey-text,195,836346,0.0-15.0-3.16,61322,List1B,black,woman,,,,,"{""Q0"":""Fred and Luke are fighting.""}","<img src=""stim_listB/fight6.gif""style=""height:400px;""></stim_listB>",are fighting each other,
null,"<div style=""font-size:60px;"">+</div>",,html-keyboard-response,196,836849,0.0-15.0-0.17,61322,List1B,black,woman,,,,null,,,,
null,"<img src=""stim_listB/argue6.gif""style=""height:400px;""></stim_listB>",,html-keyboard-response,197,838852,0.0-15.0-1.17,61322,List1B,black,woman,,,,null,,,,
null,are arguing with each other,,html-keyboard-response,198,840855,0.0-15.0-2.17,61322,List1B,black,woman,,,,null,,,,
17753,,,survey-text,199,858610,0.0-15.0-3.17,61322,List1B,black,woman,,,,,"{""Q0"":""Fred and Dave are arguing with each other.""}","<img src=""stim_listB/argue6.gif""style=""height:400px;""></stim_listB>",are arguing with each other,
null,"<div style=""font-size:60px;"">+</div>",,html-keyboard-response,200,859114,0.0-15.0-0.18,61322,List1B,black,woman,,,,null,,,,
null,"<img src=""stim_listB/dance3.gif""style=""height:400px;""></stim_listB>",,html-keyboard-response,201,861117,0.0-15.0-1.18,61322,List1B,black,woman,,,,null,,,,
null,is dancing with,,html-keyboard-response,202,863120,0.0-15.0-2.18,61322,List1B,black,woman,,,,null,,,,
8214,,,survey-text,203,871336,0.0-15.0-3.18,61322,List1B,black,woman,,,,,"{""Q0"":""Luke is dancing with Jane.""}","<img src=""stim_listB/dance3.gif""style=""height:400px;""></stim_listB>",is dancing with,
null,"<div style=""font-size:60px;"">+</div>",,html-keyboard-response,204,871838,0.0-15.0-0.19,61322,List1B,black,woman,,,,null,,,,
null,"<img src=""stim_listB/fight3.gif""style=""height:400px;""></stim_listB>",,html-keyboard-response,205,873844,0.0-15.0-1.19,61322,List1B,black,woman,,,,null,,,,
null,is fighting,,html-keyboard-response,206,875847,0.0-15.0-2.19,61322,List1B,black,woman,,,,null,,,,
10072,,,survey-text,207,885921,0.0-15.0-3.19,61322,List1B,black,woman,,,,,"{""Q0"":""Jane is fighting with Dave.""}","<img src=""stim_listB/fight3.gif""style=""height:400px;""></stim_listB>",is fighting,
4936,"<img src='img/portrait_matrix_list1.jpg' style='width:900px;height:500px;''></img><p>If you have memorised all the portraits and names and are ready to start, press Continue.</p><p><strong>Please note: Your memory of these faces will be tested 4 times during this experiment.</strong></p>",0,html-button-response,208,890858,0.0-16.0-0.0,61322,List1B,black,woman,,,,,,,,
2289,"<img src=""portrait/WM1.jpg""style=""height:400px;""></img>",6,html-button-response,209,894152,0.0-16.0-1.0,61322,List1B,black,woman,,TRUE,6,,,,,
null,CORRECT,,html-keyboard-response,210,895660,0.0-16.0-2.0-0.0,61322,List1B,black,woman,,,,null,,,,
2178,"<img src=""portrait/BW1.jpg""style=""height:400px;""></img>",0,html-button-response,211,897841,0.0-16.0-4.0,61322,List1B,black,woman,,TRUE,0,,,,,
null,CORRECT,,html-keyboard-response,212,899345,0.0-16.0-5.0-0.0,61322,List1B,black,woman,,,,null,,,,
1388,"<img src=""portrait/WW2.jpg""style=""height:400px;""></img>",3,html-button-response,213,900736,0.0-16.0-7.0,61322,List1B,black,woman,,TRUE,3,,,,,
null,CORRECT,,html-keyboard-response,214,902242,0.0-16.0-8.0-0.0,61322,List1B,black,woman,,,,null,,,,
1844,"<img src=""portrait/BM2.jpg""style=""height:400px;""></img>",5,html-button-response,215,904089,0.0-16.0-10.0,61322,List1B,black,woman,,TRUE,5,,,,,
null,CORRECT,,html-keyboard-response,216,905595,0.0-16.0-11.0-0.0,61322,List1B,black,woman,,,,null,,,,
1578,"<img src=""portrait/BM1.jpg""style=""height:400px;""></img>",4,html-button-response,217,907176,0.0-16.0-13.0,61322,List1B,black,woman,,TRUE,4,,,,,
null,CORRECT,,html-keyboard-response,218,908681,0.0-16.0-14.0-0.0,61322,List1B,black,woman,,,,null,,,,
1853,"<img src=""portrait/WW1.jpg""style=""height:400px;""></img>",1,html-button-response,219,910536,0.0-16.0-16.0,61322,List1B,black,woman,,TRUE,1,,,,,
null,CORRECT,,html-keyboard-response,220,912041,0.0-16.0-17.0-0.0,61322,List1B,black,woman,,,,null,,,,
1662,"<img src=""portrait/BW2.jpg""style=""height:400px;""></img>",2,html-button-response,221,913704,0.0-16.0-19.0,61322,List1B,black,woman,,TRUE,2,,,,,
null,CORRECT,,html-keyboard-response,222,915208,0.0-16.0-20.0-0.0,61322,List1B,black,woman,,,,null,,,,
1525,"<img src=""portrait/WM2.jpg""style=""height:400px;""></img>",7,html-button-response,223,916736,0.0-16.0-22.0,61322,List1B,black,woman,,TRUE,7,,,,,
null,CORRECT,,html-keyboard-response,224,918242,0.0-16.0-23.0-0.0,61322,List1B,black,woman,,,,null,,,,
1014,<p>You got 8 out of 8 right first time. Press Continue.</p>,0,html-button-response,225,919257,0.0-16.0-25.0,61322,List1B,black,woman,,,,,,,,
null,"<div style=""font-size:60px;"">+</div>",,html-keyboard-response,226,920762,0.0-17.0-0.0,61322,List1B,black,woman,,,,null,,,,
null,"<img src=""stim_listB/marry6.gif""style=""height:400px;""></stim_listB>",,html-keyboard-response,227,922765,0.0-17.0-1.0,61322,List1B,black,woman,,,,null,,,,
null,are marrying each other,,html-keyboard-response,228,924767,0.0-17.0-2.0,61322,List1B,black,woman,,,,null,,,,
17407,,,survey-text,229,942176,0.0-17.0-3.0,61322,List1B,black,woman,,,,,"{""Q0"":""Fred and Dave are marrying each other.""}","<img src=""stim_listB/marry6.gif""style=""height:400px;""></stim_listB>",are marrying each other,
null,"<div style=""font-size:60px;"">+</div>",,html-keyboard-response,230,942680,0.0-17.0-0.1,61322,List1B,black,woman,,,,null,,,,
null,"<img src=""stim_listB/touch2.gif""style=""height:400px;""></stim_listB>",,html-keyboard-response,231,944683,0.0-17.0-1.1,61322,List1B,black,woman,,,,null,,,,
null,are touching each other,,html-keyboard-response,232,946685,0.0-17.0-2.1,61322,List1B,black,woman,,,,null,,,,
13872,,,survey-text,233,960561,0.0-17.0-3.1,61322,List1B,black,woman,,,,,"{""Q0"":""Fred and Beth are touching each other.""}","<img src=""stim_listB/touch2.gif""style=""height:400px;""></stim_listB>",are touching each other,
null,"<div style=""font-size:60px;"">+</div>",,html-keyboard-response,234,961064,0.0-17.0-0.2,61322,List1B,black,woman,,,,null,,,,
null,"<img src=""stim_listB/marry1.gif""style=""height:400px;""></stim_listB>",,html-keyboard-response,235,963067,0.0-17.0-1.2,61322,List1B,black,woman,,,,null,,,,
null,is marrying,,html-keyboard-response,236,965070,0.0-17.0-2.2,61322,List1B,black,woman,,,,null,,,,
6401,,,survey-text,237,971473,0.0-17.0-3.2,61322,List1B,black,woman,,,,,"{""Q0"":""Mike is marrying Beth.""}","<img src=""stim_listB/marry1.gif""style=""height:400px;""></stim_listB>",is marrying,
null,"<div style=""font-size:60px;"">+</div>",,html-keyboard-response,238,971975,0.0-17.0-0.3,61322,List1B,black,woman,,,,null,,,,
null,"<img src=""stim_listB/dance1.gif""style=""height:400px;""></stim_listB>",,html-keyboard-response,239,973979,0.0-17.0-1.3,61322,List1B,black,woman,,,,null,,,,
null,is dancing with,,html-keyboard-response,240,975980,0.0-17.0-2.3,61322,List1B,black,woman,,,,null,,,,
7203,,,survey-text,241,983185,0.0-17.0-3.3,61322,List1B,black,woman,,,,,"{""Q0"":""Kate is dancing with Fred.""}","<img src=""stim_listB/dance1.gif""style=""height:400px;""></stim_listB>",is dancing with,
null,"<div style=""font-size:60px;"">+</div>",,html-keyboard-response,242,983688,0.0-17.0-0.4,61322,List1B,black,woman,,,,null,,,,
null,"<img src=""stim_listB/play6.gif""style=""height:400px;""></stim_listB>",,html-keyboard-response,243,985692,0.0-17.0-1.4,61322,List1B,black,woman,,,,null,,,,
null,are playing with each other,,html-keyboard-response,244,987694,0.0-17.0-2.4,61322,List1B,black,woman,,,,null,,,,
11921,,,survey-text,245,999618,0.0-17.0-3.4,61322,List1B,black,woman,,,,,"{""Q0"":""Fred and Luke are playing with each other.""}","<img src=""stim_listB/play6.gif""style=""height:400px;""></stim_listB>",are playing with each other,
null,"<div style=""font-size:60px;"">+</div>",,html-keyboard-response,246,1000121,0.0-17.0-0.5,61322,List1B,black,woman,,,,null,,,,
null,"<img src=""stim_listB/kiss5.gif""style=""height:400px;""></stim_listB>",,html-keyboard-response,247,1002125,0.0-17.0-1.5,61322,List1B,black,woman,,,,null,,,,
null,is kissing,,html-keyboard-response,248,1004127,0.0-17.0-2.5,61322,List1B,black,woman,,,,null,,,,
7815,,,survey-text,249,1011944,0.0-17.0-3.5,61322,List1B,black,woman,,,,,"{""Q0"":""Fred is kissing Luke.""}","<img src=""stim_listB/kiss5.gif""style=""height:400px;""></stim_listB>",is kissing,
null,"<div style=""font-size:60px;"">+</div>",,html-keyboard-response,250,1012447,0.0-17.0-0.6,61322,List1B,black,woman,,,,null,,,,
null,"<img src=""stim_listB/talk6.gif""style=""height:400px;""></stim_listB>",,html-keyboard-response,251,1014455,0.0-17.0-1.6,61322,List1B,black,woman,,,,null,,,,
null,are talking to each other,,html-keyboard-response,252,1016458,0.0-17.0-2.6,61322,List1B,black,woman,,,,null,,,,
12611,,,survey-text,253,1029072,0.0-17.0-3.6,61322,List1B,black,woman,,,,,"{""Q0"":""Mike and Luke are talking to each other.""}","<img src=""stim_listB/talk6.gif""style=""height:400px;""></stim_listB>",are talking to each other,
null,"<div style=""font-size:60px;"">+</div>",,html-keyboard-response,254,1029574,0.0-17.0-0.7,61322,List1B,black,woman,,,,null,,,,
null,"<img src=""stim_listB/kiss6.gif""style=""height:400px;""></stim_listB>",,html-keyboard-response,255,1031578,0.0-17.0-1.7,61322,List1B,black,woman,,,,null,,,,
null,are kissing each other,,html-keyboard-response,256,1033580,0.0-17.0-2.7,61322,List1B,black,woman,,,,null,,,,
11954,,,survey-text,257,1045536,0.0-17.0-3.7,61322,List1B,black,woman,,,,,"{""Q0"":""Dave and Mike are kissing each other.""}","<img src=""stim_listB/kiss6.gif""style=""height:400px;""></stim_listB>",are kissing each other,
null,"<div style=""font-size:60px;"">+</div>",,html-keyboard-response,258,1046038,0.0-17.0-0.8,61322,List1B,black,woman,,,,null,,,,
null,"<img src=""stim_listB/dance7.gif""style=""height:400px;""></stim_listB>",,html-keyboard-response,259,1048041,0.0-17.0-1.8,61322,List1B,black,woman,,,,null,,,,
null,is dancing with,,html-keyboard-response,260,1050043,0.0-17.0-2.8,61322,List1B,black,woman,,,,null,,,,
12659,,,survey-text,261,1062704,0.0-17.0-3.8,61322,List1B,black,woman,,,,,"{""Q0"":""Beth is dancing with Jane.""}","<img src=""stim_listB/dance7.gif""style=""height:400px;""></stim_listB>",is dancing with,
null,"<div style=""font-size:60px;"">+</div>",,html-keyboard-response,262,1063207,0.0-17.0-0.9,61322,List1B,black,woman,,,,null,,,,
null,"<img src=""stim_listB/touch7.gif""style=""height:400px;""></stim_listB>",,html-keyboard-response,263,1065211,0.0-17.0-1.9,61322,List1B,black,woman,,,,null,,,,
null,is touching,,html-keyboard-response,264,1067213,0.0-17.0-2.9,61322,List1B,black,woman,,,,null,,,,
8271,,,survey-text,265,1075487,0.0-17.0-3.9,61322,List1B,black,woman,,,,,"{""Q0"":""Kate is touching Jane.""}","<img src=""stim_listB/touch7.gif""style=""height:400px;""></stim_listB>",is touching,
null,"<div style=""font-size:60px;"">+</div>",,html-keyboard-response,266,1075990,0.0-17.0-0.10,61322,List1B,black,woman,,,,null,,,,
null,"<img src=""stim_listB/dance2.gif""style=""height:400px;""></stim_listB>",,html-keyboard-response,267,1077993,0.0-17.0-1.10,61322,List1B,black,woman,,,,null,,,,
null,are dancing with each other,,html-keyboard-response,268,1079997,0.0-17.0-2.10,61322,List1B,black,woman,,,,null,,,,
13633,,,survey-text,269,1093632,0.0-17.0-3.10,61322,List1B,black,woman,,,,,"{""Q0"":""Beth and Mike are dancing with each other.""}","<img src=""stim_listB/dance2.gif""style=""height:400px;""></stim_listB>",are dancing with each other,
null,"<div style=""font-size:60px;"">+</div>",,html-keyboard-response,270,1094135,0.0-17.0-0.11,61322,List1B,black,woman,,,,null,,,,
null,"<img src=""stim_listB/shout8.gif""style=""height:400px;""></stim_listB>",,html-keyboard-response,271,1096138,0.0-17.0-1.11,61322,List1B,black,woman,,,,null,,,,
null,are shouting at each other,,html-keyboard-response,272,1098141,0.0-17.0-2.11,61322,List1B,black,woman,,,,null,,,,
10521,,,survey-text,273,1108664,0.0-17.0-3.11,61322,List1B,black,woman,,,,,"{""Q0"":""Kate and Jane are shouting at each other.""}","<img src=""stim_listB/shout8.gif""style=""height:400px;""></stim_listB>",are shouting at each other,
null,"<div style=""font-size:60px;"">+</div>",,html-keyboard-response,274,1109166,0.0-17.0-0.12,61322,List1B,black,woman,,,,null,,,,
null,"<img src=""stim_listB/flirt1.gif""style=""height:400px;""></stim_listB>",,html-keyboard-response,275,1111171,0.0-17.0-1.12,61322,List1B,black,woman,,,,null,,,,
null,is flirting with,,html-keyboard-response,276,1113174,0.0-17.0-2.12,61322,List1B,black,woman,,,,null,,,,
11264,,,survey-text,277,1124440,0.0-17.0-3.12,61322,List1B,black,woman,,,,,"{""Q0"":""Kate is flirting with Fred.""}","<img src=""stim_listB/flirt1.gif""style=""height:400px;""></stim_listB>",is flirting with,
null,"<div style=""font-size:60px;"">+</div>",,html-keyboard-response,278,1124943,0.0-17.0-0.13,61322,List1B,black,woman,,,,null,,,,
null,"<img src=""stim_listB/play3.gif""style=""height:400px;""></stim_listB>",,html-keyboard-response,279,1126949,0.0-17.0-1.13,61322,List1B,black,woman,,,,null,,,,
null,is playing with,,html-keyboard-response,280,1128952,0.0-17.0-2.13,61322,List1B,black,woman,,,,null,,,,
10942,,,survey-text,281,1139896,0.0-17.0-3.13,61322,List1B,black,woman,,,,,"{""Q0"":""Dave is playing with Jane.""}","<img src=""stim_listB/play3.gif""style=""height:400px;""></stim_listB>",is playing with,
null,"<div style=""font-size:60px;"">+</div>",,html-keyboard-response,282,1140399,0.0-17.0-0.14,61322,List1B,black,woman,,,,null,,,,
null,"<img src=""stim_listB/kiss1.gif""style=""height:400px;""></stim_listB>",,html-keyboard-response,283,1142402,0.0-17.0-1.14,61322,List1B,black,woman,,,,null,,,,
null,is kissing,,html-keyboard-response,284,1144404,0.0-17.0-2.14,61322,List1B,black,woman,,,,null,,,,
13873,,,survey-text,285,1158280,0.0-17.0-3.14,61322,List1B,black,woman,,,,,"{""Q0"":""Fred is kissing Beth.""}","<img src=""stim_listB/kiss1.gif""style=""height:400px;""></stim_listB>",is kissing,
null,"<div style=""font-size:60px;"">+</div>",,html-keyboard-response,286,1158784,0.0-17.0-0.15,61322,List1B,black,woman,,,,null,,,,
null,"<img src=""stim_listB/fight8.gif""style=""height:400px;""></stim_listB>",,html-keyboard-response,287,1160786,0.0-17.0-1.15,61322,List1B,black,woman,,,,null,,,,
null,are fighting each other,,html-keyboard-response,288,1162789,0.0-17.0-2.15,61322,List1B,black,woman,,,,null,,,,
10257,,,survey-text,289,1173048,0.0-17.0-3.15,61322,List1B,black,woman,,,,,"{""Q0"":""Beth and Ruth are fighting.""}","<img src=""stim_listB/fight8.gif""style=""height:400px;""></stim_listB>",are fighting each other,
null,"<div style=""font-size:60px;"">+</div>",,html-keyboard-response,290,1173551,0.0-17.0-0.16,61322,List1B,black,woman,,,,null,,,,
null,"<img src=""stim_listB/kiss2.gif""style=""height:400px;""></stim_listB>",,html-keyboard-response,291,1175554,0.0-17.0-1.16,61322,List1B,black,woman,,,,null,,,,
null,are kissing each other,,html-keyboard-response,292,1177560,0.0-17.0-2.16,61322,List1B,black,woman,,,,null,,,,
10814,,,survey-text,293,1188376,0.0-17.0-3.16,61322,List1B,black,woman,,,,,"{""Q0"":""Mike and Kate are kissing each other.""}","<img src=""stim_listB/kiss2.gif""style=""height:400px;""></stim_listB>",are kissing each other,
null,"<div style=""font-size:60px;"">+</div>",,html-keyboard-response,294,1188878,0.0-17.0-0.17,61322,List1B,black,woman,,,,null,,,,
null,"<img src=""stim_listB/marry4.gif""style=""height:400px;""></stim_listB>",,html-keyboard-response,295,1190882,0.0-17.0-1.17,61322,List1B,black,woman,,,,null,,,,
null,are marrying each other,,html-keyboard-response,296,1192884,0.0-17.0-2.17,61322,List1B,black,woman,,,,null,,,,
16282,,,survey-text,297,1209168,0.0-17.0-3.17,61322,List1B,black,woman,,,,,"{""Q0"":""Luke and Jane are marrying each other.""}","<img src=""stim_listB/marry4.gif""style=""height:400px;""></stim_listB>",are marrying each other,
null,"<div style=""font-size:60px;"">+</div>",,html-keyboard-response,298,1209672,0.0-17.0-0.18,61322,List1B,black,woman,,,,null,,,,
null,"<img src=""stim_listB/dance6.gif""style=""height:400px;""></stim_listB>",,html-keyboard-response,299,1211677,0.0-17.0-1.18,61322,List1B,black,woman,,,,null,,,,
null,are dancing with each other,,html-keyboard-response,300,1213679,0.0-17.0-2.18,61322,List1B,black,woman,,,,null,,,,
11102,,,survey-text,301,1224784,0.0-17.0-3.18,61322,List1B,black,woman,,,,,"{""Q0"":""Luke and Mike are dancing with each other.""}","<img src=""stim_listB/dance6.gif""style=""height:400px;""></stim_listB>",are dancing with each other,
null,"<div style=""font-size:60px;"">+</div>",,html-keyboard-response,302,1225290,0.0-17.0-0.19,61322,List1B,black,woman,,,,null,,,,
null,"<img src=""stim_listB/marry3.gif""style=""height:400px;""></stim_listB>",,html-keyboard-response,303,1227293,0.0-17.0-1.19,61322,List1B,black,woman,,,,null,,,,
null,is marrying,,html-keyboard-response,304,1229297,0.0-17.0-2.19,61322,List1B,black,woman,,,,null,,,,
9469,,,survey-text,305,1238768,0.0-17.0-3.19,61322,List1B,black,woman,,,,,"{""Q0"":""Dave is marrying Ruth.""}","<img src=""stim_listB/marry3.gif""style=""height:400px;""></stim_listB>",is marrying,
5062,"<img src='img/portrait_matrix_list1.jpg' style='width:900px;height:500px;''></img><p>If you have memorised all the portraits and names and are ready to start, press Continue.</p><p><strong>Please note: Your memory of these faces will be tested 4 times during this experiment.</strong></p>",0,html-button-response,306,1243832,0.0-18.0-0.0,61322,List1B,black,woman,,,,,,,,
1229,"<img src=""portrait/BM1.jpg""style=""height:400px;""></img>",4,html-button-response,307,1246065,0.0-18.0-1.0,61322,List1B,black,woman,,TRUE,4,,,,,
null,CORRECT,,html-keyboard-response,308,1247572,0.0-18.0-2.0-0.0,61322,List1B,black,woman,,,,null,,,,
5018,"<img src=""portrait/BW1.jpg""style=""height:400px;""></img>",0,html-button-response,309,1252593,0.0-18.0-4.0,61322,List1B,black,woman,,TRUE,0,,,,,
null,CORRECT,,html-keyboard-response,310,1254098,0.0-18.0-5.0-0.0,61322,List1B,black,woman,,,,null,,,,
1868,"<img src=""portrait/WM1.jpg""style=""height:400px;""></img>",6,html-button-response,311,1255968,0.0-18.0-7.0,61322,List1B,black,woman,,TRUE,6,,,,,
null,CORRECT,,html-keyboard-response,312,1257472,0.0-18.0-8.0-0.0,61322,List1B,black,woman,,,,null,,,,
1318,"<img src=""portrait/BW2.jpg""style=""height:400px;""></img>",2,html-button-response,313,1258793,0.0-18.0-10.0,61322,List1B,black,woman,,TRUE,2,,,,,
null,CORRECT,,html-keyboard-response,314,1260297,0.0-18.0-11.0-0.0,61322,List1B,black,woman,,,,null,,,,
1333,"<img src=""portrait/WW2.jpg""style=""height:400px;""></img>",3,html-button-response,315,1261633,0.0-18.0-13.0,61322,List1B,black,woman,,TRUE,3,,,,,
null,CORRECT,,html-keyboard-response,316,1263140,0.0-18.0-14.0-0.0,61322,List1B,black,woman,,,,null,,,,
1881,"<img src=""portrait/WW1.jpg""style=""height:400px;""></img>",1,html-button-response,317,1265025,0.0-18.0-16.0,61322,List1B,black,woman,,TRUE,1,,,,,
null,CORRECT,,html-keyboard-response,318,1266530,0.0-18.0-17.0-0.0,61322,List1B,black,woman,,,,null,,,,
1764,"<img src=""portrait/BM2.jpg""style=""height:400px;""></img>",5,html-button-response,319,1268297,0.0-18.0-19.0,61322,List1B,black,woman,,TRUE,5,,,,,
null,CORRECT,,html-keyboard-response,320,1269801,0.0-18.0-20.0-0.0,61322,List1B,black,woman,,,,null,,,,
1228,"<img src=""portrait/WM2.jpg""style=""height:400px;""></img>",7,html-button-response,321,1271033,0.0-18.0-22.0,61322,List1B,black,woman,,TRUE,7,,,,,
null,CORRECT,,html-keyboard-response,322,1272539,0.0-18.0-23.0-0.0,61322,List1B,black,woman,,,,null,,,,
1090,<p>You got 8 out of 8 right first time. Press Continue.</p>,0,html-button-response,323,1273632,0.0-18.0-25.0,61322,List1B,black,woman,,,,,,,,
null,"<div style=""font-size:60px;"">+</div>",,html-keyboard-response,324,1275140,0.0-19.0-0.0,61322,List1B,black,woman,,,,null,,,,
null,"<img src=""stim_listB/kiss3.gif""style=""height:400px;""></stim_listB>",,html-keyboard-response,325,1277143,0.0-19.0-1.0,61322,List1B,black,woman,,,,null,,,,
null,is kissing,,html-keyboard-response,326,1279146,0.0-19.0-2.0,61322,List1B,black,woman,,,,null,,,,
7197,,,survey-text,327,1286345,0.0-19.0-3.0,61322,List1B,black,woman,,,,,"{""Q0"":""Luke is kissing Ruth.""}","<img src=""stim_listB/kiss3.gif""style=""height:400px;""></stim_listB>",is kissing,
null,"<div style=""font-size:60px;"">+</div>",,html-keyboard-response,328,1286848,0.0-19.0-0.1,61322,List1B,black,woman,,,,null,,,,
null,"<img src=""stim_listB/dance8.gif""style=""height:400px;""></stim_listB>",,html-keyboard-response,329,1288852,0.0-19.0-1.1,61322,List1B,black,woman,,,,null,,,,
null,are dancing with each other,,html-keyboard-response,330,1290855,0.0-19.0-2.1,61322,List1B,black,woman,,,,null,,,,
14679,,,survey-text,331,1305536,0.0-19.0-3.1,61322,List1B,black,woman,,,,,"{""Q0"":""Ruth and Kate are dancing with each other.""}","<img src=""stim_listB/dance8.gif""style=""height:400px;""></stim_listB>",are dancing with each other,
null,"<div style=""font-size:60px;"">+</div>",,html-keyboard-response,332,1306039,0.0-19.0-0.2,61322,List1B,black,woman,,,,null,,,,
null,"<img src=""stim_listB/flirt5.gif""style=""height:400px;""></stim_listB>",,html-keyboard-response,333,1308042,0.0-19.0-1.2,61322,List1B,black,woman,,,,null,,,,
null,is flirting with,,html-keyboard-response,334,1310044,0.0-19.0-2.2,61322,List1B,black,woman,,,,null,,,,
8146,,,survey-text,335,1318192,0.0-19.0-3.2,61322,List1B,black,woman,,,,,"{""Q0"":""Fred is flirting with Dave.""}","<img src=""stim_listB/flirt5.gif""style=""height:400px;""></stim_listB>",is flirting with,
null,"<div style=""font-size:60px;"">+</div>",,html-keyboard-response,336,1318695,0.0-19.0-0.3,61322,List1B,black,woman,,,,null,,,,
null,"<img src=""stim_listB/marry8.gif""style=""height:400px;""></stim_listB>",,html-keyboard-response,337,1320698,0.0-19.0-1.3,61322,List1B,black,woman,,,,null,,,,
null,are marrying each other,,html-keyboard-response,338,1322700,0.0-19.0-2.3,61322,List1B,black,woman,,,,null,,,,
11338,,,survey-text,339,1334040,0.0-19.0-3.3,61322,List1B,black,woman,,,,,"{""Q0"":""Beth and Jane are  marrying each other.""}","<img src=""stim_listB/marry8.gif""style=""height:400px;""></stim_listB>",are marrying each other,
null,"<div style=""font-size:60px;"">+</div>",,html-keyboard-response,340,1334543,0.0-19.0-0.4,61322,List1B,black,woman,,,,null,,,,
null,"<img src=""stim_listB/argue3.gif""style=""height:400px;""></stim_listB>",,html-keyboard-response,341,1336548,0.0-19.0-1.4,61322,List1B,black,woman,,,,null,,,,
null,is arguing with,,html-keyboard-response,342,1338551,0.0-19.0-2.4,61322,List1B,black,woman,,,,null,,,,
13207,,,survey-text,343,1351760,0.0-19.0-3.4,61322,List1B,black,woman,,,,,"{""Q0"":""Ruth is arguing with Dave.""}","<img src=""stim_listB/argue3.gif""style=""height:400px;""></stim_listB>",is arguing with,
null,"<div style=""font-size:60px;"">+</div>",,html-keyboard-response,344,1352262,0.0-19.0-0.5,61322,List1B,black,woman,,,,null,,,,
null,"<img src=""stim_listB/dance4.gif""style=""height:400px;""></stim_listB>",,html-keyboard-response,345,1354268,0.0-19.0-1.5,61322,List1B,black,woman,,,,null,,,,
null,are dancing with each other,,html-keyboard-response,346,1356270,0.0-19.0-2.5,61322,List1B,black,woman,,,,null,,,,
12640,,,survey-text,347,1368912,0.0-19.0-3.5,61322,List1B,black,woman,,,,,"{""Q0"":""Ruth and Dave are dancing with each other.""}","<img src=""stim_listB/dance4.gif""style=""height:400px;""></stim_listB>",are dancing with each other,
null,"<div style=""font-size:60px;"">+</div>",,html-keyboard-response,348,1369415,0.0-19.0-0.6,61322,List1B,black,woman,,,,null,,,,
null,"<img src=""stim_listB/fight1.gif""style=""height:400px;""></stim_listB>",,html-keyboard-response,349,1371418,0.0-19.0-1.6,61322,List1B,black,woman,,,,null,,,,
null,is fighting,,html-keyboard-response,350,1373420,0.0-19.0-2.6,61322,List1B,black,woman,,,,null,,,,
13914,,,survey-text,351,1387335,0.0-19.0-3.6,61322,List1B,black,woman,,,,,"{""Q0"":""Kate is fighting Mike.""}","<img src=""stim_listB/fight1.gif""style=""height:400px;""></stim_listB>",is fighting,
null,"<div style=""font-size:60px;"">+</div>",,html-keyboard-response,352,1387838,0.0-19.0-0.7,61322,List1B,black,woman,,,,null,,,,
null,"<img src=""stim_listB/talk4.gif""style=""height:400px;""></stim_listB>",,html-keyboard-response,353,1389840,0.0-19.0-1.7,61322,List1B,black,woman,,,,null,,,,
null,are talking to each other,,html-keyboard-response,354,1391842,0.0-19.0-2.7,61322,List1B,black,woman,,,,null,,,,
10843,,,survey-text,355,1402687,0.0-19.0-3.7,61322,List1B,black,woman,,,,,"{""Q0"":""Ruth and Dave are talking to each other.""}","<img src=""stim_listB/talk4.gif""style=""height:400px;""></stim_listB>",are talking to each other,
null,"<div style=""font-size:60px;"">+</div>",,html-keyboard-response,356,1403188,0.0-19.0-0.8,61322,List1B,black,woman,,,,null,,,,
null,"<img src=""stim_listB/talk5.gif""style=""height:400px;""></stim_listB>",,html-keyboard-response,357,1405192,0.0-19.0-1.8,61322,List1B,black,woman,,,,null,,,,
null,is talking to,,html-keyboard-response,358,1407196,0.0-19.0-2.8,61322,List1B,black,woman,,,,null,,,,
10106,,,survey-text,359,1417303,0.0-19.0-3.8,61322,List1B,black,woman,,,,,"{""Q0"":""Fred is talking to Dave.""}","<img src=""stim_listB/talk5.gif""style=""height:400px;""></stim_listB>",is talking to,
null,"<div style=""font-size:60px;"">+</div>",,html-keyboard-response,360,1417806,0.0-19.0-0.9,61322,List1B,black,woman,,,,null,,,,
null,"<img src=""stim_listB/play4.gif""style=""height:400px;""></stim_listB>",,html-keyboard-response,361,1419810,0.0-19.0-1.9,61322,List1B,black,woman,,,,null,,,,
null,are playing with each other,,html-keyboard-response,362,1421813,0.0-19.0-2.9,61322,List1B,black,woman,,,,null,,,,
11409,,,survey-text,363,1433224,0.0-19.0-3.9,61322,List1B,black,woman,,,,,"{""Q0"":""Luke and Ruth are playing with each other.""}","<img src=""stim_listB/play4.gif""style=""height:400px;""></stim_listB>",are playing with each other,
null,"<div style=""font-size:60px;"">+</div>",,html-keyboard-response,364,1433727,0.0-19.0-0.10,61322,List1B,black,woman,,,,null,,,,
null,"<img src=""stim_listB/talk1.gif""style=""height:400px;""></stim_listB>",,html-keyboard-response,365,1435730,0.0-19.0-1.10,61322,List1B,black,woman,,,,null,,,,
null,is talking to,,html-keyboard-response,366,1437732,0.0-19.0-2.10,61322,List1B,black,woman,,,,null,,,,
7979,,,survey-text,367,1445712,0.0-19.0-3.10,61322,List1B,black,woman,,,,,"{""Q0"":""Fred is talking to Kate.""}","<img src=""stim_listB/talk1.gif""style=""height:400px;""></stim_listB>",is talking to,
null,"<div style=""font-size:60px;"">+</div>",,html-keyboard-response,368,1446215,0.0-19.0-0.11,61322,List1B,black,woman,,,,null,,,,
null,"<img src=""stim_listB/fight5.gif""style=""height:400px;""></stim_listB>",,html-keyboard-response,369,1448219,0.0-19.0-1.11,61322,List1B,black,woman,,,,null,,,,
null,is fighting,,html-keyboard-response,370,1450221,0.0-19.0-2.11,61322,List1B,black,woman,,,,null,,,,
8776,,,survey-text,371,1458999,0.0-19.0-3.11,61322,List1B,black,woman,,,,,"{""Q0"":""Dave is fighting Mike.""}","<img src=""stim_listB/fight5.gif""style=""height:400px;""></stim_listB>",is fighting,
null,"<div style=""font-size:60px;"">+</div>",,html-keyboard-response,372,1459502,0.0-19.0-0.12,61322,List1B,black,woman,,,,null,,,,
null,"<img src=""stim_listB/kiss7.gif""style=""height:400px;""></stim_listB>",,html-keyboard-response,373,1461505,0.0-19.0-1.12,61322,List1B,black,woman,,,,null,,,,
null,is kissing,,html-keyboard-response,374,1463508,0.0-19.0-2.12,61322,List1B,black,woman,,,,null,,,,
7888,,,survey-text,375,1471399,0.0-19.0-3.12,61322,List1B,black,woman,,,,,"{""Q0"":""Ruth is kissing Beth.""}","<img src=""stim_listB/kiss7.gif""style=""height:400px;""></stim_listB>",is kissing,
null,"<div style=""font-size:60px;"">+</div>",,html-keyboard-response,376,1471901,0.0-19.0-0.13,61322,List1B,black,woman,,,,null,,,,
null,"<img src=""stim_listB/play5.gif""style=""height:400px;""></stim_listB>",,html-keyboard-response,377,1473905,0.0-19.0-1.13,61322,List1B,black,woman,,,,null,,,,
null,is playing with,,html-keyboard-response,378,1475908,0.0-19.0-2.13,61322,List1B,black,woman,,,,null,,,,
8921,,,survey-text,379,1484831,0.0-19.0-3.13,61322,List1B,black,woman,,,,,"{""Q0"":""Dave is playing with Mike.""}","<img src=""stim_listB/play5.gif""style=""height:400px;""></stim_listB>",is playing with,
null,"<div style=""font-size:60px;"">+</div>",,html-keyboard-response,380,1485334,0.0-19.0-0.14,61322,List1B,black,woman,,,,null,,,,
null,"<img src=""stim_listB/flirt2.gif""style=""height:400px;""></stim_listB>",,html-keyboard-response,381,1487338,0.0-19.0-1.14,61322,List1B,black,woman,,,,null,,,,
null,are flirting with each other,,html-keyboard-response,382,1489345,0.0-19.0-2.14,61322,List1B,black,woman,,,,null,,,,
16610,,,survey-text,383,1505958,0.0-19.0-3.14,61322,List1B,black,woman,,,,,"{""Q0"":""Mike and Beth are flirting with each other.""}","<img src=""stim_listB/flirt2.gif""style=""height:400px;""></stim_listB>",are flirting with each other,
null,"<div style=""font-size:60px;"">+</div>",,html-keyboard-response,384,1506461,0.0-19.0-0.15,61322,List1B,black,woman,,,,null,,,,
null,"<img src=""stim_listB/shout2.gif""style=""height:400px;""></stim_listB>",,html-keyboard-response,385,1508465,0.0-19.0-1.15,61322,List1B,black,woman,,,,null,,,,
null,are shouting at each other,,html-keyboard-response,386,1510468,0.0-19.0-2.15,61322,List1B,black,woman,,,,null,,,,
12248,,,survey-text,387,1522718,0.0-19.0-3.15,61322,List1B,black,woman,,,,,"{""Q0"":""Kate and Mike are shouting at each other.""}","<img src=""stim_listB/shout2.gif""style=""height:400px;""></stim_listB>",are shouting at each other,
null,"<div style=""font-size:60px;"">+</div>",,html-keyboard-response,388,1523222,0.0-19.0-0.16,61322,List1B,black,woman,,,,null,,,,
null,"<img src=""stim_listB/marry2.gif""style=""height:400px;""></stim_listB>",,html-keyboard-response,389,1525226,0.0-19.0-1.16,61322,List1B,black,woman,,,,null,,,,
null,are marrying each other,,html-keyboard-response,390,1527232,0.0-19.0-2.16,61322,List1B,black,woman,,,,null,,,,
13877,,,survey-text,391,1541111,0.0-19.0-3.16,61322,List1B,black,woman,,,,,"{""Q0"":""Kate and Fred are marrying each other.""}","<img src=""stim_listB/marry2.gif""style=""height:400px;""></stim_listB>",are marrying each other,
null,"<div style=""font-size:60px;"">+</div>",,html-keyboard-response,392,1541614,0.0-19.0-0.17,61322,List1B,black,woman,,,,null,,,,
null,"<img src=""stim_listB/play2.gif""style=""height:400px;""></stim_listB>",,html-keyboard-response,393,1543622,0.0-19.0-1.17,61322,List1B,black,woman,,,,null,,,,
null,are playing with each other,,html-keyboard-response,394,1545626,0.0-19.0-2.17,61322,List1B,black,woman,,,,null,,,,
9762,,,survey-text,395,1555391,0.0-19.0-3.17,61322,List1B,black,woman,,,,,"{""Q0"":""Fred and Beth are playing with each other.""}","<img src=""stim_listB/play2.gif""style=""height:400px;""></stim_listB>",are playing with each other,
null,"<div style=""font-size:60px;"">+</div>",,html-keyboard-response,396,1555893,0.0-19.0-0.18,61322,List1B,black,woman,,,,null,,,,
null,"<img src=""stim_listB/argue4.gif""style=""height:400px;""></stim_listB>",,html-keyboard-response,397,1557896,0.0-19.0-1.18,61322,List1B,black,woman,,,,null,,,,
null,are arguing with each other,,html-keyboard-response,398,1559898,0.0-19.0-2.18,61322,List1B,black,woman,,,,null,,,,
10411,,,survey-text,399,1570311,0.0-19.0-3.18,61322,List1B,black,woman,,,,,"{""Q0"":""Luke and Jane are arguing with each other.""}","<img src=""stim_listB/argue4.gif""style=""height:400px;""></stim_listB>",are arguing with each other,
null,"<div style=""font-size:60px;"">+</div>",,html-keyboard-response,400,1570813,0.0-19.0-0.19,61322,List1B,black,woman,,,,null,,,,
null,"<img src=""stim_listB/argue5.gif""style=""height:400px;""></stim_listB>",,html-keyboard-response,401,1572816,0.0-19.0-1.19,61322,List1B,black,woman,,,,null,,,,
null,is arguing with,,html-keyboard-response,402,1574820,0.0-19.0-2.19,61322,List1B,black,woman,,,,null,,,,
8832,,,survey-text,403,1583654,0.0-19.0-3.19,61322,List1B,black,woman,,,,,"{""Q0"":""Mike is arguing with Luke.""}","<img src=""stim_listB/argue5.gif""style=""height:400px;""></stim_listB>",is arguing with,
2103,<p>Thank you for completing that task.</p><p>The final part of this session is a short questionnaire.</p><p>Press Continue.</p>,0,html-button-response,404,1585759,0.0-20.0,61322,List1B,black,woman,,,,,,,,
39708,,,survey-text,405,1626471,0.0-21.0,61322,List1B,black,woman,,,,,"{""Q0"":""26"",""Q1"":""English"",""Q2"":""English"",""Q3"":""USA"",""Q4"":""African American"",""Q5"":""Female""}",,,demographics
5228,,,survey-likert,406,1631703,0.0-22.0,61322,List1B,black,woman,,,,,"{""Q0"":4}",,,likert_ESS
36140,,,survey-likert,407,1667847,0.0-23.0,61322,List1B,black,woman,,,,,"{""Q0"":1}",,,likert_NSSAL_Q1
8238,,,survey-likert,408,1676087,0.0-24.0,61322,List1B,black,woman,,,,,"{""Q0"":1}",,,likert_NSSAL_Q2
3941,,,survey-likert,409,1680032,0.0-25.0,61322,List1B,black,woman,,,,,"{""Q0"":4}",,,likert_CGRS_Q1
1156,,,survey-likert,410,1681191,0.0-26.0,61322,List1B,black,woman,,,,,"{""Q0"":""""}",,,likert_CGRS_Q2
4877,,,survey-likert,411,1686071,0.0-27.0,61322,List1B,black,woman,,,,,"{""Q0"":3}",,,likert_CGRS_Q3
16829,,,survey-text,412,1702903,0.0-28.0,61322,List1B,black,woman,,,,,"{""Q0"":""ccc""}",,,worker_id
3379,,,external-html,413,1706496,0.0-29.0,61322,List1B,black,woman,debrief.html,,,,,,,
