rt,stimulus,button_pressed,trial_type,trial_index,time_elapsed,internal_node_id,subject,list,ppt_race,ppt_gender,url,first_guess,correct,key_press,responses,image_type,phrase_type,test_part
18111,Welcome to the experiment. Press Continue to begin.,0,html-button-response,0,18112,0.0-0.0,61626,List2B,black,man,,,,,,,,
7344,,,external-html,1,27072,0.0-1.0,61626,List2B,black,man,consent.html,,,,,,,
5415,"<p>On the next page, you will see portraits of 8 people and their names.</p><p>Your first task is to take a few minutes to memorise the names of these people.</p><p>You will have to recall their names during the rest of the experiment, so it is</p><p>essential that you try to memorise these people and their names as best as you can.</p><br><p><strong>You will then be tested on your memory of these names and portraits.</strong></p><br><p>The experiment will start after you have completed this memory test.</p><br><p>Ready?</p>",0,html-button-response,2,32487,0.0-2.0,61626,List2B,black,man,,,,,,,,
34492,"<img src='img/portrait_matrix_list2.jpg' style='width:900px;height:500px;''></img><p>If you have memorised all the portraits and names and are ready to start, press Continue.</p><p><strong>Please note: Your memory of these faces will be tested 4 times during this experiment.</strong></p>",0,html-button-response,3,67983,0.0-3.0-0.0,61626,List2B,black,man,,,,,,,,
2741,"<img src=""portrait/BM2.jpg""style=""height:400px;""></img>",5,html-button-response,4,71727,0.0-3.0-1.0,61626,List2B,black,man,,TRUE,5,,,,,
null,CORRECT,,html-keyboard-response,5,73236,0.0-3.0-2.0-0.0,61626,List2B,black,man,,,,null,,,,
1825,"<img src=""portrait/WW1.jpg""style=""height:400px;""></img>",3,html-button-response,6,75063,0.0-3.0-4.0,61626,List2B,black,man,,TRUE,1,,,,,
2910,"<img src=""portrait/WW1.jpg""style=""height:400px;""></img>",1,html-button-response,7,78975,0.0-3.0-6.0-0.0,61626,List2B,black,man,,FALSE,1,,,,,
null,CORRECT,,html-keyboard-response,8,80479,0.0-3.0-6.0-1.0-0.0,61626,List2B,black,man,,,,null,,,,
1422,"<img src=""portrait/WW2.jpg""style=""height:400px;""></img>",3,html-button-response,9,81903,0.0-3.0-7.0,61626,List2B,black,man,,TRUE,3,,,,,
null,CORRECT,,html-keyboard-response,10,83406,0.0-3.0-8.0-0.0,61626,List2B,black,man,,,,null,,,,
4887,"<img src=""portrait/BM1.jpg""style=""height:400px;""></img>",4,html-button-response,11,88295,0.0-3.0-10.0,61626,List2B,black,man,,TRUE,4,,,,,
null,CORRECT,,html-keyboard-response,12,89800,0.0-3.0-11.0-0.0,61626,List2B,black,man,,,,null,,,,
1973,"<img src=""portrait/WM2.jpg""style=""height:400px;""></img>",6,html-button-response,13,91775,0.0-3.0-13.0,61626,List2B,black,man,,TRUE,7,,,,,
1341,"<img src=""portrait/WM2.jpg""style=""height:400px;""></img>",7,html-button-response,14,94119,0.0-3.0-15.0-0.0,61626,List2B,black,man,,FALSE,7,,,,,
null,CORRECT,,html-keyboard-response,15,95621,0.0-3.0-15.0-1.0-0.0,61626,List2B,black,man,,,,null,,,,
1807,"<img src=""portrait/BW2.jpg""style=""height:400px;""></img>",0,html-button-response,16,97431,0.0-3.0-16.0,61626,List2B,black,man,,TRUE,2,,,,,
1990,"<img src=""portrait/BW2.jpg""style=""height:400px;""></img>",2,html-button-response,17,100423,0.0-3.0-18.0-0.0,61626,List2B,black,man,,FALSE,2,,,,,
null,CORRECT,,html-keyboard-response,18,101925,0.0-3.0-18.0-1.0-0.0,61626,List2B,black,man,,,,null,,,,
1313,"<img src=""portrait/BW1.jpg""style=""height:400px;""></img>",0,html-button-response,19,103239,0.0-3.0-19.0,61626,List2B,black,man,,TRUE,0,,,,,
null,CORRECT,,html-keyboard-response,20,104741,0.0-3.0-20.0-0.0,61626,List2B,black,man,,,,null,,,,
4423,"<img src=""portrait/WM1.jpg""style=""height:400px;""></img>",5,html-button-response,21,109167,0.0-3.0-22.0,61626,List2B,black,man,,TRUE,6,,,,,
1325,"<img src=""portrait/WM1.jpg""style=""height:400px;""></img>",6,html-button-response,22,111495,0.0-3.0-24.0-0.0,61626,List2B,black,man,,FALSE,6,,,,,
null,CORRECT,,html-keyboard-response,23,112998,0.0-3.0-24.0-1.0-0.0,61626,List2B,black,man,,,,null,,,,
999,<p>You got 4 out of 8 right first time. Press Continue.</p>,0,html-button-response,24,113999,0.0-3.0-25.0,61626,List2B,black,man,,,,,,,,
2270,"As you did not score 100%, the memory game will repeat. Press Continue.",0,html-button-response,25,117271,0.0-3.0-26.0-0.0,61626,List2B,black,man,,,,,,,,
15548,"<img src='img/portrait_matrix_list2.jpg' style='width:900px;height:500px;''></img><p>If you have memorised all the portraits and names and are ready to start, press Continue.</p><p><strong>Please note: Your memory of these faces will be tested 4 times during this experiment.</strong></p>",0,html-button-response,26,133822,0.0-3.1-0.1,61626,List2B,black,man,,,,,,,,
4822,"<img src=""portrait/BM2.jpg""style=""height:400px;""></img>",4,html-button-response,27,139646,0.0-3.1-1.1,61626,List2B,black,man,,TRUE,5,,,,,
1197,"<img src=""portrait/BM2.jpg""style=""height:400px;""></img>",5,html-button-response,28,141846,0.0-3.1-3.1-0.1,61626,List2B,black,man,,FALSE,5,,,,,
null,CORRECT,,html-keyboard-response,29,143348,0.0-3.1-3.1-1.1-0.1,61626,List2B,black,man,,,,null,,,,
2144,"<img src=""portrait/WW1.jpg""style=""height:400px;""></img>",1,html-button-response,30,145494,0.0-3.1-4.1,61626,List2B,black,man,,TRUE,1,,,,,
null,CORRECT,,html-keyboard-response,31,146996,0.0-3.1-5.1-0.1,61626,List2B,black,man,,,,null,,,,
1352,"<img src=""portrait/WW2.jpg""style=""height:400px;""></img>",3,html-button-response,32,148350,0.0-3.1-7.1,61626,List2B,black,man,,TRUE,3,,,,,
null,CORRECT,,html-keyboard-response,33,149853,0.0-3.1-8.1-0.1,61626,List2B,black,man,,,,null,,,,
6439,"<img src=""portrait/BM1.jpg""style=""height:400px;""></img>",4,html-button-response,34,156294,0.0-3.1-10.1,61626,List2B,black,man,,TRUE,4,,,,,
null,CORRECT,,html-keyboard-response,35,157797,0.0-3.1-11.1-0.1,61626,List2B,black,man,,,,null,,,,
2696,"<img src=""portrait/WM2.jpg""style=""height:400px;""></img>",7,html-button-response,36,160494,0.0-3.1-13.1,61626,List2B,black,man,,TRUE,7,,,,,
null,CORRECT,,html-keyboard-response,37,161997,0.0-3.1-14.1-0.1,61626,List2B,black,man,,,,null,,,,
3079,"<img src=""portrait/BW2.jpg""style=""height:400px;""></img>",2,html-button-response,38,165078,0.0-3.1-16.1,61626,List2B,black,man,,TRUE,2,,,,,
null,CORRECT,,html-keyboard-response,39,166582,0.0-3.1-17.1-0.1,61626,List2B,black,man,,,,null,,,,
2206,"<img src=""portrait/BW1.jpg""style=""height:400px;""></img>",0,html-button-response,40,168790,0.0-3.1-19.1,61626,List2B,black,man,,TRUE,0,,,,,
null,CORRECT,,html-keyboard-response,41,170293,0.0-3.1-20.1-0.1,61626,List2B,black,man,,,,null,,,,
1369,"<img src=""portrait/WM1.jpg""style=""height:400px;""></img>",5,html-button-response,42,171662,0.0-3.1-22.1,61626,List2B,black,man,,TRUE,6,,,,,
599,"<img src=""portrait/WM1.jpg""style=""height:400px;""></img>",6,html-button-response,43,173262,0.0-3.1-24.1-0.1,61626,List2B,black,man,,FALSE,6,,,,,
null,CORRECT,,html-keyboard-response,44,174765,0.0-3.1-24.1-1.1-0.1,61626,List2B,black,man,,,,null,,,,
880,<p>You got 6 out of 8 right first time. Press Continue.</p>,0,html-button-response,45,175646,0.0-3.1-25.1,61626,List2B,black,man,,,,,,,,
894,"As you did not score 100%, the memory game will repeat. Press Continue.",0,html-button-response,46,177542,0.0-3.1-26.1-0.1,61626,List2B,black,man,,,,,,,,
1286,"<img src='img/portrait_matrix_list2.jpg' style='width:900px;height:500px;''></img><p>If you have memorised all the portraits and names and are ready to start, press Continue.</p><p><strong>Please note: Your memory of these faces will be tested 4 times during this experiment.</strong></p>",0,html-button-response,47,179830,0.0-3.2-0.2,61626,List2B,black,man,,,,,,,,
4495,"<img src=""portrait/BM2.jpg""style=""height:400px;""></img>",5,html-button-response,48,185326,0.0-3.2-1.2,61626,List2B,black,man,,TRUE,5,,,,,
null,CORRECT,,html-keyboard-response,49,186829,0.0-3.2-2.2-0.2,61626,List2B,black,man,,,,null,,,,
2448,"<img src=""portrait/WW1.jpg""style=""height:400px;""></img>",1,html-button-response,50,189278,0.0-3.2-4.2,61626,List2B,black,man,,TRUE,1,,,,,
null,CORRECT,,html-keyboard-response,51,190779,0.0-3.2-5.2-0.2,61626,List2B,black,man,,,,null,,,,
1241,"<img src=""portrait/WW2.jpg""style=""height:400px;""></img>",3,html-button-response,52,192022,0.0-3.2-7.2,61626,List2B,black,man,,TRUE,3,,,,,
null,CORRECT,,html-keyboard-response,53,193525,0.0-3.2-8.2-0.2,61626,List2B,black,man,,,,null,,,,
1840,"<img src=""portrait/BM1.jpg""style=""height:400px;""></img>",4,html-button-response,54,195366,0.0-3.2-10.2,61626,List2B,black,man,,TRUE,4,,,,,
null,CORRECT,,html-keyboard-response,55,196868,0.0-3.2-11.2-0.2,61626,List2B,black,man,,,,null,,,,
4768,"<img src=""portrait/WM2.jpg""style=""height:400px;""></img>",7,html-button-response,56,201638,0.0-3.2-13.2,61626,List2B,black,man,,TRUE,7,,,,,
null,CORRECT,,html-keyboard-response,57,203141,0.0-3.2-14.2-0.2,61626,List2B,black,man,,,,null,,,,
1935,"<img src=""portrait/BW2.jpg""style=""height:400px;""></img>",2,html-button-response,58,205078,0.0-3.2-16.2,61626,List2B,black,man,,TRUE,2,,,,,
null,CORRECT,,html-keyboard-response,59,206581,0.0-3.2-17.2-0.2,61626,List2B,black,man,,,,null,,,,
591,"<img src=""portrait/BW1.jpg""style=""height:400px;""></img>",0,html-button-response,60,207174,0.0-3.2-19.2,61626,List2B,black,man,,TRUE,0,,,,,
null,CORRECT,,html-keyboard-response,61,208676,0.0-3.2-20.2-0.2,61626,List2B,black,man,,,,null,,,,
3632,"<img src=""portrait/WM1.jpg""style=""height:400px;""></img>",6,html-button-response,62,212310,0.0-3.2-22.2,61626,List2B,black,man,,TRUE,6,,,,,
null,CORRECT,,html-keyboard-response,63,213811,0.0-3.2-23.2-0.2,61626,List2B,black,man,,,,null,,,,
1088,<p>You got 8 out of 8 right first time. Press Continue.</p>,0,html-button-response,64,214902,0.0-3.2-25.2,61626,List2B,black,man,,,,,,,,
13175,"<p>In this experiment, you will view photographs of the people from the memory game interacting.</p><p>By using the <strong>exact</strong> phrase given <i>after</i> the photograph appears and recalling the correct names of the people in the photographs, form a sentence describing the interaction. You do not need to capitalise names.</p><p>Type your answer in the space provided. Please complete every sentence before moving onto the next trial.</p><p>You will only have a few seconds to memorise each given photograph and phrase before you can respond, so try your best to focus.</p><p>An example is given below. Press 'Continue' when you are ready.</p><img src='img/speaking_example.jpg' style='width:800px;height:460px;''></img>",0,html-button-response,65,229078,0.0-4.0,61626,List2B,black,man,,,,,,,,
1198,"<p>Before the experiment starts, you will watch two example trials. Press 'Continue'.</p>",0,html-button-response,66,231278,0.0-5.0,61626,List2B,black,man,,,,,,,,
null,<img src='img/meet_eg.gif' style='height:400px;''></img>,,html-keyboard-response,67,234280,0.0-6.0,61626,List2B,black,man,,,,null,,,,
null,<p>is meeting</p>,,html-keyboard-response,68,236282,0.0-7.0,61626,List2B,black,man,,,,null,,,,
1522,<p><b>Answer:</b> jane is meeting ruth</p>,0,html-button-response,69,237806,0.0-8.0,61626,List2B,black,man,,,,,,,,
null,<img src='img/look_eg.gif' style='height:400px;''></img>,,html-keyboard-response,70,240808,0.0-9.0,61626,List2B,black,man,,,,null,,,,
null,<p>are looking at each other</p>,,html-keyboard-response,71,242809,0.0-10.0,61626,List2B,black,man,,,,null,,,,
1004,<p><b>Answer:</b> fred and mike are looking at each other</p>,0,html-button-response,72,243813,0.0-11.0,61626,List2B,black,man,,,,,,,,
3934,"<p>Ready to start the experiment?</p><br><p><strong>Remember to describe the picture using a full sentence,</strong></p><p><strong>that combines the names of the people with the <i>exact</i> phrase given.</strong></p><p><strong>To receive full payment you must do this correctly.</strong></p><p><strong> You do not need to capitalise names or use punctuation.</strong></p><br><p>Press 'Continue' to begin.</p>",0,html-button-response,73,248750,0.0-12.0,61626,List2B,black,man,,,,,,,,
null,"<div style=""font-size:60px;"">+</div>",,html-keyboard-response,74,250252,0.0-13.0-0.0,61626,List2B,black,man,,,,null,,,,
null,"<img src=""stim_listB/flirt2.gif""style=""height:400px;""></stim_listB>",,html-keyboard-response,75,252257,0.0-13.0-1.0,61626,List2B,black,man,,,,null,,,,
null,are flirting with each other,,html-keyboard-response,76,254259,0.0-13.0-2.0,61626,List2B,black,man,,,,null,,,,
11393,,,survey-text,77,265654,0.0-13.0-3.0,61626,List2B,black,man,,,,,"{""Q0"":""dave and ruth are flirting with each other""}","<img src=""stim_listB/flirt2.gif""style=""height:400px;""></stim_listB>",are flirting with each other,
null,"<div style=""font-size:60px;"">+</div>",,html-keyboard-response,78,266156,0.0-13.0-0.1,61626,List2B,black,man,,,,null,,,,
null,"<img src=""stim_listB/flirt1.gif""style=""height:400px;""></stim_listB>",,html-keyboard-response,79,268157,0.0-13.0-1.1,61626,List2B,black,man,,,,null,,,,
null,is flirting with,,html-keyboard-response,80,270159,0.0-13.0-2.1,61626,List2B,black,man,,,,null,,,,
11982,,,survey-text,81,282143,0.0-13.0-3.1,61626,List2B,black,man,,,,,"{""Q0"":""luke is flirting with jane""}","<img src=""stim_listB/flirt1.gif""style=""height:400px;""></stim_listB>",is flirting with,
null,"<div style=""font-size:60px;"">+</div>",,html-keyboard-response,82,282645,0.0-13.0-0.2,61626,List2B,black,man,,,,null,,,,
null,"<img src=""stim_listB/fight6.gif""style=""height:400px;""></stim_listB>",,html-keyboard-response,83,284648,0.0-13.0-1.2,61626,List2B,black,man,,,,null,,,,
null,are fighting each other,,html-keyboard-response,84,286649,0.0-13.0-2.2,61626,List2B,black,man,,,,null,,,,
15636,,,survey-text,85,302287,0.0-13.0-3.2,61626,List2B,black,man,,,,,"{""Q0"":""fred and luke are fighting each other""}","<img src=""stim_listB/fight6.gif""style=""height:400px;""></stim_listB>",are fighting each other,
null,"<div style=""font-size:60px;"">+</div>",,html-keyboard-response,86,302789,0.0-13.0-0.3,61626,List2B,black,man,,,,null,,,,
null,"<img src=""stim_listB/fight3.gif""style=""height:400px;""></stim_listB>",,html-keyboard-response,87,304792,0.0-13.0-1.3,61626,List2B,black,man,,,,null,,,,
null,is fighting,,html-keyboard-response,88,306794,0.0-13.0-2.3,61626,List2B,black,man,,,,null,,,,
8173,,,survey-text,89,314968,0.0-13.0-3.3,61626,List2B,black,man,,,,,"{""Q0"":""mike and kate are fighting""}","<img src=""stim_listB/fight3.gif""style=""height:400px;""></stim_listB>",is fighting,
null,"<div style=""font-size:60px;"">+</div>",,html-keyboard-response,90,315469,0.0-13.0-0.4,61626,List2B,black,man,,,,null,,,,
null,"<img src=""stim_listB/talk7.gif""style=""height:400px;""></stim_listB>",,html-keyboard-response,91,317474,0.0-13.0-1.4,61626,List2B,black,man,,,,null,,,,
null,is talking to,,html-keyboard-response,92,319476,0.0-13.0-2.4,61626,List2B,black,man,,,,null,,,,
6946,,,survey-text,93,326424,0.0-13.0-3.4,61626,List2B,black,man,,,,,"{""Q0"":""ruth is talking to kate""}","<img src=""stim_listB/talk7.gif""style=""height:400px;""></stim_listB>",is talking to,
null,"<div style=""font-size:60px;"">+</div>",,html-keyboard-response,94,326926,0.0-13.0-0.5,61626,List2B,black,man,,,,null,,,,
null,"<img src=""stim_listB/shout3.gif""style=""height:400px;""></stim_listB>",,html-keyboard-response,95,328929,0.0-13.0-1.5,61626,List2B,black,man,,,,null,,,,
null,is shouting at,,html-keyboard-response,96,330931,0.0-13.0-2.5,61626,List2B,black,man,,,,null,,,,
5458,,,survey-text,97,336390,0.0-13.0-3.5,61626,List2B,black,man,,,,,"{""Q0"":""beth is shouting at fred""}","<img src=""stim_listB/shout3.gif""style=""height:400px;""></stim_listB>",is shouting at,
null,"<div style=""font-size:60px;"">+</div>",,html-keyboard-response,98,336891,0.0-13.0-0.6,61626,List2B,black,man,,,,null,,,,
null,"<img src=""stim_listB/flirt4.gif""style=""height:400px;""></stim_listB>",,html-keyboard-response,99,338893,0.0-13.0-1.6,61626,List2B,black,man,,,,null,,,,
null,are flirting with each other,,html-keyboard-response,100,340894,0.0-13.0-2.6,61626,List2B,black,man,,,,null,,,,
8559,,,survey-text,101,349454,0.0-13.0-3.6,61626,List2B,black,man,,,,,"{""Q0"":""mike and beth are flirting with each other""}","<img src=""stim_listB/flirt4.gif""style=""height:400px;""></stim_listB>",are flirting with each other,
null,"<div style=""font-size:60px;"">+</div>",,html-keyboard-response,102,349956,0.0-13.0-0.7,61626,List2B,black,man,,,,null,,,,
null,"<img src=""stim_listB/argue8.gif""style=""height:400px;""></stim_listB>",,html-keyboard-response,103,351959,0.0-13.0-1.7,61626,List2B,black,man,,,,null,,,,
null,are arguing with each other,,html-keyboard-response,104,353962,0.0-13.0-2.7,61626,List2B,black,man,,,,null,,,,
9093,,,survey-text,105,363055,0.0-13.0-3.7,61626,List2B,black,man,,,,,"{""Q0"":""kate and ruth are arguing with each other""}","<img src=""stim_listB/argue8.gif""style=""height:400px;""></stim_listB>",are arguing with each other,
null,"<div style=""font-size:60px;"">+</div>",,html-keyboard-response,106,363558,0.0-13.0-0.8,61626,List2B,black,man,,,,null,,,,
null,"<img src=""stim_listB/kiss6.gif""style=""height:400px;""></stim_listB>",,html-keyboard-response,107,365560,0.0-13.0-1.8,61626,List2B,black,man,,,,null,,,,
null,are kissing each other,,html-keyboard-response,108,367562,0.0-13.0-2.8,61626,List2B,black,man,,,,null,,,,
7107,,,survey-text,109,374670,0.0-13.0-3.8,61626,List2B,black,man,,,,,"{""Q0"":""mike and dave are kissing each other""}","<img src=""stim_listB/kiss6.gif""style=""height:400px;""></stim_listB>",are kissing each other,
null,"<div style=""font-size:60px;"">+</div>",,html-keyboard-response,110,375173,0.0-13.0-0.9,61626,List2B,black,man,,,,null,,,,
null,"<img src=""stim_listB/kiss1.gif""style=""height:400px;""></stim_listB>",,html-keyboard-response,111,377174,0.0-13.0-1.9,61626,List2B,black,man,,,,null,,,,
null,is kissing,,html-keyboard-response,112,379177,0.0-13.0-2.9,61626,List2B,black,man,,,,null,,,,
5766,,,survey-text,113,384945,0.0-13.0-3.9,61626,List2B,black,man,,,,,"{""Q0"":""ruth and luke are kissing""}","<img src=""stim_listB/kiss1.gif""style=""height:400px;""></stim_listB>",is kissing,
null,"<div style=""font-size:60px;"">+</div>",,html-keyboard-response,114,385448,0.0-13.0-0.10,61626,List2B,black,man,,,,null,,,,
null,"<img src=""stim_listB/play6.gif""style=""height:400px;""></stim_listB>",,html-keyboard-response,115,387451,0.0-13.0-1.10,61626,List2B,black,man,,,,null,,,,
null,are playing with each other,,html-keyboard-response,116,389454,0.0-13.0-2.10,61626,List2B,black,man,,,,null,,,,
8933,,,survey-text,117,398388,0.0-13.0-3.10,61626,List2B,black,man,,,,,"{""Q0"":""luke and fred are playing with each other""}","<img src=""stim_listB/play6.gif""style=""height:400px;""></stim_listB>",are playing with each other,
null,"<div style=""font-size:60px;"">+</div>",,html-keyboard-response,118,398889,0.0-13.0-0.11,61626,List2B,black,man,,,,null,,,,
null,"<img src=""stim_listB/kiss3.gif""style=""height:400px;""></stim_listB>",,html-keyboard-response,119,400892,0.0-13.0-1.11,61626,List2B,black,man,,,,null,,,,
null,is kissing,,html-keyboard-response,120,402892,0.0-13.0-2.11,61626,List2B,black,man,,,,null,,,,
7538,,,survey-text,121,410431,0.0-13.0-3.11,61626,List2B,black,man,,,,,"{""Q0"":""beth and fred are kissing""}","<img src=""stim_listB/kiss3.gif""style=""height:400px;""></stim_listB>",is kissing,
null,"<div style=""font-size:60px;"">+</div>",,html-keyboard-response,122,410933,0.0-13.0-0.12,61626,List2B,black,man,,,,null,,,,
null,"<img src=""stim_listB/marry7.gif""style=""height:400px;""></stim_listB>",,html-keyboard-response,123,412934,0.0-13.0-1.12,61626,List2B,black,man,,,,null,,,,
null,is marrying,,html-keyboard-response,124,414936,0.0-13.0-2.12,61626,List2B,black,man,,,,null,,,,
16286,,,survey-text,125,431224,0.0-13.0-3.12,61626,List2B,black,man,,,,,"{""Q0"":""kate and jane are marrying""}","<img src=""stim_listB/marry7.gif""style=""height:400px;""></stim_listB>",is marrying,
null,"<div style=""font-size:60px;"">+</div>",,html-keyboard-response,126,431727,0.0-13.0-0.13,61626,List2B,black,man,,,,null,,,,
null,"<img src=""stim_listB/kiss5.gif""style=""height:400px;""></stim_listB>",,html-keyboard-response,127,433729,0.0-13.0-1.13,61626,List2B,black,man,,,,null,,,,
null,is kissing,,html-keyboard-response,128,435729,0.0-13.0-2.13,61626,List2B,black,man,,,,null,,,,
4773,,,survey-text,129,440504,0.0-13.0-3.13,61626,List2B,black,man,,,,,"{""Q0"":""fred and luke are kissing""}","<img src=""stim_listB/kiss5.gif""style=""height:400px;""></stim_listB>",is kissing,
null,"<div style=""font-size:60px;"">+</div>",,html-keyboard-response,130,441006,0.0-13.0-0.14,61626,List2B,black,man,,,,null,,,,
null,"<img src=""stim_listB/argue3.gif""style=""height:400px;""></stim_listB>",,html-keyboard-response,131,443008,0.0-13.0-1.14,61626,List2B,black,man,,,,null,,,,
null,is arguing with,,html-keyboard-response,132,445009,0.0-13.0-2.14,61626,List2B,black,man,,,,null,,,,
16709,,,survey-text,133,461720,0.0-13.0-3.14,61626,List2B,black,man,,,,,"{""Q0"":""mike is arguing with beth""}","<img src=""stim_listB/argue3.gif""style=""height:400px;""></stim_listB>",is arguing with,
null,"<div style=""font-size:60px;"">+</div>",,html-keyboard-response,134,462222,0.0-13.0-0.15,61626,List2B,black,man,,,,null,,,,
null,"<img src=""stim_listB/marry2.gif""style=""height:400px;""></stim_listB>",,html-keyboard-response,135,464225,0.0-13.0-1.15,61626,List2B,black,man,,,,null,,,,
null,are marrying each other,,html-keyboard-response,136,466227,0.0-13.0-2.15,61626,List2B,black,man,,,,null,,,,
8132,,,survey-text,137,474360,0.0-13.0-3.15,61626,List2B,black,man,,,,,"{""Q0"":""luke and jane are marrying each other""}","<img src=""stim_listB/marry2.gif""style=""height:400px;""></stim_listB>",are marrying each other,
null,"<div style=""font-size:60px;"">+</div>",,html-keyboard-response,138,474862,0.0-13.0-0.16,61626,List2B,black,man,,,,null,,,,
null,"<img src=""stim_listB/talk1.gif""style=""height:400px;""></stim_listB>",,html-keyboard-response,139,476865,0.0-13.0-1.16,61626,List2B,black,man,,,,null,,,,
null,is talking to,,html-keyboard-response,140,478867,0.0-13.0-2.16,61626,List2B,black,man,,,,null,,,,
4442,,,survey-text,141,483310,0.0-13.0-3.16,61626,List2B,black,man,,,,,"{""Q0"":""jane is talking to luke""}","<img src=""stim_listB/talk1.gif""style=""height:400px;""></stim_listB>",is talking to,
null,"<div style=""font-size:60px;"">+</div>",,html-keyboard-response,142,483812,0.0-13.0-0.17,61626,List2B,black,man,,,,null,,,,
null,"<img src=""stim_listB/shout2.gif""style=""height:400px;""></stim_listB>",,html-keyboard-response,143,485815,0.0-13.0-1.17,61626,List2B,black,man,,,,null,,,,
null,are shouting at each other,,html-keyboard-response,144,487817,0.0-13.0-2.17,61626,List2B,black,man,,,,null,,,,
8060,,,survey-text,145,495879,0.0-13.0-3.17,61626,List2B,black,man,,,,,"{""Q0"":""dave and jane are shouting at each other""}","<img src=""stim_listB/shout2.gif""style=""height:400px;""></stim_listB>",are shouting at each other,
null,"<div style=""font-size:60px;"">+</div>",,html-keyboard-response,146,496382,0.0-13.0-0.18,61626,List2B,black,man,,,,null,,,,
null,"<img src=""stim_listB/kiss2.gif""style=""height:400px;""></stim_listB>",,html-keyboard-response,147,498386,0.0-13.0-1.18,61626,List2B,black,man,,,,null,,,,
null,are kissing each other,,html-keyboard-response,148,500386,0.0-13.0-2.18,61626,List2B,black,man,,,,null,,,,
5331,,,survey-text,149,505718,0.0-13.0-3.18,61626,List2B,black,man,,,,,"{""Q0"":""jane and dave are kissing""}","<img src=""stim_listB/kiss2.gif""style=""height:400px;""></stim_listB>",are kissing each other,
null,"<div style=""font-size:60px;"">+</div>",,html-keyboard-response,150,506220,0.0-13.0-0.19,61626,List2B,black,man,,,,null,,,,
null,"<img src=""stim_listB/shout5.gif""style=""height:400px;""></stim_listB>",,html-keyboard-response,151,508223,0.0-13.0-1.19,61626,List2B,black,man,,,,null,,,,
null,is shouting at,,html-keyboard-response,152,510225,0.0-13.0-2.19,61626,List2B,black,man,,,,null,,,,
6260,,,survey-text,153,516485,0.0-13.0-3.19,61626,List2B,black,man,,,,,"{""Q0"":""luke is shouting at fred""}","<img src=""stim_listB/shout5.gif""style=""height:400px;""></stim_listB>",is shouting at,
3383,"<img src='img/portrait_matrix_list2.jpg' style='width:900px;height:500px;''></img><p>If you have memorised all the portraits and names and are ready to start, press Continue.</p><p><strong>Please note: Your memory of these faces will be tested 4 times during this experiment.</strong></p>",0,html-button-response,154,519870,0.0-14.0-0.0,61626,List2B,black,man,,,,,,,,
4541,"<img src=""portrait/BW1.jpg""style=""height:400px;""></img>",0,html-button-response,155,525414,0.0-14.0-1.0,61626,List2B,black,man,,TRUE,0,,,,,
null,CORRECT,,html-keyboard-response,156,526915,0.0-14.0-2.0-0.0,61626,List2B,black,man,,,,null,,,,
2657,"<img src=""portrait/WM1.jpg""style=""height:400px;""></img>",6,html-button-response,157,529573,0.0-14.0-4.0,61626,List2B,black,man,,TRUE,6,,,,,
null,CORRECT,,html-keyboard-response,158,531076,0.0-14.0-5.0-0.0,61626,List2B,black,man,,,,null,,,,
1521,"<img src=""portrait/WW1.jpg""style=""height:400px;""></img>",1,html-button-response,159,532598,0.0-14.0-7.0,61626,List2B,black,man,,TRUE,1,,,,,
null,CORRECT,,html-keyboard-response,160,534101,0.0-14.0-8.0-0.0,61626,List2B,black,man,,,,null,,,,
1383,"<img src=""portrait/BM1.jpg""style=""height:400px;""></img>",4,html-button-response,161,535486,0.0-14.0-10.0,61626,List2B,black,man,,TRUE,4,,,,,
null,CORRECT,,html-keyboard-response,162,536988,0.0-14.0-11.0-0.0,61626,List2B,black,man,,,,null,,,,
1736,"<img src=""portrait/BM2.jpg""style=""height:400px;""></img>",5,html-button-response,163,538726,0.0-14.0-13.0,61626,List2B,black,man,,TRUE,5,,,,,
null,CORRECT,,html-keyboard-response,164,540230,0.0-14.0-14.0-0.0,61626,List2B,black,man,,,,null,,,,
1678,"<img src=""portrait/WM2.jpg""style=""height:400px;""></img>",7,html-button-response,165,541910,0.0-14.0-16.0,61626,List2B,black,man,,TRUE,7,,,,,
null,CORRECT,,html-keyboard-response,166,543413,0.0-14.0-17.0-0.0,61626,List2B,black,man,,,,null,,,,
1487,"<img src=""portrait/WW2.jpg""style=""height:400px;""></img>",3,html-button-response,167,544902,0.0-14.0-19.0,61626,List2B,black,man,,TRUE,3,,,,,
null,CORRECT,,html-keyboard-response,168,546405,0.0-14.0-20.0-0.0,61626,List2B,black,man,,,,null,,,,
1887,"<img src=""portrait/BW2.jpg""style=""height:400px;""></img>",2,html-button-response,169,548294,0.0-14.0-22.0,61626,List2B,black,man,,TRUE,2,,,,,
null,CORRECT,,html-keyboard-response,170,549796,0.0-14.0-23.0-0.0,61626,List2B,black,man,,,,null,,,,
1015,<p>You got 8 out of 8 right first time. Press Continue.</p>,0,html-button-response,171,550814,0.0-14.0-25.0,61626,List2B,black,man,,,,,,,,
null,"<div style=""font-size:60px;"">+</div>",,html-keyboard-response,172,552316,0.0-15.0-0.0,61626,List2B,black,man,,,,null,,,,
null,"<img src=""stim_listB/marry1.gif""style=""height:400px;""></stim_listB>",,html-keyboard-response,173,554320,0.0-15.0-1.0,61626,List2B,black,man,,,,null,,,,
null,is marrying,,html-keyboard-response,174,556321,0.0-15.0-2.0,61626,List2B,black,man,,,,null,,,,
5426,,,survey-text,175,561748,0.0-15.0-3.0,61626,List2B,black,man,,,,,"{""Q0"":""ruth and dave are marrying""}","<img src=""stim_listB/marry1.gif""style=""height:400px;""></stim_listB>",is marrying,
null,"<div style=""font-size:60px;"">+</div>",,html-keyboard-response,176,562249,0.0-15.0-0.1,61626,List2B,black,man,,,,null,,,,
null,"<img src=""stim_listB/shout8.gif""style=""height:400px;""></stim_listB>",,html-keyboard-response,177,564252,0.0-15.0-1.1,61626,List2B,black,man,,,,null,,,,
null,are shouting at each other,,html-keyboard-response,178,566254,0.0-15.0-2.1,61626,List2B,black,man,,,,null,,,,
6982,,,survey-text,179,573238,0.0-15.0-3.1,61626,List2B,black,man,,,,,"{""Q0"":""jane and kate are shouting at each other""}","<img src=""stim_listB/shout8.gif""style=""height:400px;""></stim_listB>",are shouting at each other,
null,"<div style=""font-size:60px;"">+</div>",,html-keyboard-response,180,573740,0.0-15.0-0.2,61626,List2B,black,man,,,,null,,,,
null,"<img src=""stim_listB/touch2.gif""style=""height:400px;""></stim_listB>",,html-keyboard-response,181,575742,0.0-15.0-1.2,61626,List2B,black,man,,,,null,,,,
null,are touching each other,,html-keyboard-response,182,577743,0.0-15.0-2.2,61626,List2B,black,man,,,,null,,,,
7468,,,survey-text,183,585212,0.0-15.0-3.2,61626,List2B,black,man,,,,,"{""Q0"":""luke and ruth are touching each other""}","<img src=""stim_listB/touch2.gif""style=""height:400px;""></stim_listB>",are touching each other,
null,"<div style=""font-size:60px;"">+</div>",,html-keyboard-response,184,585713,0.0-15.0-0.3,61626,List2B,black,man,,,,null,,,,
null,"<img src=""stim_listB/dance2.gif""style=""height:400px;""></stim_listB>",,html-keyboard-response,185,587715,0.0-15.0-1.3,61626,List2B,black,man,,,,null,,,,
null,are dancing with each other,,html-keyboard-response,186,589718,0.0-15.0-2.3,61626,List2B,black,man,,,,null,,,,
7141,,,survey-text,187,596860,0.0-15.0-3.3,61626,List2B,black,man,,,,,"{""Q0"":""ruth and dave are dancing with each other""}","<img src=""stim_listB/dance2.gif""style=""height:400px;""></stim_listB>",are dancing with each other,
null,"<div style=""font-size:60px;"">+</div>",,html-keyboard-response,188,597361,0.0-15.0-0.4,61626,List2B,black,man,,,,null,,,,
null,"<img src=""stim_listB/touch8.gif""style=""height:400px;""></stim_listB>",,html-keyboard-response,189,599365,0.0-15.0-1.4,61626,List2B,black,man,,,,null,,,,
null,are touching each other,,html-keyboard-response,190,601369,0.0-15.0-2.4,61626,List2B,black,man,,,,null,,,,
7658,,,survey-text,191,609028,0.0-15.0-3.4,61626,List2B,black,man,,,,,"{""Q0"":""ruth and kate are touching each other""}","<img src=""stim_listB/touch8.gif""style=""height:400px;""></stim_listB>",are touching each other,
null,"<div style=""font-size:60px;"">+</div>",,html-keyboard-response,192,609529,0.0-15.0-0.5,61626,List2B,black,man,,,,null,,,,
null,"<img src=""stim_listB/play8.gif""style=""height:400px;""></stim_listB>",,html-keyboard-response,193,611532,0.0-15.0-1.5,61626,List2B,black,man,,,,null,,,,
null,are playing with each other,,html-keyboard-response,194,613535,0.0-15.0-2.5,61626,List2B,black,man,,,,null,,,,
13251,,,survey-text,195,626787,0.0-15.0-3.5,61626,List2B,black,man,,,,,"{""Q0"":""ruth and beth are playing with each other""}","<img src=""stim_listB/play8.gif""style=""height:400px;""></stim_listB>",are playing with each other,
null,"<div style=""font-size:60px;"">+</div>",,html-keyboard-response,196,627290,0.0-15.0-0.6,61626,List2B,black,man,,,,null,,,,
null,"<img src=""stim_listB/shout7.gif""style=""height:400px;""></stim_listB>",,html-keyboard-response,197,629293,0.0-15.0-1.6,61626,List2B,black,man,,,,null,,,,
null,is shouting at,,html-keyboard-response,198,631295,0.0-15.0-2.6,61626,List2B,black,man,,,,null,,,,
6171,,,survey-text,199,637468,0.0-15.0-3.6,61626,List2B,black,man,,,,,"{""Q0"":""beth is shouting at ruth""}","<img src=""stim_listB/shout7.gif""style=""height:400px;""></stim_listB>",is shouting at,
null,"<div style=""font-size:60px;"">+</div>",,html-keyboard-response,200,637970,0.0-15.0-0.7,61626,List2B,black,man,,,,null,,,,
null,"<img src=""stim_listB/talk5.gif""style=""height:400px;""></stim_listB>",,html-keyboard-response,201,639974,0.0-15.0-1.7,61626,List2B,black,man,,,,null,,,,
null,is talking to,,html-keyboard-response,202,641975,0.0-15.0-2.7,61626,List2B,black,man,,,,null,,,,
4651,,,survey-text,203,646628,0.0-15.0-3.7,61626,List2B,black,man,,,,,"{""Q0"":""mike is talking to luke""}","<img src=""stim_listB/talk5.gif""style=""height:400px;""></stim_listB>",is talking to,
null,"<div style=""font-size:60px;"">+</div>",,html-keyboard-response,204,647131,0.0-15.0-0.8,61626,List2B,black,man,,,,null,,,,
null,"<img src=""stim_listB/touch3.gif""style=""height:400px;""></stim_listB>",,html-keyboard-response,205,649134,0.0-15.0-1.8,61626,List2B,black,man,,,,null,,,,
null,is touching,,html-keyboard-response,206,651136,0.0-15.0-2.8,61626,List2B,black,man,,,,null,,,,
9035,,,survey-text,207,660171,0.0-15.0-3.8,61626,List2B,black,man,,,,,"{""Q0"":""mike is touching kate""}","<img src=""stim_listB/touch3.gif""style=""height:400px;""></stim_listB>",is touching,
null,"<div style=""font-size:60px;"">+</div>",,html-keyboard-response,208,660673,0.0-15.0-0.9,61626,List2B,black,man,,,,null,,,,
null,"<img src=""stim_listB/shout1.gif""style=""height:400px;""></stim_listB>",,html-keyboard-response,209,662677,0.0-15.0-1.9,61626,List2B,black,man,,,,null,,,,
null,is shouting at,,html-keyboard-response,210,664679,0.0-15.0-2.9,61626,List2B,black,man,,,,null,,,,
5915,,,survey-text,211,670596,0.0-15.0-3.9,61626,List2B,black,man,,,,,"{""Q0"":""ruth is shouting at luke""}","<img src=""stim_listB/shout1.gif""style=""height:400px;""></stim_listB>",is shouting at,
null,"<div style=""font-size:60px;"">+</div>",,html-keyboard-response,212,671098,0.0-15.0-0.10,61626,List2B,black,man,,,,null,,,,
null,"<img src=""stim_listB/flirt6.gif""style=""height:400px;""></stim_listB>",,html-keyboard-response,213,673101,0.0-15.0-1.10,61626,List2B,black,man,,,,null,,,,
null,are flirting with each other,,html-keyboard-response,214,675102,0.0-15.0-2.10,61626,List2B,black,man,,,,null,,,,
11819,,,survey-text,215,686922,0.0-15.0-3.10,61626,List2B,black,man,,,,,"{""Q0"":""fred is flirting with dave""}","<img src=""stim_listB/flirt6.gif""style=""height:400px;""></stim_listB>",are flirting with each other,
null,"<div style=""font-size:60px;"">+</div>",,html-keyboard-response,216,687423,0.0-15.0-0.11,61626,List2B,black,man,,,,null,,,,
null,"<img src=""stim_listB/marry4.gif""style=""height:400px;""></stim_listB>",,html-keyboard-response,217,689425,0.0-15.0-1.11,61626,List2B,black,man,,,,null,,,,
null,are marrying each other,,html-keyboard-response,218,691426,0.0-15.0-2.11,61626,List2B,black,man,,,,null,,,,
8839,,,survey-text,219,700267,0.0-15.0-3.11,61626,List2B,black,man,,,,,"{""Q0"":""fred and kate are marrying each other""}","<img src=""stim_listB/marry4.gif""style=""height:400px;""></stim_listB>",are marrying each other,
null,"<div style=""font-size:60px;"">+</div>",,html-keyboard-response,220,700769,0.0-15.0-0.12,61626,List2B,black,man,,,,null,,,,
null,"<img src=""stim_listB/touch7.gif""style=""height:400px;""></stim_listB>",,html-keyboard-response,221,702771,0.0-15.0-1.12,61626,List2B,black,man,,,,null,,,,
null,is touching,,html-keyboard-response,222,704773,0.0-15.0-2.12,61626,List2B,black,man,,,,null,,,,
9092,,,survey-text,223,713866,0.0-15.0-3.12,61626,List2B,black,man,,,,,"{""Q0"":""kate is touching jane""}","<img src=""stim_listB/touch7.gif""style=""height:400px;""></stim_listB>",is touching,
null,"<div style=""font-size:60px;"">+</div>",,html-keyboard-response,224,714368,0.0-15.0-0.13,61626,List2B,black,man,,,,null,,,,
null,"<img src=""stim_listB/flirt7.gif""style=""height:400px;""></stim_listB>",,html-keyboard-response,225,716371,0.0-15.0-1.13,61626,List2B,black,man,,,,null,,,,
null,is flirting with,,html-keyboard-response,226,718373,0.0-15.0-2.13,61626,List2B,black,man,,,,null,,,,
5788,,,survey-text,227,724162,0.0-15.0-3.13,61626,List2B,black,man,,,,,"{""Q0"":""ruth is flirting with jane""}","<img src=""stim_listB/flirt7.gif""style=""height:400px;""></stim_listB>",is flirting with,
null,"<div style=""font-size:60px;"">+</div>",,html-keyboard-response,228,724664,0.0-15.0-0.14,61626,List2B,black,man,,,,null,,,,
null,"<img src=""stim_listB/kiss7.gif""style=""height:400px;""></stim_listB>",,html-keyboard-response,229,726668,0.0-15.0-1.14,61626,List2B,black,man,,,,null,,,,
null,is kissing,,html-keyboard-response,230,728670,0.0-15.0-2.14,61626,List2B,black,man,,,,null,,,,
5107,,,survey-text,231,733778,0.0-15.0-3.14,61626,List2B,black,man,,,,,"{""Q0"":""beth is kissing ruth""}","<img src=""stim_listB/kiss7.gif""style=""height:400px;""></stim_listB>",is kissing,
null,"<div style=""font-size:60px;"">+</div>",,html-keyboard-response,232,734280,0.0-15.0-0.15,61626,List2B,black,man,,,,null,,,,
null,"<img src=""stim_listB/marry8.gif""style=""height:400px;""></stim_listB>",,html-keyboard-response,233,736284,0.0-15.0-1.15,61626,List2B,black,man,,,,null,,,,
null,are marrying each other,,html-keyboard-response,234,738287,0.0-15.0-2.15,61626,List2B,black,man,,,,null,,,,
6850,,,survey-text,235,745138,0.0-15.0-3.15,61626,List2B,black,man,,,,,"{""Q0"":""beth and ruth are marrying each other""}","<img src=""stim_listB/marry8.gif""style=""height:400px;""></stim_listB>",are marrying each other,
null,"<div style=""font-size:60px;"">+</div>",,html-keyboard-response,236,745640,0.0-15.0-0.16,61626,List2B,black,man,,,,null,,,,
null,"<img src=""stim_listB/kiss4.gif""style=""height:400px;""></stim_listB>",,html-keyboard-response,237,747641,0.0-15.0-1.16,61626,List2B,black,man,,,,null,,,,
null,are kissing each other,,html-keyboard-response,238,749642,0.0-15.0-2.16,61626,List2B,black,man,,,,null,,,,
26143,,,survey-text,239,775786,0.0-15.0-3.16,61626,List2B,black,man,,,,,"{""Q0"":""mike and kate are kissing""}","<img src=""stim_listB/kiss4.gif""style=""height:400px;""></stim_listB>",are kissing each other,
null,"<div style=""font-size:60px;"">+</div>",,html-keyboard-response,240,776287,0.0-15.0-0.17,61626,List2B,black,man,,,,null,,,,
null,"<img src=""stim_listB/marry5.gif""style=""height:400px;""></stim_listB>",,html-keyboard-response,241,778288,0.0-15.0-1.17,61626,List2B,black,man,,,,null,,,,
null,is marrying,,html-keyboard-response,242,780289,0.0-15.0-2.17,61626,List2B,black,man,,,,null,,,,
9175,,,survey-text,243,789466,0.0-15.0-3.17,61626,List2B,black,man,,,,,"{""Q0"":""fred and dave are marrying each other""}","<img src=""stim_listB/marry5.gif""style=""height:400px;""></stim_listB>",is marrying,
null,"<div style=""font-size:60px;"">+</div>",,html-keyboard-response,244,789967,0.0-15.0-0.18,61626,List2B,black,man,,,,null,,,,
null,"<img src=""stim_listB/flirt3.gif""style=""height:400px;""></stim_listB>",,html-keyboard-response,245,791969,0.0-15.0-1.18,61626,List2B,black,man,,,,null,,,,
null,is flirting with,,html-keyboard-response,246,793970,0.0-15.0-2.18,61626,List2B,black,man,,,,null,,,,
4734,,,survey-text,247,798705,0.0-15.0-3.18,61626,List2B,black,man,,,,,"{""Q0"":""fred is flirting with kate""}","<img src=""stim_listB/flirt3.gif""style=""height:400px;""></stim_listB>",is flirting with,
null,"<div style=""font-size:60px;"">+</div>",,html-keyboard-response,248,799207,0.0-15.0-0.19,61626,List2B,black,man,,,,null,,,,
null,"<img src=""stim_listB/fight4.gif""style=""height:400px;""></stim_listB>",,html-keyboard-response,249,801210,0.0-15.0-1.19,61626,List2B,black,man,,,,null,,,,
null,are fighting each other,,html-keyboard-response,250,803211,0.0-15.0-2.19,61626,List2B,black,man,,,,null,,,,
6605,,,survey-text,251,809818,0.0-15.0-3.19,61626,List2B,black,man,,,,,"{""Q0"":""fred and beth are fighting each other""}","<img src=""stim_listB/fight4.gif""style=""height:400px;""></stim_listB>",are fighting each other,
2605,"<img src='img/portrait_matrix_list2.jpg' style='width:900px;height:500px;''></img><p>If you have memorised all the portraits and names and are ready to start, press Continue.</p><p><strong>Please note: Your memory of these faces will be tested 4 times during this experiment.</strong></p>",0,html-button-response,252,812425,0.0-16.0-0.0,61626,List2B,black,man,,,,,,,,
2070,"<img src=""portrait/WM2.jpg""style=""height:400px;""></img>",7,html-button-response,253,815497,0.0-16.0-1.0,61626,List2B,black,man,,TRUE,7,,,,,
null,CORRECT,,html-keyboard-response,254,816999,0.0-16.0-2.0-0.0,61626,List2B,black,man,,,,null,,,,
1057,"<img src=""portrait/BM1.jpg""style=""height:400px;""></img>",4,html-button-response,255,818057,0.0-16.0-4.0,61626,List2B,black,man,,TRUE,4,,,,,
null,CORRECT,,html-keyboard-response,256,819560,0.0-16.0-5.0-0.0,61626,List2B,black,man,,,,null,,,,
1704,"<img src=""portrait/WW1.jpg""style=""height:400px;""></img>",1,html-button-response,257,821265,0.0-16.0-7.0,61626,List2B,black,man,,TRUE,1,,,,,
null,CORRECT,,html-keyboard-response,258,822768,0.0-16.0-8.0-0.0,61626,List2B,black,man,,,,null,,,,
1295,"<img src=""portrait/WW2.jpg""style=""height:400px;""></img>",3,html-button-response,259,824065,0.0-16.0-10.0,61626,List2B,black,man,,TRUE,3,,,,,
null,CORRECT,,html-keyboard-response,260,825568,0.0-16.0-11.0-0.0,61626,List2B,black,man,,,,null,,,,
3560,"<img src=""portrait/WM1.jpg""style=""height:400px;""></img>",6,html-button-response,261,829129,0.0-16.0-13.0,61626,List2B,black,man,,TRUE,6,,,,,
null,CORRECT,,html-keyboard-response,262,830632,0.0-16.0-14.0-0.0,61626,List2B,black,man,,,,null,,,,
1312,"<img src=""portrait/BW1.jpg""style=""height:400px;""></img>",0,html-button-response,263,831945,0.0-16.0-16.0,61626,List2B,black,man,,TRUE,0,,,,,
null,CORRECT,,html-keyboard-response,264,833448,0.0-16.0-17.0-0.0,61626,List2B,black,man,,,,null,,,,
1639,"<img src=""portrait/BM2.jpg""style=""height:400px;""></img>",5,html-button-response,265,835089,0.0-16.0-19.0,61626,List2B,black,man,,TRUE,5,,,,,
null,CORRECT,,html-keyboard-response,266,836592,0.0-16.0-20.0-0.0,61626,List2B,black,man,,,,null,,,,
1088,"<img src=""portrait/BW2.jpg""style=""height:400px;""></img>",2,html-button-response,267,837681,0.0-16.0-22.0,61626,List2B,black,man,,TRUE,2,,,,,
null,CORRECT,,html-keyboard-response,268,839183,0.0-16.0-23.0-0.0,61626,List2B,black,man,,,,null,,,,
1287,<p>You got 8 out of 8 right first time. Press Continue.</p>,0,html-button-response,269,840473,0.0-16.0-25.0,61626,List2B,black,man,,,,,,,,
null,"<div style=""font-size:60px;"">+</div>",,html-keyboard-response,270,841977,0.0-17.0-0.0,61626,List2B,black,man,,,,null,,,,
null,"<img src=""stim_listB/flirt5.gif""style=""height:400px;""></stim_listB>",,html-keyboard-response,271,843981,0.0-17.0-1.0,61626,List2B,black,man,,,,null,,,,
null,is flirting with,,html-keyboard-response,272,845983,0.0-17.0-2.0,61626,List2B,black,man,,,,null,,,,
7376,,,survey-text,273,853360,0.0-17.0-3.0,61626,List2B,black,man,,,,,"{""Q0"":""mike is flirting with luke""}","<img src=""stim_listB/flirt5.gif""style=""height:400px;""></stim_listB>",is flirting with,
null,"<div style=""font-size:60px;"">+</div>",,html-keyboard-response,274,853861,0.0-17.0-0.1,61626,List2B,black,man,,,,null,,,,
null,"<img src=""stim_listB/play2.gif""style=""height:400px;""></stim_listB>",,html-keyboard-response,275,855863,0.0-17.0-1.1,61626,List2B,black,man,,,,null,,,,
null,are playing with each other,,html-keyboard-response,276,857865,0.0-17.0-2.1,61626,List2B,black,man,,,,null,,,,
6567,,,survey-text,277,864434,0.0-17.0-3.1,61626,List2B,black,man,,,,,"{""Q0"":""luke and ruth are playing with each other""}","<img src=""stim_listB/play2.gif""style=""height:400px;""></stim_listB>",are playing with each other,
null,"<div style=""font-size:60px;"">+</div>",,html-keyboard-response,278,864936,0.0-17.0-0.2,61626,List2B,black,man,,,,null,,,,
null,"<img src=""stim_listB/argue6.gif""style=""height:400px;""></stim_listB>",,html-keyboard-response,279,866939,0.0-17.0-1.2,61626,List2B,black,man,,,,null,,,,
null,are arguing with each other,,html-keyboard-response,280,868940,0.0-17.0-2.2,61626,List2B,black,man,,,,null,,,,
5771,,,survey-text,281,874712,0.0-17.0-3.2,61626,List2B,black,man,,,,,"{""Q0"":""luke and mike are arguing""}","<img src=""stim_listB/argue6.gif""style=""height:400px;""></stim_listB>",are arguing with each other,
null,"<div style=""font-size:60px;"">+</div>",,html-keyboard-response,282,875214,0.0-17.0-0.3,61626,List2B,black,man,,,,null,,,,
null,"<img src=""stim_listB/argue1.gif""style=""height:400px;""></stim_listB>",,html-keyboard-response,283,877217,0.0-17.0-1.3,61626,List2B,black,man,,,,null,,,,
null,is arguing with,,html-keyboard-response,284,879219,0.0-17.0-2.3,61626,List2B,black,man,,,,null,,,,
5251,,,survey-text,285,884472,0.0-17.0-3.3,61626,List2B,black,man,,,,,"{""Q0"":""ruth is arguing with dave""}","<img src=""stim_listB/argue1.gif""style=""height:400px;""></stim_listB>",is arguing with,
null,"<div style=""font-size:60px;"">+</div>",,html-keyboard-response,286,884974,0.0-17.0-0.4,61626,List2B,black,man,,,,null,,,,
null,"<img src=""stim_listB/talk3.gif""style=""height:400px;""></stim_listB>",,html-keyboard-response,287,886975,0.0-17.0-1.4,61626,List2B,black,man,,,,null,,,,
null,is talking to,,html-keyboard-response,288,888977,0.0-17.0-2.4,61626,List2B,black,man,,,,null,,,,
4693,,,survey-text,289,893671,0.0-17.0-3.4,61626,List2B,black,man,,,,,"{""Q0"":""fred is talking to kate""}","<img src=""stim_listB/talk3.gif""style=""height:400px;""></stim_listB>",is talking to,
null,"<div style=""font-size:60px;"">+</div>",,html-keyboard-response,290,894172,0.0-17.0-0.5,61626,List2B,black,man,,,,null,,,,
null,"<img src=""stim_listB/dance5.gif""style=""height:400px;""></stim_listB>",,html-keyboard-response,291,896176,0.0-17.0-1.5,61626,List2B,black,man,,,,null,,,,
null,is dancing with,,html-keyboard-response,292,898178,0.0-17.0-2.5,61626,List2B,black,man,,,,null,,,,
5012,,,survey-text,293,903192,0.0-17.0-3.5,61626,List2B,black,man,,,,,"{""Q0"":""mike is dancing with luke""}","<img src=""stim_listB/dance5.gif""style=""height:400px;""></stim_listB>",is dancing with,
null,"<div style=""font-size:60px;"">+</div>",,html-keyboard-response,294,903695,0.0-17.0-0.6,61626,List2B,black,man,,,,null,,,,
null,"<img src=""stim_listB/argue7.gif""style=""height:400px;""></stim_listB>",,html-keyboard-response,295,905696,0.0-17.0-1.6,61626,List2B,black,man,,,,null,,,,
null,is arguing with,,html-keyboard-response,296,907696,0.0-17.0-2.6,61626,List2B,black,man,,,,null,,,,
70317,,,survey-text,297,978014,0.0-17.0-3.6,61626,List2B,black,man,,,,,"{""Q0"":""beth is aruging with jane""}","<img src=""stim_listB/argue7.gif""style=""height:400px;""></stim_listB>",is arguing with,
null,"<div style=""font-size:60px;"">+</div>",,html-keyboard-response,298,978516,0.0-17.0-0.7,61626,List2B,black,man,,,,null,,,,
null,"<img src=""stim_listB/kiss8.gif""style=""height:400px;""></stim_listB>",,html-keyboard-response,299,980518,0.0-17.0-1.7,61626,List2B,black,man,,,,null,,,,
null,are kissing each other,,html-keyboard-response,300,982519,0.0-17.0-2.7,61626,List2B,black,man,,,,null,,,,
7022,,,survey-text,301,989542,0.0-17.0-3.7,61626,List2B,black,man,,,,,"{""Q0"":""kate and jane are kissing each other""}","<img src=""stim_listB/kiss8.gif""style=""height:400px;""></stim_listB>",are kissing each other,
null,"<div style=""font-size:60px;"">+</div>",,html-keyboard-response,302,990044,0.0-17.0-0.8,61626,List2B,black,man,,,,null,,,,
null,"<img src=""stim_listB/dance8.gif""style=""height:400px;""></stim_listB>",,html-keyboard-response,303,992048,0.0-17.0-1.8,61626,List2B,black,man,,,,null,,,,
null,are dancing with each other,,html-keyboard-response,304,994051,0.0-17.0-2.8,61626,List2B,black,man,,,,null,,,,
9226,,,survey-text,305,1003279,0.0-17.0-3.8,61626,List2B,black,man,,,,,"{""Q0"":""jane and beth are dancing with each other""}","<img src=""stim_listB/dance8.gif""style=""height:400px;""></stim_listB>",are dancing with each other,
null,"<div style=""font-size:60px;"">+</div>",,html-keyboard-response,306,1003782,0.0-17.0-0.9,61626,List2B,black,man,,,,null,,,,
null,"<img src=""stim_listB/shout4.gif""style=""height:400px;""></stim_listB>",,html-keyboard-response,307,1005785,0.0-17.0-1.9,61626,List2B,black,man,,,,null,,,,
null,are shouting at each other,,html-keyboard-response,308,1007787,0.0-17.0-2.9,61626,List2B,black,man,,,,null,,,,
8538,,,survey-text,309,1016327,0.0-17.0-3.9,61626,List2B,black,man,,,,,"{""Q0"":""mike and beth are shouting at each other""}","<img src=""stim_listB/shout4.gif""style=""height:400px;""></stim_listB>",are shouting at each other,
null,"<div style=""font-size:60px;"">+</div>",,html-keyboard-response,310,1016829,0.0-17.0-0.10,61626,List2B,black,man,,,,null,,,,
null,"<img src=""stim_listB/talk2.gif""style=""height:400px;""></stim_listB>",,html-keyboard-response,311,1018832,0.0-17.0-1.10,61626,List2B,black,man,,,,null,,,,
null,are talking to each other,,html-keyboard-response,312,1020834,0.0-17.0-2.10,61626,List2B,black,man,,,,null,,,,
6995,,,survey-text,313,1027831,0.0-17.0-3.10,61626,List2B,black,man,,,,,"{""Q0"":""ruth and dave are talking to each other""}","<img src=""stim_listB/talk2.gif""style=""height:400px;""></stim_listB>",are talking to each other,
null,"<div style=""font-size:60px;"">+</div>",,html-keyboard-response,314,1028333,0.0-17.0-0.11,61626,List2B,black,man,,,,null,,,,
null,"<img src=""stim_listB/argue2.gif""style=""height:400px;""></stim_listB>",,html-keyboard-response,315,1030336,0.0-17.0-1.11,61626,List2B,black,man,,,,null,,,,
null,are arguing with each other,,html-keyboard-response,316,1032337,0.0-17.0-2.11,61626,List2B,black,man,,,,null,,,,
7644,,,survey-text,317,1039982,0.0-17.0-3.11,61626,List2B,black,man,,,,,"{""Q0"":""jane and dave are talking""}","<img src=""stim_listB/argue2.gif""style=""height:400px;""></stim_listB>",are arguing with each other,
null,"<div style=""font-size:60px;"">+</div>",,html-keyboard-response,318,1040484,0.0-17.0-0.12,61626,List2B,black,man,,,,null,,,,
null,"<img src=""stim_listB/dance4.gif""style=""height:400px;""></stim_listB>",,html-keyboard-response,319,1042486,0.0-17.0-1.12,61626,List2B,black,man,,,,null,,,,
null,are dancing with each other,,html-keyboard-response,320,1044487,0.0-17.0-2.12,61626,List2B,black,man,,,,null,,,,
7726,,,survey-text,321,1052213,0.0-17.0-3.12,61626,List2B,black,man,,,,,"{""Q0"":""mike and beth are dancing with each other""}","<img src=""stim_listB/dance4.gif""style=""height:400px;""></stim_listB>",are dancing with each other,
null,"<div style=""font-size:60px;"">+</div>",,html-keyboard-response,322,1052715,0.0-17.0-0.13,61626,List2B,black,man,,,,null,,,,
null,"<img src=""stim_listB/play3.gif""style=""height:400px;""></stim_listB>",,html-keyboard-response,323,1054716,0.0-17.0-1.13,61626,List2B,black,man,,,,null,,,,
null,is playing with,,html-keyboard-response,324,1056717,0.0-17.0-2.13,61626,List2B,black,man,,,,null,,,,
4895,,,survey-text,325,1061614,0.0-17.0-3.13,61626,List2B,black,man,,,,,"{""Q0"":""mike is playing with kate""}","<img src=""stim_listB/play3.gif""style=""height:400px;""></stim_listB>",is playing with,
null,"<div style=""font-size:60px;"">+</div>",,html-keyboard-response,326,1062115,0.0-17.0-0.14,61626,List2B,black,man,,,,null,,,,
null,"<img src=""stim_listB/fight8.gif""style=""height:400px;""></stim_listB>",,html-keyboard-response,327,1064117,0.0-17.0-1.14,61626,List2B,black,man,,,,null,,,,
null,are fighting each other,,html-keyboard-response,328,1066119,0.0-17.0-2.14,61626,List2B,black,man,,,,null,,,,
5877,,,survey-text,329,1071998,0.0-17.0-3.14,61626,List2B,black,man,,,,,"{""Q0"":""ruth and beth are fighting""}","<img src=""stim_listB/fight8.gif""style=""height:400px;""></stim_listB>",are fighting each other,
null,"<div style=""font-size:60px;"">+</div>",,html-keyboard-response,330,1072499,0.0-17.0-0.15,61626,List2B,black,man,,,,null,,,,
null,"<img src=""stim_listB/flirt8.gif""style=""height:400px;""></stim_listB>",,html-keyboard-response,331,1074504,0.0-17.0-1.15,61626,List2B,black,man,,,,null,,,,
null,are flirting with each other,,html-keyboard-response,332,1076505,0.0-17.0-2.15,61626,List2B,black,man,,,,null,,,,
6467,,,survey-text,333,1082972,0.0-17.0-3.15,61626,List2B,black,man,,,,,"{""Q0"":""jane and beth are flirting with each other""}","<img src=""stim_listB/flirt8.gif""style=""height:400px;""></stim_listB>",are flirting with each other,
null,"<div style=""font-size:60px;"">+</div>",,html-keyboard-response,334,1083474,0.0-17.0-0.16,61626,List2B,black,man,,,,null,,,,
null,"<img src=""stim_listB/fight5.gif""style=""height:400px;""></stim_listB>",,html-keyboard-response,335,1085478,0.0-17.0-1.16,61626,List2B,black,man,,,,null,,,,
null,is fighting,,html-keyboard-response,336,1087480,0.0-17.0-2.16,61626,List2B,black,man,,,,null,,,,
5587,,,survey-text,337,1093068,0.0-17.0-3.16,61626,List2B,black,man,,,,,"{""Q0"":""mike and dave are fighting""}","<img src=""stim_listB/fight5.gif""style=""height:400px;""></stim_listB>",is fighting,
null,"<div style=""font-size:60px;"">+</div>",,html-keyboard-response,338,1093570,0.0-17.0-0.17,61626,List2B,black,man,,,,null,,,,
null,"<img src=""stim_listB/fight7.gif""style=""height:400px;""></stim_listB>",,html-keyboard-response,339,1095573,0.0-17.0-1.17,61626,List2B,black,man,,,,null,,,,
null,is fighting,,html-keyboard-response,340,1097574,0.0-17.0-2.17,61626,List2B,black,man,,,,null,,,,
4652,,,survey-text,341,1102229,0.0-17.0-3.17,61626,List2B,black,man,,,,,"{""Q0"":""kate and jane are fighting""}","<img src=""stim_listB/fight7.gif""style=""height:400px;""></stim_listB>",is fighting,
null,"<div style=""font-size:60px;"">+</div>",,html-keyboard-response,342,1102732,0.0-17.0-0.18,61626,List2B,black,man,,,,null,,,,
null,"<img src=""stim_listB/dance7.gif""style=""height:400px;""></stim_listB>",,html-keyboard-response,343,1104735,0.0-17.0-1.18,61626,List2B,black,man,,,,null,,,,
null,is dancing with,,html-keyboard-response,344,1106737,0.0-17.0-2.18,61626,List2B,black,man,,,,null,,,,
17434,,,survey-text,345,1124172,0.0-17.0-3.18,61626,List2B,black,man,,,,,"{""Q0"":""kate and jane are flirting""}","<img src=""stim_listB/dance7.gif""style=""height:400px;""></stim_listB>",is dancing with,
null,"<div style=""font-size:60px;"">+</div>",,html-keyboard-response,346,1124673,0.0-17.0-0.19,61626,List2B,black,man,,,,null,,,,
null,"<img src=""stim_listB/touch6.gif""style=""height:400px;""></stim_listB>",,html-keyboard-response,347,1126676,0.0-17.0-1.19,61626,List2B,black,man,,,,null,,,,
null,are touching each other,,html-keyboard-response,348,1128677,0.0-17.0-2.19,61626,List2B,black,man,,,,null,,,,
9158,,,survey-text,349,1137837,0.0-17.0-3.19,61626,List2B,black,man,,,,,"{""Q0"":""fred and luke are touching""}","<img src=""stim_listB/touch6.gif""style=""height:400px;""></stim_listB>",are touching each other,
88660,"<img src='img/portrait_matrix_list2.jpg' style='width:900px;height:500px;''></img><p>If you have memorised all the portraits and names and are ready to start, press Continue.</p><p><strong>Please note: Your memory of these faces will be tested 4 times during this experiment.</strong></p>",0,html-button-response,350,1226500,0.0-18.0-0.0,61626,List2B,black,man,,,,,,,,
1279,"<img src=""portrait/BW2.jpg""style=""height:400px;""></img>",2,html-button-response,351,1228780,0.0-18.0-1.0,61626,List2B,black,man,,TRUE,2,,,,,
null,CORRECT,,html-keyboard-response,352,1230282,0.0-18.0-2.0-0.0,61626,List2B,black,man,,,,null,,,,
1241,"<img src=""portrait/WW1.jpg""style=""height:400px;""></img>",1,html-button-response,353,1231524,0.0-18.0-4.0,61626,List2B,black,man,,TRUE,1,,,,,
null,CORRECT,,html-keyboard-response,354,1233026,0.0-18.0-5.0-0.0,61626,List2B,black,man,,,,null,,,,
1424,"<img src=""portrait/WM2.jpg""style=""height:400px;""></img>",7,html-button-response,355,1234452,0.0-18.0-7.0,61626,List2B,black,man,,TRUE,7,,,,,
null,CORRECT,,html-keyboard-response,356,1235956,0.0-18.0-8.0-0.0,61626,List2B,black,man,,,,null,,,,
1454,"<img src=""portrait/BW1.jpg""style=""height:400px;""></img>",0,html-button-response,357,1237412,0.0-18.0-10.0,61626,List2B,black,man,,TRUE,0,,,,,
null,CORRECT,,html-keyboard-response,358,1238915,0.0-18.0-11.0-0.0,61626,List2B,black,man,,,,null,,,,
1143,"<img src=""portrait/BM1.jpg""style=""height:400px;""></img>",4,html-button-response,359,1240060,0.0-18.0-13.0,61626,List2B,black,man,,TRUE,4,,,,,
null,CORRECT,,html-keyboard-response,360,1241562,0.0-18.0-14.0-0.0,61626,List2B,black,man,,,,null,,,,
1256,"<img src=""portrait/WW2.jpg""style=""height:400px;""></img>",3,html-button-response,361,1242820,0.0-18.0-16.0,61626,List2B,black,man,,TRUE,3,,,,,
null,CORRECT,,html-keyboard-response,362,1244321,0.0-18.0-17.0-0.0,61626,List2B,black,man,,,,null,,,,
1681,"<img src=""portrait/WM1.jpg""style=""height:400px;""></img>",6,html-button-response,363,1246004,0.0-18.0-19.0,61626,List2B,black,man,,TRUE,6,,,,,
null,CORRECT,,html-keyboard-response,364,1247506,0.0-18.0-20.0-0.0,61626,List2B,black,man,,,,null,,,,
665,"<img src=""portrait/BM2.jpg""style=""height:400px;""></img>",5,html-button-response,365,1248172,0.0-18.0-22.0,61626,List2B,black,man,,TRUE,5,,,,,
null,CORRECT,,html-keyboard-response,366,1249674,0.0-18.0-23.0-0.0,61626,List2B,black,man,,,,null,,,,
945,<p>You got 8 out of 8 right first time. Press Continue.</p>,0,html-button-response,367,1250620,0.0-18.0-25.0,61626,List2B,black,man,,,,,,,,
null,"<div style=""font-size:60px;"">+</div>",,html-keyboard-response,368,1252123,0.0-19.0-0.0,61626,List2B,black,man,,,,null,,,,
null,"<img src=""stim_listB/play5.gif""style=""height:400px;""></stim_listB>",,html-keyboard-response,369,1254127,0.0-19.0-1.0,61626,List2B,black,man,,,,null,,,,
null,is playing with,,html-keyboard-response,370,1256129,0.0-19.0-2.0,61626,List2B,black,man,,,,null,,,,
6105,,,survey-text,371,1262235,0.0-19.0-3.0,61626,List2B,black,man,,,,,"{""Q0"":""mike is playing with dave""}","<img src=""stim_listB/play5.gif""style=""height:400px;""></stim_listB>",is playing with,
null,"<div style=""font-size:60px;"">+</div>",,html-keyboard-response,372,1262737,0.0-19.0-0.1,61626,List2B,black,man,,,,null,,,,
null,"<img src=""stim_listB/dance6.gif""style=""height:400px;""></stim_listB>",,html-keyboard-response,373,1264739,0.0-19.0-1.1,61626,List2B,black,man,,,,null,,,,
null,are dancing with each other,,html-keyboard-response,374,1266740,0.0-19.0-2.1,61626,List2B,black,man,,,,null,,,,
5782,,,survey-text,375,1272523,0.0-19.0-3.1,61626,List2B,black,man,,,,,"{""Q0"":""dave and fred are playing""}","<img src=""stim_listB/dance6.gif""style=""height:400px;""></stim_listB>",are dancing with each other,
null,"<div style=""font-size:60px;"">+</div>",,html-keyboard-response,376,1273025,0.0-19.0-0.2,61626,List2B,black,man,,,,null,,,,
null,"<img src=""stim_listB/fight1.gif""style=""height:400px;""></stim_listB>",,html-keyboard-response,377,1275026,0.0-19.0-1.2,61626,List2B,black,man,,,,null,,,,
null,is fighting,,html-keyboard-response,378,1277027,0.0-19.0-2.2,61626,List2B,black,man,,,,null,,,,
4479,,,survey-text,379,1281507,0.0-19.0-3.2,61626,List2B,black,man,,,,,"{""Q0"":""jane is fighting dave""}","<img src=""stim_listB/fight1.gif""style=""height:400px;""></stim_listB>",is fighting,
null,"<div style=""font-size:60px;"">+</div>",,html-keyboard-response,380,1282009,0.0-19.0-0.3,61626,List2B,black,man,,,,null,,,,
null,"<img src=""stim_listB/dance3.gif""style=""height:400px;""></stim_listB>",,html-keyboard-response,381,1284010,0.0-19.0-1.3,61626,List2B,black,man,,,,null,,,,
null,is dancing with,,html-keyboard-response,382,1286011,0.0-19.0-2.3,61626,List2B,black,man,,,,null,,,,
8664,,,survey-text,383,1294677,0.0-19.0-3.3,61626,List2B,black,man,,,,,"{""Q0"":""fred is dancing with kate""}","<img src=""stim_listB/dance3.gif""style=""height:400px;""></stim_listB>",is dancing with,
null,"<div style=""font-size:60px;"">+</div>",,html-keyboard-response,384,1295180,0.0-19.0-0.4,61626,List2B,black,man,,,,null,,,,
null,"<img src=""stim_listB/marry6.gif""style=""height:400px;""></stim_listB>",,html-keyboard-response,385,1297182,0.0-19.0-1.4,61626,List2B,black,man,,,,null,,,,
null,are marrying each other,,html-keyboard-response,386,1299185,0.0-19.0-2.4,61626,List2B,black,man,,,,null,,,,
118258,,,survey-text,387,1417445,0.0-19.0-3.4,61626,List2B,black,man,,,,,"{""Q0"":""luke and beth are marrying.""}","<img src=""stim_listB/marry6.gif""style=""height:400px;""></stim_listB>",are marrying each other,
null,"<div style=""font-size:60px;"">+</div>",,html-keyboard-response,388,1417946,0.0-19.0-0.5,61626,List2B,black,man,,,,null,,,,
null,"<img src=""stim_listB/argue5.gif""style=""height:400px;""></stim_listB>",,html-keyboard-response,389,1419949,0.0-19.0-1.5,61626,List2B,black,man,,,,null,,,,
null,is arguing with,,html-keyboard-response,390,1421949,0.0-19.0-2.5,61626,List2B,black,man,,,,null,,,,
7302,,,survey-text,391,1429253,0.0-19.0-3.5,61626,List2B,black,man,,,,,"{""Q0"":""fred is arguing with dave""}","<img src=""stim_listB/argue5.gif""style=""height:400px;""></stim_listB>",is arguing with,
null,"<div style=""font-size:60px;"">+</div>",,html-keyboard-response,392,1429754,0.0-19.0-0.6,61626,List2B,black,man,,,,null,,,,
null,"<img src=""stim_listB/talk8.gif""style=""height:400px;""></stim_listB>",,html-keyboard-response,393,1431756,0.0-19.0-1.6,61626,List2B,black,man,,,,null,,,,
null,are talking to each other,,html-keyboard-response,394,1433756,0.0-19.0-2.6,61626,List2B,black,man,,,,null,,,,
22695,,,survey-text,395,1456452,0.0-19.0-3.6,61626,List2B,black,man,,,,,"{""Q0"":""jane is arguing with beth""}","<img src=""stim_listB/talk8.gif""style=""height:400px;""></stim_listB>",are talking to each other,
null,"<div style=""font-size:60px;"">+</div>",,html-keyboard-response,396,1456954,0.0-19.0-0.7,61626,List2B,black,man,,,,null,,,,
null,"<img src=""stim_listB/play4.gif""style=""height:400px;""></stim_listB>",,html-keyboard-response,397,1458955,0.0-19.0-1.7,61626,List2B,black,man,,,,null,,,,
null,are playing with each other,,html-keyboard-response,398,1460957,0.0-19.0-2.7,61626,List2B,black,man,,,,null,,,,
14847,,,survey-text,399,1475804,0.0-19.0-3.7,61626,List2B,black,man,,,,,"{""Q0"":""fred is playing with ruth""}","<img src=""stim_listB/play4.gif""style=""height:400px;""></stim_listB>",are playing with each other,
null,"<div style=""font-size:60px;"">+</div>",,html-keyboard-response,400,1476306,0.0-19.0-0.8,61626,List2B,black,man,,,,null,,,,
null,"<img src=""stim_listB/play7.gif""style=""height:400px;""></stim_listB>",,html-keyboard-response,401,1478307,0.0-19.0-1.8,61626,List2B,black,man,,,,null,,,,
null,is playing with,,html-keyboard-response,402,1480307,0.0-19.0-2.8,61626,List2B,black,man,,,,null,,,,
7449,,,survey-text,403,1487756,0.0-19.0-3.8,61626,List2B,black,man,,,,,"{""Q0"":""jane is playing with kate""}","<img src=""stim_listB/play7.gif""style=""height:400px;""></stim_listB>",is playing with,
null,"<div style=""font-size:60px;"">+</div>",,html-keyboard-response,404,1488257,0.0-19.0-0.9,61626,List2B,black,man,,,,null,,,,
null,"<img src=""stim_listB/marry3.gif""style=""height:400px;""></stim_listB>",,html-keyboard-response,405,1490258,0.0-19.0-1.9,61626,List2B,black,man,,,,null,,,,
null,is marrying,,html-keyboard-response,406,1492259,0.0-19.0-2.9,61626,List2B,black,man,,,,null,,,,
28169,,,survey-text,407,1520428,0.0-19.0-3.9,61626,List2B,black,man,,,,,"{""Q0"":""mike is playing with beth""}","<img src=""stim_listB/marry3.gif""style=""height:400px;""></stim_listB>",is marrying,
null,"<div style=""font-size:60px;"">+</div>",,html-keyboard-response,408,1520930,0.0-19.0-0.10,61626,List2B,black,man,,,,null,,,,
null,"<img src=""stim_listB/talk4.gif""style=""height:400px;""></stim_listB>",,html-keyboard-response,409,1522931,0.0-19.0-1.10,61626,List2B,black,man,,,,null,,,,
null,are talking to each other,,html-keyboard-response,410,1524933,0.0-19.0-2.10,61626,List2B,black,man,,,,null,,,,
7191,,,survey-text,411,1532124,0.0-19.0-3.10,61626,List2B,black,man,,,,,"{""Q0"":""mike and beth are talking to each other""}","<img src=""stim_listB/talk4.gif""style=""height:400px;""></stim_listB>",are talking to each other,
null,"<div style=""font-size:60px;"">+</div>",,html-keyboard-response,412,1532625,0.0-19.0-0.11,61626,List2B,black,man,,,,null,,,,
null,"<img src=""stim_listB/touch4.gif""style=""height:400px;""></stim_listB>",,html-keyboard-response,413,1534627,0.0-19.0-1.11,61626,List2B,black,man,,,,null,,,,
null,are touching each other,,html-keyboard-response,414,1536628,0.0-19.0-2.11,61626,List2B,black,man,,,,null,,,,
8222,,,survey-text,415,1544850,0.0-19.0-3.11,61626,List2B,black,man,,,,,"{""Q0"":""mike and beth are touching each other""}","<img src=""stim_listB/touch4.gif""style=""height:400px;""></stim_listB>",are touching each other,
null,"<div style=""font-size:60px;"">+</div>",,html-keyboard-response,416,1545353,0.0-19.0-0.12,61626,List2B,black,man,,,,null,,,,
null,"<img src=""stim_listB/talk6.gif""style=""height:400px;""></stim_listB>",,html-keyboard-response,417,1547353,0.0-19.0-1.12,61626,List2B,black,man,,,,null,,,,
null,are talking to each other,,html-keyboard-response,418,1549355,0.0-19.0-2.12,61626,List2B,black,man,,,,null,,,,
6111,,,survey-text,419,1555467,0.0-19.0-3.12,61626,List2B,black,man,,,,,"{""Q0"":""fred and dave are talking to each other""}","<img src=""stim_listB/talk6.gif""style=""height:400px;""></stim_listB>",are talking to each other,
null,"<div style=""font-size:60px;"">+</div>",,html-keyboard-response,420,1555968,0.0-19.0-0.13,61626,List2B,black,man,,,,null,,,,
null,"<img src=""stim_listB/touch5.gif""style=""height:400px;""></stim_listB>",,html-keyboard-response,421,1557970,0.0-19.0-1.13,61626,List2B,black,man,,,,null,,,,
null,is touching,,html-keyboard-response,422,1559970,0.0-19.0-2.13,61626,List2B,black,man,,,,null,,,,
5959,,,survey-text,423,1565930,0.0-19.0-3.13,61626,List2B,black,man,,,,,"{""Q0"":""mike and dave are touching""}","<img src=""stim_listB/touch5.gif""style=""height:400px;""></stim_listB>",is touching,
null,"<div style=""font-size:60px;"">+</div>",,html-keyboard-response,424,1566432,0.0-19.0-0.14,61626,List2B,black,man,,,,null,,,,
null,"<img src=""stim_listB/fight2.gif""style=""height:400px;""></stim_listB>",,html-keyboard-response,425,1568434,0.0-19.0-1.14,61626,List2B,black,man,,,,null,,,,
null,are fighting each other,,html-keyboard-response,426,1570436,0.0-19.0-2.14,61626,List2B,black,man,,,,null,,,,
7926,,,survey-text,427,1578363,0.0-19.0-3.14,61626,List2B,black,man,,,,,"{""Q0"":""ruth and luke are fighting each other""}","<img src=""stim_listB/fight2.gif""style=""height:400px;""></stim_listB>",are fighting each other,
null,"<div style=""font-size:60px;"">+</div>",,html-keyboard-response,428,1578864,0.0-19.0-0.15,61626,List2B,black,man,,,,null,,,,
null,"<img src=""stim_listB/dance1.gif""style=""height:400px;""></stim_listB>",,html-keyboard-response,429,1580866,0.0-19.0-1.15,61626,List2B,black,man,,,,null,,,,
null,is dancing with,,html-keyboard-response,430,1582867,0.0-19.0-2.15,61626,List2B,black,man,,,,null,,,,
4870,,,survey-text,431,1587738,0.0-19.0-3.15,61626,List2B,black,man,,,,,"{""Q0"":""luke is dancing with jane""}","<img src=""stim_listB/dance1.gif""style=""height:400px;""></stim_listB>",is dancing with,
null,"<div style=""font-size:60px;"">+</div>",,html-keyboard-response,432,1588240,0.0-19.0-0.16,61626,List2B,black,man,,,,null,,,,
null,"<img src=""stim_listB/shout6.gif""style=""height:400px;""></stim_listB>",,html-keyboard-response,433,1590242,0.0-19.0-1.16,61626,List2B,black,man,,,,null,,,,
null,are shouting at each other,,html-keyboard-response,434,1592243,0.0-19.0-2.16,61626,List2B,black,man,,,,null,,,,
6750,,,survey-text,435,1598993,0.0-19.0-3.16,61626,List2B,black,man,,,,,"{""Q0"":""mike and dave are shouting at each other""}","<img src=""stim_listB/shout6.gif""style=""height:400px;""></stim_listB>",are shouting at each other,
null,"<div style=""font-size:60px;"">+</div>",,html-keyboard-response,436,1599495,0.0-19.0-0.17,61626,List2B,black,man,,,,null,,,,
null,"<img src=""stim_listB/argue4.gif""style=""height:400px;""></stim_listB>",,html-keyboard-response,437,1601497,0.0-19.0-1.17,61626,List2B,black,man,,,,null,,,,
null,are arguing with each other,,html-keyboard-response,438,1603497,0.0-19.0-2.17,61626,List2B,black,man,,,,null,,,,
11975,,,survey-text,439,1615473,0.0-19.0-3.17,61626,List2B,black,man,,,,,"{""Q0"":""fred is arguing with kate""}","<img src=""stim_listB/argue4.gif""style=""height:400px;""></stim_listB>",are arguing with each other,
null,"<div style=""font-size:60px;"">+</div>",,html-keyboard-response,440,1615975,0.0-19.0-0.18,61626,List2B,black,man,,,,null,,,,
null,"<img src=""stim_listB/play1.gif""style=""height:400px;""></stim_listB>",,html-keyboard-response,441,1617976,0.0-19.0-1.18,61626,List2B,black,man,,,,null,,,,
null,is playing with,,html-keyboard-response,442,1619977,0.0-19.0-2.18,61626,List2B,black,man,,,,null,,,,
5032,,,survey-text,443,1625009,0.0-19.0-3.18,61626,List2B,black,man,,,,,"{""Q0"":""jane is playing with dave""}","<img src=""stim_listB/play1.gif""style=""height:400px;""></stim_listB>",is playing with,
null,"<div style=""font-size:60px;"">+</div>",,html-keyboard-response,444,1625511,0.0-19.0-0.19,61626,List2B,black,man,,,,null,,,,
null,"<img src=""stim_listB/touch1.gif""style=""height:400px;""></stim_listB>",,html-keyboard-response,445,1627513,0.0-19.0-1.19,61626,List2B,black,man,,,,null,,,,
null,is touching,,html-keyboard-response,446,1629515,0.0-19.0-2.19,61626,List2B,black,man,,,,null,,,,
4302,,,survey-text,447,1633817,0.0-19.0-3.19,61626,List2B,black,man,,,,,"{""Q0"":""dave is touching jane""}","<img src=""stim_listB/touch1.gif""style=""height:400px;""></stim_listB>",is touching,
2047,<p>Thank you for completing that task.</p><p>The final part of this session is a short questionnaire.</p><p>Press Continue.</p>,0,html-button-response,448,1635865,0.0-20.0,61626,List2B,black,man,,,,,,,,
13519,,,survey-text,449,1650385,0.0-21.0,61626,List2B,black,man,,,,,"{""Q0"":""32"",""Q1"":""english"",""Q2"":""english"",""Q3"":""usa"",""Q4"":""black"",""Q5"":""male""}",,,demographics
3487,,,survey-likert,450,1653874,0.0-22.0,61626,List2B,black,man,,,,,"{""Q0"":3}",,,likert_ESS
9951,,,survey-likert,451,1663825,0.0-23.0,61626,List2B,black,man,,,,,"{""Q0"":5}",,,likert_NSSAL_Q1
3159,,,survey-likert,452,1666985,0.0-24.0,61626,List2B,black,man,,,,,"{""Q0"":5}",,,likert_NSSAL_Q2
2879,,,survey-likert,453,1669865,0.0-25.0,61626,List2B,black,man,,,,,"{""Q0"":3}",,,likert_CGRS_Q1
2391,,,survey-likert,454,1672257,0.0-26.0,61626,List2B,black,man,,,,,"{""Q0"":3}",,,likert_CGRS_Q2
2143,,,survey-likert,455,1674401,0.0-27.0,61626,List2B,black,man,,,,,"{""Q0"":3}",,,likert_CGRS_Q3
9424,,,survey-text,456,1683825,0.0-28.0,61626,List2B,black,man,,,,,"{""Q0"":""ccc""}",,,worker_id
9619,,,external-html,457,1693649,0.0-29.0,61626,List2B,black,man,debrief.html,,,,,,,
