rt,stimulus,button_pressed,trial_type,trial_index,time_elapsed,internal_node_id,subject,list,ppt_race,ppt_gender,url,first_guess,correct,key_press,responses,image_type,phrase_type,test_part
2581,Welcome to the experiment. Press Continue to begin.,0,html-button-response,0,2586,0.0-0.0,62328,List1B,white,man,,,,,,,,
7287,,,external-html,1,10918,0.0-1.0,62328,List1B,white,man,consent.html,,,,,,,
3862,"<p>On the next page, you will see portraits of 8 people and their names.</p><p>Your first task is to take a few minutes to memorise the names of these people.</p><p>You will have to recall their names during the rest of the experiment, so it is</p><p>essential that you try to memorise these people and their names as best as you can.</p><br><p><strong>You will then be tested on your memory of these names and portraits.</strong></p><br><p>The experiment will start after you have completed this memory test.</p><br><p>Ready?</p>",0,html-button-response,2,14783,0.0-2.0,62328,List1B,white,man,,,,,,,,
37320,"<img src='img/portrait_matrix_list1.jpg' style='width:900px;height:500px;''></img><p>If you have memorised all the portraits and names and are ready to start, press Continue.</p><p><strong>Please note: Your memory of these faces will be tested 4 times during this experiment.</strong></p>",0,html-button-response,3,53109,0.0-3.0-0.0,62328,List1B,white,man,,,,,,,,
2085,"<img src=""portrait/WM2.jpg""style=""height:400px;""></img>",4,html-button-response,4,56199,0.0-3.0-1.0,62328,List1B,white,man,,TRUE,7,,,,,
4750,"<img src=""portrait/WM2.jpg""style=""height:400px;""></img>",7,html-button-response,5,61959,0.0-3.0-3.0-0.0,62328,List1B,white,man,,FALSE,7,,,,,
null,CORRECT,,html-keyboard-response,6,63469,0.0-3.0-3.0-1.0-0.0,62328,List1B,white,man,,,,null,,,,
3772,"<img src=""portrait/BW1.jpg""style=""height:400px;""></img>",0,html-button-response,7,67244,0.0-3.0-4.0,62328,List1B,white,man,,TRUE,0,,,,,
null,CORRECT,,html-keyboard-response,8,68751,0.0-3.0-5.0-0.0,62328,List1B,white,man,,,,null,,,,
7359,"<img src=""portrait/BW2.jpg""style=""height:400px;""></img>",2,html-button-response,9,76112,0.0-3.0-7.0,62328,List1B,white,man,,TRUE,2,,,,,
null,CORRECT,,html-keyboard-response,10,77621,0.0-3.0-8.0-0.0,62328,List1B,white,man,,,,null,,,,
3555,"<img src=""portrait/WW2.jpg""style=""height:400px;""></img>",3,html-button-response,11,81179,0.0-3.0-10.0,62328,List1B,white,man,,TRUE,3,,,,,
null,CORRECT,,html-keyboard-response,12,82687,0.0-3.0-11.0-0.0,62328,List1B,white,man,,,,null,,,,
4257,"<img src=""portrait/BM2.jpg""style=""height:400px;""></img>",5,html-button-response,13,86946,0.0-3.0-13.0,62328,List1B,white,man,,TRUE,5,,,,,
null,CORRECT,,html-keyboard-response,14,88454,0.0-3.0-14.0-0.0,62328,List1B,white,man,,,,null,,,,
2119,"<img src=""portrait/BM1.jpg""style=""height:400px;""></img>",4,html-button-response,15,90576,0.0-3.0-16.0,62328,List1B,white,man,,TRUE,4,,,,,
null,CORRECT,,html-keyboard-response,16,92085,0.0-3.0-17.0-0.0,62328,List1B,white,man,,,,null,,,,
2245,"<img src=""portrait/WW1.jpg""style=""height:400px;""></img>",2,html-button-response,17,94334,0.0-3.0-19.0,62328,List1B,white,man,,TRUE,1,,,,,
2071,"<img src=""portrait/WW1.jpg""style=""height:400px;""></img>",1,html-button-response,18,97413,0.0-3.0-21.0-0.0,62328,List1B,white,man,,FALSE,1,,,,,
null,CORRECT,,html-keyboard-response,19,98924,0.0-3.0-21.0-1.0-0.0,62328,List1B,white,man,,,,null,,,,
2448,"<img src=""portrait/WM1.jpg""style=""height:400px;""></img>",6,html-button-response,20,101376,0.0-3.0-22.0,62328,List1B,white,man,,TRUE,6,,,,,
null,CORRECT,,html-keyboard-response,21,102883,0.0-3.0-23.0-0.0,62328,List1B,white,man,,,,null,,,,
1698,<p>You got 6 out of 8 right first time. Press Continue.</p>,0,html-button-response,22,104583,0.0-3.0-25.0,62328,List1B,white,man,,,,,,,,
2145,"As you did not score 100%, the memory game will repeat. Press Continue.",0,html-button-response,23,107735,0.0-3.0-26.0-0.0,62328,List1B,white,man,,,,,,,,
1571,"<img src='img/portrait_matrix_list1.jpg' style='width:900px;height:500px;''></img><p>If you have memorised all the portraits and names and are ready to start, press Continue.</p><p><strong>Please note: Your memory of these faces will be tested 4 times during this experiment.</strong></p>",0,html-button-response,24,110314,0.0-3.1-0.1,62328,List1B,white,man,,,,,,,,
1725,"<img src=""portrait/WM2.jpg""style=""height:400px;""></img>",7,html-button-response,25,113044,0.0-3.1-1.1,62328,List1B,white,man,,TRUE,7,,,,,
null,CORRECT,,html-keyboard-response,26,114550,0.0-3.1-2.1-0.1,62328,List1B,white,man,,,,null,,,,
6472,"<img src=""portrait/BW1.jpg""style=""height:400px;""></img>",0,html-button-response,27,121024,0.0-3.1-4.1,62328,List1B,white,man,,TRUE,0,,,,,
null,CORRECT,,html-keyboard-response,28,122532,0.0-3.1-5.1-0.1,62328,List1B,white,man,,,,null,,,,
8244,"<img src=""portrait/BW2.jpg""style=""height:400px;""></img>",2,html-button-response,29,130779,0.0-3.1-7.1,62328,List1B,white,man,,TRUE,2,,,,,
null,CORRECT,,html-keyboard-response,30,132290,0.0-3.1-8.1-0.1,62328,List1B,white,man,,,,null,,,,
1772,"<img src=""portrait/WW2.jpg""style=""height:400px;""></img>",1,html-button-response,31,134065,0.0-3.1-10.1,62328,List1B,white,man,,TRUE,3,,,,,
1535,"<img src=""portrait/WW2.jpg""style=""height:400px;""></img>",3,html-button-response,32,136608,0.0-3.1-12.1-0.1,62328,List1B,white,man,,FALSE,3,,,,,
null,CORRECT,,html-keyboard-response,33,138117,0.0-3.1-12.1-1.1-0.1,62328,List1B,white,man,,,,null,,,,
2231,"<img src=""portrait/BM2.jpg""style=""height:400px;""></img>",5,html-button-response,34,140351,0.0-3.1-13.1,62328,List1B,white,man,,TRUE,5,,,,,
null,CORRECT,,html-keyboard-response,35,141857,0.0-3.1-14.1-0.1,62328,List1B,white,man,,,,null,,,,
1962,"<img src=""portrait/BM1.jpg""style=""height:400px;""></img>",4,html-button-response,36,143822,0.0-3.1-16.1,62328,List1B,white,man,,TRUE,4,,,,,
null,CORRECT,,html-keyboard-response,37,145329,0.0-3.1-17.1-0.1,62328,List1B,white,man,,,,null,,,,
2346,"<img src=""portrait/WW1.jpg""style=""height:400px;""></img>",2,html-button-response,38,147678,0.0-3.1-19.1,62328,List1B,white,man,,TRUE,1,,,,,
1624,"<img src=""portrait/WW1.jpg""style=""height:400px;""></img>",1,html-button-response,39,150305,0.0-3.1-21.1-0.1,62328,List1B,white,man,,FALSE,1,,,,,
null,CORRECT,,html-keyboard-response,40,151812,0.0-3.1-21.1-1.1-0.1,62328,List1B,white,man,,,,null,,,,
2147,"<img src=""portrait/WM1.jpg""style=""height:400px;""></img>",6,html-button-response,41,153963,0.0-3.1-22.1,62328,List1B,white,man,,TRUE,6,,,,,
null,CORRECT,,html-keyboard-response,42,155474,0.0-3.1-23.1-0.1,62328,List1B,white,man,,,,null,,,,
1123,<p>You got 6 out of 8 right first time. Press Continue.</p>,0,html-button-response,43,156599,0.0-3.1-25.1,62328,List1B,white,man,,,,,,,,
1280,"As you did not score 100%, the memory game will repeat. Press Continue.",0,html-button-response,44,158885,0.0-3.1-26.1-0.1,62328,List1B,white,man,,,,,,,,
1397,"<img src='img/portrait_matrix_list1.jpg' style='width:900px;height:500px;''></img><p>If you have memorised all the portraits and names and are ready to start, press Continue.</p><p><strong>Please note: Your memory of these faces will be tested 4 times during this experiment.</strong></p>",0,html-button-response,45,161287,0.0-3.2-0.2,62328,List1B,white,man,,,,,,,,
3932,"<img src=""portrait/WM2.jpg""style=""height:400px;""></img>",7,html-button-response,46,166225,0.0-3.2-1.2,62328,List1B,white,man,,TRUE,7,,,,,
null,CORRECT,,html-keyboard-response,47,167735,0.0-3.2-2.2-0.2,62328,List1B,white,man,,,,null,,,,
2093,"<img src=""portrait/BW1.jpg""style=""height:400px;""></img>",0,html-button-response,48,169830,0.0-3.2-4.2,62328,List1B,white,man,,TRUE,0,,,,,
null,CORRECT,,html-keyboard-response,49,171340,0.0-3.2-5.2-0.2,62328,List1B,white,man,,,,null,,,,
3790,"<img src=""portrait/BW2.jpg""style=""height:400px;""></img>",2,html-button-response,50,175132,0.0-3.2-7.2,62328,List1B,white,man,,TRUE,2,,,,,
null,CORRECT,,html-keyboard-response,51,176638,0.0-3.2-8.2-0.2,62328,List1B,white,man,,,,null,,,,
2498,"<img src=""portrait/WW2.jpg""style=""height:400px;""></img>",3,html-button-response,52,179138,0.0-3.2-10.2,62328,List1B,white,man,,TRUE,3,,,,,
null,CORRECT,,html-keyboard-response,53,180645,0.0-3.2-11.2-0.2,62328,List1B,white,man,,,,null,,,,
1950,"<img src=""portrait/BM2.jpg""style=""height:400px;""></img>",5,html-button-response,54,182600,0.0-3.2-13.2,62328,List1B,white,man,,TRUE,5,,,,,
null,CORRECT,,html-keyboard-response,55,184108,0.0-3.2-14.2-0.2,62328,List1B,white,man,,,,null,,,,
1030,"<img src=""portrait/BM1.jpg""style=""height:400px;""></img>",4,html-button-response,56,185141,0.0-3.2-16.2,62328,List1B,white,man,,TRUE,4,,,,,
null,CORRECT,,html-keyboard-response,57,186652,0.0-3.2-17.2-0.2,62328,List1B,white,man,,,,null,,,,
5438,"<img src=""portrait/WW1.jpg""style=""height:400px;""></img>",1,html-button-response,58,192091,0.0-3.2-19.2,62328,List1B,white,man,,TRUE,1,,,,,
null,CORRECT,,html-keyboard-response,59,193601,0.0-3.2-20.2-0.2,62328,List1B,white,man,,,,null,,,,
2144,"<img src=""portrait/WM1.jpg""style=""height:400px;""></img>",6,html-button-response,60,195749,0.0-3.2-22.2,62328,List1B,white,man,,TRUE,6,,,,,
null,CORRECT,,html-keyboard-response,61,197258,0.0-3.2-23.2-0.2,62328,List1B,white,man,,,,null,,,,
1367,<p>You got 8 out of 8 right first time. Press Continue.</p>,0,html-button-response,62,198627,0.0-3.2-25.2,62328,List1B,white,man,,,,,,,,
25827,"<p>In this experiment, you will view photographs of the people from the memory game interacting.</p><p>By using the <strong>exact</strong> phrase given <i>after</i> the photograph appears and recalling the correct names of the people in the photographs, form a sentence describing the interaction. You do not need to capitalise names.</p><p>Type your answer in the space provided. Please complete every sentence before moving onto the next trial.</p><p>You will only have a few seconds to memorise each given photograph and phrase before you can respond, so try your best to focus.</p><p>An example is given below. Press 'Continue' when you are ready.</p><img src='img/speaking_example.jpg' style='width:800px;height:460px;''></img>",0,html-button-response,63,225461,0.0-4.0,62328,List1B,white,man,,,,,,,,
2025,"<p>Before the experiment starts, you will watch two example trials. Press 'Continue'.</p>",0,html-button-response,64,228489,0.0-5.0,62328,List1B,white,man,,,,,,,,
null,<img src='img/meet_eg.gif' style='height:400px;''></img>,,html-keyboard-response,65,231496,0.0-6.0,62328,List1B,white,man,,,,null,,,,
null,<p>is meeting</p>,,html-keyboard-response,66,233502,0.0-7.0,62328,List1B,white,man,,,,null,,,,
1851,<p><b>Answer:</b> kate is meeting beth</p>,0,html-button-response,67,235353,0.0-8.0,62328,List1B,white,man,,,,,,,,
null,<img src='img/look_eg.gif' style='height:400px;''></img>,,html-keyboard-response,68,238362,0.0-9.0,62328,List1B,white,man,,,,null,,,,
null,<p>are looking at each other</p>,,html-keyboard-response,69,240365,0.0-10.0,62328,List1B,white,man,,,,null,,,,
3192,<p><b>Answer:</b> luke and dave are looking at each other</p>,0,html-button-response,70,243558,0.0-11.0,62328,List1B,white,man,,,,,,,,
10582,"<p>Ready to start the experiment?</p><br><p><strong>Remember to describe the picture using a full sentence,</strong></p><p><strong>that combines the names of the people with the <i>exact</i> phrase given.</strong></p><p><strong>To receive full payment you must do this correctly.</strong></p><p><strong> You do not need to capitalise names or use punctuation.</strong></p><br><p>Press 'Continue' to begin.</p>",0,html-button-response,71,255146,0.0-12.0,62328,List1B,white,man,,,,,,,,
null,"<div style=""font-size:60px;"">+</div>",,html-keyboard-response,72,256654,0.0-13.0-0.0,62328,List1B,white,man,,,,null,,,,
null,"<img src=""stim_listB/kiss6.gif""style=""height:400px;""></stim_listB>",,html-keyboard-response,73,258657,0.0-13.0-1.0,62328,List1B,white,man,,,,null,,,,
null,are kissing each other,,html-keyboard-response,74,260658,0.0-13.0-2.0,62328,List1B,white,man,,,,null,,,,
13895,,,survey-text,75,274556,0.0-13.0-3.0,62328,List1B,white,man,,,,,"{""Q0"":""mike and dave are kissing eachother""}","<img src=""stim_listB/kiss6.gif""style=""height:400px;""></stim_listB>",are kissing each other,
null,"<div style=""font-size:60px;"">+</div>",,html-keyboard-response,76,275062,0.0-13.0-0.1,62328,List1B,white,man,,,,null,,,,
null,"<img src=""stim_listB/dance6.gif""style=""height:400px;""></stim_listB>",,html-keyboard-response,77,277064,0.0-13.0-1.1,62328,List1B,white,man,,,,null,,,,
null,are dancing with each other,,html-keyboard-response,78,279066,0.0-13.0-2.1,62328,List1B,white,man,,,,null,,,,
10430,,,survey-text,79,289498,0.0-13.0-3.1,62328,List1B,white,man,,,,,"{""Q0"":""mike and luke are dancing with eachother""}","<img src=""stim_listB/dance6.gif""style=""height:400px;""></stim_listB>",are dancing with each other,
null,"<div style=""font-size:60px;"">+</div>",,html-keyboard-response,80,290001,0.0-13.0-0.2,62328,List1B,white,man,,,,null,,,,
null,"<img src=""stim_listB/dance3.gif""style=""height:400px;""></stim_listB>",,html-keyboard-response,81,292004,0.0-13.0-1.2,62328,List1B,white,man,,,,null,,,,
null,is dancing with,,html-keyboard-response,82,294008,0.0-13.0-2.2,62328,List1B,white,man,,,,null,,,,
26024,,,survey-text,83,320035,0.0-13.0-3.2,62328,List1B,white,man,,,,,"{""Q0"":""luke and beth are dancing with eachother""}","<img src=""stim_listB/dance3.gif""style=""height:400px;""></stim_listB>",is dancing with,
null,"<div style=""font-size:60px;"">+</div>",,html-keyboard-response,84,320538,0.0-13.0-0.3,62328,List1B,white,man,,,,null,,,,
null,"<img src=""stim_listB/flirt4.gif""style=""height:400px;""></stim_listB>",,html-keyboard-response,85,322544,0.0-13.0-1.3,62328,List1B,white,man,,,,null,,,,
null,are flirting with each other,,html-keyboard-response,86,324545,0.0-13.0-2.3,62328,List1B,white,man,,,,null,,,,
11055,,,survey-text,87,335602,0.0-13.0-3.3,62328,List1B,white,man,,,,,"{""Q0"":""dave and beth are flirting with eachother""}","<img src=""stim_listB/flirt4.gif""style=""height:400px;""></stim_listB>",are flirting with each other,
null,"<div style=""font-size:60px;"">+</div>",,html-keyboard-response,88,336110,0.0-13.0-0.4,62328,List1B,white,man,,,,null,,,,
null,"<img src=""stim_listB/play1.gif""style=""height:400px;""></stim_listB>",,html-keyboard-response,89,338113,0.0-13.0-1.4,62328,List1B,white,man,,,,null,,,,
null,is playing with,,html-keyboard-response,90,340116,0.0-13.0-2.4,62328,List1B,white,man,,,,null,,,,
5006,,,survey-text,91,345123,0.0-13.0-3.4,62328,List1B,white,man,,,,,"{""Q0"":""mike is playing with kate""}","<img src=""stim_listB/play1.gif""style=""height:400px;""></stim_listB>",is playing with,
null,"<div style=""font-size:60px;"">+</div>",,html-keyboard-response,92,345627,0.0-13.0-0.5,62328,List1B,white,man,,,,null,,,,
null,"<img src=""stim_listB/touch7.gif""style=""height:400px;""></stim_listB>",,html-keyboard-response,93,347633,0.0-13.0-1.5,62328,List1B,white,man,,,,null,,,,
null,is touching,,html-keyboard-response,94,349636,0.0-13.0-2.5,62328,List1B,white,man,,,,null,,,,
6096,,,survey-text,95,355733,0.0-13.0-3.5,62328,List1B,white,man,,,,,"{""Q0"":""kate is touching beth""}","<img src=""stim_listB/touch7.gif""style=""height:400px;""></stim_listB>",is touching,
null,"<div style=""font-size:60px;"">+</div>",,html-keyboard-response,96,356236,0.0-13.0-0.6,62328,List1B,white,man,,,,null,,,,
null,"<img src=""stim_listB/fight4.gif""style=""height:400px;""></stim_listB>",,html-keyboard-response,97,358239,0.0-13.0-1.6,62328,List1B,white,man,,,,null,,,,
null,are fighting each other,,html-keyboard-response,98,360241,0.0-13.0-2.6,62328,List1B,white,man,,,,null,,,,
13153,,,survey-text,99,373394,0.0-13.0-3.6,62328,List1B,white,man,,,,,"{""Q0"":""luke and jane are fighting eachother""}","<img src=""stim_listB/fight4.gif""style=""height:400px;""></stim_listB>",are fighting each other,
null,"<div style=""font-size:60px;"">+</div>",,html-keyboard-response,100,373897,0.0-13.0-0.7,62328,List1B,white,man,,,,null,,,,
null,"<img src=""stim_listB/fight1.gif""style=""height:400px;""></stim_listB>",,html-keyboard-response,101,375903,0.0-13.0-1.7,62328,List1B,white,man,,,,null,,,,
null,is fighting,,html-keyboard-response,102,377906,0.0-13.0-2.7,62328,List1B,white,man,,,,null,,,,
8535,,,survey-text,103,386443,0.0-13.0-3.7,62328,List1B,white,man,,,,,"{""Q0"":""mike and kate are fighting eachother""}","<img src=""stim_listB/fight1.gif""style=""height:400px;""></stim_listB>",is fighting,
null,"<div style=""font-size:60px;"">+</div>",,html-keyboard-response,104,386945,0.0-13.0-0.8,62328,List1B,white,man,,,,null,,,,
null,"<img src=""stim_listB/marry4.gif""style=""height:400px;""></stim_listB>",,html-keyboard-response,105,388951,0.0-13.0-1.8,62328,List1B,white,man,,,,null,,,,
null,are marrying each other,,html-keyboard-response,106,390952,0.0-13.0-2.8,62328,List1B,white,man,,,,null,,,,
7595,,,survey-text,107,398548,0.0-13.0-3.8,62328,List1B,white,man,,,,,"{""Q0"":""luke and beth are marrying eachother""}","<img src=""stim_listB/marry4.gif""style=""height:400px;""></stim_listB>",are marrying each other,
null,"<div style=""font-size:60px;"">+</div>",,html-keyboard-response,108,399050,0.0-13.0-0.9,62328,List1B,white,man,,,,null,,,,
null,"<img src=""stim_listB/kiss8.gif""style=""height:400px;""></stim_listB>",,html-keyboard-response,109,401053,0.0-13.0-1.9,62328,List1B,white,man,,,,null,,,,
null,are kissing each other,,html-keyboard-response,110,403054,0.0-13.0-2.9,62328,List1B,white,man,,,,null,,,,
6540,,,survey-text,111,409596,0.0-13.0-3.9,62328,List1B,white,man,,,,,"{""Q0"":""kate and beth are kissing eachother""}","<img src=""stim_listB/kiss8.gif""style=""height:400px;""></stim_listB>",are kissing each other,
null,"<div style=""font-size:60px;"">+</div>",,html-keyboard-response,112,410098,0.0-13.0-0.10,62328,List1B,white,man,,,,null,,,,
null,"<img src=""stim_listB/fight8.gif""style=""height:400px;""></stim_listB>",,html-keyboard-response,113,412100,0.0-13.0-1.10,62328,List1B,white,man,,,,null,,,,
null,are fighting each other,,html-keyboard-response,114,414104,0.0-13.0-2.10,62328,List1B,white,man,,,,null,,,,
54330,,,survey-text,115,468435,0.0-13.0-3.10,62328,List1B,white,man,,,,,"{""Q0"":""jane and ? are fighting eachother""}","<img src=""stim_listB/fight8.gif""style=""height:400px;""></stim_listB>",are fighting each other,
null,"<div style=""font-size:60px;"">+</div>",,html-keyboard-response,116,468938,0.0-13.0-0.11,62328,List1B,white,man,,,,null,,,,
null,"<img src=""stim_listB/kiss5.gif""style=""height:400px;""></stim_listB>",,html-keyboard-response,117,470941,0.0-13.0-1.11,62328,List1B,white,man,,,,null,,,,
null,is kissing,,html-keyboard-response,118,472943,0.0-13.0-2.11,62328,List1B,white,man,,,,null,,,,
7784,,,survey-text,119,480729,0.0-13.0-3.11,62328,List1B,white,man,,,,,"{""Q0"":""fred and luke are kissing eachother""}","<img src=""stim_listB/kiss5.gif""style=""height:400px;""></stim_listB>",is kissing,
null,"<div style=""font-size:60px;"">+</div>",,html-keyboard-response,120,481231,0.0-13.0-0.12,62328,List1B,white,man,,,,null,,,,
null,"<img src=""stim_listB/flirt3.gif""style=""height:400px;""></stim_listB>",,html-keyboard-response,121,483238,0.0-13.0-1.12,62328,List1B,white,man,,,,null,,,,
null,is flirting with,,html-keyboard-response,122,485242,0.0-13.0-2.12,62328,List1B,white,man,,,,null,,,,
5455,,,survey-text,123,490698,0.0-13.0-3.12,62328,List1B,white,man,,,,,"{""Q0"":""luke is flirting with beth""}","<img src=""stim_listB/flirt3.gif""style=""height:400px;""></stim_listB>",is flirting with,
null,"<div style=""font-size:60px;"">+</div>",,html-keyboard-response,124,491200,0.0-13.0-0.13,62328,List1B,white,man,,,,null,,,,
null,"<img src=""stim_listB/talk7.gif""style=""height:400px;""></stim_listB>",,html-keyboard-response,125,493208,0.0-13.0-1.13,62328,List1B,white,man,,,,null,,,,
null,is talking to,,html-keyboard-response,126,495210,0.0-13.0-2.13,62328,List1B,white,man,,,,null,,,,
5178,,,survey-text,127,500390,0.0-13.0-3.13,62328,List1B,white,man,,,,,"{""Q0"":""beth is talking to jane""}","<img src=""stim_listB/talk7.gif""style=""height:400px;""></stim_listB>",is talking to,
null,"<div style=""font-size:60px;"">+</div>",,html-keyboard-response,128,500894,0.0-13.0-0.14,62328,List1B,white,man,,,,null,,,,
null,"<img src=""stim_listB/shout7.gif""style=""height:400px;""></stim_listB>",,html-keyboard-response,129,502896,0.0-13.0-1.14,62328,List1B,white,man,,,,null,,,,
null,is shouting at,,html-keyboard-response,130,504898,0.0-13.0-2.14,62328,List1B,white,man,,,,null,,,,
6383,,,survey-text,131,511286,0.0-13.0-3.14,62328,List1B,white,man,,,,,"{""Q0"":""jane is shouting at ?""}","<img src=""stim_listB/shout7.gif""style=""height:400px;""></stim_listB>",is shouting at,
null,"<div style=""font-size:60px;"">+</div>",,html-keyboard-response,132,511790,0.0-13.0-0.15,62328,List1B,white,man,,,,null,,,,
null,"<img src=""stim_listB/shout4.gif""style=""height:400px;""></stim_listB>",,html-keyboard-response,133,513795,0.0-13.0-1.15,62328,List1B,white,man,,,,null,,,,
null,are shouting at each other,,html-keyboard-response,134,515799,0.0-13.0-2.15,62328,List1B,white,man,,,,null,,,,
29812,,,survey-text,135,545612,0.0-13.0-3.15,62328,List1B,white,man,,,,,"{""Q0"":""beth and ? are shouting at eachother""}","<img src=""stim_listB/shout4.gif""style=""height:400px;""></stim_listB>",are shouting at each other,
null,"<div style=""font-size:60px;"">+</div>",,html-keyboard-response,136,546116,0.0-13.0-0.16,62328,List1B,white,man,,,,null,,,,
null,"<img src=""stim_listB/play3.gif""style=""height:400px;""></stim_listB>",,html-keyboard-response,137,548119,0.0-13.0-1.16,62328,List1B,white,man,,,,null,,,,
null,is playing with,,html-keyboard-response,138,550122,0.0-13.0-2.16,62328,List1B,white,man,,,,null,,,,
15996,,,survey-text,139,566119,0.0-13.0-3.16,62328,List1B,white,man,,,,,"{""Q0"":""beth and ? are playing with eachother""}","<img src=""stim_listB/play3.gif""style=""height:400px;""></stim_listB>",is playing with,
null,"<div style=""font-size:60px;"">+</div>",,html-keyboard-response,140,566622,0.0-13.0-0.17,62328,List1B,white,man,,,,null,,,,
null,"<img src=""stim_listB/shout1.gif""style=""height:400px;""></stim_listB>",,html-keyboard-response,141,568627,0.0-13.0-1.17,62328,List1B,white,man,,,,null,,,,
null,is shouting at,,html-keyboard-response,142,570628,0.0-13.0-2.17,62328,List1B,white,man,,,,null,,,,
7290,,,survey-text,143,577920,0.0-13.0-3.17,62328,List1B,white,man,,,,,"{""Q0"":""jane and fred are shouting at eachother""}","<img src=""stim_listB/shout1.gif""style=""height:400px;""></stim_listB>",is shouting at,
null,"<div style=""font-size:60px;"">+</div>",,html-keyboard-response,144,578423,0.0-13.0-0.18,62328,List1B,white,man,,,,null,,,,
null,"<img src=""stim_listB/touch1.gif""style=""height:400px;""></stim_listB>",,html-keyboard-response,145,580425,0.0-13.0-1.18,62328,List1B,white,man,,,,null,,,,
null,is touching,,html-keyboard-response,146,582428,0.0-13.0-2.18,62328,List1B,white,man,,,,null,,,,
4250,,,survey-text,147,586679,0.0-13.0-3.18,62328,List1B,white,man,,,,,"{""Q0"":""luke is touching kate""}","<img src=""stim_listB/touch1.gif""style=""height:400px;""></stim_listB>",is touching,
null,"<div style=""font-size:60px;"">+</div>",,html-keyboard-response,148,587182,0.0-13.0-0.19,62328,List1B,white,man,,,,null,,,,
null,"<img src=""stim_listB/flirt7.gif""style=""height:400px;""></stim_listB>",,html-keyboard-response,149,589185,0.0-13.0-1.19,62328,List1B,white,man,,,,null,,,,
null,is flirting with,,html-keyboard-response,150,591188,0.0-13.0-2.19,62328,List1B,white,man,,,,null,,,,
6740,,,survey-text,151,597930,0.0-13.0-3.19,62328,List1B,white,man,,,,,"{""Q0"":""jane is flirting with beth""}","<img src=""stim_listB/flirt7.gif""style=""height:400px;""></stim_listB>",is flirting with,
74324,"<img src='img/portrait_matrix_list1.jpg' style='width:900px;height:500px;''></img><p>If you have memorised all the portraits and names and are ready to start, press Continue.</p><p><strong>Please note: Your memory of these faces will be tested 4 times during this experiment.</strong></p>",0,html-button-response,152,672257,0.0-14.0-0.0,62328,List1B,white,man,,,,,,,,
3715,"<img src=""portrait/BM1.jpg""style=""height:400px;""></img>",4,html-button-response,153,676981,0.0-14.0-1.0,62328,List1B,white,man,,TRUE,4,,,,,
null,CORRECT,,html-keyboard-response,154,678487,0.0-14.0-2.0-0.0,62328,List1B,white,man,,,,null,,,,
2895,"<img src=""portrait/WM1.jpg""style=""height:400px;""></img>",6,html-button-response,155,681385,0.0-14.0-4.0,62328,List1B,white,man,,TRUE,6,,,,,
null,CORRECT,,html-keyboard-response,156,682892,0.0-14.0-5.0-0.0,62328,List1B,white,man,,,,null,,,,
2559,"<img src=""portrait/WM2.jpg""style=""height:400px;""></img>",7,html-button-response,157,685453,0.0-14.0-7.0,62328,List1B,white,man,,TRUE,7,,,,,
null,CORRECT,,html-keyboard-response,158,686962,0.0-14.0-8.0-0.0,62328,List1B,white,man,,,,null,,,,
2235,"<img src=""portrait/WW2.jpg""style=""height:400px;""></img>",3,html-button-response,159,689200,0.0-14.0-10.0,62328,List1B,white,man,,TRUE,3,,,,,
null,CORRECT,,html-keyboard-response,160,690709,0.0-14.0-11.0-0.0,62328,List1B,white,man,,,,null,,,,
3401,"<img src=""portrait/WW1.jpg""style=""height:400px;""></img>",1,html-button-response,161,694112,0.0-14.0-13.0,62328,List1B,white,man,,TRUE,1,,,,,
null,CORRECT,,html-keyboard-response,162,695622,0.0-14.0-14.0-0.0,62328,List1B,white,man,,,,null,,,,
2970,"<img src=""portrait/BM2.jpg""style=""height:400px;""></img>",5,html-button-response,163,698594,0.0-14.0-16.0,62328,List1B,white,man,,TRUE,5,,,,,
null,CORRECT,,html-keyboard-response,164,700104,0.0-14.0-17.0-0.0,62328,List1B,white,man,,,,null,,,,
5742,"<img src=""portrait/BW1.jpg""style=""height:400px;""></img>",0,html-button-response,165,705847,0.0-14.0-19.0,62328,List1B,white,man,,TRUE,0,,,,,
null,CORRECT,,html-keyboard-response,166,707355,0.0-14.0-20.0-0.0,62328,List1B,white,man,,,,null,,,,
4043,"<img src=""portrait/BW2.jpg""style=""height:400px;""></img>",2,html-button-response,167,711400,0.0-14.0-22.0,62328,List1B,white,man,,TRUE,2,,,,,
null,CORRECT,,html-keyboard-response,168,712910,0.0-14.0-23.0-0.0,62328,List1B,white,man,,,,null,,,,
1494,<p>You got 8 out of 8 right first time. Press Continue.</p>,0,html-button-response,169,714408,0.0-14.0-25.0,62328,List1B,white,man,,,,,,,,
null,"<div style=""font-size:60px;"">+</div>",,html-keyboard-response,170,715917,0.0-15.0-0.0,62328,List1B,white,man,,,,null,,,,
null,"<img src=""stim_listB/kiss1.gif""style=""height:400px;""></stim_listB>",,html-keyboard-response,171,717920,0.0-15.0-1.0,62328,List1B,white,man,,,,null,,,,
null,is kissing,,html-keyboard-response,172,719923,0.0-15.0-2.0,62328,List1B,white,man,,,,null,,,,
8746,,,survey-text,173,728671,0.0-15.0-3.0,62328,List1B,white,man,,,,,"{""Q0"":""fred is kissing beth""}","<img src=""stim_listB/kiss1.gif""style=""height:400px;""></stim_listB>",is kissing,
null,"<div style=""font-size:60px;"">+</div>",,html-keyboard-response,174,729172,0.0-15.0-0.1,62328,List1B,white,man,,,,null,,,,
null,"<img src=""stim_listB/touch3.gif""style=""height:400px;""></stim_listB>",,html-keyboard-response,175,731178,0.0-15.0-1.1,62328,List1B,white,man,,,,null,,,,
null,is touching,,html-keyboard-response,176,733181,0.0-15.0-2.1,62328,List1B,white,man,,,,null,,,,
7832,,,survey-text,177,741013,0.0-15.0-3.1,62328,List1B,white,man,,,,,"{""Q0"":""dave is touching jane""}","<img src=""stim_listB/touch3.gif""style=""height:400px;""></stim_listB>",is touching,
null,"<div style=""font-size:60px;"">+</div>",,html-keyboard-response,178,741516,0.0-15.0-0.2,62328,List1B,white,man,,,,null,,,,
null,"<img src=""stim_listB/argue6.gif""style=""height:400px;""></stim_listB>",,html-keyboard-response,179,743519,0.0-15.0-1.2,62328,List1B,white,man,,,,null,,,,
null,are arguing with each other,,html-keyboard-response,180,745521,0.0-15.0-2.2,62328,List1B,white,man,,,,null,,,,
11762,,,survey-text,181,757283,0.0-15.0-3.2,62328,List1B,white,man,,,,,"{""Q0"":""fred and dave are arguing with eachother""}","<img src=""stim_listB/argue6.gif""style=""height:400px;""></stim_listB>",are arguing with each other,
null,"<div style=""font-size:60px;"">+</div>",,html-keyboard-response,182,757788,0.0-15.0-0.3,62328,List1B,white,man,,,,null,,,,
null,"<img src=""stim_listB/talk8.gif""style=""height:400px;""></stim_listB>",,html-keyboard-response,183,759794,0.0-15.0-1.3,62328,List1B,white,man,,,,null,,,,
null,are talking to each other,,html-keyboard-response,184,761798,0.0-15.0-2.3,62328,List1B,white,man,,,,null,,,,
9214,,,survey-text,185,771013,0.0-15.0-3.3,62328,List1B,white,man,,,,,"{""Q0"":""ruth and kate are talking to eachother""}","<img src=""stim_listB/talk8.gif""style=""height:400px;""></stim_listB>",are talking to each other,
null,"<div style=""font-size:60px;"">+</div>",,html-keyboard-response,186,771516,0.0-15.0-0.4,62328,List1B,white,man,,,,null,,,,
null,"<img src=""stim_listB/argue3.gif""style=""height:400px;""></stim_listB>",,html-keyboard-response,187,773520,0.0-15.0-1.4,62328,List1B,white,man,,,,null,,,,
null,is arguing with,,html-keyboard-response,188,775522,0.0-15.0-2.4,62328,List1B,white,man,,,,null,,,,
6514,,,survey-text,189,782037,0.0-15.0-3.4,62328,List1B,white,man,,,,,"{""Q0"":""ruth is arguing with dave""}","<img src=""stim_listB/argue3.gif""style=""height:400px;""></stim_listB>",is arguing with,
null,"<div style=""font-size:60px;"">+</div>",,html-keyboard-response,190,782539,0.0-15.0-0.5,62328,List1B,white,man,,,,null,,,,
null,"<img src=""stim_listB/play2.gif""style=""height:400px;""></stim_listB>",,html-keyboard-response,191,784542,0.0-15.0-1.5,62328,List1B,white,man,,,,null,,,,
null,are playing with each other,,html-keyboard-response,192,786545,0.0-15.0-2.5,62328,List1B,white,man,,,,null,,,,
12040,,,survey-text,193,798586,0.0-15.0-3.5,62328,List1B,white,man,,,,,"{""Q0"":""fred and beth are playing cards""}","<img src=""stim_listB/play2.gif""style=""height:400px;""></stim_listB>",are playing with each other,
null,"<div style=""font-size:60px;"">+</div>",,html-keyboard-response,194,799089,0.0-15.0-0.6,62328,List1B,white,man,,,,null,,,,
null,"<img src=""stim_listB/dance2.gif""style=""height:400px;""></stim_listB>",,html-keyboard-response,195,801094,0.0-15.0-1.6,62328,List1B,white,man,,,,null,,,,
null,are dancing with each other,,html-keyboard-response,196,803095,0.0-15.0-2.6,62328,List1B,white,man,,,,null,,,,
9233,,,survey-text,197,812330,0.0-15.0-3.6,62328,List1B,white,man,,,,,"{""Q0"":""mike and beth are dancing with eachother""}","<img src=""stim_listB/dance2.gif""style=""height:400px;""></stim_listB>",are dancing with each other,
null,"<div style=""font-size:60px;"">+</div>",,html-keyboard-response,198,812833,0.0-15.0-0.7,62328,List1B,white,man,,,,null,,,,
null,"<img src=""stim_listB/talk3.gif""style=""height:400px;""></stim_listB>",,html-keyboard-response,199,814836,0.0-15.0-1.7,62328,List1B,white,man,,,,null,,,,
null,is talking to,,html-keyboard-response,200,816838,0.0-15.0-2.7,62328,List1B,white,man,,,,null,,,,
8010,,,survey-text,201,824851,0.0-15.0-3.7,62328,List1B,white,man,,,,,"{""Q0"":""jane is talking to luke""}","<img src=""stim_listB/talk3.gif""style=""height:400px;""></stim_listB>",is talking to,
null,"<div style=""font-size:60px;"">+</div>",,html-keyboard-response,202,825353,0.0-15.0-0.8,62328,List1B,white,man,,,,null,,,,
null,"<img src=""stim_listB/touch2.gif""style=""height:400px;""></stim_listB>",,html-keyboard-response,203,827355,0.0-15.0-1.8,62328,List1B,white,man,,,,null,,,,
null,are touching each other,,html-keyboard-response,204,829356,0.0-15.0-2.8,62328,List1B,white,man,,,,null,,,,
7643,,,survey-text,205,837001,0.0-15.0-3.8,62328,List1B,white,man,,,,,"{""Q0"":""fred and beth are touching eachother""}","<img src=""stim_listB/touch2.gif""style=""height:400px;""></stim_listB>",are touching each other,
null,"<div style=""font-size:60px;"">+</div>",,html-keyboard-response,206,837505,0.0-15.0-0.9,62328,List1B,white,man,,,,null,,,,
null,"<img src=""stim_listB/marry1.gif""style=""height:400px;""></stim_listB>",,html-keyboard-response,207,839508,0.0-15.0-1.9,62328,List1B,white,man,,,,null,,,,
null,is marrying,,html-keyboard-response,208,841511,0.0-15.0-2.9,62328,List1B,white,man,,,,null,,,,
6155,,,survey-text,209,847668,0.0-15.0-3.9,62328,List1B,white,man,,,,,"{""Q0"":""mike is marrying beth""}","<img src=""stim_listB/marry1.gif""style=""height:400px;""></stim_listB>",is marrying,
null,"<div style=""font-size:60px;"">+</div>",,html-keyboard-response,210,848171,0.0-15.0-0.10,62328,List1B,white,man,,,,null,,,,
null,"<img src=""stim_listB/kiss4.gif""style=""height:400px;""></stim_listB>",,html-keyboard-response,211,850173,0.0-15.0-1.10,62328,List1B,white,man,,,,null,,,,
null,are kissing each other,,html-keyboard-response,212,852174,0.0-15.0-2.10,62328,List1B,white,man,,,,null,,,,
6927,,,survey-text,213,859103,0.0-15.0-3.10,62328,List1B,white,man,,,,,"{""Q0"":""dave and jane are kissing eachother""}","<img src=""stim_listB/kiss4.gif""style=""height:400px;""></stim_listB>",are kissing each other,
null,"<div style=""font-size:60px;"">+</div>",,html-keyboard-response,214,859605,0.0-15.0-0.11,62328,List1B,white,man,,,,null,,,,
null,"<img src=""stim_listB/talk2.gif""style=""height:400px;""></stim_listB>",,html-keyboard-response,215,861609,0.0-15.0-1.11,62328,List1B,white,man,,,,null,,,,
null,are talking to each other,,html-keyboard-response,216,863614,0.0-15.0-2.11,62328,List1B,white,man,,,,null,,,,
6379,,,survey-text,217,869995,0.0-15.0-3.11,62328,List1B,white,man,,,,,"{""Q0"":""mike and beth are talking to eachother""}","<img src=""stim_listB/talk2.gif""style=""height:400px;""></stim_listB>",are talking to each other,
null,"<div style=""font-size:60px;"">+</div>",,html-keyboard-response,218,870499,0.0-15.0-0.12,62328,List1B,white,man,,,,null,,,,
null,"<img src=""stim_listB/marry6.gif""style=""height:400px;""></stim_listB>",,html-keyboard-response,219,872502,0.0-15.0-1.12,62328,List1B,white,man,,,,null,,,,
null,are marrying each other,,html-keyboard-response,220,874506,0.0-15.0-2.12,62328,List1B,white,man,,,,null,,,,
9190,,,survey-text,221,883698,0.0-15.0-3.12,62328,List1B,white,man,,,,,"{""Q0"":""fred and dave are marrying eachother""}","<img src=""stim_listB/marry6.gif""style=""height:400px;""></stim_listB>",are marrying each other,
null,"<div style=""font-size:60px;"">+</div>",,html-keyboard-response,222,884200,0.0-15.0-0.13,62328,List1B,white,man,,,,null,,,,
null,"<img src=""stim_listB/shout6.gif""style=""height:400px;""></stim_listB>",,html-keyboard-response,223,886203,0.0-15.0-1.13,62328,List1B,white,man,,,,null,,,,
null,are shouting at each other,,html-keyboard-response,224,888204,0.0-15.0-2.13,62328,List1B,white,man,,,,null,,,,
7423,,,survey-text,225,895629,0.0-15.0-3.13,62328,List1B,white,man,,,,,"{""Q0"":""dave and mike are shouting at eachother""}","<img src=""stim_listB/shout6.gif""style=""height:400px;""></stim_listB>",are shouting at each other,
null,"<div style=""font-size:60px;"">+</div>",,html-keyboard-response,226,896135,0.0-15.0-0.14,62328,List1B,white,man,,,,null,,,,
null,"<img src=""stim_listB/fight6.gif""style=""height:400px;""></stim_listB>",,html-keyboard-response,227,898139,0.0-15.0-1.14,62328,List1B,white,man,,,,null,,,,
null,are fighting each other,,html-keyboard-response,228,900140,0.0-15.0-2.14,62328,List1B,white,man,,,,null,,,,
9036,,,survey-text,229,909178,0.0-15.0-3.14,62328,List1B,white,man,,,,,"{""Q0"":""fred and luke are fighting eachother""}","<img src=""stim_listB/fight6.gif""style=""height:400px;""></stim_listB>",are fighting each other,
null,"<div style=""font-size:60px;"">+</div>",,html-keyboard-response,230,909682,0.0-15.0-0.15,62328,List1B,white,man,,,,null,,,,
null,"<img src=""stim_listB/fight5.gif""style=""height:400px;""></stim_listB>",,html-keyboard-response,231,911688,0.0-15.0-1.15,62328,List1B,white,man,,,,null,,,,
null,is fighting,,html-keyboard-response,232,913690,0.0-15.0-2.15,62328,List1B,white,man,,,,null,,,,
5642,,,survey-text,233,919334,0.0-15.0-3.15,62328,List1B,white,man,,,,,"{""Q0"":""mike is fighting dave""}","<img src=""stim_listB/fight5.gif""style=""height:400px;""></stim_listB>",is fighting,
null,"<div style=""font-size:60px;"">+</div>",,html-keyboard-response,234,919835,0.0-15.0-0.16,62328,List1B,white,man,,,,null,,,,
null,"<img src=""stim_listB/argue5.gif""style=""height:400px;""></stim_listB>",,html-keyboard-response,235,921838,0.0-15.0-1.16,62328,List1B,white,man,,,,null,,,,
null,is arguing with,,html-keyboard-response,236,923840,0.0-15.0-2.16,62328,List1B,white,man,,,,null,,,,
6527,,,survey-text,237,930370,0.0-15.0-3.16,62328,List1B,white,man,,,,,"{""Q0"":""mike is arguing with luke""}","<img src=""stim_listB/argue5.gif""style=""height:400px;""></stim_listB>",is arguing with,
null,"<div style=""font-size:60px;"">+</div>",,html-keyboard-response,238,930877,0.0-15.0-0.17,62328,List1B,white,man,,,,null,,,,
null,"<img src=""stim_listB/touch4.gif""style=""height:400px;""></stim_listB>",,html-keyboard-response,239,932879,0.0-15.0-1.17,62328,List1B,white,man,,,,null,,,,
null,are touching each other,,html-keyboard-response,240,934883,0.0-15.0-2.17,62328,List1B,white,man,,,,null,,,,
8632,,,survey-text,241,943515,0.0-15.0-3.17,62328,List1B,white,man,,,,,"{""Q0"":""luke and ruth are touching eachother""}","<img src=""stim_listB/touch4.gif""style=""height:400px;""></stim_listB>",are touching each other,
null,"<div style=""font-size:60px;"">+</div>",,html-keyboard-response,242,944018,0.0-15.0-0.18,62328,List1B,white,man,,,,null,,,,
null,"<img src=""stim_listB/dance8.gif""style=""height:400px;""></stim_listB>",,html-keyboard-response,243,946021,0.0-15.0-1.18,62328,List1B,white,man,,,,null,,,,
null,are dancing with each other,,html-keyboard-response,244,948025,0.0-15.0-2.18,62328,List1B,white,man,,,,null,,,,
9001,,,survey-text,245,957026,0.0-15.0-3.18,62328,List1B,white,man,,,,,"{""Q0"":""kate and ruth are dancing with eachother""}","<img src=""stim_listB/dance8.gif""style=""height:400px;""></stim_listB>",are dancing with each other,
null,"<div style=""font-size:60px;"">+</div>",,html-keyboard-response,246,957530,0.0-15.0-0.19,62328,List1B,white,man,,,,null,,,,
null,"<img src=""stim_listB/argue4.gif""style=""height:400px;""></stim_listB>",,html-keyboard-response,247,959535,0.0-15.0-1.19,62328,List1B,white,man,,,,null,,,,
null,are arguing with each other,,html-keyboard-response,248,961537,0.0-15.0-2.19,62328,List1B,white,man,,,,null,,,,
11584,,,survey-text,249,973126,0.0-15.0-3.19,62328,List1B,white,man,,,,,"{""Q0"":""ruth and mike are dancing with eachother""}","<img src=""stim_listB/argue4.gif""style=""height:400px;""></stim_listB>",are arguing with each other,
9371,"<img src='img/portrait_matrix_list1.jpg' style='width:900px;height:500px;''></img><p>If you have memorised all the portraits and names and are ready to start, press Continue.</p><p><strong>Please note: Your memory of these faces will be tested 4 times during this experiment.</strong></p>",0,html-button-response,250,982500,0.0-16.0-0.0,62328,List1B,white,man,,,,,,,,
4300,"<img src=""portrait/WM1.jpg""style=""height:400px;""></img>",6,html-button-response,251,987806,0.0-16.0-1.0,62328,List1B,white,man,,TRUE,6,,,,,
null,CORRECT,,html-keyboard-response,252,989315,0.0-16.0-2.0-0.0,62328,List1B,white,man,,,,null,,,,
4805,"<img src=""portrait/BW2.jpg""style=""height:400px;""></img>",2,html-button-response,253,994123,0.0-16.0-4.0,62328,List1B,white,man,,TRUE,2,,,,,
null,CORRECT,,html-keyboard-response,254,995630,0.0-16.0-5.0-0.0,62328,List1B,white,man,,,,null,,,,
2748,"<img src=""portrait/BM1.jpg""style=""height:400px;""></img>",4,html-button-response,255,998379,0.0-16.0-7.0,62328,List1B,white,man,,TRUE,4,,,,,
null,CORRECT,,html-keyboard-response,256,999891,0.0-16.0-8.0-0.0,62328,List1B,white,man,,,,null,,,,
1529,"<img src=""portrait/WM2.jpg""style=""height:400px;""></img>",7,html-button-response,257,1001422,0.0-16.0-10.0,62328,List1B,white,man,,TRUE,7,,,,,
null,CORRECT,,html-keyboard-response,258,1002933,0.0-16.0-11.0-0.0,62328,List1B,white,man,,,,null,,,,
1462,"<img src=""portrait/WW2.jpg""style=""height:400px;""></img>",3,html-button-response,259,1004398,0.0-16.0-13.0,62328,List1B,white,man,,TRUE,3,,,,,
null,CORRECT,,html-keyboard-response,260,1005905,0.0-16.0-14.0-0.0,62328,List1B,white,man,,,,null,,,,
1948,"<img src=""portrait/BW1.jpg""style=""height:400px;""></img>",0,html-button-response,261,1007855,0.0-16.0-16.0,62328,List1B,white,man,,TRUE,0,,,,,
null,CORRECT,,html-keyboard-response,262,1009364,0.0-16.0-17.0-0.0,62328,List1B,white,man,,,,null,,,,
2117,"<img src=""portrait/BM2.jpg""style=""height:400px;""></img>",5,html-button-response,263,1011485,0.0-16.0-19.0,62328,List1B,white,man,,TRUE,5,,,,,
null,CORRECT,,html-keyboard-response,264,1012993,0.0-16.0-20.0-0.0,62328,List1B,white,man,,,,null,,,,
3780,"<img src=""portrait/WW1.jpg""style=""height:400px;""></img>",1,html-button-response,265,1016776,0.0-16.0-22.0,62328,List1B,white,man,,TRUE,1,,,,,
null,CORRECT,,html-keyboard-response,266,1018288,0.0-16.0-23.0-0.0,62328,List1B,white,man,,,,null,,,,
1243,<p>You got 8 out of 8 right first time. Press Continue.</p>,0,html-button-response,267,1019534,0.0-16.0-25.0,62328,List1B,white,man,,,,,,,,
null,"<div style=""font-size:60px;"">+</div>",,html-keyboard-response,268,1021045,0.0-17.0-0.0,62328,List1B,white,man,,,,null,,,,
null,"<img src=""stim_listB/flirt6.gif""style=""height:400px;""></stim_listB>",,html-keyboard-response,269,1023048,0.0-17.0-1.0,62328,List1B,white,man,,,,null,,,,
null,are flirting with each other,,html-keyboard-response,270,1025051,0.0-17.0-2.0,62328,List1B,white,man,,,,null,,,,
10634,,,survey-text,271,1035688,0.0-17.0-3.0,62328,List1B,white,man,,,,,"{""Q0"":""mike and luke are flirting with eachother""}","<img src=""stim_listB/flirt6.gif""style=""height:400px;""></stim_listB>",are flirting with each other,
null,"<div style=""font-size:60px;"">+</div>",,html-keyboard-response,272,1036192,0.0-17.0-0.1,62328,List1B,white,man,,,,null,,,,
null,"<img src=""stim_listB/dance7.gif""style=""height:400px;""></stim_listB>",,html-keyboard-response,273,1038195,0.0-17.0-1.1,62328,List1B,white,man,,,,null,,,,
null,is dancing with,,html-keyboard-response,274,1040196,0.0-17.0-2.1,62328,List1B,white,man,,,,null,,,,
10449,,,survey-text,275,1050647,0.0-17.0-3.1,62328,List1B,white,man,,,,,"{""Q0"":""beth and jane are dancing with eachother""}","<img src=""stim_listB/dance7.gif""style=""height:400px;""></stim_listB>",is dancing with,
null,"<div style=""font-size:60px;"">+</div>",,html-keyboard-response,276,1051158,0.0-17.0-0.2,62328,List1B,white,man,,,,null,,,,
null,"<img src=""stim_listB/marry3.gif""style=""height:400px;""></stim_listB>",,html-keyboard-response,277,1053161,0.0-17.0-1.2,62328,List1B,white,man,,,,null,,,,
null,is marrying,,html-keyboard-response,278,1055165,0.0-17.0-2.2,62328,List1B,white,man,,,,null,,,,
5168,,,survey-text,279,1060335,0.0-17.0-3.2,62328,List1B,white,man,,,,,"{""Q0"":""dave is marrying ruth""}","<img src=""stim_listB/marry3.gif""style=""height:400px;""></stim_listB>",is marrying,
null,"<div style=""font-size:60px;"">+</div>",,html-keyboard-response,280,1060836,0.0-17.0-0.3,62328,List1B,white,man,,,,null,,,,
null,"<img src=""stim_listB/play7.gif""style=""height:400px;""></stim_listB>",,html-keyboard-response,281,1062839,0.0-17.0-1.3,62328,List1B,white,man,,,,null,,,,
null,is playing with,,html-keyboard-response,282,1064848,0.0-17.0-2.3,62328,List1B,white,man,,,,null,,,,
6806,,,survey-text,283,1071655,0.0-17.0-3.3,62328,List1B,white,man,,,,,"{""Q0"":""kate is playing with ruth""}","<img src=""stim_listB/play7.gif""style=""height:400px;""></stim_listB>",is playing with,
null,"<div style=""font-size:60px;"">+</div>",,html-keyboard-response,284,1072157,0.0-17.0-0.4,62328,List1B,white,man,,,,null,,,,
null,"<img src=""stim_listB/argue8.gif""style=""height:400px;""></stim_listB>",,html-keyboard-response,285,1074161,0.0-17.0-1.4,62328,List1B,white,man,,,,null,,,,
null,are arguing with each other,,html-keyboard-response,286,1076163,0.0-17.0-2.4,62328,List1B,white,man,,,,null,,,,
7981,,,survey-text,287,1084145,0.0-17.0-3.4,62328,List1B,white,man,,,,,"{""Q0"":""beth and jane are arguing with eachother""}","<img src=""stim_listB/argue8.gif""style=""height:400px;""></stim_listB>",are arguing with each other,
null,"<div style=""font-size:60px;"">+</div>",,html-keyboard-response,288,1084647,0.0-17.0-0.5,62328,List1B,white,man,,,,null,,,,
null,"<img src=""stim_listB/argue2.gif""style=""height:400px;""></stim_listB>",,html-keyboard-response,289,1086649,0.0-17.0-1.5,62328,List1B,white,man,,,,null,,,,
null,are arguing with each other,,html-keyboard-response,290,1088652,0.0-17.0-2.5,62328,List1B,white,man,,,,null,,,,
8521,,,survey-text,291,1097175,0.0-17.0-3.5,62328,List1B,white,man,,,,,"{""Q0"":""fred and kate are arguing with eachother""}","<img src=""stim_listB/argue2.gif""style=""height:400px;""></stim_listB>",are arguing with each other,
null,"<div style=""font-size:60px;"">+</div>",,html-keyboard-response,292,1097679,0.0-17.0-0.6,62328,List1B,white,man,,,,null,,,,
null,"<img src=""stim_listB/play5.gif""style=""height:400px;""></stim_listB>",,html-keyboard-response,293,1099682,0.0-17.0-1.6,62328,List1B,white,man,,,,null,,,,
null,is playing with,,html-keyboard-response,294,1101685,0.0-17.0-2.6,62328,List1B,white,man,,,,null,,,,
5766,,,survey-text,295,1107453,0.0-17.0-3.6,62328,List1B,white,man,,,,,"{""Q0"":""mike is playing with dave""}","<img src=""stim_listB/play5.gif""style=""height:400px;""></stim_listB>",is playing with,
null,"<div style=""font-size:60px;"">+</div>",,html-keyboard-response,296,1107959,0.0-17.0-0.7,62328,List1B,white,man,,,,null,,,,
null,"<img src=""stim_listB/talk6.gif""style=""height:400px;""></stim_listB>",,html-keyboard-response,297,1109963,0.0-17.0-1.7,62328,List1B,white,man,,,,null,,,,
null,are talking to each other,,html-keyboard-response,298,1111964,0.0-17.0-2.7,62328,List1B,white,man,,,,null,,,,
7338,,,survey-text,299,1119304,0.0-17.0-3.7,62328,List1B,white,man,,,,,"{""Q0"":""mike and luke are talking to eachother""}","<img src=""stim_listB/talk6.gif""style=""height:400px;""></stim_listB>",are talking to each other,
null,"<div style=""font-size:60px;"">+</div>",,html-keyboard-response,300,1119808,0.0-17.0-0.8,62328,List1B,white,man,,,,null,,,,
null,"<img src=""stim_listB/talk5.gif""style=""height:400px;""></stim_listB>",,html-keyboard-response,301,1121812,0.0-17.0-1.8,62328,List1B,white,man,,,,null,,,,
null,is talking to,,html-keyboard-response,302,1123813,0.0-17.0-2.8,62328,List1B,white,man,,,,null,,,,
7980,,,survey-text,303,1131795,0.0-17.0-3.8,62328,List1B,white,man,,,,,"{""Q0"":""dave is talking to fred""}","<img src=""stim_listB/talk5.gif""style=""height:400px;""></stim_listB>",is talking to,
null,"<div style=""font-size:60px;"">+</div>",,html-keyboard-response,304,1132298,0.0-17.0-0.9,62328,List1B,white,man,,,,null,,,,
null,"<img src=""stim_listB/flirt2.gif""style=""height:400px;""></stim_listB>",,html-keyboard-response,305,1134301,0.0-17.0-1.9,62328,List1B,white,man,,,,null,,,,
null,are flirting with each other,,html-keyboard-response,306,1136304,0.0-17.0-2.9,62328,List1B,white,man,,,,null,,,,
7171,,,survey-text,307,1143477,0.0-17.0-3.9,62328,List1B,white,man,,,,,"{""Q0"":""mike and beth are flirting with eachother""}","<img src=""stim_listB/flirt2.gif""style=""height:400px;""></stim_listB>",are flirting with each other,
null,"<div style=""font-size:60px;"">+</div>",,html-keyboard-response,308,1143982,0.0-17.0-0.10,62328,List1B,white,man,,,,null,,,,
null,"<img src=""stim_listB/touch5.gif""style=""height:400px;""></stim_listB>",,html-keyboard-response,309,1145984,0.0-17.0-1.10,62328,List1B,white,man,,,,null,,,,
null,is touching,,html-keyboard-response,310,1147985,0.0-17.0-2.10,62328,List1B,white,man,,,,null,,,,
4887,,,survey-text,311,1152874,0.0-17.0-3.10,62328,List1B,white,man,,,,,"{""Q0"":""mike is touching dave""}","<img src=""stim_listB/touch5.gif""style=""height:400px;""></stim_listB>",is touching,
null,"<div style=""font-size:60px;"">+</div>",,html-keyboard-response,312,1153378,0.0-17.0-0.11,62328,List1B,white,man,,,,null,,,,
null,"<img src=""stim_listB/shout5.gif""style=""height:400px;""></stim_listB>",,html-keyboard-response,313,1155381,0.0-17.0-1.11,62328,List1B,white,man,,,,null,,,,
null,is shouting at,,html-keyboard-response,314,1157382,0.0-17.0-2.11,62328,List1B,white,man,,,,null,,,,
5992,,,survey-text,315,1163375,0.0-17.0-3.11,62328,List1B,white,man,,,,,"{""Q0"":""fred is shouting at luke""}","<img src=""stim_listB/shout5.gif""style=""height:400px;""></stim_listB>",is shouting at,
null,"<div style=""font-size:60px;"">+</div>",,html-keyboard-response,316,1163881,0.0-17.0-0.12,62328,List1B,white,man,,,,null,,,,
null,"<img src=""stim_listB/talk1.gif""style=""height:400px;""></stim_listB>",,html-keyboard-response,317,1165887,0.0-17.0-1.12,62328,List1B,white,man,,,,null,,,,
null,is talking to,,html-keyboard-response,318,1167890,0.0-17.0-2.12,62328,List1B,white,man,,,,null,,,,
4438,,,survey-text,319,1172330,0.0-17.0-3.12,62328,List1B,white,man,,,,,"{""Q0"":""kate is talking to fred""}","<img src=""stim_listB/talk1.gif""style=""height:400px;""></stim_listB>",is talking to,
null,"<div style=""font-size:60px;"">+</div>",,html-keyboard-response,320,1172835,0.0-17.0-0.13,62328,List1B,white,man,,,,null,,,,
null,"<img src=""stim_listB/shout2.gif""style=""height:400px;""></stim_listB>",,html-keyboard-response,321,1174838,0.0-17.0-1.13,62328,List1B,white,man,,,,null,,,,
null,are shouting at each other,,html-keyboard-response,322,1176841,0.0-17.0-2.13,62328,List1B,white,man,,,,null,,,,
7234,,,survey-text,323,1184076,0.0-17.0-3.13,62328,List1B,white,man,,,,,"{""Q0"":""mike and kate are shouting at eachother""}","<img src=""stim_listB/shout2.gif""style=""height:400px;""></stim_listB>",are shouting at each other,
null,"<div style=""font-size:60px;"">+</div>",,html-keyboard-response,324,1184578,0.0-17.0-0.14,62328,List1B,white,man,,,,null,,,,
null,"<img src=""stim_listB/flirt8.gif""style=""height:400px;""></stim_listB>",,html-keyboard-response,325,1186581,0.0-17.0-1.14,62328,List1B,white,man,,,,null,,,,
null,are flirting with each other,,html-keyboard-response,326,1188583,0.0-17.0-2.14,62328,List1B,white,man,,,,null,,,,
9733,,,survey-text,327,1198317,0.0-17.0-3.14,62328,List1B,white,man,,,,,"{""Q0"":""kate and ruth are flirting with eachother""}","<img src=""stim_listB/flirt8.gif""style=""height:400px;""></stim_listB>",are flirting with each other,
null,"<div style=""font-size:60px;"">+</div>",,html-keyboard-response,328,1198819,0.0-17.0-0.15,62328,List1B,white,man,,,,null,,,,
null,"<img src=""stim_listB/kiss2.gif""style=""height:400px;""></stim_listB>",,html-keyboard-response,329,1200824,0.0-17.0-1.15,62328,List1B,white,man,,,,null,,,,
null,are kissing each other,,html-keyboard-response,330,1202828,0.0-17.0-2.15,62328,List1B,white,man,,,,null,,,,
6622,,,survey-text,331,1209452,0.0-17.0-3.15,62328,List1B,white,man,,,,,"{""Q0"":""mike and kate are kissing eachother""}","<img src=""stim_listB/kiss2.gif""style=""height:400px;""></stim_listB>",are kissing each other,
null,"<div style=""font-size:60px;"">+</div>",,html-keyboard-response,332,1209955,0.0-17.0-0.16,62328,List1B,white,man,,,,null,,,,
null,"<img src=""stim_listB/dance1.gif""style=""height:400px;""></stim_listB>",,html-keyboard-response,333,1211958,0.0-17.0-1.16,62328,List1B,white,man,,,,null,,,,
null,is dancing with,,html-keyboard-response,334,1213959,0.0-17.0-2.16,62328,List1B,white,man,,,,null,,,,
7377,,,survey-text,335,1221338,0.0-17.0-3.16,62328,List1B,white,man,,,,,"{""Q0"":""kate is dancing with fred""}","<img src=""stim_listB/dance1.gif""style=""height:400px;""></stim_listB>",is dancing with,
null,"<div style=""font-size:60px;"">+</div>",,html-keyboard-response,336,1221841,0.0-17.0-0.17,62328,List1B,white,man,,,,null,,,,
null,"<img src=""stim_listB/argue1.gif""style=""height:400px;""></stim_listB>",,html-keyboard-response,337,1223847,0.0-17.0-1.17,62328,List1B,white,man,,,,null,,,,
null,is arguing with,,html-keyboard-response,338,1225851,0.0-17.0-2.17,62328,List1B,white,man,,,,null,,,,
6233,,,survey-text,339,1232085,0.0-17.0-3.17,62328,List1B,white,man,,,,,"{""Q0"":""fred is arguing with jane""}","<img src=""stim_listB/argue1.gif""style=""height:400px;""></stim_listB>",is arguing with,
null,"<div style=""font-size:60px;"">+</div>",,html-keyboard-response,340,1232589,0.0-17.0-0.18,62328,List1B,white,man,,,,null,,,,
null,"<img src=""stim_listB/dance4.gif""style=""height:400px;""></stim_listB>",,html-keyboard-response,341,1234594,0.0-17.0-1.18,62328,List1B,white,man,,,,null,,,,
null,are dancing with each other,,html-keyboard-response,342,1236596,0.0-17.0-2.18,62328,List1B,white,man,,,,null,,,,
9984,,,survey-text,343,1246581,0.0-17.0-3.18,62328,List1B,white,man,,,,,"{""Q0"":""dave and ruth are dancing with eachother""}","<img src=""stim_listB/dance4.gif""style=""height:400px;""></stim_listB>",are dancing with each other,
null,"<div style=""font-size:60px;"">+</div>",,html-keyboard-response,344,1247085,0.0-17.0-0.19,62328,List1B,white,man,,,,null,,,,
null,"<img src=""stim_listB/dance5.gif""style=""height:400px;""></stim_listB>",,html-keyboard-response,345,1249090,0.0-17.0-1.19,62328,List1B,white,man,,,,null,,,,
null,is dancing with,,html-keyboard-response,346,1251092,0.0-17.0-2.19,62328,List1B,white,man,,,,null,,,,
7036,,,survey-text,347,1258130,0.0-17.0-3.19,62328,List1B,white,man,,,,,"{""Q0"":""dave and fred are dancing with eachother""}","<img src=""stim_listB/dance5.gif""style=""height:400px;""></stim_listB>",is dancing with,
2727,"<img src='img/portrait_matrix_list1.jpg' style='width:900px;height:500px;''></img><p>If you have memorised all the portraits and names and are ready to start, press Continue.</p><p><strong>Please note: Your memory of these faces will be tested 4 times during this experiment.</strong></p>",0,html-button-response,348,1260860,0.0-18.0-0.0,62328,List1B,white,man,,,,,,,,
5239,"<img src=""portrait/BW1.jpg""style=""height:400px;""></img>",0,html-button-response,349,1267105,0.0-18.0-1.0,62328,List1B,white,man,,TRUE,0,,,,,
null,CORRECT,,html-keyboard-response,350,1268615,0.0-18.0-2.0-0.0,62328,List1B,white,man,,,,null,,,,
4362,"<img src=""portrait/WW1.jpg""style=""height:400px;""></img>",1,html-button-response,351,1272980,0.0-18.0-4.0,62328,List1B,white,man,,TRUE,1,,,,,
null,CORRECT,,html-keyboard-response,352,1274486,0.0-18.0-5.0-0.0,62328,List1B,white,man,,,,null,,,,
1523,"<img src=""portrait/WM2.jpg""style=""height:400px;""></img>",7,html-button-response,353,1276012,0.0-18.0-7.0,62328,List1B,white,man,,TRUE,7,,,,,
null,CORRECT,,html-keyboard-response,354,1277519,0.0-18.0-8.0-0.0,62328,List1B,white,man,,,,null,,,,
2799,"<img src=""portrait/BW2.jpg""style=""height:400px;""></img>",2,html-button-response,355,1280320,0.0-18.0-10.0,62328,List1B,white,man,,TRUE,2,,,,,
null,CORRECT,,html-keyboard-response,356,1281824,0.0-18.0-11.0-0.0,62328,List1B,white,man,,,,null,,,,
1431,"<img src=""portrait/WW2.jpg""style=""height:400px;""></img>",3,html-button-response,357,1283258,0.0-18.0-13.0,62328,List1B,white,man,,TRUE,3,,,,,
null,CORRECT,,html-keyboard-response,358,1284765,0.0-18.0-14.0-0.0,62328,List1B,white,man,,,,null,,,,
1688,"<img src=""portrait/BM2.jpg""style=""height:400px;""></img>",5,html-button-response,359,1286457,0.0-18.0-16.0,62328,List1B,white,man,,TRUE,5,,,,,
null,CORRECT,,html-keyboard-response,360,1287961,0.0-18.0-17.0-0.0,62328,List1B,white,man,,,,null,,,,
2322,"<img src=""portrait/WM1.jpg""style=""height:400px;""></img>",6,html-button-response,361,1290285,0.0-18.0-19.0,62328,List1B,white,man,,TRUE,6,,,,,
null,CORRECT,,html-keyboard-response,362,1291794,0.0-18.0-20.0-0.0,62328,List1B,white,man,,,,null,,,,
1491,"<img src=""portrait/BM1.jpg""style=""height:400px;""></img>",4,html-button-response,363,1293289,0.0-18.0-22.0,62328,List1B,white,man,,TRUE,4,,,,,
null,CORRECT,,html-keyboard-response,364,1294796,0.0-18.0-23.0-0.0,62328,List1B,white,man,,,,null,,,,
1275,<p>You got 8 out of 8 right first time. Press Continue.</p>,0,html-button-response,365,1296073,0.0-18.0-25.0,62328,List1B,white,man,,,,,,,,
null,"<div style=""font-size:60px;"">+</div>",,html-keyboard-response,366,1297582,0.0-19.0-0.0,62328,List1B,white,man,,,,null,,,,
null,"<img src=""stim_listB/fight7.gif""style=""height:400px;""></stim_listB>",,html-keyboard-response,367,1299585,0.0-19.0-1.0,62328,List1B,white,man,,,,null,,,,
null,is fighting,,html-keyboard-response,368,1301589,0.0-19.0-2.0,62328,List1B,white,man,,,,null,,,,
5423,,,survey-text,369,1307014,0.0-19.0-3.0,62328,List1B,white,man,,,,,"{""Q0"":""kate is fighting jane""}","<img src=""stim_listB/fight7.gif""style=""height:400px;""></stim_listB>",is fighting,
null,"<div style=""font-size:60px;"">+</div>",,html-keyboard-response,370,1307517,0.0-19.0-0.1,62328,List1B,white,man,,,,null,,,,
null,"<img src=""stim_listB/play8.gif""style=""height:400px;""></stim_listB>",,html-keyboard-response,371,1309519,0.0-19.0-1.1,62328,List1B,white,man,,,,null,,,,
null,are playing with each other,,html-keyboard-response,372,1311521,0.0-19.0-2.1,62328,List1B,white,man,,,,null,,,,
8322,,,survey-text,373,1319845,0.0-19.0-3.1,62328,List1B,white,man,,,,,"{""Q0"":""beth and ruth are playing with eachother""}","<img src=""stim_listB/play8.gif""style=""height:400px;""></stim_listB>",are playing with each other,
null,"<div style=""font-size:60px;"">+</div>",,html-keyboard-response,374,1320348,0.0-19.0-0.2,62328,List1B,white,man,,,,null,,,,
null,"<img src=""stim_listB/kiss7.gif""style=""height:400px;""></stim_listB>",,html-keyboard-response,375,1322350,0.0-19.0-1.2,62328,List1B,white,man,,,,null,,,,
null,is kissing,,html-keyboard-response,376,1324351,0.0-19.0-2.2,62328,List1B,white,man,,,,null,,,,
4194,,,survey-text,377,1328547,0.0-19.0-3.2,62328,List1B,white,man,,,,,"{""Q0"":""beth is kissing ruth""}","<img src=""stim_listB/kiss7.gif""style=""height:400px;""></stim_listB>",is kissing,
null,"<div style=""font-size:60px;"">+</div>",,html-keyboard-response,378,1329051,0.0-19.0-0.3,62328,List1B,white,man,,,,null,,,,
null,"<img src=""stim_listB/touch6.gif""style=""height:400px;""></stim_listB>",,html-keyboard-response,379,1331058,0.0-19.0-1.3,62328,List1B,white,man,,,,null,,,,
null,are touching each other,,html-keyboard-response,380,1333061,0.0-19.0-2.3,62328,List1B,white,man,,,,null,,,,
8498,,,survey-text,381,1341561,0.0-19.0-3.3,62328,List1B,white,man,,,,,"{""Q0"":""fred and luke are touching eachother""}","<img src=""stim_listB/touch6.gif""style=""height:400px;""></stim_listB>",are touching each other,
null,"<div style=""font-size:60px;"">+</div>",,html-keyboard-response,382,1342065,0.0-19.0-0.4,62328,List1B,white,man,,,,null,,,,
null,"<img src=""stim_listB/marry7.gif""style=""height:400px;""></stim_listB>",,html-keyboard-response,383,1344067,0.0-19.0-1.4,62328,List1B,white,man,,,,null,,,,
null,is marrying,,html-keyboard-response,384,1346070,0.0-19.0-2.4,62328,List1B,white,man,,,,null,,,,
5646,,,survey-text,385,1351717,0.0-19.0-3.4,62328,List1B,white,man,,,,,"{""Q0"":""ruth is marrying kate""}","<img src=""stim_listB/marry7.gif""style=""height:400px;""></stim_listB>",is marrying,
null,"<div style=""font-size:60px;"">+</div>",,html-keyboard-response,386,1352223,0.0-19.0-0.5,62328,List1B,white,man,,,,null,,,,
null,"<img src=""stim_listB/flirt1.gif""style=""height:400px;""></stim_listB>",,html-keyboard-response,387,1354229,0.0-19.0-1.5,62328,List1B,white,man,,,,null,,,,
null,is flirting with,,html-keyboard-response,388,1356231,0.0-19.0-2.5,62328,List1B,white,man,,,,null,,,,
5509,,,survey-text,389,1361741,0.0-19.0-3.5,62328,List1B,white,man,,,,,"{""Q0"":""fred is flirting with kate""}","<img src=""stim_listB/flirt1.gif""style=""height:400px;""></stim_listB>",is flirting with,
null,"<div style=""font-size:60px;"">+</div>",,html-keyboard-response,390,1362244,0.0-19.0-0.6,62328,List1B,white,man,,,,null,,,,
null,"<img src=""stim_listB/shout3.gif""style=""height:400px;""></stim_listB>",,html-keyboard-response,391,1364251,0.0-19.0-1.6,62328,List1B,white,man,,,,null,,,,
null,is shouting at,,html-keyboard-response,392,1366253,0.0-19.0-2.6,62328,List1B,white,man,,,,null,,,,
6193,,,survey-text,393,1372449,0.0-19.0-3.6,62328,List1B,white,man,,,,,"{""Q0"":""luke is shouting at ruth""}","<img src=""stim_listB/shout3.gif""style=""height:400px;""></stim_listB>",is shouting at,
null,"<div style=""font-size:60px;"">+</div>",,html-keyboard-response,394,1372952,0.0-19.0-0.7,62328,List1B,white,man,,,,null,,,,
null,"<img src=""stim_listB/fight3.gif""style=""height:400px;""></stim_listB>",,html-keyboard-response,395,1374955,0.0-19.0-1.7,62328,List1B,white,man,,,,null,,,,
null,is fighting,,html-keyboard-response,396,1376958,0.0-19.0-2.7,62328,List1B,white,man,,,,null,,,,
13139,,,survey-text,397,1390099,0.0-19.0-3.7,62328,List1B,white,man,,,,,"{""Q0"":""dave is fighting with jane""}","<img src=""stim_listB/fight3.gif""style=""height:400px;""></stim_listB>",is fighting,
null,"<div style=""font-size:60px;"">+</div>",,html-keyboard-response,398,1390603,0.0-19.0-0.8,62328,List1B,white,man,,,,null,,,,
null,"<img src=""stim_listB/kiss3.gif""style=""height:400px;""></stim_listB>",,html-keyboard-response,399,1392606,0.0-19.0-1.8,62328,List1B,white,man,,,,null,,,,
null,is kissing,,html-keyboard-response,400,1394608,0.0-19.0-2.8,62328,List1B,white,man,,,,null,,,,
4380,,,survey-text,401,1398990,0.0-19.0-3.8,62328,List1B,white,man,,,,,"{""Q0"":""ruth is kissing luke""}","<img src=""stim_listB/kiss3.gif""style=""height:400px;""></stim_listB>",is kissing,
null,"<div style=""font-size:60px;"">+</div>",,html-keyboard-response,402,1399492,0.0-19.0-0.9,62328,List1B,white,man,,,,null,,,,
null,"<img src=""stim_listB/fight2.gif""style=""height:400px;""></stim_listB>",,html-keyboard-response,403,1401499,0.0-19.0-1.9,62328,List1B,white,man,,,,null,,,,
null,are fighting each other,,html-keyboard-response,404,1403501,0.0-19.0-2.9,62328,List1B,white,man,,,,null,,,,
9782,,,survey-text,405,1413284,0.0-19.0-3.9,62328,List1B,white,man,,,,,"{""Q0"":""fred and beth are fighting each other""}","<img src=""stim_listB/fight2.gif""style=""height:400px;""></stim_listB>",are fighting each other,
null,"<div style=""font-size:60px;"">+</div>",,html-keyboard-response,406,1413790,0.0-19.0-0.10,62328,List1B,white,man,,,,null,,,,
null,"<img src=""stim_listB/marry8.gif""style=""height:400px;""></stim_listB>",,html-keyboard-response,407,1415792,0.0-19.0-1.10,62328,List1B,white,man,,,,null,,,,
null,are marrying each other,,html-keyboard-response,408,1417793,0.0-19.0-2.10,62328,List1B,white,man,,,,null,,,,
6399,,,survey-text,409,1424193,0.0-19.0-3.10,62328,List1B,white,man,,,,,"{""Q0"":""beth and jane are marrying each other""}","<img src=""stim_listB/marry8.gif""style=""height:400px;""></stim_listB>",are marrying each other,
null,"<div style=""font-size:60px;"">+</div>",,html-keyboard-response,410,1424696,0.0-19.0-0.11,62328,List1B,white,man,,,,null,,,,
null,"<img src=""stim_listB/argue7.gif""style=""height:400px;""></stim_listB>",,html-keyboard-response,411,1426699,0.0-19.0-1.11,62328,List1B,white,man,,,,null,,,,
null,is arguing with,,html-keyboard-response,412,1428702,0.0-19.0-2.11,62328,List1B,white,man,,,,null,,,,
6756,,,survey-text,413,1435460,0.0-19.0-3.11,62328,List1B,white,man,,,,,"{""Q0"":""kate is arguing with ruth""}","<img src=""stim_listB/argue7.gif""style=""height:400px;""></stim_listB>",is arguing with,
null,"<div style=""font-size:60px;"">+</div>",,html-keyboard-response,414,1435964,0.0-19.0-0.12,62328,List1B,white,man,,,,null,,,,
null,"<img src=""stim_listB/talk4.gif""style=""height:400px;""></stim_listB>",,html-keyboard-response,415,1437967,0.0-19.0-1.12,62328,List1B,white,man,,,,null,,,,
null,are talking to each other,,html-keyboard-response,416,1439968,0.0-19.0-2.12,62328,List1B,white,man,,,,null,,,,
8689,,,survey-text,417,1448660,0.0-19.0-3.12,62328,List1B,white,man,,,,,"{""Q0"":""luke and ruth are talking to each other""}","<img src=""stim_listB/talk4.gif""style=""height:400px;""></stim_listB>",are talking to each other,
null,"<div style=""font-size:60px;"">+</div>",,html-keyboard-response,418,1449165,0.0-19.0-0.13,62328,List1B,white,man,,,,null,,,,
null,"<img src=""stim_listB/flirt5.gif""style=""height:400px;""></stim_listB>",,html-keyboard-response,419,1451166,0.0-19.0-1.13,62328,List1B,white,man,,,,null,,,,
null,is flirting with,,html-keyboard-response,420,1453168,0.0-19.0-2.13,62328,List1B,white,man,,,,null,,,,
6728,,,survey-text,421,1459898,0.0-19.0-3.13,62328,List1B,white,man,,,,,"{""Q0"":""fred is flirting with dave""}","<img src=""stim_listB/flirt5.gif""style=""height:400px;""></stim_listB>",is flirting with,
null,"<div style=""font-size:60px;"">+</div>",,html-keyboard-response,422,1460400,0.0-19.0-0.14,62328,List1B,white,man,,,,null,,,,
null,"<img src=""stim_listB/play4.gif""style=""height:400px;""></stim_listB>",,html-keyboard-response,423,1462404,0.0-19.0-1.14,62328,List1B,white,man,,,,null,,,,
null,are playing with each other,,html-keyboard-response,424,1464408,0.0-19.0-2.14,62328,List1B,white,man,,,,null,,,,
7488,,,survey-text,425,1471898,0.0-19.0-3.14,62328,List1B,white,man,,,,,"{""Q0"":""luke and ruth are playing with each other""}","<img src=""stim_listB/play4.gif""style=""height:400px;""></stim_listB>",are playing with each other,
null,"<div style=""font-size:60px;"">+</div>",,html-keyboard-response,426,1472399,0.0-19.0-0.15,62328,List1B,white,man,,,,null,,,,
null,"<img src=""stim_listB/marry2.gif""style=""height:400px;""></stim_listB>",,html-keyboard-response,427,1474402,0.0-19.0-1.15,62328,List1B,white,man,,,,null,,,,
null,are marrying each other,,html-keyboard-response,428,1476405,0.0-19.0-2.15,62328,List1B,white,man,,,,null,,,,
6896,,,survey-text,429,1483303,0.0-19.0-3.15,62328,List1B,white,man,,,,,"{""Q0"":""kate and fred are marrying each other""}","<img src=""stim_listB/marry2.gif""style=""height:400px;""></stim_listB>",are marrying each other,
null,"<div style=""font-size:60px;"">+</div>",,html-keyboard-response,430,1483808,0.0-19.0-0.16,62328,List1B,white,man,,,,null,,,,
null,"<img src=""stim_listB/marry5.gif""style=""height:400px;""></stim_listB>",,html-keyboard-response,431,1485813,0.0-19.0-1.16,62328,List1B,white,man,,,,null,,,,
null,is marrying,,html-keyboard-response,432,1487814,0.0-19.0-2.16,62328,List1B,white,man,,,,null,,,,
6651,,,survey-text,433,1494466,0.0-19.0-3.16,62328,List1B,white,man,,,,,"{""Q0"":""luke is marrying mike""}","<img src=""stim_listB/marry5.gif""style=""height:400px;""></stim_listB>",is marrying,
null,"<div style=""font-size:60px;"">+</div>",,html-keyboard-response,434,1494970,0.0-19.0-0.17,62328,List1B,white,man,,,,null,,,,
null,"<img src=""stim_listB/shout8.gif""style=""height:400px;""></stim_listB>",,html-keyboard-response,435,1496973,0.0-19.0-1.17,62328,List1B,white,man,,,,null,,,,
null,are shouting at each other,,html-keyboard-response,436,1498975,0.0-19.0-2.17,62328,List1B,white,man,,,,null,,,,
7033,,,survey-text,437,1506010,0.0-19.0-3.17,62328,List1B,white,man,,,,,"{""Q0"":""kate and jane are shouting at eachother""}","<img src=""stim_listB/shout8.gif""style=""height:400px;""></stim_listB>",are shouting at each other,
null,"<div style=""font-size:60px;"">+</div>",,html-keyboard-response,438,1506516,0.0-19.0-0.18,62328,List1B,white,man,,,,null,,,,
null,"<img src=""stim_listB/play6.gif""style=""height:400px;""></stim_listB>",,html-keyboard-response,439,1508518,0.0-19.0-1.18,62328,List1B,white,man,,,,null,,,,
null,are playing with each other,,html-keyboard-response,440,1510521,0.0-19.0-2.18,62328,List1B,white,man,,,,null,,,,
9511,,,survey-text,441,1520034,0.0-19.0-3.18,62328,List1B,white,man,,,,,"{""Q0"":""luke and fred are playing with each other""}","<img src=""stim_listB/play6.gif""style=""height:400px;""></stim_listB>",are playing with each other,
null,"<div style=""font-size:60px;"">+</div>",,html-keyboard-response,442,1520538,0.0-19.0-0.19,62328,List1B,white,man,,,,null,,,,
null,"<img src=""stim_listB/touch8.gif""style=""height:400px;""></stim_listB>",,html-keyboard-response,443,1522541,0.0-19.0-1.19,62328,List1B,white,man,,,,null,,,,
null,are touching each other,,html-keyboard-response,444,1524545,0.0-19.0-2.19,62328,List1B,white,man,,,,null,,,,
9550,,,survey-text,445,1534096,0.0-19.0-3.19,62328,List1B,white,man,,,,,"{""Q0"":""beth and ruth are touching each other""}","<img src=""stim_listB/touch8.gif""style=""height:400px;""></stim_listB>",are touching each other,
1844,<p>Thank you for completing that task.</p><p>The final part of this session is a short questionnaire.</p><p>Press Continue.</p>,0,html-button-response,446,1535944,0.0-20.0,62328,List1B,white,man,,,,,,,,
31342,,,survey-text,447,1568292,0.0-21.0,62328,List1B,white,man,,,,,"{""Q0"":""27"",""Q1"":""English"",""Q2"":""English"",""Q3"":""UK"",""Q4"":""British"",""Q5"":""Male""}",,,demographics
7396,,,survey-likert,448,1575692,0.0-22.0,62328,List1B,white,man,,,,,"{""Q0"":4}",,,likert_ESS
7845,,,survey-likert,449,1583542,0.0-23.0,62328,List1B,white,man,,,,,"{""Q0"":4}",,,likert_NSSAL_Q1
2860,,,survey-likert,450,1586405,0.0-24.0,62328,List1B,white,man,,,,,"{""Q0"":4}",,,likert_NSSAL_Q2
5254,,,survey-likert,451,1591664,0.0-25.0,62328,List1B,white,man,,,,,"{""Q0"":4}",,,likert_CGRS_Q1
3997,,,survey-likert,452,1595664,0.0-26.0,62328,List1B,white,man,,,,,"{""Q0"":4}",,,likert_CGRS_Q2
3306,,,survey-likert,453,1598974,0.0-27.0,62328,List1B,white,man,,,,,"{""Q0"":4}",,,likert_CGRS_Q3
14309,,,survey-text,454,1613287,0.0-28.0,62328,List1B,white,man,,,,,"{""Q0"":""ccc""}",,,worker_id
50080,,,external-html,455,1663424,0.0-29.0,62328,List1B,white,man,debrief.html,,,,,,,
