"rt","stimulus","button_pressed","trial_type","trial_index","time_elapsed","internal_node_id","subject","list","ppt_race","ppt_gender","url","first_guess","correct","key_press","responses","image_type","phrase_type","test_part"
"2549","Welcome to the experiment. Press Continue to begin.","0","html-button-response","0","2559","0.0-0.0","62797","List1A","black","woman","","","","","","","",""
"38065","","","external-html","1","42206","0.0-1.0","62797","List1A","black","woman","consent.html","","","","","","",""
"6559","<p>On the next page, you will see portraits of 8 people and their names.</p><p>Your first task is to take a few minutes to memorise the names of these people.</p><p>You will have to recall their names during the rest of the experiment, so it is</p><p>essential that you try to memorise these people and their names as best as you can.</p><br><p><strong>You will then be tested on your memory of these names and portraits.</strong></p><br><p>The experiment will start after you have completed this memory test.</p><br><p>Ready?</p>","0","html-button-response","2","48772","0.0-2.0","62797","List1A","black","woman","","","","","","","",""
"76552","<img src='img/portrait_matrix_list1.jpg' style='width:900px;height:500px;''></img><p>If you have memorised all the portraits and names and are ready to start, press Continue.</p><p><strong>Please note: Your memory of these faces will be tested 4 times during this experiment.</strong></p>","0","html-button-response","3","126331","0.0-3.0-0.0","62797","List1A","black","woman","","","","","","","",""
"6393","<img src=""portrait/BM1.jpg""style=""height:400px;""></img>","4","html-button-response","4","133739","0.0-3.0-1.0","62797","List1A","black","woman","","true","4","","","","",""
"null","CORRECT","","html-keyboard-response","5","135246","0.0-3.0-2.0-0.0","62797","List1A","black","woman","","","","null","","","",""
"5974","<img src=""portrait/BM2.jpg""style=""height:400px;""></img>","5","html-button-response","6","141227","0.0-3.0-4.0","62797","List1A","black","woman","","true","5","","","","",""
"null","CORRECT","","html-keyboard-response","7","142733","0.0-3.0-5.0-0.0","62797","List1A","black","woman","","","","null","","","",""
"6074","<img src=""portrait/WW1.jpg""style=""height:400px;""></img>","1","html-button-response","8","148811","0.0-3.0-7.0","62797","List1A","black","woman","","true","1","","","","",""
"null","CORRECT","","html-keyboard-response","9","150314","0.0-3.0-8.0-0.0","62797","List1A","black","woman","","","","null","","","",""
"1734","<img src=""portrait/BW2.jpg""style=""height:400px;""></img>","2","html-button-response","10","152051","0.0-3.0-10.0","62797","List1A","black","woman","","true","2","","","","",""
"null","CORRECT","","html-keyboard-response","11","153554","0.0-3.0-11.0-0.0","62797","List1A","black","woman","","","","null","","","",""
"1782","<img src=""portrait/BW1.jpg""style=""height:400px;""></img>","0","html-button-response","12","155339","0.0-3.0-13.0","62797","List1A","black","woman","","true","0","","","","",""
"null","CORRECT","","html-keyboard-response","13","156842","0.0-3.0-14.0-0.0","62797","List1A","black","woman","","","","null","","","",""
"4828","<img src=""portrait/WM2.jpg""style=""height:400px;""></img>","6","html-button-response","14","161672","0.0-3.0-16.0","62797","List1A","black","woman","","true","7","","","","",""
"1760","<img src=""portrait/WM2.jpg""style=""height:400px;""></img>","7","html-button-response","15","164434","0.0-3.0-18.0-0.0","62797","List1A","black","woman","","false","7","","","","",""
"null","CORRECT","","html-keyboard-response","16","165939","0.0-3.0-18.0-1.0-0.0","62797","List1A","black","woman","","","","null","","","",""
"1946","<img src=""portrait/WM1.jpg""style=""height:400px;""></img>","6","html-button-response","17","167891","0.0-3.0-19.0","62797","List1A","black","woman","","true","6","","","","",""
"null","CORRECT","","html-keyboard-response","18","169394","0.0-3.0-20.0-0.0","62797","List1A","black","woman","","","","null","","","",""
"2111","<img src=""portrait/WW2.jpg""style=""height:400px;""></img>","3","html-button-response","19","171507","0.0-3.0-22.0","62797","List1A","black","woman","","true","3","","","","",""
"null","CORRECT","","html-keyboard-response","20","173010","0.0-3.0-23.0-0.0","62797","List1A","black","woman","","","","null","","","",""
"1014","<p>You got 7 out of 8 right first time. Press Continue.</p>","0","html-button-response","21","174027","0.0-3.0-25.0","62797","List1A","black","woman","","","","","","","",""
"1325","As you did not score 100%, the memory game will repeat. Press Continue.","0","html-button-response","22","176354","0.0-3.0-26.0-0.0","62797","List1A","black","woman","","","","","","","",""
"8667","<img src='img/portrait_matrix_list1.jpg' style='width:900px;height:500px;''></img><p>If you have memorised all the portraits and names and are ready to start, press Continue.</p><p><strong>Please note: Your memory of these faces will be tested 4 times during this experiment.</strong></p>","0","html-button-response","23","186026","0.0-3.1-0.1","62797","List1A","black","woman","","","","","","","",""
"2394","<img src=""portrait/BM1.jpg""style=""height:400px;""></img>","4","html-button-response","24","189426","0.0-3.1-1.1","62797","List1A","black","woman","","true","4","","","","",""
"null","CORRECT","","html-keyboard-response","25","190930","0.0-3.1-2.1-0.1","62797","List1A","black","woman","","","","null","","","",""
"2524","<img src=""portrait/BM2.jpg""style=""height:400px;""></img>","5","html-button-response","26","193459","0.0-3.1-4.1","62797","List1A","black","woman","","true","5","","","","",""
"null","CORRECT","","html-keyboard-response","27","194963","0.0-3.1-5.1-0.1","62797","List1A","black","woman","","","","null","","","",""
"2773","<img src=""portrait/WW1.jpg""style=""height:400px;""></img>","1","html-button-response","28","197739","0.0-3.1-7.1","62797","List1A","black","woman","","true","1","","","","",""
"null","CORRECT","","html-keyboard-response","29","199242","0.0-3.1-8.1-0.1","62797","List1A","black","woman","","","","null","","","",""
"1654","<img src=""portrait/BW2.jpg""style=""height:400px;""></img>","2","html-button-response","30","200899","0.0-3.1-10.1","62797","List1A","black","woman","","true","2","","","","",""
"null","CORRECT","","html-keyboard-response","31","202402","0.0-3.1-11.1-0.1","62797","List1A","black","woman","","","","null","","","",""
"1917","<img src=""portrait/BW1.jpg""style=""height:400px;""></img>","0","html-button-response","32","204322","0.0-3.1-13.1","62797","List1A","black","woman","","true","0","","","","",""
"null","CORRECT","","html-keyboard-response","33","205828","0.0-3.1-14.1-0.1","62797","List1A","black","woman","","","","null","","","",""
"1538","<img src=""portrait/WM2.jpg""style=""height:400px;""></img>","7","html-button-response","34","207370","0.0-3.1-16.1","62797","List1A","black","woman","","true","7","","","","",""
"null","CORRECT","","html-keyboard-response","35","208873","0.0-3.1-17.1-0.1","62797","List1A","black","woman","","","","null","","","",""
"1200","<img src=""portrait/WM1.jpg""style=""height:400px;""></img>","6","html-button-response","36","210074","0.0-3.1-19.1","62797","List1A","black","woman","","true","6","","","","",""
"null","CORRECT","","html-keyboard-response","37","211577","0.0-3.1-20.1-0.1","62797","List1A","black","woman","","","","null","","","",""
"1655","<img src=""portrait/WW2.jpg""style=""height:400px;""></img>","3","html-button-response","38","213235","0.0-3.1-22.1","62797","List1A","black","woman","","true","3","","","","",""
"null","CORRECT","","html-keyboard-response","39","214737","0.0-3.1-23.1-0.1","62797","List1A","black","woman","","","","null","","","",""
"1455","<p>You got 8 out of 8 right first time. Press Continue.</p>","0","html-button-response","40","216194","0.0-3.1-25.1","62797","List1A","black","woman","","","","","","","",""
"13148","<p>In this experiment, you will view photographs of the people from the memory game interacting.</p><p>By using the <strong>exact</strong> phrase given <i>after</i> the photograph appears and recalling the correct names of the people in the photographs, form a sentence describing the interaction. You do not need to capitalise names.</p><p>Type your answer in the space provided. Please complete every sentence before moving onto the next trial.</p><p>You will only have a few seconds to memorise each given photograph and phrase before you can respond, so try your best to focus.</p><p>An example is given below. Press 'Continue' when you are ready.</p><img src='img/speaking_example.jpg' style='width:800px;height:460px;''></img>","0","html-button-response","41","230347","0.0-4.0","62797","List1A","black","woman","","","","","","","",""
"1100","<p>Before the experiment starts, you will watch two example trials. Press 'Continue'.</p>","0","html-button-response","42","232450","0.0-5.0","62797","List1A","black","woman","","","","","","","",""
"null","<img src='img/meet_eg.gif' style='height:400px;''></img>","","html-keyboard-response","43","235455","0.0-6.0","62797","List1A","black","woman","","","","null","","","",""
"null","<p>is meeting</p>","","html-keyboard-response","44","237458","0.0-7.0","62797","List1A","black","woman","","","","null","","","",""
"1992","<p><b>Answer:</b> kate is meeting beth</p>","0","html-button-response","45","239451","0.0-8.0","62797","List1A","black","woman","","","","","","","",""
"null","<img src='img/look_eg.gif' style='height:400px;''></img>","","html-keyboard-response","46","242454","0.0-9.0","62797","List1A","black","woman","","","","null","","","",""
"null","<p>are looking at each other</p>","","html-keyboard-response","47","244455","0.0-10.0","62797","List1A","black","woman","","","","null","","","",""
"1091","<p><b>Answer:</b> luke and dave are looking at each other</p>","0","html-button-response","48","245547","0.0-11.0","62797","List1A","black","woman","","","","","","","",""
"5485","<p>Ready to start the experiment?</p><br><p><strong>Remember to describe the picture using a full sentence,</strong></p><p><strong>that combines the names of the people with the <i>exact</i> phrase given.</strong></p><p><strong>To receive full payment you must do this correctly.</strong></p><p><strong> You do not need to capitalise names or use punctuation.</strong></p><br><p>Press 'Continue' to begin.</p>","0","html-button-response","49","252034","0.0-12.0","62797","List1A","black","woman","","","","","","","",""
"null","<div style=""font-size:60px;"">+</div>","","html-keyboard-response","50","253538","0.0-13.0-0.0","62797","List1A","black","woman","","","","null","","","",""
"null","<img src=""stim_listA/fight5.gif""style=""height:400px;""></stim_listA>","","html-keyboard-response","51","255540","0.0-13.0-1.0","62797","List1A","black","woman","","","","null","","","",""
"null","is fighting","","html-keyboard-response","52","257541","0.0-13.0-2.0","62797","List1A","black","woman","","","","null","","","",""
"6244","","","survey-text","53","263788","0.0-13.0-3.0","62797","List1A","black","woman","","","","","{""Q0"":""dave and mike are fighting""}","<img src=""stim_listA/fight5.gif""style=""height:400px;""></stim_listA>","is fighting",""
"null","<div style=""font-size:60px;"">+</div>","","html-keyboard-response","54","264290","0.0-13.0-0.1","62797","List1A","black","woman","","","","null","","","",""
"null","<img src=""stim_listA/flirt6.gif""style=""height:400px;""></stim_listA>","","html-keyboard-response","55","266292","0.0-13.0-1.1","62797","List1A","black","woman","","","","null","","","",""
"null","are flirting with each other","","html-keyboard-response","56","268294","0.0-13.0-2.1","62797","List1A","black","woman","","","","null","","","",""
"4026","","","survey-text","57","272323","0.0-13.0-3.1","62797","List1A","black","woman","","","","","{""Q0"":""luke and mike""}","<img src=""stim_listA/flirt6.gif""style=""height:400px;""></stim_listA>","are flirting with each other",""
"null","<div style=""font-size:60px;"">+</div>","","html-keyboard-response","58","272827","0.0-13.0-0.2","62797","List1A","black","woman","","","","null","","","",""
"null","<img src=""stim_listA/argue6.gif""style=""height:400px;""></stim_listA>","","html-keyboard-response","59","274829","0.0-13.0-1.2","62797","List1A","black","woman","","","","null","","","",""
"null","are arguing with each other","","html-keyboard-response","60","276831","0.0-13.0-2.2","62797","List1A","black","woman","","","","null","","","",""
"3191","","","survey-text","61","280024","0.0-13.0-3.2","62797","List1A","black","woman","","","","","{""Q0"":""fred and dave""}","<img src=""stim_listA/argue6.gif""style=""height:400px;""></stim_listA>","are arguing with each other",""
"null","<div style=""font-size:60px;"">+</div>","","html-keyboard-response","62","280529","0.0-13.0-0.3","62797","List1A","black","woman","","","","null","","","",""
"null","<img src=""stim_listA/dance7.gif""style=""height:400px;""></stim_listA>","","html-keyboard-response","63","282531","0.0-13.0-1.3","62797","List1A","black","woman","","","","null","","","",""
"null","is dancing with","","html-keyboard-response","64","284532","0.0-13.0-2.3","62797","List1A","black","woman","","","","null","","","",""
"4423","","","survey-text","65","288956","0.0-13.0-3.3","62797","List1A","black","woman","","","","","{""Q0"":""ruth and beth""}","<img src=""stim_listA/dance7.gif""style=""height:400px;""></stim_listA>","is dancing with",""
"null","<div style=""font-size:60px;"">+</div>","","html-keyboard-response","66","289459","0.0-13.0-0.4","62797","List1A","black","woman","","","","null","","","",""
"null","<img src=""stim_listA/touch8.gif""style=""height:400px;""></stim_listA>","","html-keyboard-response","67","291460","0.0-13.0-1.4","62797","List1A","black","woman","","","","null","","","",""
"null","are touching each other","","html-keyboard-response","68","293461","0.0-13.0-2.4","62797","List1A","black","woman","","","","null","","","",""
"2515","","","survey-text","69","295979","0.0-13.0-3.4","62797","List1A","black","woman","","","","","{""Q0"":""ruth and beth""}","<img src=""stim_listA/touch8.gif""style=""height:400px;""></stim_listA>","are touching each other",""
"null","<div style=""font-size:60px;"">+</div>","","html-keyboard-response","70","296484","0.0-13.0-0.5","62797","List1A","black","woman","","","","null","","","",""
"null","<img src=""stim_listA/talk3.gif""style=""height:400px;""></stim_listA>","","html-keyboard-response","71","298486","0.0-13.0-1.5","62797","List1A","black","woman","","","","null","","","",""
"null","is talking to","","html-keyboard-response","72","300489","0.0-13.0-2.5","62797","List1A","black","woman","","","","null","","","",""
"3056","","","survey-text","73","303547","0.0-13.0-3.5","62797","List1A","black","woman","","","","","{""Q0"":""luke and jane""}","<img src=""stim_listA/talk3.gif""style=""height:400px;""></stim_listA>","is talking to",""
"null","<div style=""font-size:60px;"">+</div>","","html-keyboard-response","74","304050","0.0-13.0-0.6","62797","List1A","black","woman","","","","null","","","",""
"null","<img src=""stim_listA/flirt1.gif""style=""height:400px;""></stim_listA>","","html-keyboard-response","75","306051","0.0-13.0-1.6","62797","List1A","black","woman","","","","null","","","",""
"null","is flirting with","","html-keyboard-response","76","308052","0.0-13.0-2.6","62797","List1A","black","woman","","","","null","","","",""
"3369","","","survey-text","77","311421","0.0-13.0-3.6","62797","List1A","black","woman","","","","","{""Q0"":""fred and kate""}","<img src=""stim_listA/flirt1.gif""style=""height:400px;""></stim_listA>","is flirting with",""
"null","<div style=""font-size:60px;"">+</div>","","html-keyboard-response","78","311924","0.0-13.0-0.7","62797","List1A","black","woman","","","","null","","","",""
"null","<img src=""stim_listA/marry2.gif""style=""height:400px;""></stim_listA>","","html-keyboard-response","79","313926","0.0-13.0-1.7","62797","List1A","black","woman","","","","null","","","",""
"null","are marrying each other","","html-keyboard-response","80","315929","0.0-13.0-2.7","62797","List1A","black","woman","","","","null","","","",""
"2450","","","survey-text","81","318380","0.0-13.0-3.7","62797","List1A","black","woman","","","","","{""Q0"":""fred and kate""}","<img src=""stim_listA/marry2.gif""style=""height:400px;""></stim_listA>","are marrying each other",""
"null","<div style=""font-size:60px;"">+</div>","","html-keyboard-response","82","318889","0.0-13.0-0.8","62797","List1A","black","woman","","","","null","","","",""
"null","<img src=""stim_listA/shout7.gif""style=""height:400px;""></stim_listA>","","html-keyboard-response","83","320893","0.0-13.0-1.8","62797","List1A","black","woman","","","","null","","","",""
"null","is shouting at","","html-keyboard-response","84","322896","0.0-13.0-2.8","62797","List1A","black","woman","","","","null","","","",""
"4147","","","survey-text","85","327046","0.0-13.0-3.8","62797","List1A","black","woman","","","","","{""Q0"":""beth and ruth""}","<img src=""stim_listA/shout7.gif""style=""height:400px;""></stim_listA>","is shouting at",""
"null","<div style=""font-size:60px;"">+</div>","","html-keyboard-response","86","327548","0.0-13.0-0.9","62797","List1A","black","woman","","","","null","","","",""
"null","<img src=""stim_listA/talk1.gif""style=""height:400px;""></stim_listA>","","html-keyboard-response","87","329551","0.0-13.0-1.9","62797","List1A","black","woman","","","","null","","","",""
"null","is talking to","","html-keyboard-response","88","331552","0.0-13.0-2.9","62797","List1A","black","woman","","","","null","","","",""
"5015","","","survey-text","89","336568","0.0-13.0-3.9","62797","List1A","black","woman","","","","","{""Q0"":""fred and kate""}","<img src=""stim_listA/talk1.gif""style=""height:400px;""></stim_listA>","is talking to",""
"null","<div style=""font-size:60px;"">+</div>","","html-keyboard-response","90","337071","0.0-13.0-0.10","62797","List1A","black","woman","","","","null","","","",""
"null","<img src=""stim_listA/talk4.gif""style=""height:400px;""></stim_listA>","","html-keyboard-response","91","339073","0.0-13.0-1.10","62797","List1A","black","woman","","","","null","","","",""
"null","are talking to each other","","html-keyboard-response","92","341073","0.0-13.0-2.10","62797","List1A","black","woman","","","","null","","","",""
"2771","","","survey-text","93","343847","0.0-13.0-3.10","62797","List1A","black","woman","","","","","{""Q0"":""ruth and dave""}","<img src=""stim_listA/talk4.gif""style=""height:400px;""></stim_listA>","are talking to each other",""
"null","<div style=""font-size:60px;"">+</div>","","html-keyboard-response","94","344349","0.0-13.0-0.11","62797","List1A","black","woman","","","","null","","","",""
"null","<img src=""stim_listA/argue4.gif""style=""height:400px;""></stim_listA>","","html-keyboard-response","95","346351","0.0-13.0-1.11","62797","List1A","black","woman","","","","null","","","",""
"null","are arguing with each other","","html-keyboard-response","96","348353","0.0-13.0-2.11","62797","List1A","black","woman","","","","null","","","",""
"2506","","","survey-text","97","350863","0.0-13.0-3.11","62797","List1A","black","woman","","","","","{""Q0"":""luke and jane""}","<img src=""stim_listA/argue4.gif""style=""height:400px;""></stim_listA>","are arguing with each other",""
"null","<div style=""font-size:60px;"">+</div>","","html-keyboard-response","98","351365","0.0-13.0-0.12","62797","List1A","black","woman","","","","null","","","",""
"null","<img src=""stim_listA/marry6.gif""style=""height:400px;""></stim_listA>","","html-keyboard-response","99","353368","0.0-13.0-1.12","62797","List1A","black","woman","","","","null","","","",""
"null","are marrying each other","","html-keyboard-response","100","355370","0.0-13.0-2.12","62797","List1A","black","woman","","","","null","","","",""
"3761","","","survey-text","101","359136","0.0-13.0-3.12","62797","List1A","black","woman","","","","","{""Q0"":""luke and fred""}","<img src=""stim_listA/marry6.gif""style=""height:400px;""></stim_listA>","are marrying each other",""
"null","<div style=""font-size:60px;"">+</div>","","html-keyboard-response","102","359639","0.0-13.0-0.13","62797","List1A","black","woman","","","","null","","","",""
"null","<img src=""stim_listA/fight8.gif""style=""height:400px;""></stim_listA>","","html-keyboard-response","103","361642","0.0-13.0-1.13","62797","List1A","black","woman","","","","null","","","",""
"null","are fighting each other","","html-keyboard-response","104","363643","0.0-13.0-2.13","62797","List1A","black","woman","","","","null","","","",""
"2371","","","survey-text","105","366016","0.0-13.0-3.13","62797","List1A","black","woman","","","","","{""Q0"":""beth and ruth""}","<img src=""stim_listA/fight8.gif""style=""height:400px;""></stim_listA>","are fighting each other",""
"null","<div style=""font-size:60px;"">+</div>","","html-keyboard-response","106","366519","0.0-13.0-0.14","62797","List1A","black","woman","","","","null","","","",""
"null","<img src=""stim_listA/shout8.gif""style=""height:400px;""></stim_listA>","","html-keyboard-response","107","368522","0.0-13.0-1.14","62797","List1A","black","woman","","","","null","","","",""
"null","are shouting at each other","","html-keyboard-response","108","370524","0.0-13.0-2.14","62797","List1A","black","woman","","","","null","","","",""
"2320","","","survey-text","109","372848","0.0-13.0-3.14","62797","List1A","black","woman","","","","","{""Q0"":""jane and kate""}","<img src=""stim_listA/shout8.gif""style=""height:400px;""></stim_listA>","are shouting at each other",""
"null","<div style=""font-size:60px;"">+</div>","","html-keyboard-response","110","373350","0.0-13.0-0.15","62797","List1A","black","woman","","","","null","","","",""
"null","<img src=""stim_listA/fight7.gif""style=""height:400px;""></stim_listA>","","html-keyboard-response","111","375351","0.0-13.0-1.15","62797","List1A","black","woman","","","","null","","","",""
"null","is fighting","","html-keyboard-response","112","377351","0.0-13.0-2.15","62797","List1A","black","woman","","","","null","","","",""
"2893","","","survey-text","113","380246","0.0-13.0-3.15","62797","List1A","black","woman","","","","","{""Q0"":""jane and kate""}","<img src=""stim_listA/fight7.gif""style=""height:400px;""></stim_listA>","is fighting",""
"null","<div style=""font-size:60px;"">+</div>","","html-keyboard-response","114","380748","0.0-13.0-0.16","62797","List1A","black","woman","","","","null","","","",""
"null","<img src=""stim_listA/play5.gif""style=""height:400px;""></stim_listA>","","html-keyboard-response","115","382750","0.0-13.0-1.16","62797","List1A","black","woman","","","","null","","","",""
"null","is playing with","","html-keyboard-response","116","384752","0.0-13.0-2.16","62797","List1A","black","woman","","","","null","","","",""
"9528","","","survey-text","117","394281","0.0-13.0-3.16","62797","List1A","black","woman","","","","","{""Q0"":""mike and dave ""}","<img src=""stim_listA/play5.gif""style=""height:400px;""></stim_listA>","is playing with",""
"null","<div style=""font-size:60px;"">+</div>","","html-keyboard-response","118","394784","0.0-13.0-0.17","62797","List1A","black","woman","","","","null","","","",""
"null","<img src=""stim_listA/marry1.gif""style=""height:400px;""></stim_listA>","","html-keyboard-response","119","396786","0.0-13.0-1.17","62797","List1A","black","woman","","","","null","","","",""
"null","is marrying","","html-keyboard-response","120","398787","0.0-13.0-2.17","62797","List1A","black","woman","","","","null","","","",""
"8134","","","survey-text","121","406923","0.0-13.0-3.17","62797","List1A","black","woman","","","","","{""Q0"":""beth and luke""}","<img src=""stim_listA/marry1.gif""style=""height:400px;""></stim_listA>","is marrying",""
"null","<div style=""font-size:60px;"">+</div>","","html-keyboard-response","122","407447","0.0-13.0-0.18","62797","List1A","black","woman","","","","null","","","",""
"null","<img src=""stim_listA/kiss3.gif""style=""height:400px;""></stim_listA>","","html-keyboard-response","123","409449","0.0-13.0-1.18","62797","List1A","black","woman","","","","null","","","",""
"null","is kissing","","html-keyboard-response","124","411450","0.0-13.0-2.18","62797","List1A","black","woman","","","","null","","","",""
"3506","","","survey-text","125","414957","0.0-13.0-3.18","62797","List1A","black","woman","","","","","{""Q0"":""ruth and luke""}","<img src=""stim_listA/kiss3.gif""style=""height:400px;""></stim_listA>","is kissing",""
"null","<div style=""font-size:60px;"">+</div>","","html-keyboard-response","126","415460","0.0-13.0-0.19","62797","List1A","black","woman","","","","null","","","",""
"null","<img src=""stim_listA/shout2.gif""style=""height:400px;""></stim_listA>","","html-keyboard-response","127","417461","0.0-13.0-1.19","62797","List1A","black","woman","","","","null","","","",""
"null","are shouting at each other","","html-keyboard-response","128","419463","0.0-13.0-2.19","62797","List1A","black","woman","","","","null","","","",""
"4191","","","survey-text","129","423656","0.0-13.0-3.19","62797","List1A","black","woman","","","","","{""Q0"":""kate and mike""}","<img src=""stim_listA/shout2.gif""style=""height:400px;""></stim_listA>","are shouting at each other",""
"12623","<img src='img/portrait_matrix_list1.jpg' style='width:900px;height:500px;''></img><p>If you have memorised all the portraits and names and are ready to start, press Continue.</p><p><strong>Please note: Your memory of these faces will be tested 4 times during this experiment.</strong></p>","0","html-button-response","130","436282","0.0-14.0-0.0","62797","List1A","black","woman","","","","","","","",""
"2771","<img src=""portrait/WM2.jpg""style=""height:400px;""></img>","7","html-button-response","131","440058","0.0-14.0-1.0","62797","List1A","black","woman","","true","7","","","","",""
"null","CORRECT","","html-keyboard-response","132","441564","0.0-14.0-2.0-0.0","62797","List1A","black","woman","","","","null","","","",""
"1405","<img src=""portrait/WW2.jpg""style=""height:400px;""></img>","3","html-button-response","133","442971","0.0-14.0-4.0","62797","List1A","black","woman","","true","3","","","","",""
"null","CORRECT","","html-keyboard-response","134","444473","0.0-14.0-5.0-0.0","62797","List1A","black","woman","","","","null","","","",""
"1895","<img src=""portrait/BM2.jpg""style=""height:400px;""></img>","5","html-button-response","135","446370","0.0-14.0-7.0","62797","List1A","black","woman","","true","5","","","","",""
"null","CORRECT","","html-keyboard-response","136","447875","0.0-14.0-8.0-0.0","62797","List1A","black","woman","","","","null","","","",""
"1268","<img src=""portrait/BM1.jpg""style=""height:400px;""></img>","4","html-button-response","137","449146","0.0-14.0-10.0","62797","List1A","black","woman","","true","4","","","","",""
"null","CORRECT","","html-keyboard-response","138","450649","0.0-14.0-11.0-0.0","62797","List1A","black","woman","","","","null","","","",""
"1647","<img src=""portrait/WM1.jpg""style=""height:400px;""></img>","6","html-button-response","139","452298","0.0-14.0-13.0","62797","List1A","black","woman","","true","6","","","","",""
"null","CORRECT","","html-keyboard-response","140","453801","0.0-14.0-14.0-0.0","62797","List1A","black","woman","","","","null","","","",""
"2494","<img src=""portrait/WW1.jpg""style=""height:400px;""></img>","3","html-button-response","141","456299","0.0-14.0-16.0","62797","List1A","black","woman","","true","1","","","","",""
"3179","<img src=""portrait/WW1.jpg""style=""height:400px;""></img>","1","html-button-response","142","460482","0.0-14.0-18.0-0.0","62797","List1A","black","woman","","false","1","","","","",""
"null","CORRECT","","html-keyboard-response","143","461985","0.0-14.0-18.0-1.0-0.0","62797","List1A","black","woman","","","","null","","","",""
"1351","<img src=""portrait/BW2.jpg""style=""height:400px;""></img>","2","html-button-response","144","463338","0.0-14.0-19.0","62797","List1A","black","woman","","true","2","","","","",""
"null","CORRECT","","html-keyboard-response","145","464841","0.0-14.0-20.0-0.0","62797","List1A","black","woman","","","","null","","","",""
"2046","<img src=""portrait/BW1.jpg""style=""height:400px;""></img>","0","html-button-response","146","466890","0.0-14.0-22.0","62797","List1A","black","woman","","true","0","","","","",""
"null","CORRECT","","html-keyboard-response","147","468393","0.0-14.0-23.0-0.0","62797","List1A","black","woman","","","","null","","","",""
"1417","<p>You got 7 out of 8 right first time. Press Continue.</p>","0","html-button-response","148","469811","0.0-14.0-25.0","62797","List1A","black","woman","","","","","","","",""
"1164","As you did not score 100%, the memory game will repeat. Press Continue.","0","html-button-response","149","471979","0.0-14.0-26.0-0.0","62797","List1A","black","woman","","","","","","","",""
"8387","<img src='img/portrait_matrix_list1.jpg' style='width:900px;height:500px;''></img><p>If you have memorised all the portraits and names and are ready to start, press Continue.</p><p><strong>Please note: Your memory of these faces will be tested 4 times during this experiment.</strong></p>","0","html-button-response","150","481370","0.0-14.1-0.1","62797","List1A","black","woman","","","","","","","",""
"3108","<img src=""portrait/WM2.jpg""style=""height:400px;""></img>","7","html-button-response","151","485481","0.0-14.1-1.1","62797","List1A","black","woman","","true","7","","","","",""
"null","CORRECT","","html-keyboard-response","152","486985","0.0-14.1-2.1-0.1","62797","List1A","black","woman","","","","null","","","",""
"1782","<img src=""portrait/WW2.jpg""style=""height:400px;""></img>","3","html-button-response","153","488769","0.0-14.1-4.1","62797","List1A","black","woman","","true","3","","","","",""
"null","CORRECT","","html-keyboard-response","154","490273","0.0-14.1-5.1-0.1","62797","List1A","black","woman","","","","null","","","",""
"1599","<img src=""portrait/BM2.jpg""style=""height:400px;""></img>","5","html-button-response","155","491874","0.0-14.1-7.1","62797","List1A","black","woman","","true","5","","","","",""
"null","CORRECT","","html-keyboard-response","156","493380","0.0-14.1-8.1-0.1","62797","List1A","black","woman","","","","null","","","",""
"1612","<img src=""portrait/BM1.jpg""style=""height:400px;""></img>","4","html-button-response","157","494994","0.0-14.1-10.1","62797","List1A","black","woman","","true","4","","","","",""
"null","CORRECT","","html-keyboard-response","158","496496","0.0-14.1-11.1-0.1","62797","List1A","black","woman","","","","null","","","",""
"3521","<img src=""portrait/WM1.jpg""style=""height:400px;""></img>","6","html-button-response","159","500020","0.0-14.1-13.1","62797","List1A","black","woman","","true","6","","","","",""
"null","CORRECT","","html-keyboard-response","160","501524","0.0-14.1-14.1-0.1","62797","List1A","black","woman","","","","null","","","",""
"5430","<img src=""portrait/WW1.jpg""style=""height:400px;""></img>","1","html-button-response","161","506962","0.0-14.1-16.1","62797","List1A","black","woman","","true","1","","","","",""
"null","CORRECT","","html-keyboard-response","162","508466","0.0-14.1-17.1-0.1","62797","List1A","black","woman","","","","null","","","",""
"1365","<img src=""portrait/BW2.jpg""style=""height:400px;""></img>","2","html-button-response","163","509834","0.0-14.1-19.1","62797","List1A","black","woman","","true","2","","","","",""
"null","CORRECT","","html-keyboard-response","164","511338","0.0-14.1-20.1-0.1","62797","List1A","black","woman","","","","null","","","",""
"1039","<img src=""portrait/BW1.jpg""style=""height:400px;""></img>","0","html-button-response","165","512380","0.0-14.1-22.1","62797","List1A","black","woman","","true","0","","","","",""
"null","CORRECT","","html-keyboard-response","166","513884","0.0-14.1-23.1-0.1","62797","List1A","black","woman","","","","null","","","",""
"767","<p>You got 8 out of 8 right first time. Press Continue.</p>","0","html-button-response","167","514658","0.0-14.1-25.1","62797","List1A","black","woman","","","","","","","",""
"null","<div style=""font-size:60px;"">+</div>","","html-keyboard-response","168","516169","0.0-15.0-0.0","62797","List1A","black","woman","","","","null","","","",""
"null","<img src=""stim_listA/dance5.gif""style=""height:400px;""></stim_listA>","","html-keyboard-response","169","518175","0.0-15.0-1.0","62797","List1A","black","woman","","","","null","","","",""
"null","is dancing with","","html-keyboard-response","170","520177","0.0-15.0-2.0","62797","List1A","black","woman","","","","null","","","",""
"3996","","","survey-text","171","524175","0.0-15.0-3.0","62797","List1A","black","woman","","","","","{""Q0"":""dave and fred""}","<img src=""stim_listA/dance5.gif""style=""height:400px;""></stim_listA>","is dancing with",""
"null","<div style=""font-size:60px;"">+</div>","","html-keyboard-response","172","524679","0.0-15.0-0.1","62797","List1A","black","woman","","","","null","","","",""
"null","<img src=""stim_listA/dance1.gif""style=""height:400px;""></stim_listA>","","html-keyboard-response","173","526682","0.0-15.0-1.1","62797","List1A","black","woman","","","","null","","","",""
"null","is dancing with","","html-keyboard-response","174","528684","0.0-15.0-2.1","62797","List1A","black","woman","","","","null","","","",""
"2647","","","survey-text","175","531333","0.0-15.0-3.1","62797","List1A","black","woman","","","","","{""Q0"":""kate and fred""}","<img src=""stim_listA/dance1.gif""style=""height:400px;""></stim_listA>","is dancing with",""
"null","<div style=""font-size:60px;"">+</div>","","html-keyboard-response","176","531836","0.0-15.0-0.2","62797","List1A","black","woman","","","","null","","","",""
"null","<img src=""stim_listA/argue7.gif""style=""height:400px;""></stim_listA>","","html-keyboard-response","177","533837","0.0-15.0-1.2","62797","List1A","black","woman","","","","null","","","",""
"null","is arguing with","","html-keyboard-response","178","535838","0.0-15.0-2.2","62797","List1A","black","woman","","","","null","","","",""
"3007","","","survey-text","179","538858","0.0-15.0-3.2","62797","List1A","black","woman","","","","","{""Q0"":""ruth and kate""}","<img src=""stim_listA/argue7.gif""style=""height:400px;""></stim_listA>","is arguing with",""
"null","<div style=""font-size:60px;"">+</div>","","html-keyboard-response","180","539363","0.0-15.0-0.3","62797","List1A","black","woman","","","","null","","","",""
"null","<img src=""stim_listA/flirt2.gif""style=""height:400px;""></stim_listA>","","html-keyboard-response","181","541364","0.0-15.0-1.3","62797","List1A","black","woman","","","","null","","","",""
"null","are flirting with each other","","html-keyboard-response","182","543365","0.0-15.0-2.3","62797","List1A","black","woman","","","","null","","","",""
"2872","","","survey-text","183","546240","0.0-15.0-3.3","62797","List1A","black","woman","","","","","{""Q0"":""beth and mik""}","<img src=""stim_listA/flirt2.gif""style=""height:400px;""></stim_listA>","are flirting with each other",""
"null","<div style=""font-size:60px;"">+</div>","","html-keyboard-response","184","546745","0.0-15.0-0.4","62797","List1A","black","woman","","","","null","","","",""
"null","<img src=""stim_listA/flirt7.gif""style=""height:400px;""></stim_listA>","","html-keyboard-response","185","548746","0.0-15.0-1.4","62797","List1A","black","woman","","","","null","","","",""
"null","is flirting with","","html-keyboard-response","186","550747","0.0-15.0-2.4","62797","List1A","black","woman","","","","null","","","",""
"4487","","","survey-text","187","555236","0.0-15.0-3.4","62797","List1A","black","woman","","","","","{""Q0"":""jane and beth""}","<img src=""stim_listA/flirt7.gif""style=""height:400px;""></stim_listA>","is flirting with",""
"null","<div style=""font-size:60px;"">+</div>","","html-keyboard-response","188","555740","0.0-15.0-0.5","62797","List1A","black","woman","","","","null","","","",""
"null","<img src=""stim_listA/flirt8.gif""style=""height:400px;""></stim_listA>","","html-keyboard-response","189","557744","0.0-15.0-1.5","62797","List1A","black","woman","","","","null","","","",""
"null","are flirting with each other","","html-keyboard-response","190","559744","0.0-15.0-2.5","62797","List1A","black","woman","","","","null","","","",""
"8286","","","survey-text","191","568033","0.0-15.0-3.5","62797","List1A","black","woman","","","","","{""Q0"":""jane and beth""}","<img src=""stim_listA/flirt8.gif""style=""height:400px;""></stim_listA>","are flirting with each other",""
"null","<div style=""font-size:60px;"">+</div>","","html-keyboard-response","192","568539","0.0-15.0-0.6","62797","List1A","black","woman","","","","null","","","",""
"null","<img src=""stim_listA/talk5.gif""style=""height:400px;""></stim_listA>","","html-keyboard-response","193","570541","0.0-15.0-1.6","62797","List1A","black","woman","","","","null","","","",""
"null","is talking to","","html-keyboard-response","194","572541","0.0-15.0-2.6","62797","List1A","black","woman","","","","null","","","",""
"4946","","","survey-text","195","577490","0.0-15.0-3.6","62797","List1A","black","woman","","","","","{""Q0"":""fred and dave""}","<img src=""stim_listA/talk5.gif""style=""height:400px;""></stim_listA>","is talking to",""
"null","<div style=""font-size:60px;"">+</div>","","html-keyboard-response","196","577992","0.0-15.0-0.7","62797","List1A","black","woman","","","","null","","","",""
"null","<img src=""stim_listA/argue8.gif""style=""height:400px;""></stim_listA>","","html-keyboard-response","197","579994","0.0-15.0-1.7","62797","List1A","black","woman","","","","null","","","",""
"null","are arguing with each other","","html-keyboard-response","198","581995","0.0-15.0-2.7","62797","List1A","black","woman","","","","null","","","",""
"3636","","","survey-text","199","585632","0.0-15.0-3.7","62797","List1A","black","woman","","","","","{""Q0"":""jane and beth""}","<img src=""stim_listA/argue8.gif""style=""height:400px;""></stim_listA>","are arguing with each other",""
"null","<div style=""font-size:60px;"">+</div>","","html-keyboard-response","200","586134","0.0-15.0-0.8","62797","List1A","black","woman","","","","null","","","",""
"null","<img src=""stim_listA/play3.gif""style=""height:400px;""></stim_listA>","","html-keyboard-response","201","588136","0.0-15.0-1.8","62797","List1A","black","woman","","","","null","","","",""
"null","is playing with","","html-keyboard-response","202","590136","0.0-15.0-2.8","62797","List1A","black","woman","","","","null","","","",""
"5468","","","survey-text","203","595607","0.0-15.0-3.8","62797","List1A","black","woman","","","","","{""Q0"":""dave and jane""}","<img src=""stim_listA/play3.gif""style=""height:400px;""></stim_listA>","is playing with",""
"null","<div style=""font-size:60px;"">+</div>","","html-keyboard-response","204","596110","0.0-15.0-0.9","62797","List1A","black","woman","","","","null","","","",""
"null","<img src=""stim_listA/marry7.gif""style=""height:400px;""></stim_listA>","","html-keyboard-response","205","598117","0.0-15.0-1.9","62797","List1A","black","woman","","","","null","","","",""
"null","is marrying","","html-keyboard-response","206","600118","0.0-15.0-2.9","62797","List1A","black","woman","","","","null","","","",""
"2510","","","survey-text","207","602628","0.0-15.0-3.9","62797","List1A","black","woman","","","","","{""Q0"":""ruth and kate""}","<img src=""stim_listA/marry7.gif""style=""height:400px;""></stim_listA>","is marrying",""
"null","<div style=""font-size:60px;"">+</div>","","html-keyboard-response","208","603131","0.0-15.0-0.10","62797","List1A","black","woman","","","","null","","","",""
"null","<img src=""stim_listA/dance3.gif""style=""height:400px;""></stim_listA>","","html-keyboard-response","209","605132","0.0-15.0-1.10","62797","List1A","black","woman","","","","null","","","",""
"null","is dancing with","","html-keyboard-response","210","607134","0.0-15.0-2.10","62797","List1A","black","woman","","","","null","","","",""
"4227","","","survey-text","211","611363","0.0-15.0-3.10","62797","List1A","black","woman","","","","","{""Q0"":""luke and jane""}","<img src=""stim_listA/dance3.gif""style=""height:400px;""></stim_listA>","is dancing with",""
"null","<div style=""font-size:60px;"">+</div>","","html-keyboard-response","212","611867","0.0-15.0-0.11","62797","List1A","black","woman","","","","null","","","",""
"null","<img src=""stim_listA/shout3.gif""style=""height:400px;""></stim_listA>","","html-keyboard-response","213","613871","0.0-15.0-1.11","62797","List1A","black","woman","","","","null","","","",""
"null","is shouting at","","html-keyboard-response","214","615874","0.0-15.0-2.11","62797","List1A","black","woman","","","","null","","","",""
"7284","","","survey-text","215","623160","0.0-15.0-3.11","62797","List1A","black","woman","","","","","{""Q0"":""ruth and luke""}","<img src=""stim_listA/shout3.gif""style=""height:400px;""></stim_listA>","is shouting at",""
"null","<div style=""font-size:60px;"">+</div>","","html-keyboard-response","216","623663","0.0-15.0-0.12","62797","List1A","black","woman","","","","null","","","",""
"null","<img src=""stim_listA/talk2.gif""style=""height:400px;""></stim_listA>","","html-keyboard-response","217","625666","0.0-15.0-1.12","62797","List1A","black","woman","","","","null","","","",""
"null","are talking to each other","","html-keyboard-response","218","627668","0.0-15.0-2.12","62797","List1A","black","woman","","","","null","","","",""
"2769","","","survey-text","219","630439","0.0-15.0-3.12","62797","List1A","black","woman","","","","","{""Q0"":""fred and beth""}","<img src=""stim_listA/talk2.gif""style=""height:400px;""></stim_listA>","are talking to each other",""
"null","<div style=""font-size:60px;"">+</div>","","html-keyboard-response","220","630943","0.0-15.0-0.13","62797","List1A","black","woman","","","","null","","","",""
"null","<img src=""stim_listA/dance2.gif""style=""height:400px;""></stim_listA>","","html-keyboard-response","221","632946","0.0-15.0-1.13","62797","List1A","black","woman","","","","null","","","",""
"null","are dancing with each other","","html-keyboard-response","222","634946","0.0-15.0-2.13","62797","List1A","black","woman","","","","null","","","",""
"3929","","","survey-text","223","638876","0.0-15.0-3.13","62797","List1A","black","woman","","","","","{""Q0"":""fred and beth""}","<img src=""stim_listA/dance2.gif""style=""height:400px;""></stim_listA>","are dancing with each other",""
"null","<div style=""font-size:60px;"">+</div>","","html-keyboard-response","224","639380","0.0-15.0-0.14","62797","List1A","black","woman","","","","null","","","",""
"null","<img src=""stim_listA/play7.gif""style=""height:400px;""></stim_listA>","","html-keyboard-response","225","641383","0.0-15.0-1.14","62797","List1A","black","woman","","","","null","","","",""
"null","is playing with","","html-keyboard-response","226","643384","0.0-15.0-2.14","62797","List1A","black","woman","","","","null","","","",""
"4684","","","survey-text","227","648069","0.0-15.0-3.14","62797","List1A","black","woman","","","","","{""Q0"":""jane and beth""}","<img src=""stim_listA/play7.gif""style=""height:400px;""></stim_listA>","is playing with",""
"null","<div style=""font-size:60px;"">+</div>","","html-keyboard-response","228","648571","0.0-15.0-0.15","62797","List1A","black","woman","","","","null","","","",""
"null","<img src=""stim_listA/touch2.gif""style=""height:400px;""></stim_listA>","","html-keyboard-response","229","650574","0.0-15.0-1.15","62797","List1A","black","woman","","","","null","","","",""
"null","are touching each other","","html-keyboard-response","230","652575","0.0-15.0-2.15","62797","List1A","black","woman","","","","null","","","",""
"2848","","","survey-text","231","655424","0.0-15.0-3.15","62797","List1A","black","woman","","","","","{""Q0"":""fred and beth""}","<img src=""stim_listA/touch2.gif""style=""height:400px;""></stim_listA>","are touching each other",""
"null","<div style=""font-size:60px;"">+</div>","","html-keyboard-response","232","655927","0.0-15.0-0.16","62797","List1A","black","woman","","","","null","","","",""
"null","<img src=""stim_listA/play4.gif""style=""height:400px;""></stim_listA>","","html-keyboard-response","233","657930","0.0-15.0-1.16","62797","List1A","black","woman","","","","null","","","",""
"null","are playing with each other","","html-keyboard-response","234","659932","0.0-15.0-2.16","62797","List1A","black","woman","","","","null","","","",""
"11843","","","survey-text","235","671776","0.0-15.0-3.16","62797","List1A","black","woman","","","","","{""Q0"":""ruth and luke""}","<img src=""stim_listA/play4.gif""style=""height:400px;""></stim_listA>","are playing with each other",""
"null","<div style=""font-size:60px;"">+</div>","","html-keyboard-response","236","672279","0.0-15.0-0.17","62797","List1A","black","woman","","","","null","","","",""
"null","<img src=""stim_listA/talk6.gif""style=""height:400px;""></stim_listA>","","html-keyboard-response","237","674282","0.0-15.0-1.17","62797","List1A","black","woman","","","","null","","","",""
"null","are talking to each other","","html-keyboard-response","238","676285","0.0-15.0-2.17","62797","List1A","black","woman","","","","null","","","",""
"3531","","","survey-text","239","679818","0.0-15.0-3.17","62797","List1A","black","woman","","","","","{""Q0"":""luke and mike ""}","<img src=""stim_listA/talk6.gif""style=""height:400px;""></stim_listA>","are talking to each other",""
"null","<div style=""font-size:60px;"">+</div>","","html-keyboard-response","240","680319","0.0-15.0-0.18","62797","List1A","black","woman","","","","null","","","",""
"null","<img src=""stim_listA/kiss5.gif""style=""height:400px;""></stim_listA>","","html-keyboard-response","241","682322","0.0-15.0-1.18","62797","List1A","black","woman","","","","null","","","",""
"null","is kissing","","html-keyboard-response","242","684323","0.0-15.0-2.18","62797","List1A","black","woman","","","","null","","","",""
"2533","","","survey-text","243","686858","0.0-15.0-3.18","62797","List1A","black","woman","","","","","{""Q0"":""luke and fred""}","<img src=""stim_listA/kiss5.gif""style=""height:400px;""></stim_listA>","is kissing",""
"null","<div style=""font-size:60px;"">+</div>","","html-keyboard-response","244","687361","0.0-15.0-0.19","62797","List1A","black","woman","","","","null","","","",""
"null","<img src=""stim_listA/talk8.gif""style=""height:400px;""></stim_listA>","","html-keyboard-response","245","689363","0.0-15.0-1.19","62797","List1A","black","woman","","","","null","","","",""
"null","are talking to each other","","html-keyboard-response","246","691364","0.0-15.0-2.19","62797","List1A","black","woman","","","","null","","","",""
"6288","","","survey-text","247","697653","0.0-15.0-3.19","62797","List1A","black","woman","","","","","{""Q0"":""kate ruth""}","<img src=""stim_listA/talk8.gif""style=""height:400px;""></stim_listA>","are talking to each other",""
"11548","<img src='img/portrait_matrix_list1.jpg' style='width:900px;height:500px;''></img><p>If you have memorised all the portraits and names and are ready to start, press Continue.</p><p><strong>Please note: Your memory of these faces will be tested 4 times during this experiment.</strong></p>","0","html-button-response","248","709209","0.0-16.0-0.0","62797","List1A","black","woman","","","","","","","",""
"1485","<img src=""portrait/BM2.jpg""style=""height:400px;""></img>","5","html-button-response","249","711698","0.0-16.0-1.0","62797","List1A","black","woman","","true","5","","","","",""
"null","CORRECT","","html-keyboard-response","250","713201","0.0-16.0-2.0-0.0","62797","List1A","black","woman","","","","null","","","",""
"2300","<img src=""portrait/BW1.jpg""style=""height:400px;""></img>","0","html-button-response","251","715506","0.0-16.0-4.0","62797","List1A","black","woman","","true","0","","","","",""
"null","CORRECT","","html-keyboard-response","252","717010","0.0-16.0-5.0-0.0","62797","List1A","black","woman","","","","null","","","",""
"1751","<img src=""portrait/BM1.jpg""style=""height:400px;""></img>","4","html-button-response","253","718762","0.0-16.0-7.0","62797","List1A","black","woman","","true","4","","","","",""
"null","CORRECT","","html-keyboard-response","254","720268","0.0-16.0-8.0-0.0","62797","List1A","black","woman","","","","null","","","",""
"1973","<img src=""portrait/WW1.jpg""style=""height:400px;""></img>","1","html-button-response","255","722242","0.0-16.0-10.0","62797","List1A","black","woman","","true","1","","","","",""
"null","CORRECT","","html-keyboard-response","256","723745","0.0-16.0-11.0-0.0","62797","List1A","black","woman","","","","null","","","",""
"2454","<img src=""portrait/WM2.jpg""style=""height:400px;""></img>","7","html-button-response","257","726202","0.0-16.0-13.0","62797","List1A","black","woman","","true","7","","","","",""
"null","CORRECT","","html-keyboard-response","258","727707","0.0-16.0-14.0-0.0","62797","List1A","black","woman","","","","null","","","",""
"1673","<img src=""portrait/WW2.jpg""style=""height:400px;""></img>","3","html-button-response","259","729386","0.0-16.0-16.0","62797","List1A","black","woman","","true","3","","","","",""
"null","CORRECT","","html-keyboard-response","260","730889","0.0-16.0-17.0-0.0","62797","List1A","black","woman","","","","null","","","",""
"1750","<img src=""portrait/BW2.jpg""style=""height:400px;""></img>","2","html-button-response","261","732641","0.0-16.0-19.0","62797","List1A","black","woman","","true","2","","","","",""
"null","CORRECT","","html-keyboard-response","262","734144","0.0-16.0-20.0-0.0","62797","List1A","black","woman","","","","null","","","",""
"1515","<img src=""portrait/WM1.jpg""style=""height:400px;""></img>","6","html-button-response","263","735665","0.0-16.0-22.0","62797","List1A","black","woman","","true","6","","","","",""
"null","CORRECT","","html-keyboard-response","264","737170","0.0-16.0-23.0-0.0","62797","List1A","black","woman","","","","null","","","",""
"1014","<p>You got 8 out of 8 right first time. Press Continue.</p>","0","html-button-response","265","738185","0.0-16.0-25.0","62797","List1A","black","woman","","","","","","","",""
"null","<div style=""font-size:60px;"">+</div>","","html-keyboard-response","266","739691","0.0-17.0-0.0","62797","List1A","black","woman","","","","null","","","",""
"null","<img src=""stim_listA/touch4.gif""style=""height:400px;""></stim_listA>","","html-keyboard-response","267","741695","0.0-17.0-1.0","62797","List1A","black","woman","","","","null","","","",""
"null","are touching each other","","html-keyboard-response","268","743697","0.0-17.0-2.0","62797","List1A","black","woman","","","","null","","","",""
"2436","","","survey-text","269","746134","0.0-17.0-3.0","62797","List1A","black","woman","","","","","{""Q0"":""luke and ruth""}","<img src=""stim_listA/touch4.gif""style=""height:400px;""></stim_listA>","are touching each other",""
"null","<div style=""font-size:60px;"">+</div>","","html-keyboard-response","270","746636","0.0-17.0-0.1","62797","List1A","black","woman","","","","null","","","",""
"null","<img src=""stim_listA/argue2.gif""style=""height:400px;""></stim_listA>","","html-keyboard-response","271","748638","0.0-17.0-1.1","62797","List1A","black","woman","","","","null","","","",""
"null","are arguing with each other","","html-keyboard-response","272","750639","0.0-17.0-2.1","62797","List1A","black","woman","","","","null","","","",""
"2476","","","survey-text","273","753118","0.0-17.0-3.1","62797","List1A","black","woman","","","","","{""Q0"":""kate and fred""}","<img src=""stim_listA/argue2.gif""style=""height:400px;""></stim_listA>","are arguing with each other",""
"null","<div style=""font-size:60px;"">+</div>","","html-keyboard-response","274","753624","0.0-17.0-0.2","62797","List1A","black","woman","","","","null","","","",""
"null","<img src=""stim_listA/marry4.gif""style=""height:400px;""></stim_listA>","","html-keyboard-response","275","755629","0.0-17.0-1.2","62797","List1A","black","woman","","","","null","","","",""
"null","are marrying each other","","html-keyboard-response","276","757629","0.0-17.0-2.2","62797","List1A","black","woman","","","","null","","","",""
"2260","","","survey-text","277","759890","0.0-17.0-3.2","62797","List1A","black","woman","","","","","{""Q0"":""jane and luke""}","<img src=""stim_listA/marry4.gif""style=""height:400px;""></stim_listA>","are marrying each other",""
"null","<div style=""font-size:60px;"">+</div>","","html-keyboard-response","278","760394","0.0-17.0-0.3","62797","List1A","black","woman","","","","null","","","",""
"null","<img src=""stim_listA/argue3.gif""style=""height:400px;""></stim_listA>","","html-keyboard-response","279","762399","0.0-17.0-1.3","62797","List1A","black","woman","","","","null","","","",""
"null","is arguing with","","html-keyboard-response","280","764400","0.0-17.0-2.3","62797","List1A","black","woman","","","","null","","","",""
"2573","","","survey-text","281","766973","0.0-17.0-3.3","62797","List1A","black","woman","","","","","{""Q0"":""dave and ruth""}","<img src=""stim_listA/argue3.gif""style=""height:400px;""></stim_listA>","is arguing with",""
"null","<div style=""font-size:60px;"">+</div>","","html-keyboard-response","282","767479","0.0-17.0-0.4","62797","List1A","black","woman","","","","null","","","",""
"null","<img src=""stim_listA/flirt4.gif""style=""height:400px;""></stim_listA>","","html-keyboard-response","283","769483","0.0-17.0-1.4","62797","List1A","black","woman","","","","null","","","",""
"null","are flirting with each other","","html-keyboard-response","284","771486","0.0-17.0-2.4","62797","List1A","black","woman","","","","null","","","",""
"2404","","","survey-text","285","773890","0.0-17.0-3.4","62797","List1A","black","woman","","","","","{""Q0"":""dave and ruth""}","<img src=""stim_listA/flirt4.gif""style=""height:400px;""></stim_listA>","are flirting with each other",""
"null","<div style=""font-size:60px;"">+</div>","","html-keyboard-response","286","774394","0.0-17.0-0.5","62797","List1A","black","woman","","","","null","","","",""
"null","<img src=""stim_listA/shout1.gif""style=""height:400px;""></stim_listA>","","html-keyboard-response","287","776397","0.0-17.0-1.5","62797","List1A","black","woman","","","","null","","","",""
"null","is shouting at","","html-keyboard-response","288","778399","0.0-17.0-2.5","62797","List1A","black","woman","","","","null","","","",""
"3902","","","survey-text","289","782304","0.0-17.0-3.5","62797","List1A","black","woman","","","","","{""Q0"":""beth and fred""}","<img src=""stim_listA/shout1.gif""style=""height:400px;""></stim_listA>","is shouting at",""
"null","<div style=""font-size:60px;"">+</div>","","html-keyboard-response","290","782807","0.0-17.0-0.6","62797","List1A","black","woman","","","","null","","","",""
"null","<img src=""stim_listA/shout5.gif""style=""height:400px;""></stim_listA>","","html-keyboard-response","291","784811","0.0-17.0-1.6","62797","List1A","black","woman","","","","null","","","",""
"null","is shouting at","","html-keyboard-response","292","786813","0.0-17.0-2.6","62797","List1A","black","woman","","","","null","","","",""
"3744","","","survey-text","293","790559","0.0-17.0-3.6","62797","List1A","black","woman","","","","","{""Q0"":""luke and fred""}","<img src=""stim_listA/shout5.gif""style=""height:400px;""></stim_listA>","is shouting at",""
"null","<div style=""font-size:60px;"">+</div>","","html-keyboard-response","294","791060","0.0-17.0-0.7","62797","List1A","black","woman","","","","null","","","",""
"null","<img src=""stim_listA/flirt3.gif""style=""height:400px;""></stim_listA>","","html-keyboard-response","295","793062","0.0-17.0-1.7","62797","List1A","black","woman","","","","null","","","",""
"null","is flirting with","","html-keyboard-response","296","795063","0.0-17.0-2.7","62797","List1A","black","woman","","","","null","","","",""
"2775","","","survey-text","297","797840","0.0-17.0-3.7","62797","List1A","black","woman","","","","","{""Q0"":""jane and luke""}","<img src=""stim_listA/flirt3.gif""style=""height:400px;""></stim_listA>","is flirting with",""
"null","<div style=""font-size:60px;"">+</div>","","html-keyboard-response","298","798345","0.0-17.0-0.8","62797","List1A","black","woman","","","","null","","","",""
"null","<img src=""stim_listA/dance8.gif""style=""height:400px;""></stim_listA>","","html-keyboard-response","299","800349","0.0-17.0-1.8","62797","List1A","black","woman","","","","null","","","",""
"null","are dancing with each other","","html-keyboard-response","300","802350","0.0-17.0-2.8","62797","List1A","black","woman","","","","null","","","",""
"2876","","","survey-text","301","805229","0.0-17.0-3.8","62797","List1A","black","woman","","","","","{""Q0"":""ruth and kate""}","<img src=""stim_listA/dance8.gif""style=""height:400px;""></stim_listA>","are dancing with each other",""
"null","<div style=""font-size:60px;"">+</div>","","html-keyboard-response","302","805731","0.0-17.0-0.9","62797","List1A","black","woman","","","","null","","","",""
"null","<img src=""stim_listA/play8.gif""style=""height:400px;""></stim_listA>","","html-keyboard-response","303","807733","0.0-17.0-1.9","62797","List1A","black","woman","","","","null","","","",""
"null","are playing with each other","","html-keyboard-response","304","809735","0.0-17.0-2.9","62797","List1A","black","woman","","","","null","","","",""
"2742","","","survey-text","305","812478","0.0-17.0-3.9","62797","List1A","black","woman","","","","","{""Q0"":""beth and ruth""}","<img src=""stim_listA/play8.gif""style=""height:400px;""></stim_listA>","are playing with each other",""
"null","<div style=""font-size:60px;"">+</div>","","html-keyboard-response","306","812980","0.0-17.0-0.10","62797","List1A","black","woman","","","","null","","","",""
"null","<img src=""stim_listA/kiss4.gif""style=""height:400px;""></stim_listA>","","html-keyboard-response","307","814982","0.0-17.0-1.10","62797","List1A","black","woman","","","","null","","","",""
"null","are kissing each other","","html-keyboard-response","308","816984","0.0-17.0-2.10","62797","List1A","black","woman","","","","null","","","",""
"3246","","","survey-text","309","820231","0.0-17.0-3.10","62797","List1A","black","woman","","","","","{""Q0"":""jane and dave""}","<img src=""stim_listA/kiss4.gif""style=""height:400px;""></stim_listA>","are kissing each other",""
"null","<div style=""font-size:60px;"">+</div>","","html-keyboard-response","310","820734","0.0-17.0-0.11","62797","List1A","black","woman","","","","null","","","",""
"null","<img src=""stim_listA/talk7.gif""style=""height:400px;""></stim_listA>","","html-keyboard-response","311","822737","0.0-17.0-1.11","62797","List1A","black","woman","","","","null","","","",""
"null","is talking to","","html-keyboard-response","312","824739","0.0-17.0-2.11","62797","List1A","black","woman","","","","null","","","",""
"2402","","","survey-text","313","827142","0.0-17.0-3.11","62797","List1A","black","woman","","","","","{""Q0"":""jane and beth""}","<img src=""stim_listA/talk7.gif""style=""height:400px;""></stim_listA>","is talking to",""
"null","<div style=""font-size:60px;"">+</div>","","html-keyboard-response","314","827645","0.0-17.0-0.12","62797","List1A","black","woman","","","","null","","","",""
"null","<img src=""stim_listA/argue5.gif""style=""height:400px;""></stim_listA>","","html-keyboard-response","315","829647","0.0-17.0-1.12","62797","List1A","black","woman","","","","null","","","",""
"null","is arguing with","","html-keyboard-response","316","831649","0.0-17.0-2.12","62797","List1A","black","woman","","","","null","","","",""
"2554","","","survey-text","317","834206","0.0-17.0-3.12","62797","List1A","black","woman","","","","","{""Q0"":""mike and luke""}","<img src=""stim_listA/argue5.gif""style=""height:400px;""></stim_listA>","is arguing with",""
"null","<div style=""font-size:60px;"">+</div>","","html-keyboard-response","318","834710","0.0-17.0-0.13","62797","List1A","black","woman","","","","null","","","",""
"null","<img src=""stim_listA/fight2.gif""style=""height:400px;""></stim_listA>","","html-keyboard-response","319","836713","0.0-17.0-1.13","62797","List1A","black","woman","","","","null","","","",""
"null","are fighting each other","","html-keyboard-response","320","838714","0.0-17.0-2.13","62797","List1A","black","woman","","","","null","","","",""
"2635","","","survey-text","321","841352","0.0-17.0-3.13","62797","List1A","black","woman","","","","","{""Q0"":""beth and fred""}","<img src=""stim_listA/fight2.gif""style=""height:400px;""></stim_listA>","are fighting each other",""
"null","<div style=""font-size:60px;"">+</div>","","html-keyboard-response","322","841856","0.0-17.0-0.14","62797","List1A","black","woman","","","","null","","","",""
"null","<img src=""stim_listA/touch7.gif""style=""height:400px;""></stim_listA>","","html-keyboard-response","323","843858","0.0-17.0-1.14","62797","List1A","black","woman","","","","null","","","",""
"null","is touching","","html-keyboard-response","324","845858","0.0-17.0-2.14","62797","List1A","black","woman","","","","null","","","",""
"3248","","","survey-text","325","849109","0.0-17.0-3.14","62797","List1A","black","woman","","","","","{""Q0"":""jane and kate ""}","<img src=""stim_listA/touch7.gif""style=""height:400px;""></stim_listA>","is touching",""
"null","<div style=""font-size:60px;"">+</div>","","html-keyboard-response","326","849614","0.0-17.0-0.15","62797","List1A","black","woman","","","","null","","","",""
"null","<img src=""stim_listA/fight1.gif""style=""height:400px;""></stim_listA>","","html-keyboard-response","327","851615","0.0-17.0-1.15","62797","List1A","black","woman","","","","null","","","",""
"null","is fighting","","html-keyboard-response","328","853617","0.0-17.0-2.15","62797","List1A","black","woman","","","","null","","","",""
"4592","","","survey-text","329","858210","0.0-17.0-3.15","62797","List1A","black","woman","","","","","{""Q0"":""mike and kate""}","<img src=""stim_listA/fight1.gif""style=""height:400px;""></stim_listA>","is fighting",""
"null","<div style=""font-size:60px;"">+</div>","","html-keyboard-response","330","858713","0.0-17.0-0.16","62797","List1A","black","woman","","","","null","","","",""
"null","<img src=""stim_listA/touch5.gif""style=""height:400px;""></stim_listA>","","html-keyboard-response","331","860714","0.0-17.0-1.16","62797","List1A","black","woman","","","","null","","","",""
"null","is touching","","html-keyboard-response","332","862716","0.0-17.0-2.16","62797","List1A","black","woman","","","","null","","","",""
"4680","","","survey-text","333","867398","0.0-17.0-3.16","62797","List1A","black","woman","","","","","{""Q0"":""dave and mike""}","<img src=""stim_listA/touch5.gif""style=""height:400px;""></stim_listA>","is touching",""
"null","<div style=""font-size:60px;"">+</div>","","html-keyboard-response","334","867901","0.0-17.0-0.17","62797","List1A","black","woman","","","","null","","","",""
"null","<img src=""stim_listA/flirt5.gif""style=""height:400px;""></stim_listA>","","html-keyboard-response","335","869903","0.0-17.0-1.17","62797","List1A","black","woman","","","","null","","","",""
"null","is flirting with","","html-keyboard-response","336","871905","0.0-17.0-2.17","62797","List1A","black","woman","","","","null","","","",""
"5625","","","survey-text","337","877533","0.0-17.0-3.17","62797","List1A","black","woman","","","","","{""Q0"":""fred and dave""}","<img src=""stim_listA/flirt5.gif""style=""height:400px;""></stim_listA>","is flirting with",""
"null","<div style=""font-size:60px;"">+</div>","","html-keyboard-response","338","878035","0.0-17.0-0.18","62797","List1A","black","woman","","","","null","","","",""
"null","<img src=""stim_listA/kiss2.gif""style=""height:400px;""></stim_listA>","","html-keyboard-response","339","880036","0.0-17.0-1.18","62797","List1A","black","woman","","","","null","","","",""
"null","are kissing each other","","html-keyboard-response","340","882038","0.0-17.0-2.18","62797","List1A","black","woman","","","","null","","","",""
"4136","","","survey-text","341","886176","0.0-17.0-3.18","62797","List1A","black","woman","","","","","{""Q0"":""kate and mike""}","<img src=""stim_listA/kiss2.gif""style=""height:400px;""></stim_listA>","are kissing each other",""
"null","<div style=""font-size:60px;"">+</div>","","html-keyboard-response","342","886679","0.0-17.0-0.19","62797","List1A","black","woman","","","","null","","","",""
"null","<img src=""stim_listA/kiss1.gif""style=""height:400px;""></stim_listA>","","html-keyboard-response","343","888681","0.0-17.0-1.19","62797","List1A","black","woman","","","","null","","","",""
"null","is kissing","","html-keyboard-response","344","890683","0.0-17.0-2.19","62797","List1A","black","woman","","","","null","","","",""
"7160","","","survey-text","345","897845","0.0-17.0-3.19","62797","List1A","black","woman","","","","","{""Q0"":""kate and mike""}","<img src=""stim_listA/kiss1.gif""style=""height:400px;""></stim_listA>","is kissing",""
"33561","<img src='img/portrait_matrix_list1.jpg' style='width:900px;height:500px;''></img><p>If you have memorised all the portraits and names and are ready to start, press Continue.</p><p><strong>Please note: Your memory of these faces will be tested 4 times during this experiment.</strong></p>","0","html-button-response","346","931409","0.0-18.0-0.0","62797","List1A","black","woman","","","","","","","",""
"4492","<img src=""portrait/WW1.jpg""style=""height:400px;""></img>","1","html-button-response","347","936905","0.0-18.0-1.0","62797","List1A","black","woman","","true","1","","","","",""
"null","CORRECT","","html-keyboard-response","348","938409","0.0-18.0-2.0-0.0","62797","List1A","black","woman","","","","null","","","",""
"1461","<img src=""portrait/WM1.jpg""style=""height:400px;""></img>","6","html-button-response","349","939872","0.0-18.0-4.0","62797","List1A","black","woman","","true","6","","","","",""
"null","CORRECT","","html-keyboard-response","350","941378","0.0-18.0-5.0-0.0","62797","List1A","black","woman","","","","null","","","",""
"2069","<img src=""portrait/BW1.jpg""style=""height:400px;""></img>","0","html-button-response","351","943449","0.0-18.0-7.0","62797","List1A","black","woman","","true","0","","","","",""
"null","CORRECT","","html-keyboard-response","352","944954","0.0-18.0-8.0-0.0","62797","List1A","black","woman","","","","null","","","",""
"1165","<img src=""portrait/BM1.jpg""style=""height:400px;""></img>","4","html-button-response","353","946121","0.0-18.0-10.0","62797","List1A","black","woman","","true","4","","","","",""
"null","CORRECT","","html-keyboard-response","354","947624","0.0-18.0-11.0-0.0","62797","List1A","black","woman","","","","null","","","",""
"1277","<img src=""portrait/WM2.jpg""style=""height:400px;""></img>","7","html-button-response","355","948905","0.0-18.0-13.0","62797","List1A","black","woman","","true","7","","","","",""
"null","CORRECT","","html-keyboard-response","356","950410","0.0-18.0-14.0-0.0","62797","List1A","black","woman","","","","null","","","",""
"1684","<img src=""portrait/BW2.jpg""style=""height:400px;""></img>","2","html-button-response","357","952097","0.0-18.0-16.0","62797","List1A","black","woman","","true","2","","","","",""
"null","CORRECT","","html-keyboard-response","358","953600","0.0-18.0-17.0-0.0","62797","List1A","black","woman","","","","null","","","",""
"1254","<img src=""portrait/BM2.jpg""style=""height:400px;""></img>","5","html-button-response","359","954858","0.0-18.0-19.0","62797","List1A","black","woman","","true","5","","","","",""
"null","CORRECT","","html-keyboard-response","360","956361","0.0-18.0-20.0-0.0","62797","List1A","black","woman","","","","null","","","",""
"1293","<img src=""portrait/WW2.jpg""style=""height:400px;""></img>","3","html-button-response","361","957657","0.0-18.0-22.0","62797","List1A","black","woman","","true","3","","","","",""
"null","CORRECT","","html-keyboard-response","362","959161","0.0-18.0-23.0-0.0","62797","List1A","black","woman","","","","null","","","",""
"1077","<p>You got 8 out of 8 right first time. Press Continue.</p>","0","html-button-response","363","960240","0.0-18.0-25.0","62797","List1A","black","woman","","","","","","","",""
"null","<div style=""font-size:60px;"">+</div>","","html-keyboard-response","364","961747","0.0-19.0-0.0","62797","List1A","black","woman","","","","null","","","",""
"null","<img src=""stim_listA/play6.gif""style=""height:400px;""></stim_listA>","","html-keyboard-response","365","963749","0.0-19.0-1.0","62797","List1A","black","woman","","","","null","","","",""
"null","are playing with each other","","html-keyboard-response","366","965752","0.0-19.0-2.0","62797","List1A","black","woman","","","","null","","","",""
"2773","","","survey-text","367","968528","0.0-19.0-3.0","62797","List1A","black","woman","","","","","{""Q0"":""luke and fred""}","<img src=""stim_listA/play6.gif""style=""height:400px;""></stim_listA>","are playing with each other",""
"null","<div style=""font-size:60px;"">+</div>","","html-keyboard-response","368","969032","0.0-19.0-0.1","62797","List1A","black","woman","","","","null","","","",""
"null","<img src=""stim_listA/marry5.gif""style=""height:400px;""></stim_listA>","","html-keyboard-response","369","971034","0.0-19.0-1.1","62797","List1A","black","woman","","","","null","","","",""
"null","is marrying","","html-keyboard-response","370","973035","0.0-19.0-2.1","62797","List1A","black","woman","","","","null","","","",""
"2363","","","survey-text","371","975401","0.0-19.0-3.1","62797","List1A","black","woman","","","","","{""Q0"":""luke and mike""}","<img src=""stim_listA/marry5.gif""style=""height:400px;""></stim_listA>","is marrying",""
"null","<div style=""font-size:60px;"">+</div>","","html-keyboard-response","372","975906","0.0-19.0-0.2","62797","List1A","black","woman","","","","null","","","",""
"null","<img src=""stim_listA/touch3.gif""style=""height:400px;""></stim_listA>","","html-keyboard-response","373","977912","0.0-19.0-1.2","62797","List1A","black","woman","","","","null","","","",""
"null","is touching","","html-keyboard-response","374","979913","0.0-19.0-2.2","62797","List1A","black","woman","","","","null","","","",""
"3405","","","survey-text","375","983320","0.0-19.0-3.2","62797","List1A","black","woman","","","","","{""Q0"":""dave and jane""}","<img src=""stim_listA/touch3.gif""style=""height:400px;""></stim_listA>","is touching",""
"null","<div style=""font-size:60px;"">+</div>","","html-keyboard-response","376","983823","0.0-19.0-0.3","62797","List1A","black","woman","","","","null","","","",""
"null","<img src=""stim_listA/fight3.gif""style=""height:400px;""></stim_listA>","","html-keyboard-response","377","985826","0.0-19.0-1.3","62797","List1A","black","woman","","","","null","","","",""
"null","is fighting","","html-keyboard-response","378","987826","0.0-19.0-2.3","62797","List1A","black","woman","","","","null","","","",""
"2497","","","survey-text","379","990326","0.0-19.0-3.3","62797","List1A","black","woman","","","","","{""Q0"":""dave and jane""}","<img src=""stim_listA/fight3.gif""style=""height:400px;""></stim_listA>","is fighting",""
"null","<div style=""font-size:60px;"">+</div>","","html-keyboard-response","380","990829","0.0-19.0-0.4","62797","List1A","black","woman","","","","null","","","",""
"null","<img src=""stim_listA/shout6.gif""style=""height:400px;""></stim_listA>","","html-keyboard-response","381","992830","0.0-19.0-1.4","62797","List1A","black","woman","","","","null","","","",""
"null","are shouting at each other","","html-keyboard-response","382","994830","0.0-19.0-2.4","62797","List1A","black","woman","","","","null","","","",""
"2405","","","survey-text","383","997237","0.0-19.0-3.4","62797","List1A","black","woman","","","","","{""Q0"":""dave and mike""}","<img src=""stim_listA/shout6.gif""style=""height:400px;""></stim_listA>","are shouting at each other",""
"null","<div style=""font-size:60px;"">+</div>","","html-keyboard-response","384","997740","0.0-19.0-0.5","62797","List1A","black","woman","","","","null","","","",""
"null","<img src=""stim_listA/kiss8.gif""style=""height:400px;""></stim_listA>","","html-keyboard-response","385","999745","0.0-19.0-1.5","62797","List1A","black","woman","","","","null","","","",""
"null","are kissing each other","","html-keyboard-response","386","1001747","0.0-19.0-2.5","62797","List1A","black","woman","","","","null","","","",""
"2350","","","survey-text","387","1004098","0.0-19.0-3.5","62797","List1A","black","woman","","","","","{""Q0"":""jane and kate""}","<img src=""stim_listA/kiss8.gif""style=""height:400px;""></stim_listA>","are kissing each other",""
"null","<div style=""font-size:60px;"">+</div>","","html-keyboard-response","388","1004601","0.0-19.0-0.6","62797","List1A","black","woman","","","","null","","","",""
"null","<img src=""stim_listA/shout4.gif""style=""height:400px;""></stim_listA>","","html-keyboard-response","389","1006604","0.0-19.0-1.6","62797","List1A","black","woman","","","","null","","","",""
"null","are shouting at each other","","html-keyboard-response","390","1008605","0.0-19.0-2.6","62797","List1A","black","woman","","","","null","","","",""
"2347","","","survey-text","391","1010954","0.0-19.0-3.6","62797","List1A","black","woman","","","","","{""Q0"":""dave and jane""}","<img src=""stim_listA/shout4.gif""style=""height:400px;""></stim_listA>","are shouting at each other",""
"null","<div style=""font-size:60px;"">+</div>","","html-keyboard-response","392","1011457","0.0-19.0-0.7","62797","List1A","black","woman","","","","null","","","",""
"null","<img src=""stim_listA/kiss6.gif""style=""height:400px;""></stim_listA>","","html-keyboard-response","393","1013460","0.0-19.0-1.7","62797","List1A","black","woman","","","","null","","","",""
"null","are kissing each other","","html-keyboard-response","394","1015463","0.0-19.0-2.7","62797","List1A","black","woman","","","","null","","","",""
"2241","","","survey-text","395","1017707","0.0-19.0-3.7","62797","List1A","black","woman","","","","","{""Q0"":""dave and mike""}","<img src=""stim_listA/kiss6.gif""style=""height:400px;""></stim_listA>","are kissing each other",""
"null","<div style=""font-size:60px;"">+</div>","","html-keyboard-response","396","1018210","0.0-19.0-0.8","62797","List1A","black","woman","","","","null","","","",""
"null","<img src=""stim_listA/argue1.gif""style=""height:400px;""></stim_listA>","","html-keyboard-response","397","1020211","0.0-19.0-1.8","62797","List1A","black","woman","","","","null","","","",""
"null","is arguing with","","html-keyboard-response","398","1022211","0.0-19.0-2.8","62797","List1A","black","woman","","","","null","","","",""
"2929","","","survey-text","399","1025142","0.0-19.0-3.8","62797","List1A","black","woman","","","","","{""Q0"":""mike and beth""}","<img src=""stim_listA/argue1.gif""style=""height:400px;""></stim_listA>","is arguing with",""
"null","<div style=""font-size:60px;"">+</div>","","html-keyboard-response","400","1025645","0.0-19.0-0.9","62797","List1A","black","woman","","","","null","","","",""
"null","<img src=""stim_listA/kiss7.gif""style=""height:400px;""></stim_listA>","","html-keyboard-response","401","1027647","0.0-19.0-1.9","62797","List1A","black","woman","","","","null","","","",""
"null","is kissing","","html-keyboard-response","402","1029650","0.0-19.0-2.9","62797","List1A","black","woman","","","","null","","","",""
"3092","","","survey-text","403","1032743","0.0-19.0-3.9","62797","List1A","black","woman","","","","","{""Q0"":""ruth and beth""}","<img src=""stim_listA/kiss7.gif""style=""height:400px;""></stim_listA>","is kissing",""
"null","<div style=""font-size:60px;"">+</div>","","html-keyboard-response","404","1033247","0.0-19.0-0.10","62797","List1A","black","woman","","","","null","","","",""
"null","<img src=""stim_listA/marry3.gif""style=""height:400px;""></stim_listA>","","html-keyboard-response","405","1035248","0.0-19.0-1.10","62797","List1A","black","woman","","","","null","","","",""
"null","is marrying","","html-keyboard-response","406","1037250","0.0-19.0-2.10","62797","List1A","black","woman","","","","null","","","",""
"2723","","","survey-text","407","1039974","0.0-19.0-3.10","62797","List1A","black","woman","","","","","{""Q0"":""dave and ruth""}","<img src=""stim_listA/marry3.gif""style=""height:400px;""></stim_listA>","is marrying",""
"null","<div style=""font-size:60px;"">+</div>","","html-keyboard-response","408","1040476","0.0-19.0-0.11","62797","List1A","black","woman","","","","null","","","",""
"null","<img src=""stim_listA/touch1.gif""style=""height:400px;""></stim_listA>","","html-keyboard-response","409","1042478","0.0-19.0-1.11","62797","List1A","black","woman","","","","null","","","",""
"null","is touching","","html-keyboard-response","410","1044479","0.0-19.0-2.11","62797","List1A","black","woman","","","","null","","","",""
"5114","","","survey-text","411","1049595","0.0-19.0-3.11","62797","List1A","black","woman","","","","","{""Q0"":""kate and mike ""}","<img src=""stim_listA/touch1.gif""style=""height:400px;""></stim_listA>","is touching",""
"null","<div style=""font-size:60px;"">+</div>","","html-keyboard-response","412","1050097","0.0-19.0-0.12","62797","List1A","black","woman","","","","null","","","",""
"null","<img src=""stim_listA/marry8.gif""style=""height:400px;""></stim_listA>","","html-keyboard-response","413","1052099","0.0-19.0-1.12","62797","List1A","black","woman","","","","null","","","",""
"null","are marrying each other","","html-keyboard-response","414","1054102","0.0-19.0-2.12","62797","List1A","black","woman","","","","null","","","",""
"5877","","","survey-text","415","1059980","0.0-19.0-3.12","62797","List1A","black","woman","","","","","{""Q0"":""jane and beth""}","<img src=""stim_listA/marry8.gif""style=""height:400px;""></stim_listA>","are marrying each other",""
"null","<div style=""font-size:60px;"">+</div>","","html-keyboard-response","416","1060490","0.0-19.0-0.13","62797","List1A","black","woman","","","","null","","","",""
"null","<img src=""stim_listA/dance6.gif""style=""height:400px;""></stim_listA>","","html-keyboard-response","417","1062492","0.0-19.0-1.13","62797","List1A","black","woman","","","","null","","","",""
"null","are dancing with each other","","html-keyboard-response","418","1064494","0.0-19.0-2.13","62797","List1A","black","woman","","","","null","","","",""
"5170","","","survey-text","419","1069665","0.0-19.0-3.13","62797","List1A","black","woman","","","","","{""Q0"":""dave and mike""}","<img src=""stim_listA/dance6.gif""style=""height:400px;""></stim_listA>","are dancing with each other",""
"null","<div style=""font-size:60px;"">+</div>","","html-keyboard-response","420","1070168","0.0-19.0-0.14","62797","List1A","black","woman","","","","null","","","",""
"null","<img src=""stim_listA/touch6.gif""style=""height:400px;""></stim_listA>","","html-keyboard-response","421","1072169","0.0-19.0-1.14","62797","List1A","black","woman","","","","null","","","",""
"null","are touching each other","","html-keyboard-response","422","1074171","0.0-19.0-2.14","62797","List1A","black","woman","","","","null","","","",""
"8664","","","survey-text","423","1082837","0.0-19.0-3.14","62797","List1A","black","woman","","","","","{""Q0"":""mike and luke""}","<img src=""stim_listA/touch6.gif""style=""height:400px;""></stim_listA>","are touching each other",""
"null","<div style=""font-size:60px;"">+</div>","","html-keyboard-response","424","1083345","0.0-19.0-0.15","62797","List1A","black","woman","","","","null","","","",""
"null","<img src=""stim_listA/play2.gif""style=""height:400px;""></stim_listA>","","html-keyboard-response","425","1085347","0.0-19.0-1.15","62797","List1A","black","woman","","","","null","","","",""
"null","are playing with each other","","html-keyboard-response","426","1087348","0.0-19.0-2.15","62797","List1A","black","woman","","","","null","","","",""
"4015","","","survey-text","427","1091364","0.0-19.0-3.15","62797","List1A","black","woman","","","","","{""Q0"":""beth and fred""}","<img src=""stim_listA/play2.gif""style=""height:400px;""></stim_listA>","are playing with each other",""
"null","<div style=""font-size:60px;"">+</div>","","html-keyboard-response","428","1091868","0.0-19.0-0.16","62797","List1A","black","woman","","","","null","","","",""
"null","<img src=""stim_listA/fight6.gif""style=""height:400px;""></stim_listA>","","html-keyboard-response","429","1093870","0.0-19.0-1.16","62797","List1A","black","woman","","","","null","","","",""
"null","are fighting each other","","html-keyboard-response","430","1095871","0.0-19.0-2.16","62797","List1A","black","woman","","","","null","","","",""
"4206","","","survey-text","431","1100079","0.0-19.0-3.16","62797","List1A","black","woman","","","","","{""Q0"":""fred and beth""}","<img src=""stim_listA/fight6.gif""style=""height:400px;""></stim_listA>","are fighting each other",""
"null","<div style=""font-size:60px;"">+</div>","","html-keyboard-response","432","1100587","0.0-19.0-0.17","62797","List1A","black","woman","","","","null","","","",""
"null","<img src=""stim_listA/play1.gif""style=""height:400px;""></stim_listA>","","html-keyboard-response","433","1102589","0.0-19.0-1.17","62797","List1A","black","woman","","","","null","","","",""
"null","is playing with","","html-keyboard-response","434","1104590","0.0-19.0-2.17","62797","List1A","black","woman","","","","null","","","",""
"3837","","","survey-text","435","1108429","0.0-19.0-3.17","62797","List1A","black","woman","","","","","{""Q0"":""mike and kate ""}","<img src=""stim_listA/play1.gif""style=""height:400px;""></stim_listA>","is playing with",""
"null","<div style=""font-size:60px;"">+</div>","","html-keyboard-response","436","1108933","0.0-19.0-0.18","62797","List1A","black","woman","","","","null","","","",""
"null","<img src=""stim_listA/fight4.gif""style=""height:400px;""></stim_listA>","","html-keyboard-response","437","1110936","0.0-19.0-1.18","62797","List1A","black","woman","","","","null","","","",""
"null","are fighting each other","","html-keyboard-response","438","1112936","0.0-19.0-2.18","62797","List1A","black","woman","","","","null","","","",""
"4848","","","survey-text","439","1117785","0.0-19.0-3.18","62797","List1A","black","woman","","","","","{""Q0"":""luke and ruth""}","<img src=""stim_listA/fight4.gif""style=""height:400px;""></stim_listA>","are fighting each other",""
"null","<div style=""font-size:60px;"">+</div>","","html-keyboard-response","440","1118287","0.0-19.0-0.19","62797","List1A","black","woman","","","","null","","","",""
"null","<img src=""stim_listA/dance4.gif""style=""height:400px;""></stim_listA>","","html-keyboard-response","441","1120289","0.0-19.0-1.19","62797","List1A","black","woman","","","","null","","","",""
"null","are dancing with each other","","html-keyboard-response","442","1122291","0.0-19.0-2.19","62797","List1A","black","woman","","","","null","","","",""
"4315","","","survey-text","443","1126607","0.0-19.0-3.19","62797","List1A","black","woman","","","","","{""Q0"":""dave and ruth""}","<img src=""stim_listA/dance4.gif""style=""height:400px;""></stim_listA>","are dancing with each other",""
"5575","<p>Thank you for completing that task.</p><p>The final part of this session is a short questionnaire.</p><p>Press Continue.</p>","0","html-button-response","444","1132186","0.0-20.0","62797","List1A","black","woman","","","","","","","",""
"13937","","","survey-text","445","1147126","0.0-21.0","62797","List1A","black","woman","","","","","{""Q0"":""35"",""Q1"":""English"",""Q2"":""English"",""Q3"":""United States"",""Q4"":""Black"",""Q5"":""female""}","","","demographics"
"6846","","","survey-likert","446","1154008","0.0-22.0","62797","List1A","black","woman","","","","","{""Q0"":4}","","","likert_ESS"
"4708","","","survey-likert","447","1158722","0.0-23.0","62797","List1A","black","woman","","","","","{""Q0"":4}","","","likert_NSSAL_Q1"
"1869","","","survey-likert","448","1160595","0.0-24.0","62797","List1A","black","woman","","","","","{""Q0"":4}","","","likert_NSSAL_Q2"
"3836","","","survey-likert","449","1164436","0.0-25.0","62797","List1A","black","woman","","","","","{""Q0"":4}","","","likert_CGRS_Q1"
"2042","","","survey-likert","450","1166482","0.0-26.0","62797","List1A","black","woman","","","","","{""Q0"":4}","","","likert_CGRS_Q2"
"2003","","","survey-likert","451","1168490","0.0-27.0","62797","List1A","black","woman","","","","","{""Q0"":4}","","","likert_CGRS_Q3"
"6362","","","survey-text","452","1174857","0.0-28.0","62797","List1A","black","woman","","","","","{""Q0"":""5765b92cf96b100001f64c9a""}","","","worker_id"
"2831","","","external-html","453","1178096","0.0-29.0","62797","List1A","black","woman","debrief.html","","","","","","",""
