rt,stimulus,button_pressed,trial_type,trial_index,time_elapsed,internal_node_id,subject,list,ppt_race,ppt_gender,url,first_guess,correct,key_press,responses,image_type,phrase_type,test_part
18815,Welcome to the experiment. Press Continue to begin.,0,html-button-response,0,18818,0.0-0.0,6297,List1B,white,woman,,,,,,,,
18314,,,external-html,1,38629,0.0-1.0,6297,List1B,white,woman,consent.html,,,,,,,
25152,"<p>On the next page, you will see portraits of 8 people and their names.</p><p>Your first task is to take a few minutes to memorise the names of these people.</p><p>You will have to recall their names during the rest of the experiment, so it is</p><p>essential that you try to memorise these people and their names as best as you can.</p><br><p><strong>You will then be tested on your memory of these names and portraits.</strong></p><br><p>The experiment will start after you have completed this memory test.</p><br><p>Ready?</p>",0,html-button-response,2,63783,0.0-2.0,6297,List1B,white,woman,,,,,,,,
113835,"<img src='img/portrait_matrix_list1.jpg' style='width:900px;height:500px;''></img><p>If you have memorised all the portraits and names and are ready to start, press Continue.</p><p><strong>Please note: Your memory of these faces will be tested 4 times during this experiment.</strong></p>",0,html-button-response,3,178619,0.0-3.0-0.0,6297,List1B,white,woman,,,,,,,,
4795,"<img src=""portrait/WM1.jpg""style=""height:400px;""></img>",6,html-button-response,4,184418,0.0-3.0-1.0,6297,List1B,white,woman,,TRUE,6,,,,,
null,CORRECT,,html-keyboard-response,5,185922,0.0-3.0-2.0-0.0,6297,List1B,white,woman,,,,null,,,,
5927,"<img src=""portrait/BW2.jpg""style=""height:400px;""></img>",2,html-button-response,6,191850,0.0-3.0-4.0,6297,List1B,white,woman,,TRUE,2,,,,,
null,CORRECT,,html-keyboard-response,7,193355,0.0-3.0-5.0-0.0,6297,List1B,white,woman,,,,null,,,,
6009,"<img src=""portrait/WW2.jpg""style=""height:400px;""></img>",3,html-button-response,8,199365,0.0-3.0-7.0,6297,List1B,white,woman,,TRUE,3,,,,,
null,CORRECT,,html-keyboard-response,9,200867,0.0-3.0-8.0-0.0,6297,List1B,white,woman,,,,null,,,,
6106,"<img src=""portrait/WW1.jpg""style=""height:400px;""></img>",1,html-button-response,10,206973,0.0-3.0-10.0,6297,List1B,white,woman,,TRUE,1,,,,,
null,CORRECT,,html-keyboard-response,11,208476,0.0-3.0-11.0-0.0,6297,List1B,white,woman,,,,null,,,,
4856,"<img src=""portrait/WM2.jpg""style=""height:400px;""></img>",7,html-button-response,12,213334,0.0-3.0-13.0,6297,List1B,white,woman,,TRUE,7,,,,,
null,CORRECT,,html-keyboard-response,13,214848,0.0-3.0-14.0-0.0,6297,List1B,white,woman,,,,null,,,,
5552,"<img src=""portrait/BM2.jpg""style=""height:400px;""></img>",5,html-button-response,14,220401,0.0-3.0-16.0,6297,List1B,white,woman,,TRUE,5,,,,,
null,CORRECT,,html-keyboard-response,15,221904,0.0-3.0-17.0-0.0,6297,List1B,white,woman,,,,null,,,,
6576,"<img src=""portrait/BM1.jpg""style=""height:400px;""></img>",7,html-button-response,16,228481,0.0-3.0-19.0,6297,List1B,white,woman,,TRUE,4,,,,,
11600,"<img src=""portrait/BM1.jpg""style=""height:400px;""></img>",4,html-button-response,17,241083,0.0-3.0-21.0-0.0,6297,List1B,white,woman,,FALSE,4,,,,,
null,CORRECT,,html-keyboard-response,18,242586,0.0-3.0-21.0-1.0-0.0,6297,List1B,white,woman,,,,null,,,,
7854,"<img src=""portrait/BW1.jpg""style=""height:400px;""></img>",0,html-button-response,19,250441,0.0-3.0-22.0,6297,List1B,white,woman,,TRUE,0,,,,,
null,CORRECT,,html-keyboard-response,20,251945,0.0-3.0-23.0-0.0,6297,List1B,white,woman,,,,null,,,,
2371,<p>You got 7 out of 8 right first time. Press Continue.</p>,0,html-button-response,21,254317,0.0-3.0-25.0,6297,List1B,white,woman,,,,,,,,
2598,"As you did not score 100%, the memory game will repeat. Press Continue.",0,html-button-response,22,257917,0.0-3.0-26.0-0.0,6297,List1B,white,woman,,,,,,,,
4774,"<img src='img/portrait_matrix_list1.jpg' style='width:900px;height:500px;''></img><p>If you have memorised all the portraits and names and are ready to start, press Continue.</p><p><strong>Please note: Your memory of these faces will be tested 4 times during this experiment.</strong></p>",0,html-button-response,23,263699,0.0-3.1-0.1,6297,List1B,white,woman,,,,,,,,
4286,"<img src=""portrait/WM1.jpg""style=""height:400px;""></img>",6,html-button-response,24,268988,0.0-3.1-1.1,6297,List1B,white,woman,,TRUE,6,,,,,
null,CORRECT,,html-keyboard-response,25,270491,0.0-3.1-2.1-0.1,6297,List1B,white,woman,,,,null,,,,
7830,"<img src=""portrait/BW2.jpg""style=""height:400px;""></img>",2,html-button-response,26,278322,0.0-3.1-4.1,6297,List1B,white,woman,,TRUE,2,,,,,
null,CORRECT,,html-keyboard-response,27,279824,0.0-3.1-5.1-0.1,6297,List1B,white,woman,,,,null,,,,
4238,"<img src=""portrait/WW2.jpg""style=""height:400px;""></img>",3,html-button-response,28,284063,0.0-3.1-7.1,6297,List1B,white,woman,,TRUE,3,,,,,
null,CORRECT,,html-keyboard-response,29,285565,0.0-3.1-8.1-0.1,6297,List1B,white,woman,,,,null,,,,
4803,"<img src=""portrait/WW1.jpg""style=""height:400px;""></img>",1,html-button-response,30,290369,0.0-3.1-10.1,6297,List1B,white,woman,,TRUE,1,,,,,
null,CORRECT,,html-keyboard-response,31,291872,0.0-3.1-11.1-0.1,6297,List1B,white,woman,,,,null,,,,
3560,"<img src=""portrait/WM2.jpg""style=""height:400px;""></img>",7,html-button-response,32,295433,0.0-3.1-13.1,6297,List1B,white,woman,,TRUE,7,,,,,
null,CORRECT,,html-keyboard-response,33,296935,0.0-3.1-14.1-0.1,6297,List1B,white,woman,,,,null,,,,
4331,"<img src=""portrait/BM2.jpg""style=""height:400px;""></img>",5,html-button-response,34,301267,0.0-3.1-16.1,6297,List1B,white,woman,,TRUE,5,,,,,
null,CORRECT,,html-keyboard-response,35,302770,0.0-3.1-17.1-0.1,6297,List1B,white,woman,,,,null,,,,
2913,"<img src=""portrait/BM1.jpg""style=""height:400px;""></img>",4,html-button-response,36,305686,0.0-3.1-19.1,6297,List1B,white,woman,,TRUE,4,,,,,
null,CORRECT,,html-keyboard-response,37,307192,0.0-3.1-20.1-0.1,6297,List1B,white,woman,,,,null,,,,
9174,"<img src=""portrait/BW1.jpg""style=""height:400px;""></img>",0,html-button-response,38,316367,0.0-3.1-22.1,6297,List1B,white,woman,,TRUE,0,,,,,
null,CORRECT,,html-keyboard-response,39,317878,0.0-3.1-23.1-0.1,6297,List1B,white,woman,,,,null,,,,
2096,<p>You got 8 out of 8 right first time. Press Continue.</p>,0,html-button-response,40,319976,0.0-3.1-25.1,6297,List1B,white,woman,,,,,,,,
30049,"<p>In this experiment, you will view photographs of the people from the memory game interacting.</p><p>By using the <strong>exact</strong> phrase given <i>after</i> the photograph appears and recalling the correct names of the people in the photographs, form a sentence describing the interaction. You do not need to capitalise names.</p><p>Type your answer in the space provided. Please complete every sentence before moving onto the next trial.</p><p>You will only have a few seconds to memorise each given photograph and phrase before you can respond, so try your best to focus.</p><p>An example is given below. Press 'Continue' when you are ready.</p><img src='img/speaking_example.jpg' style='width:800px;height:460px;''></img>",0,html-button-response,41,351027,0.0-4.0,6297,List1B,white,woman,,,,,,,,
3073,"<p>Before the experiment starts, you will watch two example trials. Press 'Continue'.</p>",0,html-button-response,42,355103,0.0-5.0,6297,List1B,white,woman,,,,,,,,
null,<img src='img/meet_eg.gif' style='height:400px;''></img>,,html-keyboard-response,43,358107,0.0-6.0,6297,List1B,white,woman,,,,null,,,,
null,<p>is meeting</p>,,html-keyboard-response,44,360109,0.0-7.0,6297,List1B,white,woman,,,,null,,,,
3563,<p><b>Answer:</b> kate is meeting beth</p>,0,html-button-response,45,363673,0.0-8.0,6297,List1B,white,woman,,,,,,,,
null,<img src='img/look_eg.gif' style='height:400px;''></img>,,html-keyboard-response,46,366676,0.0-9.0,6297,List1B,white,woman,,,,null,,,,
null,<p>are looking at each other</p>,,html-keyboard-response,47,368677,0.0-10.0,6297,List1B,white,woman,,,,null,,,,
1979,<p><b>Answer:</b> luke and dave are looking at each other</p>,0,html-button-response,48,370657,0.0-11.0,6297,List1B,white,woman,,,,,,,,
6360,"<p>Ready to start the experiment?</p><br><p><strong>Remember to describe the picture using a full sentence,</strong></p><p><strong>that combines the names of the people with the <i>exact</i> phrase given.</strong></p><p><strong>To receive full payment you must do this correctly.</strong></p><p><strong> You do not need to capitalise names or use punctuation.</strong></p><br><p>Press 'Continue' to begin.</p>",0,html-button-response,49,378019,0.0-12.0,6297,List1B,white,woman,,,,,,,,
null,"<div style=""font-size:60px;"">+</div>",,html-keyboard-response,50,379522,0.0-13.0-0.0,6297,List1B,white,woman,,,,null,,,,
null,"<img src=""stim_listB/kiss4.gif""style=""height:400px;""></stim_listB>",,html-keyboard-response,51,381524,0.0-13.0-1.0,6297,List1B,white,woman,,,,null,,,,
null,are kissing each other,,html-keyboard-response,52,383527,0.0-13.0-2.0,6297,List1B,white,woman,,,,null,,,,
20917,,,survey-text,53,404446,0.0-13.0-3.0,6297,List1B,white,woman,,,,,"{""Q0"":""Ruth and dave are kissing each other""}","<img src=""stim_listB/kiss4.gif""style=""height:400px;""></stim_listB>",are kissing each other,
null,"<div style=""font-size:60px;"">+</div>",,html-keyboard-response,54,404948,0.0-13.0-0.1,6297,List1B,white,woman,,,,null,,,,
null,"<img src=""stim_listB/marry7.gif""style=""height:400px;""></stim_listB>",,html-keyboard-response,55,406949,0.0-13.0-1.1,6297,List1B,white,woman,,,,null,,,,
null,is marrying,,html-keyboard-response,56,408951,0.0-13.0-2.1,6297,List1B,white,woman,,,,null,,,,
30358,,,survey-text,57,439311,0.0-13.0-3.1,6297,List1B,white,woman,,,,,"{""Q0"":""ruth is marrying beth""}","<img src=""stim_listB/marry7.gif""style=""height:400px;""></stim_listB>",is marrying,
null,"<div style=""font-size:60px;"">+</div>",,html-keyboard-response,58,439812,0.0-13.0-0.2,6297,List1B,white,woman,,,,null,,,,
null,"<img src=""stim_listB/talk3.gif""style=""height:400px;""></stim_listB>",,html-keyboard-response,59,441816,0.0-13.0-1.2,6297,List1B,white,woman,,,,null,,,,
null,is talking to,,html-keyboard-response,60,443817,0.0-13.0-2.2,6297,List1B,white,woman,,,,null,,,,
12215,,,survey-text,61,456033,0.0-13.0-3.2,6297,List1B,white,woman,,,,,"{""Q0"":""jane is talking to luke""}","<img src=""stim_listB/talk3.gif""style=""height:400px;""></stim_listB>",is talking to,
null,"<div style=""font-size:60px;"">+</div>",,html-keyboard-response,62,456534,0.0-13.0-0.3,6297,List1B,white,woman,,,,null,,,,
null,"<img src=""stim_listB/flirt7.gif""style=""height:400px;""></stim_listB>",,html-keyboard-response,63,458536,0.0-13.0-1.3,6297,List1B,white,woman,,,,null,,,,
null,is flirting with,,html-keyboard-response,64,460538,0.0-13.0-2.3,6297,List1B,white,woman,,,,null,,,,
18276,,,survey-text,65,478815,0.0-13.0-3.3,6297,List1B,white,woman,,,,,"{""Q0"":""jane is flirting with beth""}","<img src=""stim_listB/flirt7.gif""style=""height:400px;""></stim_listB>",is flirting with,
null,"<div style=""font-size:60px;"">+</div>",,html-keyboard-response,66,479318,0.0-13.0-0.4,6297,List1B,white,woman,,,,null,,,,
null,"<img src=""stim_listB/flirt5.gif""style=""height:400px;""></stim_listB>",,html-keyboard-response,67,481321,0.0-13.0-1.4,6297,List1B,white,woman,,,,null,,,,
null,is flirting with,,html-keyboard-response,68,483321,0.0-13.0-2.4,6297,List1B,white,woman,,,,null,,,,
14207,,,survey-text,69,497529,0.0-13.0-3.4,6297,List1B,white,woman,,,,,"{""Q0"":""dave is flirting with fred""}","<img src=""stim_listB/flirt5.gif""style=""height:400px;""></stim_listB>",is flirting with,
null,"<div style=""font-size:60px;"">+</div>",,html-keyboard-response,70,498030,0.0-13.0-0.5,6297,List1B,white,woman,,,,null,,,,
null,"<img src=""stim_listB/dance7.gif""style=""height:400px;""></stim_listB>",,html-keyboard-response,71,500032,0.0-13.0-1.5,6297,List1B,white,woman,,,,null,,,,
null,is dancing with,,html-keyboard-response,72,502034,0.0-13.0-2.5,6297,List1B,white,woman,,,,null,,,,
12554,,,survey-text,73,514589,0.0-13.0-3.5,6297,List1B,white,woman,,,,,"{""Q0"":""beth is dancing with jane""}","<img src=""stim_listB/dance7.gif""style=""height:400px;""></stim_listB>",is dancing with,
null,"<div style=""font-size:60px;"">+</div>",,html-keyboard-response,74,515092,0.0-13.0-0.6,6297,List1B,white,woman,,,,null,,,,
null,"<img src=""stim_listB/talk5.gif""style=""height:400px;""></stim_listB>",,html-keyboard-response,75,517093,0.0-13.0-1.6,6297,List1B,white,woman,,,,null,,,,
null,is talking to,,html-keyboard-response,76,519094,0.0-13.0-2.6,6297,List1B,white,woman,,,,null,,,,
10554,,,survey-text,77,529649,0.0-13.0-3.6,6297,List1B,white,woman,,,,,"{""Q0"":""fred is talking to dave""}","<img src=""stim_listB/talk5.gif""style=""height:400px;""></stim_listB>",is talking to,
null,"<div style=""font-size:60px;"">+</div>",,html-keyboard-response,78,530151,0.0-13.0-0.7,6297,List1B,white,woman,,,,null,,,,
null,"<img src=""stim_listB/marry3.gif""style=""height:400px;""></stim_listB>",,html-keyboard-response,79,532152,0.0-13.0-1.7,6297,List1B,white,woman,,,,null,,,,
null,is marrying,,html-keyboard-response,80,534153,0.0-13.0-2.7,6297,List1B,white,woman,,,,null,,,,
8829,,,survey-text,81,542983,0.0-13.0-3.7,6297,List1B,white,woman,,,,,"{""Q0"":""ruth is marrying dave""}","<img src=""stim_listB/marry3.gif""style=""height:400px;""></stim_listB>",is marrying,
null,"<div style=""font-size:60px;"">+</div>",,html-keyboard-response,82,543494,0.0-13.0-0.8,6297,List1B,white,woman,,,,null,,,,
null,"<img src=""stim_listB/play8.gif""style=""height:400px;""></stim_listB>",,html-keyboard-response,83,545496,0.0-13.0-1.8,6297,List1B,white,woman,,,,null,,,,
null,are playing with each other,,html-keyboard-response,84,547498,0.0-13.0-2.8,6297,List1B,white,woman,,,,null,,,,
41110,,,survey-text,85,588610,0.0-13.0-3.8,6297,List1B,white,woman,,,,,"{""Q0"":""ruth and beth are playing with each other ""}","<img src=""stim_listB/play8.gif""style=""height:400px;""></stim_listB>",are playing with each other,
null,"<div style=""font-size:60px;"">+</div>",,html-keyboard-response,86,589112,0.0-13.0-0.9,6297,List1B,white,woman,,,,null,,,,
null,"<img src=""stim_listB/argue6.gif""style=""height:400px;""></stim_listB>",,html-keyboard-response,87,591114,0.0-13.0-1.9,6297,List1B,white,woman,,,,null,,,,
null,are arguing with each other,,html-keyboard-response,88,593115,0.0-13.0-2.9,6297,List1B,white,woman,,,,null,,,,
12685,,,survey-text,89,605801,0.0-13.0-3.9,6297,List1B,white,woman,,,,,"{""Q0"":""fred and dave are arguing with each other""}","<img src=""stim_listB/argue6.gif""style=""height:400px;""></stim_listB>",are arguing with each other,
null,"<div style=""font-size:60px;"">+</div>",,html-keyboard-response,90,606304,0.0-13.0-0.10,6297,List1B,white,woman,,,,null,,,,
null,"<img src=""stim_listB/dance8.gif""style=""height:400px;""></stim_listB>",,html-keyboard-response,91,608306,0.0-13.0-1.10,6297,List1B,white,woman,,,,null,,,,
null,are dancing with each other,,html-keyboard-response,92,610306,0.0-13.0-2.10,6297,List1B,white,woman,,,,null,,,,
15098,,,survey-text,93,625405,0.0-13.0-3.10,6297,List1B,white,woman,,,,,"{""Q0"":""kate and ruth are dancing together""}","<img src=""stim_listB/dance8.gif""style=""height:400px;""></stim_listB>",are dancing with each other,
null,"<div style=""font-size:60px;"">+</div>",,html-keyboard-response,94,625907,0.0-13.0-0.11,6297,List1B,white,woman,,,,null,,,,
null,"<img src=""stim_listB/argue7.gif""style=""height:400px;""></stim_listB>",,html-keyboard-response,95,627910,0.0-13.0-1.11,6297,List1B,white,woman,,,,null,,,,
null,is arguing with,,html-keyboard-response,96,629910,0.0-13.0-2.11,6297,List1B,white,woman,,,,null,,,,
15286,,,survey-text,97,645197,0.0-13.0-3.11,6297,List1B,white,woman,,,,,"{""Q0"":""kate is arguing with ruth""}","<img src=""stim_listB/argue7.gif""style=""height:400px;""></stim_listB>",is arguing with,
null,"<div style=""font-size:60px;"">+</div>",,html-keyboard-response,98,645700,0.0-13.0-0.12,6297,List1B,white,woman,,,,null,,,,
null,"<img src=""stim_listB/fight3.gif""style=""height:400px;""></stim_listB>",,html-keyboard-response,99,647702,0.0-13.0-1.12,6297,List1B,white,woman,,,,null,,,,
null,is fighting,,html-keyboard-response,100,649705,0.0-13.0-2.12,6297,List1B,white,woman,,,,null,,,,
13426,,,survey-text,101,663132,0.0-13.0-3.12,6297,List1B,white,woman,,,,,"{""Q0"":""dave is fighting with ruth""}","<img src=""stim_listB/fight3.gif""style=""height:400px;""></stim_listB>",is fighting,
null,"<div style=""font-size:60px;"">+</div>",,html-keyboard-response,102,663634,0.0-13.0-0.13,6297,List1B,white,woman,,,,null,,,,
null,"<img src=""stim_listB/fight5.gif""style=""height:400px;""></stim_listB>",,html-keyboard-response,103,665637,0.0-13.0-1.13,6297,List1B,white,woman,,,,null,,,,
null,is fighting,,html-keyboard-response,104,667639,0.0-13.0-2.13,6297,List1B,white,woman,,,,null,,,,
5894,,,survey-text,105,673533,0.0-13.0-3.13,6297,List1B,white,woman,,,,,"{""Q0"":""dave is fighting with mike""}","<img src=""stim_listB/fight5.gif""style=""height:400px;""></stim_listB>",is fighting,
null,"<div style=""font-size:60px;"">+</div>",,html-keyboard-response,106,674035,0.0-13.0-0.14,6297,List1B,white,woman,,,,null,,,,
null,"<img src=""stim_listB/touch2.gif""style=""height:400px;""></stim_listB>",,html-keyboard-response,107,676037,0.0-13.0-1.14,6297,List1B,white,woman,,,,null,,,,
null,are touching each other,,html-keyboard-response,108,678038,0.0-13.0-2.14,6297,List1B,white,woman,,,,null,,,,
12083,,,survey-text,109,690123,0.0-13.0-3.14,6297,List1B,white,woman,,,,,"{""Q0"":""fred and beth are touching each other""}","<img src=""stim_listB/touch2.gif""style=""height:400px;""></stim_listB>",are touching each other,
null,"<div style=""font-size:60px;"">+</div>",,html-keyboard-response,110,690678,0.0-13.0-0.15,6297,List1B,white,woman,,,,null,,,,
null,"<img src=""stim_listB/talk8.gif""style=""height:400px;""></stim_listB>",,html-keyboard-response,111,692693,0.0-13.0-1.15,6297,List1B,white,woman,,,,null,,,,
null,are talking to each other,,html-keyboard-response,112,694694,0.0-13.0-2.15,6297,List1B,white,woman,,,,null,,,,
14349,,,survey-text,113,709043,0.0-13.0-3.15,6297,List1B,white,woman,,,,,"{""Q0"":""ruth and kate are talking to each other""}","<img src=""stim_listB/talk8.gif""style=""height:400px;""></stim_listB>",are talking to each other,
null,"<div style=""font-size:60px;"">+</div>",,html-keyboard-response,114,709547,0.0-13.0-0.16,6297,List1B,white,woman,,,,null,,,,
null,"<img src=""stim_listB/play7.gif""style=""height:400px;""></stim_listB>",,html-keyboard-response,115,711548,0.0-13.0-1.16,6297,List1B,white,woman,,,,null,,,,
null,is playing with,,html-keyboard-response,116,713549,0.0-13.0-2.16,6297,List1B,white,woman,,,,null,,,,
9854,,,survey-text,117,723403,0.0-13.0-3.16,6297,List1B,white,woman,,,,,"{""Q0"":""kate is playing with jane""}","<img src=""stim_listB/play7.gif""style=""height:400px;""></stim_listB>",is playing with,
null,"<div style=""font-size:60px;"">+</div>",,html-keyboard-response,118,723904,0.0-13.0-0.17,6297,List1B,white,woman,,,,null,,,,
null,"<img src=""stim_listB/dance1.gif""style=""height:400px;""></stim_listB>",,html-keyboard-response,119,725908,0.0-13.0-1.17,6297,List1B,white,woman,,,,null,,,,
null,is dancing with,,html-keyboard-response,120,727941,0.0-13.0-2.17,6297,List1B,white,woman,,,,null,,,,
12052,,,survey-text,121,739993,0.0-13.0-3.17,6297,List1B,white,woman,,,,,"{""Q0"":""fred is dancing with kate""}","<img src=""stim_listB/dance1.gif""style=""height:400px;""></stim_listB>",is dancing with,
null,"<div style=""font-size:60px;"">+</div>",,html-keyboard-response,122,740495,0.0-13.0-0.18,6297,List1B,white,woman,,,,null,,,,
null,"<img src=""stim_listB/fight6.gif""style=""height:400px;""></stim_listB>",,html-keyboard-response,123,742498,0.0-13.0-1.18,6297,List1B,white,woman,,,,null,,,,
null,are fighting each other,,html-keyboard-response,124,744500,0.0-13.0-2.18,6297,List1B,white,woman,,,,null,,,,
12348,,,survey-text,125,756849,0.0-13.0-3.18,6297,List1B,white,woman,,,,,"{""Q0"":""fred and mike are fighting each other""}","<img src=""stim_listB/fight6.gif""style=""height:400px;""></stim_listB>",are fighting each other,
null,"<div style=""font-size:60px;"">+</div>",,html-keyboard-response,126,757351,0.0-13.0-0.19,6297,List1B,white,woman,,,,null,,,,
null,"<img src=""stim_listB/fight4.gif""style=""height:400px;""></stim_listB>",,html-keyboard-response,127,759352,0.0-13.0-1.19,6297,List1B,white,woman,,,,null,,,,
null,are fighting each other,,html-keyboard-response,128,761353,0.0-13.0-2.19,6297,List1B,white,woman,,,,null,,,,
17492,,,survey-text,129,778846,0.0-13.0-3.19,6297,List1B,white,woman,,,,,"{""Q0"":""luke and ruth are fighting each other""}","<img src=""stim_listB/fight4.gif""style=""height:400px;""></stim_listB>",are fighting each other,
4062,"<img src='img/portrait_matrix_list1.jpg' style='width:900px;height:500px;''></img><p>If you have memorised all the portraits and names and are ready to start, press Continue.</p><p><strong>Please note: Your memory of these faces will be tested 4 times during this experiment.</strong></p>",0,html-button-response,130,782909,0.0-14.0-0.0,6297,List1B,white,woman,,,,,,,,
3488,"<img src=""portrait/WM1.jpg""style=""height:400px;""></img>",6,html-button-response,131,787399,0.0-14.0-1.0,6297,List1B,white,woman,,TRUE,6,,,,,
null,CORRECT,,html-keyboard-response,132,788902,0.0-14.0-2.0-0.0,6297,List1B,white,woman,,,,null,,,,
3471,"<img src=""portrait/WW2.jpg""style=""height:400px;""></img>",3,html-button-response,133,792374,0.0-14.0-4.0,6297,List1B,white,woman,,TRUE,3,,,,,
null,CORRECT,,html-keyboard-response,134,793876,0.0-14.0-5.0-0.0,6297,List1B,white,woman,,,,null,,,,
4382,"<img src=""portrait/BW2.jpg""style=""height:400px;""></img>",2,html-button-response,135,798260,0.0-14.0-7.0,6297,List1B,white,woman,,TRUE,2,,,,,
null,CORRECT,,html-keyboard-response,136,799762,0.0-14.0-8.0-0.0,6297,List1B,white,woman,,,,null,,,,
3466,"<img src=""portrait/WM2.jpg""style=""height:400px;""></img>",7,html-button-response,137,803230,0.0-14.0-10.0,6297,List1B,white,woman,,TRUE,7,,,,,
null,CORRECT,,html-keyboard-response,138,804731,0.0-14.0-11.0-0.0,6297,List1B,white,woman,,,,null,,,,
6649,"<img src=""portrait/WW1.jpg""style=""height:400px;""></img>",1,html-button-response,139,811382,0.0-14.0-13.0,6297,List1B,white,woman,,TRUE,1,,,,,
null,CORRECT,,html-keyboard-response,140,812885,0.0-14.0-14.0-0.0,6297,List1B,white,woman,,,,null,,,,
4337,"<img src=""portrait/BM2.jpg""style=""height:400px;""></img>",5,html-button-response,141,817224,0.0-14.0-16.0,6297,List1B,white,woman,,TRUE,5,,,,,
null,CORRECT,,html-keyboard-response,142,818727,0.0-14.0-17.0-0.0,6297,List1B,white,woman,,,,null,,,,
2542,"<img src=""portrait/BM1.jpg""style=""height:400px;""></img>",4,html-button-response,143,821270,0.0-14.0-19.0,6297,List1B,white,woman,,TRUE,4,,,,,
null,CORRECT,,html-keyboard-response,144,822773,0.0-14.0-20.0-0.0,6297,List1B,white,woman,,,,null,,,,
4698,"<img src=""portrait/BW1.jpg""style=""height:400px;""></img>",0,html-button-response,145,827472,0.0-14.0-22.0,6297,List1B,white,woman,,TRUE,0,,,,,
null,CORRECT,,html-keyboard-response,146,828976,0.0-14.0-23.0-0.0,6297,List1B,white,woman,,,,null,,,,
1279,<p>You got 8 out of 8 right first time. Press Continue.</p>,0,html-button-response,147,830256,0.0-14.0-25.0,6297,List1B,white,woman,,,,,,,,
null,"<div style=""font-size:60px;"">+</div>",,html-keyboard-response,148,831759,0.0-15.0-0.0,6297,List1B,white,woman,,,,null,,,,
null,"<img src=""stim_listB/argue2.gif""style=""height:400px;""></stim_listB>",,html-keyboard-response,149,833761,0.0-15.0-1.0,6297,List1B,white,woman,,,,null,,,,
null,are arguing with each other,,html-keyboard-response,150,835763,0.0-15.0-2.0,6297,List1B,white,woman,,,,null,,,,
10630,,,survey-text,151,846394,0.0-15.0-3.0,6297,List1B,white,woman,,,,,"{""Q0"":""fred and kate are arguing with each other""}","<img src=""stim_listB/argue2.gif""style=""height:400px;""></stim_listB>",are arguing with each other,
null,"<div style=""font-size:60px;"">+</div>",,html-keyboard-response,152,846896,0.0-15.0-0.1,6297,List1B,white,woman,,,,null,,,,
null,"<img src=""stim_listB/kiss3.gif""style=""height:400px;""></stim_listB>",,html-keyboard-response,153,848899,0.0-15.0-1.1,6297,List1B,white,woman,,,,null,,,,
null,is kissing,,html-keyboard-response,154,850899,0.0-15.0-2.1,6297,List1B,white,woman,,,,null,,,,
9450,,,survey-text,155,860351,0.0-15.0-3.1,6297,List1B,white,woman,,,,,"{""Q0"":""ruth is kissing luke""}","<img src=""stim_listB/kiss3.gif""style=""height:400px;""></stim_listB>",is kissing,
null,"<div style=""font-size:60px;"">+</div>",,html-keyboard-response,156,860851,0.0-15.0-0.2,6297,List1B,white,woman,,,,null,,,,
null,"<img src=""stim_listB/shout7.gif""style=""height:400px;""></stim_listB>",,html-keyboard-response,157,862853,0.0-15.0-1.2,6297,List1B,white,woman,,,,null,,,,
null,is shouting at,,html-keyboard-response,158,864854,0.0-15.0-2.2,6297,List1B,white,woman,,,,null,,,,
7319,,,survey-text,159,872174,0.0-15.0-3.2,6297,List1B,white,woman,,,,,"{""Q0"":""ruth is shouting at beth""}","<img src=""stim_listB/shout7.gif""style=""height:400px;""></stim_listB>",is shouting at,
null,"<div style=""font-size:60px;"">+</div>",,html-keyboard-response,160,872676,0.0-15.0-0.3,6297,List1B,white,woman,,,,null,,,,
null,"<img src=""stim_listB/shout8.gif""style=""height:400px;""></stim_listB>",,html-keyboard-response,161,874677,0.0-15.0-1.3,6297,List1B,white,woman,,,,null,,,,
null,are shouting at each other,,html-keyboard-response,162,876679,0.0-15.0-2.3,6297,List1B,white,woman,,,,null,,,,
13127,,,survey-text,163,889806,0.0-15.0-3.3,6297,List1B,white,woman,,,,,"{""Q0"":""kate and jane are shouting at each other""}","<img src=""stim_listB/shout8.gif""style=""height:400px;""></stim_listB>",are shouting at each other,
null,"<div style=""font-size:60px;"">+</div>",,html-keyboard-response,164,890308,0.0-15.0-0.4,6297,List1B,white,woman,,,,null,,,,
null,"<img src=""stim_listB/fight8.gif""style=""height:400px;""></stim_listB>",,html-keyboard-response,165,892310,0.0-15.0-1.4,6297,List1B,white,woman,,,,null,,,,
null,are fighting each other,,html-keyboard-response,166,894312,0.0-15.0-2.4,6297,List1B,white,woman,,,,null,,,,
13895,,,survey-text,167,908208,0.0-15.0-3.4,6297,List1B,white,woman,,,,,"{""Q0"":""ruth and beth are fighting each other""}","<img src=""stim_listB/fight8.gif""style=""height:400px;""></stim_listB>",are fighting each other,
null,"<div style=""font-size:60px;"">+</div>",,html-keyboard-response,168,908710,0.0-15.0-0.5,6297,List1B,white,woman,,,,null,,,,
null,"<img src=""stim_listB/kiss1.gif""style=""height:400px;""></stim_listB>",,html-keyboard-response,169,910711,0.0-15.0-1.5,6297,List1B,white,woman,,,,null,,,,
null,is kissing,,html-keyboard-response,170,912712,0.0-15.0-2.5,6297,List1B,white,woman,,,,null,,,,
11577,,,survey-text,171,924290,0.0-15.0-3.5,6297,List1B,white,woman,,,,,"{""Q0"":""fred is kissing beth""}","<img src=""stim_listB/kiss1.gif""style=""height:400px;""></stim_listB>",is kissing,
null,"<div style=""font-size:60px;"">+</div>",,html-keyboard-response,172,924792,0.0-15.0-0.6,6297,List1B,white,woman,,,,null,,,,
null,"<img src=""stim_listB/flirt1.gif""style=""height:400px;""></stim_listB>",,html-keyboard-response,173,926794,0.0-15.0-1.6,6297,List1B,white,woman,,,,null,,,,
null,is flirting with,,html-keyboard-response,174,928795,0.0-15.0-2.6,6297,List1B,white,woman,,,,null,,,,
12515,,,survey-text,175,941311,0.0-15.0-3.6,6297,List1B,white,woman,,,,,"{""Q0"":""fred is flirting with kate""}","<img src=""stim_listB/flirt1.gif""style=""height:400px;""></stim_listB>",is flirting with,
null,"<div style=""font-size:60px;"">+</div>",,html-keyboard-response,176,941813,0.0-15.0-0.7,6297,List1B,white,woman,,,,null,,,,
null,"<img src=""stim_listB/dance2.gif""style=""height:400px;""></stim_listB>",,html-keyboard-response,177,943814,0.0-15.0-1.7,6297,List1B,white,woman,,,,null,,,,
null,are dancing with each other,,html-keyboard-response,178,945815,0.0-15.0-2.7,6297,List1B,white,woman,,,,null,,,,
11675,,,survey-text,179,957490,0.0-15.0-3.7,6297,List1B,white,woman,,,,,"{""Q0"":""beth and mike are dancing with each other""}","<img src=""stim_listB/dance2.gif""style=""height:400px;""></stim_listB>",are dancing with each other,
null,"<div style=""font-size:60px;"">+</div>",,html-keyboard-response,180,957991,0.0-15.0-0.8,6297,List1B,white,woman,,,,null,,,,
null,"<img src=""stim_listB/kiss7.gif""style=""height:400px;""></stim_listB>",,html-keyboard-response,181,960011,0.0-15.0-1.8,6297,List1B,white,woman,,,,null,,,,
null,is kissing,,html-keyboard-response,182,962018,0.0-15.0-2.8,6297,List1B,white,woman,,,,null,,,,
13520,,,survey-text,183,975540,0.0-15.0-3.8,6297,List1B,white,woman,,,,,"{""Q0"":""beth is kissing ruth""}","<img src=""stim_listB/kiss7.gif""style=""height:400px;""></stim_listB>",is kissing,
null,"<div style=""font-size:60px;"">+</div>",,html-keyboard-response,184,976054,0.0-15.0-0.9,6297,List1B,white,woman,,,,null,,,,
null,"<img src=""stim_listB/shout4.gif""style=""height:400px;""></stim_listB>",,html-keyboard-response,185,978087,0.0-15.0-1.9,6297,List1B,white,woman,,,,null,,,,
null,are shouting at each other,,html-keyboard-response,186,980093,0.0-15.0-2.9,6297,List1B,white,woman,,,,null,,,,
11152,,,survey-text,187,991246,0.0-15.0-3.9,6297,List1B,white,woman,,,,,"{""Q0"":""jane and dave are shouting at each other""}","<img src=""stim_listB/shout4.gif""style=""height:400px;""></stim_listB>",are shouting at each other,
null,"<div style=""font-size:60px;"">+</div>",,html-keyboard-response,188,991776,0.0-15.0-0.10,6297,List1B,white,woman,,,,null,,,,
null,"<img src=""stim_listB/shout5.gif""style=""height:400px;""></stim_listB>",,html-keyboard-response,189,993791,0.0-15.0-1.10,6297,List1B,white,woman,,,,null,,,,
null,is shouting at,,html-keyboard-response,190,995802,0.0-15.0-2.10,6297,List1B,white,woman,,,,null,,,,
8116,,,survey-text,191,1003919,0.0-15.0-3.10,6297,List1B,white,woman,,,,,"{""Q0"":""fred is shouting at luke""}","<img src=""stim_listB/shout5.gif""style=""height:400px;""></stim_listB>",is shouting at,
null,"<div style=""font-size:60px;"">+</div>",,html-keyboard-response,192,1004423,0.0-15.0-0.11,6297,List1B,white,woman,,,,null,,,,
null,"<img src=""stim_listB/play4.gif""style=""height:400px;""></stim_listB>",,html-keyboard-response,193,1006435,0.0-15.0-1.11,6297,List1B,white,woman,,,,null,,,,
null,are playing with each other,,html-keyboard-response,194,1008463,0.0-15.0-2.11,6297,List1B,white,woman,,,,null,,,,
12720,,,survey-text,195,1021185,0.0-15.0-3.11,6297,List1B,white,woman,,,,,"{""Q0"":""luke and ruth are playing with each other""}","<img src=""stim_listB/play4.gif""style=""height:400px;""></stim_listB>",are playing with each other,
null,"<div style=""font-size:60px;"">+</div>",,html-keyboard-response,196,1021739,0.0-15.0-0.12,6297,List1B,white,woman,,,,null,,,,
null,"<img src=""stim_listB/flirt6.gif""style=""height:400px;""></stim_listB>",,html-keyboard-response,197,1023757,0.0-15.0-1.12,6297,List1B,white,woman,,,,null,,,,
null,are flirting with each other,,html-keyboard-response,198,1025816,0.0-15.0-2.12,6297,List1B,white,woman,,,,null,,,,
10762,,,survey-text,199,1036578,0.0-15.0-3.12,6297,List1B,white,woman,,,,,"{""Q0"":""luke and mike are flirting with each other""}","<img src=""stim_listB/flirt6.gif""style=""height:400px;""></stim_listB>",are flirting with each other,
null,"<div style=""font-size:60px;"">+</div>",,html-keyboard-response,200,1037079,0.0-15.0-0.13,6297,List1B,white,woman,,,,null,,,,
null,"<img src=""stim_listB/flirt4.gif""style=""height:400px;""></stim_listB>",,html-keyboard-response,201,1039081,0.0-15.0-1.13,6297,List1B,white,woman,,,,null,,,,
null,are flirting with each other,,html-keyboard-response,202,1041082,0.0-15.0-2.13,6297,List1B,white,woman,,,,null,,,,
12159,,,survey-text,203,1053242,0.0-15.0-3.13,6297,List1B,white,woman,,,,,"{""Q0"":""dave and jane are flirting with each other""}","<img src=""stim_listB/flirt4.gif""style=""height:400px;""></stim_listB>",are flirting with each other,
null,"<div style=""font-size:60px;"">+</div>",,html-keyboard-response,204,1053745,0.0-15.0-0.14,6297,List1B,white,woman,,,,null,,,,
null,"<img src=""stim_listB/fight7.gif""style=""height:400px;""></stim_listB>",,html-keyboard-response,205,1055747,0.0-15.0-1.14,6297,List1B,white,woman,,,,null,,,,
null,is fighting,,html-keyboard-response,206,1057748,0.0-15.0-2.14,6297,List1B,white,woman,,,,null,,,,
8925,,,survey-text,207,1066674,0.0-15.0-3.14,6297,List1B,white,woman,,,,,"{""Q0"":""kate is fighting jane""}","<img src=""stim_listB/fight7.gif""style=""height:400px;""></stim_listB>",is fighting,
null,"<div style=""font-size:60px;"">+</div>",,html-keyboard-response,208,1067178,0.0-15.0-0.15,6297,List1B,white,woman,,,,null,,,,
null,"<img src=""stim_listB/play3.gif""style=""height:400px;""></stim_listB>",,html-keyboard-response,209,1069179,0.0-15.0-1.15,6297,List1B,white,woman,,,,null,,,,
null,is playing with,,html-keyboard-response,210,1071181,0.0-15.0-2.15,6297,List1B,white,woman,,,,null,,,,
6835,,,survey-text,211,1078016,0.0-15.0-3.15,6297,List1B,white,woman,,,,,"{""Q0"":""jane is playing with dave""}","<img src=""stim_listB/play3.gif""style=""height:400px;""></stim_listB>",is playing with,
null,"<div style=""font-size:60px;"">+</div>",,html-keyboard-response,212,1078517,0.0-15.0-0.16,6297,List1B,white,woman,,,,null,,,,
null,"<img src=""stim_listB/talk2.gif""style=""height:400px;""></stim_listB>",,html-keyboard-response,213,1080519,0.0-15.0-1.16,6297,List1B,white,woman,,,,null,,,,
null,are talking to each other,,html-keyboard-response,214,1082521,0.0-15.0-2.16,6297,List1B,white,woman,,,,null,,,,
15553,,,survey-text,215,1098074,0.0-15.0-3.16,6297,List1B,white,woman,,,,,"{""Q0"":""mike and beth are talking to each other""}","<img src=""stim_listB/talk2.gif""style=""height:400px;""></stim_listB>",are talking to each other,
null,"<div style=""font-size:60px;"">+</div>",,html-keyboard-response,216,1098576,0.0-15.0-0.17,6297,List1B,white,woman,,,,null,,,,
null,"<img src=""stim_listB/shout1.gif""style=""height:400px;""></stim_listB>",,html-keyboard-response,217,1100578,0.0-15.0-1.17,6297,List1B,white,woman,,,,null,,,,
null,is shouting at,,html-keyboard-response,218,1102579,0.0-15.0-2.17,6297,List1B,white,woman,,,,null,,,,
5666,,,survey-text,219,1108247,0.0-15.0-3.17,6297,List1B,white,woman,,,,,"{""Q0"":""fred is shouting at beth""}","<img src=""stim_listB/shout1.gif""style=""height:400px;""></stim_listB>",is shouting at,
null,"<div style=""font-size:60px;"">+</div>",,html-keyboard-response,220,1108747,0.0-15.0-0.18,6297,List1B,white,woman,,,,null,,,,
null,"<img src=""stim_listB/dance6.gif""style=""height:400px;""></stim_listB>",,html-keyboard-response,221,1110750,0.0-15.0-1.18,6297,List1B,white,woman,,,,null,,,,
null,are dancing with each other,,html-keyboard-response,222,1112752,0.0-15.0-2.18,6297,List1B,white,woman,,,,null,,,,
8070,,,survey-text,223,1120822,0.0-15.0-3.18,6297,List1B,white,woman,,,,,"{""Q0"":""mike and luke are dancing together""}","<img src=""stim_listB/dance6.gif""style=""height:400px;""></stim_listB>",are dancing with each other,
null,"<div style=""font-size:60px;"">+</div>",,html-keyboard-response,224,1121324,0.0-15.0-0.19,6297,List1B,white,woman,,,,null,,,,
null,"<img src=""stim_listB/flirt8.gif""style=""height:400px;""></stim_listB>",,html-keyboard-response,225,1123327,0.0-15.0-1.19,6297,List1B,white,woman,,,,null,,,,
null,are flirting with each other,,html-keyboard-response,226,1125329,0.0-15.0-2.19,6297,List1B,white,woman,,,,null,,,,
12066,,,survey-text,227,1137397,0.0-15.0-3.19,6297,List1B,white,woman,,,,,"{""Q0"":""jane and kate are flirting with each other""}","<img src=""stim_listB/flirt8.gif""style=""height:400px;""></stim_listB>",are flirting with each other,
1771,"<img src='img/portrait_matrix_list1.jpg' style='width:900px;height:500px;''></img><p>If you have memorised all the portraits and names and are ready to start, press Continue.</p><p><strong>Please note: Your memory of these faces will be tested 4 times during this experiment.</strong></p>",0,html-button-response,228,1139168,0.0-16.0-0.0,6297,List1B,white,woman,,,,,,,,
2171,"<img src=""portrait/BM2.jpg""style=""height:400px;""></img>",5,html-button-response,229,1142341,0.0-16.0-1.0,6297,List1B,white,woman,,TRUE,5,,,,,
null,CORRECT,,html-keyboard-response,230,1143845,0.0-16.0-2.0-0.0,6297,List1B,white,woman,,,,null,,,,
3652,"<img src=""portrait/WW2.jpg""style=""height:400px;""></img>",3,html-button-response,231,1147499,0.0-16.0-4.0,6297,List1B,white,woman,,TRUE,3,,,,,
null,CORRECT,,html-keyboard-response,232,1149014,0.0-16.0-5.0-0.0,6297,List1B,white,woman,,,,null,,,,
2486,"<img src=""portrait/BM1.jpg""style=""height:400px;""></img>",4,html-button-response,233,1151502,0.0-16.0-7.0,6297,List1B,white,woman,,TRUE,4,,,,,
null,CORRECT,,html-keyboard-response,234,1153073,0.0-16.0-8.0-0.0,6297,List1B,white,woman,,,,null,,,,
3314,"<img src=""portrait/BW2.jpg""style=""height:400px;""></img>",2,html-button-response,235,1156388,0.0-16.0-10.0,6297,List1B,white,woman,,TRUE,2,,,,,
null,CORRECT,,html-keyboard-response,236,1157897,0.0-16.0-11.0-0.0,6297,List1B,white,woman,,,,null,,,,
4608,"<img src=""portrait/BW1.jpg""style=""height:400px;""></img>",0,html-button-response,237,1162506,0.0-16.0-13.0,6297,List1B,white,woman,,TRUE,0,,,,,
null,CORRECT,,html-keyboard-response,238,1164011,0.0-16.0-14.0-0.0,6297,List1B,white,woman,,,,null,,,,
3049,"<img src=""portrait/WM2.jpg""style=""height:400px;""></img>",7,html-button-response,239,1167061,0.0-16.0-16.0,6297,List1B,white,woman,,TRUE,7,,,,,
null,CORRECT,,html-keyboard-response,240,1168580,0.0-16.0-17.0-0.0,6297,List1B,white,woman,,,,null,,,,
6151,"<img src=""portrait/WW1.jpg""style=""height:400px;""></img>",1,html-button-response,241,1174732,0.0-16.0-19.0,6297,List1B,white,woman,,TRUE,1,,,,,
null,CORRECT,,html-keyboard-response,242,1176235,0.0-16.0-20.0-0.0,6297,List1B,white,woman,,,,null,,,,
2456,"<img src=""portrait/WM1.jpg""style=""height:400px;""></img>",6,html-button-response,243,1178692,0.0-16.0-22.0,6297,List1B,white,woman,,TRUE,6,,,,,
null,CORRECT,,html-keyboard-response,244,1180195,0.0-16.0-23.0-0.0,6297,List1B,white,woman,,,,null,,,,
1718,<p>You got 8 out of 8 right first time. Press Continue.</p>,0,html-button-response,245,1181914,0.0-16.0-25.0,6297,List1B,white,woman,,,,,,,,
null,"<div style=""font-size:60px;"">+</div>",,html-keyboard-response,246,1183504,0.0-17.0-0.0,6297,List1B,white,woman,,,,null,,,,
null,"<img src=""stim_listB/flirt2.gif""style=""height:400px;""></stim_listB>",,html-keyboard-response,247,1185512,0.0-17.0-1.0,6297,List1B,white,woman,,,,null,,,,
null,are flirting with each other,,html-keyboard-response,248,1187547,0.0-17.0-2.0,6297,List1B,white,woman,,,,null,,,,
12725,,,survey-text,249,1200272,0.0-17.0-3.0,6297,List1B,white,woman,,,,,"{""Q0"":""mike and beth are flirting with each other""}","<img src=""stim_listB/flirt2.gif""style=""height:400px;""></stim_listB>",are flirting with each other,
null,"<div style=""font-size:60px;"">+</div>",,html-keyboard-response,250,1200773,0.0-17.0-0.1,6297,List1B,white,woman,,,,null,,,,
null,"<img src=""stim_listB/dance5.gif""style=""height:400px;""></stim_listB>",,html-keyboard-response,251,1202776,0.0-17.0-1.1,6297,List1B,white,woman,,,,null,,,,
null,is dancing with,,html-keyboard-response,252,1204778,0.0-17.0-2.1,6297,List1B,white,woman,,,,null,,,,
6991,,,survey-text,253,1211770,0.0-17.0-3.1,6297,List1B,white,woman,,,,,"{""Q0"":""fred is dancing with dave""}","<img src=""stim_listB/dance5.gif""style=""height:400px;""></stim_listB>",is dancing with,
null,"<div style=""font-size:60px;"">+</div>",,html-keyboard-response,254,1212272,0.0-17.0-0.2,6297,List1B,white,woman,,,,null,,,,
null,"<img src=""stim_listB/marry8.gif""style=""height:400px;""></stim_listB>",,html-keyboard-response,255,1214274,0.0-17.0-1.2,6297,List1B,white,woman,,,,null,,,,
null,are marrying each other,,html-keyboard-response,256,1216276,0.0-17.0-2.2,6297,List1B,white,woman,,,,null,,,,
11633,,,survey-text,257,1227910,0.0-17.0-3.2,6297,List1B,white,woman,,,,,"{""Q0"":""beth and jane are marrying each other ""}","<img src=""stim_listB/marry8.gif""style=""height:400px;""></stim_listB>",are marrying each other,
null,"<div style=""font-size:60px;"">+</div>",,html-keyboard-response,258,1228412,0.0-17.0-0.3,6297,List1B,white,woman,,,,null,,,,
null,"<img src=""stim_listB/marry4.gif""style=""height:400px;""></stim_listB>",,html-keyboard-response,259,1230414,0.0-17.0-1.3,6297,List1B,white,woman,,,,null,,,,
null,are marrying each other,,html-keyboard-response,260,1232416,0.0-17.0-2.3,6297,List1B,white,woman,,,,null,,,,
11398,,,survey-text,261,1243814,0.0-17.0-3.3,6297,List1B,white,woman,,,,,"{""Q0"":""luke and jane are marrying each other ""}","<img src=""stim_listB/marry4.gif""style=""height:400px;""></stim_listB>",are marrying each other,
null,"<div style=""font-size:60px;"">+</div>",,html-keyboard-response,262,1244315,0.0-17.0-0.4,6297,List1B,white,woman,,,,null,,,,
null,"<img src=""stim_listB/kiss8.gif""style=""height:400px;""></stim_listB>",,html-keyboard-response,263,1246379,0.0-17.0-1.4,6297,List1B,white,woman,,,,null,,,,
null,are kissing each other,,html-keyboard-response,264,1248380,0.0-17.0-2.4,6297,List1B,white,woman,,,,null,,,,
14427,,,survey-text,265,1262808,0.0-17.0-3.4,6297,List1B,white,woman,,,,,"{""Q0"":""jane and kate are kissing each other""}","<img src=""stim_listB/kiss8.gif""style=""height:400px;""></stim_listB>",are kissing each other,
null,"<div style=""font-size:60px;"">+</div>",,html-keyboard-response,266,1263310,0.0-17.0-0.5,6297,List1B,white,woman,,,,null,,,,
null,"<img src=""stim_listB/touch7.gif""style=""height:400px;""></stim_listB>",,html-keyboard-response,267,1265312,0.0-17.0-1.5,6297,List1B,white,woman,,,,null,,,,
null,is touching,,html-keyboard-response,268,1267313,0.0-17.0-2.5,6297,List1B,white,woman,,,,null,,,,
7199,,,survey-text,269,1274512,0.0-17.0-3.5,6297,List1B,white,woman,,,,,"{""Q0"":""kate is touching jane""}","<img src=""stim_listB/touch7.gif""style=""height:400px;""></stim_listB>",is touching,
null,"<div style=""font-size:60px;"">+</div>",,html-keyboard-response,270,1275014,0.0-17.0-0.6,6297,List1B,white,woman,,,,null,,,,
null,"<img src=""stim_listB/play5.gif""style=""height:400px;""></stim_listB>",,html-keyboard-response,271,1277016,0.0-17.0-1.6,6297,List1B,white,woman,,,,null,,,,
null,is playing with,,html-keyboard-response,272,1279017,0.0-17.0-2.6,6297,List1B,white,woman,,,,null,,,,
5674,,,survey-text,273,1284692,0.0-17.0-3.6,6297,List1B,white,woman,,,,,"{""Q0"":""dave is playing with mike""}","<img src=""stim_listB/play5.gif""style=""height:400px;""></stim_listB>",is playing with,
null,"<div style=""font-size:60px;"">+</div>",,html-keyboard-response,274,1285195,0.0-17.0-0.7,6297,List1B,white,woman,,,,null,,,,
null,"<img src=""stim_listB/touch1.gif""style=""height:400px;""></stim_listB>",,html-keyboard-response,275,1287237,0.0-17.0-1.7,6297,List1B,white,woman,,,,null,,,,
null,is touching,,html-keyboard-response,276,1289281,0.0-17.0-2.7,6297,List1B,white,woman,,,,null,,,,
6111,,,survey-text,277,1295394,0.0-17.0-3.7,6297,List1B,white,woman,,,,,"{""Q0"":""mike is touching kate""}","<img src=""stim_listB/touch1.gif""style=""height:400px;""></stim_listB>",is touching,
null,"<div style=""font-size:60px;"">+</div>",,html-keyboard-response,278,1295936,0.0-17.0-0.8,6297,List1B,white,woman,,,,null,,,,
null,"<img src=""stim_listB/fight1.gif""style=""height:400px;""></stim_listB>",,html-keyboard-response,279,1297948,0.0-17.0-1.8,6297,List1B,white,woman,,,,null,,,,
null,is fighting,,html-keyboard-response,280,1300009,0.0-17.0-2.8,6297,List1B,white,woman,,,,null,,,,
5712,,,survey-text,281,1305723,0.0-17.0-3.8,6297,List1B,white,woman,,,,,"{""Q0"":""kate is fighting mike""}","<img src=""stim_listB/fight1.gif""style=""height:400px;""></stim_listB>",is fighting,
null,"<div style=""font-size:60px;"">+</div>",,html-keyboard-response,282,1306281,0.0-17.0-0.9,6297,List1B,white,woman,,,,null,,,,
null,"<img src=""stim_listB/talk7.gif""style=""height:400px;""></stim_listB>",,html-keyboard-response,283,1308299,0.0-17.0-1.9,6297,List1B,white,woman,,,,null,,,,
null,is talking to,,html-keyboard-response,284,1310332,0.0-17.0-2.9,6297,List1B,white,woman,,,,null,,,,
7231,,,survey-text,285,1317564,0.0-17.0-3.9,6297,List1B,white,woman,,,,,"{""Q0"":""jane is talking to beth""}","<img src=""stim_listB/talk7.gif""style=""height:400px;""></stim_listB>",is talking to,
null,"<div style=""font-size:60px;"">+</div>",,html-keyboard-response,286,1318077,0.0-17.0-0.10,6297,List1B,white,woman,,,,null,,,,
null,"<img src=""stim_listB/marry6.gif""style=""height:400px;""></stim_listB>",,html-keyboard-response,287,1320107,0.0-17.0-1.10,6297,List1B,white,woman,,,,null,,,,
null,are marrying each other,,html-keyboard-response,288,1322113,0.0-17.0-2.10,6297,List1B,white,woman,,,,null,,,,
8674,,,survey-text,289,1330788,0.0-17.0-3.10,6297,List1B,white,woman,,,,,"{""Q0"":""fred and dave are marrying each other""}","<img src=""stim_listB/marry6.gif""style=""height:400px;""></stim_listB>",are marrying each other,
null,"<div style=""font-size:60px;"">+</div>",,html-keyboard-response,290,1331313,0.0-17.0-0.11,6297,List1B,white,woman,,,,null,,,,
null,"<img src=""stim_listB/touch4.gif""style=""height:400px;""></stim_listB>",,html-keyboard-response,291,1333378,0.0-17.0-1.11,6297,List1B,white,woman,,,,null,,,,
null,are touching each other,,html-keyboard-response,292,1335381,0.0-17.0-2.11,6297,List1B,white,woman,,,,null,,,,
9225,,,survey-text,293,1344607,0.0-17.0-3.11,6297,List1B,white,woman,,,,,"{""Q0"":""luke and ruth are touching each other""}","<img src=""stim_listB/touch4.gif""style=""height:400px;""></stim_listB>",are touching each other,
null,"<div style=""font-size:60px;"">+</div>",,html-keyboard-response,294,1345131,0.0-17.0-0.12,6297,List1B,white,woman,,,,null,,,,
null,"<img src=""stim_listB/kiss5.gif""style=""height:400px;""></stim_listB>",,html-keyboard-response,295,1347143,0.0-17.0-1.12,6297,List1B,white,woman,,,,null,,,,
null,is kissing,,html-keyboard-response,296,1349150,0.0-17.0-2.12,6297,List1B,white,woman,,,,null,,,,
8544,,,survey-text,297,1357695,0.0-17.0-3.12,6297,List1B,white,woman,,,,,"{""Q0"":""luke is kissing fred""}","<img src=""stim_listB/kiss5.gif""style=""height:400px;""></stim_listB>",is kissing,
null,"<div style=""font-size:60px;"">+</div>",,html-keyboard-response,298,1358230,0.0-17.0-0.13,6297,List1B,white,woman,,,,null,,,,
null,"<img src=""stim_listB/dance3.gif""style=""height:400px;""></stim_listB>",,html-keyboard-response,299,1360268,0.0-17.0-1.13,6297,List1B,white,woman,,,,null,,,,
null,is dancing with,,html-keyboard-response,300,1362298,0.0-17.0-2.13,6297,List1B,white,woman,,,,null,,,,
5270,,,survey-text,301,1367568,0.0-17.0-3.13,6297,List1B,white,woman,,,,,"{""Q0"":""jane is dancing with luke""}","<img src=""stim_listB/dance3.gif""style=""height:400px;""></stim_listB>",is dancing with,
null,"<div style=""font-size:60px;"">+</div>",,html-keyboard-response,302,1368070,0.0-17.0-0.14,6297,List1B,white,woman,,,,null,,,,
null,"<img src=""stim_listB/fight2.gif""style=""height:400px;""></stim_listB>",,html-keyboard-response,303,1370072,0.0-17.0-1.14,6297,List1B,white,woman,,,,null,,,,
null,are fighting each other,,html-keyboard-response,304,1372073,0.0-17.0-2.14,6297,List1B,white,woman,,,,null,,,,
12107,,,survey-text,305,1384180,0.0-17.0-3.14,6297,List1B,white,woman,,,,,"{""Q0"":""fred and beth are fighting each other""}","<img src=""stim_listB/fight2.gif""style=""height:400px;""></stim_listB>",are fighting each other,
null,"<div style=""font-size:60px;"">+</div>",,html-keyboard-response,306,1384682,0.0-17.0-0.15,6297,List1B,white,woman,,,,null,,,,
null,"<img src=""stim_listB/shout6.gif""style=""height:400px;""></stim_listB>",,html-keyboard-response,307,1386684,0.0-17.0-1.15,6297,List1B,white,woman,,,,null,,,,
null,are shouting at each other,,html-keyboard-response,308,1388685,0.0-17.0-2.15,6297,List1B,white,woman,,,,null,,,,
6750,,,survey-text,309,1395436,0.0-17.0-3.15,6297,List1B,white,woman,,,,,"{""Q0"":""mike and dave are shouting at each other""}","<img src=""stim_listB/shout6.gif""style=""height:400px;""></stim_listB>",are shouting at each other,
null,"<div style=""font-size:60px;"">+</div>",,html-keyboard-response,310,1395938,0.0-17.0-0.16,6297,List1B,white,woman,,,,null,,,,
null,"<img src=""stim_listB/play2.gif""style=""height:400px;""></stim_listB>",,html-keyboard-response,311,1397940,0.0-17.0-1.16,6297,List1B,white,woman,,,,null,,,,
null,are playing with each other,,html-keyboard-response,312,1399941,0.0-17.0-2.16,6297,List1B,white,woman,,,,null,,,,
13433,,,survey-text,313,1413374,0.0-17.0-3.16,6297,List1B,white,woman,,,,,"{""Q0"":""fred and beth are playing with each other""}","<img src=""stim_listB/play2.gif""style=""height:400px;""></stim_listB>",are playing with each other,
null,"<div style=""font-size:60px;"">+</div>",,html-keyboard-response,314,1413877,0.0-17.0-0.17,6297,List1B,white,woman,,,,null,,,,
null,"<img src=""stim_listB/argue1.gif""style=""height:400px;""></stim_listB>",,html-keyboard-response,315,1415879,0.0-17.0-1.17,6297,List1B,white,woman,,,,null,,,,
null,is arguing with,,html-keyboard-response,316,1417880,0.0-17.0-2.17,6297,List1B,white,woman,,,,null,,,,
6488,,,survey-text,317,1424368,0.0-17.0-3.17,6297,List1B,white,woman,,,,,"{""Q0"":""Mike is arguing with beth""}","<img src=""stim_listB/argue1.gif""style=""height:400px;""></stim_listB>",is arguing with,
null,"<div style=""font-size:60px;"">+</div>",,html-keyboard-response,318,1424886,0.0-17.0-0.18,6297,List1B,white,woman,,,,null,,,,
null,"<img src=""stim_listB/touch8.gif""style=""height:400px;""></stim_listB>",,html-keyboard-response,319,1426889,0.0-17.0-1.18,6297,List1B,white,woman,,,,null,,,,
null,are touching each other,,html-keyboard-response,320,1428891,0.0-17.0-2.18,6297,List1B,white,woman,,,,null,,,,
10885,,,survey-text,321,1439776,0.0-17.0-3.18,6297,List1B,white,woman,,,,,"{""Q0"":""beth and ruth are touching each other""}","<img src=""stim_listB/touch8.gif""style=""height:400px;""></stim_listB>",are touching each other,
null,"<div style=""font-size:60px;"">+</div>",,html-keyboard-response,322,1440278,0.0-17.0-0.19,6297,List1B,white,woman,,,,null,,,,
null,"<img src=""stim_listB/talk4.gif""style=""height:400px;""></stim_listB>",,html-keyboard-response,323,1442279,0.0-17.0-1.19,6297,List1B,white,woman,,,,null,,,,
null,are talking to each other,,html-keyboard-response,324,1444280,0.0-17.0-2.19,6297,List1B,white,woman,,,,null,,,,
10251,,,survey-text,325,1454532,0.0-17.0-3.19,6297,List1B,white,woman,,,,,"{""Q0"":""ruth and dave are talking to each other""}","<img src=""stim_listB/talk4.gif""style=""height:400px;""></stim_listB>",are talking to each other,
1439,"<img src='img/portrait_matrix_list1.jpg' style='width:900px;height:500px;''></img><p>If you have memorised all the portraits and names and are ready to start, press Continue.</p><p><strong>Please note: Your memory of these faces will be tested 4 times during this experiment.</strong></p>",0,html-button-response,326,1455972,0.0-18.0-0.0,6297,List1B,white,woman,,,,,,,,
2613,"<img src=""portrait/BM2.jpg""style=""height:400px;""></img>",5,html-button-response,327,1459588,0.0-18.0-1.0,6297,List1B,white,woman,,TRUE,5,,,,,
null,CORRECT,,html-keyboard-response,328,1461092,0.0-18.0-2.0-0.0,6297,List1B,white,woman,,,,null,,,,
3353,"<img src=""portrait/WW2.jpg""style=""height:400px;""></img>",3,html-button-response,329,1464446,0.0-18.0-4.0,6297,List1B,white,woman,,TRUE,3,,,,,
null,CORRECT,,html-keyboard-response,330,1465949,0.0-18.0-5.0-0.0,6297,List1B,white,woman,,,,null,,,,
1964,"<img src=""portrait/BM1.jpg""style=""height:400px;""></img>",4,html-button-response,331,1467914,0.0-18.0-7.0,6297,List1B,white,woman,,TRUE,4,,,,,
null,CORRECT,,html-keyboard-response,332,1469416,0.0-18.0-8.0-0.0,6297,List1B,white,woman,,,,null,,,,
4521,"<img src=""portrait/WW1.jpg""style=""height:400px;""></img>",1,html-button-response,333,1473938,0.0-18.0-10.0,6297,List1B,white,woman,,TRUE,1,,,,,
null,CORRECT,,html-keyboard-response,334,1475441,0.0-18.0-11.0-0.0,6297,List1B,white,woman,,,,null,,,,
3528,"<img src=""portrait/BW2.jpg""style=""height:400px;""></img>",2,html-button-response,335,1478970,0.0-18.0-13.0,6297,List1B,white,woman,,TRUE,2,,,,,
null,CORRECT,,html-keyboard-response,336,1480475,0.0-18.0-14.0-0.0,6297,List1B,white,woman,,,,null,,,,
1884,"<img src=""portrait/WM2.jpg""style=""height:400px;""></img>",7,html-button-response,337,1482360,0.0-18.0-16.0,6297,List1B,white,woman,,TRUE,7,,,,,
null,CORRECT,,html-keyboard-response,338,1483890,0.0-18.0-17.0-0.0,6297,List1B,white,woman,,,,null,,,,
4585,"<img src=""portrait/BW1.jpg""style=""height:400px;""></img>",0,html-button-response,339,1488476,0.0-18.0-19.0,6297,List1B,white,woman,,TRUE,0,,,,,
null,CORRECT,,html-keyboard-response,340,1489979,0.0-18.0-20.0-0.0,6297,List1B,white,woman,,,,null,,,,
1994,"<img src=""portrait/WM1.jpg""style=""height:400px;""></img>",6,html-button-response,341,1491975,0.0-18.0-22.0,6297,List1B,white,woman,,TRUE,6,,,,,
null,CORRECT,,html-keyboard-response,342,1493477,0.0-18.0-23.0-0.0,6297,List1B,white,woman,,,,null,,,,
1592,<p>You got 8 out of 8 right first time. Press Continue.</p>,0,html-button-response,343,1495070,0.0-18.0-25.0,6297,List1B,white,woman,,,,,,,,
null,"<div style=""font-size:60px;"">+</div>",,html-keyboard-response,344,1496574,0.0-19.0-0.0,6297,List1B,white,woman,,,,null,,,,
null,"<img src=""stim_listB/play1.gif""style=""height:400px;""></stim_listB>",,html-keyboard-response,345,1498576,0.0-19.0-1.0,6297,List1B,white,woman,,,,null,,,,
null,is playing with,,html-keyboard-response,346,1500578,0.0-19.0-2.0,6297,List1B,white,woman,,,,null,,,,
9408,,,survey-text,347,1509986,0.0-19.0-3.0,6297,List1B,white,woman,,,,,"{""Q0"":""mike is playing with kate""}","<img src=""stim_listB/play1.gif""style=""height:400px;""></stim_listB>",is playing with,
null,"<div style=""font-size:60px;"">+</div>",,html-keyboard-response,348,1510488,0.0-19.0-0.1,6297,List1B,white,woman,,,,null,,,,
null,"<img src=""stim_listB/talk6.gif""style=""height:400px;""></stim_listB>",,html-keyboard-response,349,1512489,0.0-19.0-1.1,6297,List1B,white,woman,,,,null,,,,
null,are talking to each other,,html-keyboard-response,350,1514491,0.0-19.0-2.1,6297,List1B,white,woman,,,,null,,,,
8400,,,survey-text,351,1522893,0.0-19.0-3.1,6297,List1B,white,woman,,,,,"{""Q0"":""mike and luke are talking to each other""}","<img src=""stim_listB/talk6.gif""style=""height:400px;""></stim_listB>",are talking to each other,
null,"<div style=""font-size:60px;"">+</div>",,html-keyboard-response,352,1523426,0.0-19.0-0.2,6297,List1B,white,woman,,,,null,,,,
null,"<img src=""stim_listB/marry5.gif""style=""height:400px;""></stim_listB>",,html-keyboard-response,353,1525428,0.0-19.0-1.2,6297,List1B,white,woman,,,,null,,,,
null,is marrying,,html-keyboard-response,354,1527429,0.0-19.0-2.2,6297,List1B,white,woman,,,,null,,,,
6101,,,survey-text,355,1533531,0.0-19.0-3.2,6297,List1B,white,woman,,,,,"{""Q0"":""mike is marrying luke""}","<img src=""stim_listB/marry5.gif""style=""height:400px;""></stim_listB>",is marrying,
null,"<div style=""font-size:60px;"">+</div>",,html-keyboard-response,356,1534064,0.0-19.0-0.3,6297,List1B,white,woman,,,,null,,,,
null,"<img src=""stim_listB/talk1.gif""style=""height:400px;""></stim_listB>",,html-keyboard-response,357,1536066,0.0-19.0-1.3,6297,List1B,white,woman,,,,null,,,,
null,is talking to,,html-keyboard-response,358,1538068,0.0-19.0-2.3,6297,List1B,white,woman,,,,null,,,,
6533,,,survey-text,359,1544603,0.0-19.0-3.3,6297,List1B,white,woman,,,,,"{""Q0"":""fred is talking to kate""}","<img src=""stim_listB/talk1.gif""style=""height:400px;""></stim_listB>",is talking to,
null,"<div style=""font-size:60px;"">+</div>",,html-keyboard-response,360,1545104,0.0-19.0-0.4,6297,List1B,white,woman,,,,null,,,,
null,"<img src=""stim_listB/marry1.gif""style=""height:400px;""></stim_listB>",,html-keyboard-response,361,1547106,0.0-19.0-1.4,6297,List1B,white,woman,,,,null,,,,
null,is marrying,,html-keyboard-response,362,1549107,0.0-19.0-2.4,6297,List1B,white,woman,,,,null,,,,
6904,,,survey-text,363,1556013,0.0-19.0-3.4,6297,List1B,white,woman,,,,,"{""Q0"":""mike is marrying beth""}","<img src=""stim_listB/marry1.gif""style=""height:400px;""></stim_listB>",is marrying,
null,"<div style=""font-size:60px;"">+</div>",,html-keyboard-response,364,1556514,0.0-19.0-0.5,6297,List1B,white,woman,,,,null,,,,
null,"<img src=""stim_listB/argue4.gif""style=""height:400px;""></stim_listB>",,html-keyboard-response,365,1558515,0.0-19.0-1.5,6297,List1B,white,woman,,,,null,,,,
null,are arguing with each other,,html-keyboard-response,366,1560516,0.0-19.0-2.5,6297,List1B,white,woman,,,,null,,,,
10482,,,survey-text,367,1570999,0.0-19.0-3.5,6297,List1B,white,woman,,,,,"{""Q0"":""luke and jane are arguing with each other""}","<img src=""stim_listB/argue4.gif""style=""height:400px;""></stim_listB>",are arguing with each other,
null,"<div style=""font-size:60px;"">+</div>",,html-keyboard-response,368,1571501,0.0-19.0-0.6,6297,List1B,white,woman,,,,null,,,,
null,"<img src=""stim_listB/kiss6.gif""style=""height:400px;""></stim_listB>",,html-keyboard-response,369,1573503,0.0-19.0-1.6,6297,List1B,white,woman,,,,null,,,,
null,are kissing each other,,html-keyboard-response,370,1575504,0.0-19.0-2.6,6297,List1B,white,woman,,,,null,,,,
8115,,,survey-text,371,1583619,0.0-19.0-3.6,6297,List1B,white,woman,,,,,"{""Q0"":""Mike and dave are kissing each other""}","<img src=""stim_listB/kiss6.gif""style=""height:400px;""></stim_listB>",are kissing each other,
null,"<div style=""font-size:60px;"">+</div>",,html-keyboard-response,372,1584121,0.0-19.0-0.7,6297,List1B,white,woman,,,,null,,,,
null,"<img src=""stim_listB/marry2.gif""style=""height:400px;""></stim_listB>",,html-keyboard-response,373,1586122,0.0-19.0-1.7,6297,List1B,white,woman,,,,null,,,,
null,are marrying each other,,html-keyboard-response,374,1588123,0.0-19.0-2.7,6297,List1B,white,woman,,,,null,,,,
10315,,,survey-text,375,1598439,0.0-19.0-3.7,6297,List1B,white,woman,,,,,"{""Q0"":""fred and kate are marrying each other""}","<img src=""stim_listB/marry2.gif""style=""height:400px;""></stim_listB>",are marrying each other,
null,"<div style=""font-size:60px;"">+</div>",,html-keyboard-response,376,1598941,0.0-19.0-0.8,6297,List1B,white,woman,,,,null,,,,
null,"<img src=""stim_listB/flirt3.gif""style=""height:400px;""></stim_listB>",,html-keyboard-response,377,1600943,0.0-19.0-1.8,6297,List1B,white,woman,,,,null,,,,
null,is flirting with,,html-keyboard-response,378,1602944,0.0-19.0-2.8,6297,List1B,white,woman,,,,null,,,,
9138,,,survey-text,379,1612083,0.0-19.0-3.8,6297,List1B,white,woman,,,,,"{""Q0"":""luke is flirting with jane""}","<img src=""stim_listB/flirt3.gif""style=""height:400px;""></stim_listB>",is flirting with,
null,"<div style=""font-size:60px;"">+</div>",,html-keyboard-response,380,1612585,0.0-19.0-0.9,6297,List1B,white,woman,,,,null,,,,
null,"<img src=""stim_listB/kiss2.gif""style=""height:400px;""></stim_listB>",,html-keyboard-response,381,1614588,0.0-19.0-1.9,6297,List1B,white,woman,,,,null,,,,
null,are kissing each other,,html-keyboard-response,382,1616588,0.0-19.0-2.9,6297,List1B,white,woman,,,,null,,,,
7912,,,survey-text,383,1624501,0.0-19.0-3.9,6297,List1B,white,woman,,,,,"{""Q0"":""mike and kate are kissing each other""}","<img src=""stim_listB/kiss2.gif""style=""height:400px;""></stim_listB>",are kissing each other,
null,"<div style=""font-size:60px;"">+</div>",,html-keyboard-response,384,1625003,0.0-19.0-0.10,6297,List1B,white,woman,,,,null,,,,
null,"<img src=""stim_listB/touch6.gif""style=""height:400px;""></stim_listB>",,html-keyboard-response,385,1627005,0.0-19.0-1.10,6297,List1B,white,woman,,,,null,,,,
null,are touching each other,,html-keyboard-response,386,1629006,0.0-19.0-2.10,6297,List1B,white,woman,,,,null,,,,
6842,,,survey-text,387,1635849,0.0-19.0-3.10,6297,List1B,white,woman,,,,,"{""Q0"":""fred and luke are touching each other""}","<img src=""stim_listB/touch6.gif""style=""height:400px;""></stim_listB>",are touching each other,
null,"<div style=""font-size:60px;"">+</div>",,html-keyboard-response,388,1636351,0.0-19.0-0.11,6297,List1B,white,woman,,,,null,,,,
null,"<img src=""stim_listB/touch3.gif""style=""height:400px;""></stim_listB>",,html-keyboard-response,389,1638352,0.0-19.0-1.11,6297,List1B,white,woman,,,,null,,,,
null,is touching,,html-keyboard-response,390,1640353,0.0-19.0-2.11,6297,List1B,white,woman,,,,null,,,,
6682,,,survey-text,391,1647036,0.0-19.0-3.11,6297,List1B,white,woman,,,,,"{""Q0"":""dave is touching jane""}","<img src=""stim_listB/touch3.gif""style=""height:400px;""></stim_listB>",is touching,
null,"<div style=""font-size:60px;"">+</div>",,html-keyboard-response,392,1647538,0.0-19.0-0.12,6297,List1B,white,woman,,,,null,,,,
null,"<img src=""stim_listB/dance4.gif""style=""height:400px;""></stim_listB>",,html-keyboard-response,393,1649540,0.0-19.0-1.12,6297,List1B,white,woman,,,,null,,,,
null,are dancing with each other,,html-keyboard-response,394,1651548,0.0-19.0-2.12,6297,List1B,white,woman,,,,null,,,,
8337,,,survey-text,395,1659887,0.0-19.0-3.12,6297,List1B,white,woman,,,,,"{""Q0"":""dave and ruth are dancing with each other""}","<img src=""stim_listB/dance4.gif""style=""height:400px;""></stim_listB>",are dancing with each other,
null,"<div style=""font-size:60px;"">+</div>",,html-keyboard-response,396,1660388,0.0-19.0-0.13,6297,List1B,white,woman,,,,null,,,,
null,"<img src=""stim_listB/argue5.gif""style=""height:400px;""></stim_listB>",,html-keyboard-response,397,1662391,0.0-19.0-1.13,6297,List1B,white,woman,,,,null,,,,
null,is arguing with,,html-keyboard-response,398,1664392,0.0-19.0-2.13,6297,List1B,white,woman,,,,null,,,,
5492,,,survey-text,399,1669884,0.0-19.0-3.13,6297,List1B,white,woman,,,,,"{""Q0"":""mike is arguing with luke""}","<img src=""stim_listB/argue5.gif""style=""height:400px;""></stim_listB>",is arguing with,
null,"<div style=""font-size:60px;"">+</div>",,html-keyboard-response,400,1670386,0.0-19.0-0.14,6297,List1B,white,woman,,,,null,,,,
null,"<img src=""stim_listB/argue8.gif""style=""height:400px;""></stim_listB>",,html-keyboard-response,401,1672413,0.0-19.0-1.14,6297,List1B,white,woman,,,,null,,,,
null,are arguing with each other,,html-keyboard-response,402,1674414,0.0-19.0-2.14,6297,List1B,white,woman,,,,null,,,,
14362,,,survey-text,403,1688776,0.0-19.0-3.14,6297,List1B,white,woman,,,,,"{""Q0"":""jane and beth are arguing with each other""}","<img src=""stim_listB/argue8.gif""style=""height:400px;""></stim_listB>",are arguing with each other,
null,"<div style=""font-size:60px;"">+</div>",,html-keyboard-response,404,1689286,0.0-19.0-0.15,6297,List1B,white,woman,,,,null,,,,
null,"<img src=""stim_listB/touch5.gif""style=""height:400px;""></stim_listB>",,html-keyboard-response,405,1691288,0.0-19.0-1.15,6297,List1B,white,woman,,,,null,,,,
null,is touching,,html-keyboard-response,406,1693289,0.0-19.0-2.15,6297,List1B,white,woman,,,,null,,,,
5155,,,survey-text,407,1698444,0.0-19.0-3.15,6297,List1B,white,woman,,,,,"{""Q0"":""mike is touching dave""}","<img src=""stim_listB/touch5.gif""style=""height:400px;""></stim_listB>",is touching,
null,"<div style=""font-size:60px;"">+</div>",,html-keyboard-response,408,1698946,0.0-19.0-0.16,6297,List1B,white,woman,,,,null,,,,
null,"<img src=""stim_listB/shout2.gif""style=""height:400px;""></stim_listB>",,html-keyboard-response,409,1700948,0.0-19.0-1.16,6297,List1B,white,woman,,,,null,,,,
null,are shouting at each other,,html-keyboard-response,410,1702950,0.0-19.0-2.16,6297,List1B,white,woman,,,,null,,,,
11472,,,survey-text,411,1714423,0.0-19.0-3.16,6297,List1B,white,woman,,,,,"{""Q0"":""mike and kate are shouting at each other""}","<img src=""stim_listB/shout2.gif""style=""height:400px;""></stim_listB>",are shouting at each other,
null,"<div style=""font-size:60px;"">+</div>",,html-keyboard-response,412,1714923,0.0-19.0-0.17,6297,List1B,white,woman,,,,null,,,,
null,"<img src=""stim_listB/play6.gif""style=""height:400px;""></stim_listB>",,html-keyboard-response,413,1716927,0.0-19.0-1.17,6297,List1B,white,woman,,,,null,,,,
null,are playing with each other,,html-keyboard-response,414,1718929,0.0-19.0-2.17,6297,List1B,white,woman,,,,null,,,,
8442,,,survey-text,415,1727373,0.0-19.0-3.17,6297,List1B,white,woman,,,,,"{""Q0"":""fred and luke are playing with each other""}","<img src=""stim_listB/play6.gif""style=""height:400px;""></stim_listB>",are playing with each other,
null,"<div style=""font-size:60px;"">+</div>",,html-keyboard-response,416,1727875,0.0-19.0-0.18,6297,List1B,white,woman,,,,null,,,,
null,"<img src=""stim_listB/argue3.gif""style=""height:400px;""></stim_listB>",,html-keyboard-response,417,1729877,0.0-19.0-1.18,6297,List1B,white,woman,,,,null,,,,
null,is arguing with,,html-keyboard-response,418,1731878,0.0-19.0-2.18,6297,List1B,white,woman,,,,null,,,,
7651,,,survey-text,419,1739529,0.0-19.0-3.18,6297,List1B,white,woman,,,,,"{""Q0"":""dave is arguing with ruth""}","<img src=""stim_listB/argue3.gif""style=""height:400px;""></stim_listB>",is arguing with,
null,"<div style=""font-size:60px;"">+</div>",,html-keyboard-response,420,1740031,0.0-19.0-0.19,6297,List1B,white,woman,,,,null,,,,
null,"<img src=""stim_listB/shout3.gif""style=""height:400px;""></stim_listB>",,html-keyboard-response,421,1742033,0.0-19.0-1.19,6297,List1B,white,woman,,,,null,,,,
null,is shouting at,,html-keyboard-response,422,1744036,0.0-19.0-2.19,6297,List1B,white,woman,,,,null,,,,
4744,,,survey-text,423,1748781,0.0-19.0-3.19,6297,List1B,white,woman,,,,,"{""Q0"":""ruth is shouting at luke""}","<img src=""stim_listB/shout3.gif""style=""height:400px;""></stim_listB>",is shouting at,
2012,<p>Thank you for completing that task.</p><p>The final part of this session is a short questionnaire.</p><p>Press Continue.</p>,0,html-button-response,424,1750793,0.0-20.0,6297,List1B,white,woman,,,,,,,,
30612,,,survey-text,425,1782409,0.0-21.0,6297,List1B,white,woman,,,,,"{""Q0"":""36"",""Q1"":""English"",""Q2"":""English"",""Q3"":""United States"",""Q4"":""Caucasian"",""Q5"":""Female""}",,,demographics
6675,,,survey-likert,426,1789086,0.0-22.0,6297,List1B,white,woman,,,,,"{""Q0"":4}",,,likert_ESS
5525,,,survey-likert,427,1794625,0.0-23.0,6297,List1B,white,woman,,,,,"{""Q0"":4}",,,likert_NSSAL_Q1
3038,,,survey-likert,428,1797677,0.0-24.0,6297,List1B,white,woman,,,,,"{""Q0"":4}",,,likert_NSSAL_Q2
2904,,,survey-likert,429,1800595,0.0-25.0,6297,List1B,white,woman,,,,,"{""Q0"":4}",,,likert_CGRS_Q1
2543,,,survey-likert,430,1803153,0.0-26.0,6297,List1B,white,woman,,,,,"{""Q0"":4}",,,likert_CGRS_Q2
2752,,,survey-likert,431,1805919,0.0-27.0,6297,List1B,white,woman,,,,,"{""Q0"":4}",,,likert_CGRS_Q3
3606,,,survey-text,432,1809538,0.0-28.0,6297,List1B,white,woman,,,,,"{""Q0"":""ccc""}",,,worker_id
3602,,,external-html,433,1813775,0.0-29.0,6297,List1B,white,woman,debrief.html,,,,,,,
