"rt","stimulus","button_pressed","trial_type","trial_index","time_elapsed","internal_node_id","subject","list","ppt_race","ppt_gender","url","first_guess","correct","key_press","responses","image_type","phrase_type","test_part"
"13341","Welcome to the experiment. Press Continue to begin.","0","html-button-response","0","13355","0.0-0.0","63197","List1A","black","woman","","","","","","","",""
"7645","","","external-html","1","22163","0.0-1.0","63197","List1A","black","woman","consent.html","","","","","","",""
"141489","<p>On the next page, you will see portraits of 8 people and their names.</p><p>Your first task is to take a few minutes to memorise the names of these people.</p><p>You will have to recall their names during the rest of the experiment, so it is</p><p>essential that you try to memorise these people and their names as best as you can.</p><br><p><strong>You will then be tested on your memory of these names and portraits.</strong></p><br><p>The experiment will start after you have completed this memory test.</p><br><p>Ready?</p>","0","html-button-response","2","163654","0.0-2.0","63197","List1A","black","woman","","","","","","","",""
"57759","<img src='img/portrait_matrix_list1.jpg' style='width:900px;height:500px;''></img><p>If you have memorised all the portraits and names and are ready to start, press Continue.</p><p><strong>Please note: Your memory of these faces will be tested 4 times during this experiment.</strong></p>","0","html-button-response","3","222421","0.0-3.0-0.0","63197","List1A","black","woman","","","","","","","",""
"13878","<img src=""portrait/BM1.jpg""style=""height:400px;""></img>","5","html-button-response","4","237301","0.0-3.0-1.0","63197","List1A","black","woman","","true","4","","","","",""
"5748","<img src=""portrait/BM1.jpg""style=""height:400px;""></img>","4","html-button-response","5","244053","0.0-3.0-3.0-0.0","63197","List1A","black","woman","","false","4","","","","",""
"null","CORRECT","","html-keyboard-response","6","245561","0.0-3.0-3.0-1.0-0.0","63197","List1A","black","woman","","","","null","","","",""
"2171","<img src=""portrait/WM1.jpg""style=""height:400px;""></img>","6","html-button-response","7","247733","0.0-3.0-4.0","63197","List1A","black","woman","","true","6","","","","",""
"null","CORRECT","","html-keyboard-response","8","249239","0.0-3.0-5.0-0.0","63197","List1A","black","woman","","","","null","","","",""
"4365","<img src=""portrait/WM2.jpg""style=""height:400px;""></img>","7","html-button-response","9","253606","0.0-3.0-7.0","63197","List1A","black","woman","","true","7","","","","",""
"null","CORRECT","","html-keyboard-response","10","255110","0.0-3.0-8.0-0.0","63197","List1A","black","woman","","","","null","","","",""
"5838","<img src=""portrait/BW1.jpg""style=""height:400px;""></img>","0","html-button-response","11","260949","0.0-3.0-10.0","63197","List1A","black","woman","","true","0","","","","",""
"null","CORRECT","","html-keyboard-response","12","262453","0.0-3.0-11.0-0.0","63197","List1A","black","woman","","","","null","","","",""
"2279","<img src=""portrait/BW2.jpg""style=""height:400px;""></img>","1","html-button-response","13","264733","0.0-3.0-13.0","63197","List1A","black","woman","","true","2","","","","",""
"3069","<img src=""portrait/BW2.jpg""style=""height:400px;""></img>","2","html-button-response","14","268805","0.0-3.0-15.0-0.0","63197","List1A","black","woman","","false","2","","","","",""
"null","CORRECT","","html-keyboard-response","15","270308","0.0-3.0-15.0-1.0-0.0","63197","List1A","black","woman","","","","null","","","",""
"1887","<img src=""portrait/WW1.jpg""style=""height:400px;""></img>","1","html-button-response","16","272197","0.0-3.0-16.0","63197","List1A","black","woman","","true","1","","","","",""
"null","CORRECT","","html-keyboard-response","17","273700","0.0-3.0-17.0-0.0","63197","List1A","black","woman","","","","null","","","",""
"2449","<img src=""portrait/BM2.jpg""style=""height:400px;""></img>","5","html-button-response","18","276149","0.0-3.0-19.0","63197","List1A","black","woman","","true","5","","","","",""
"null","CORRECT","","html-keyboard-response","19","277654","0.0-3.0-20.0-0.0","63197","List1A","black","woman","","","","null","","","",""
"1903","<img src=""portrait/WW2.jpg""style=""height:400px;""></img>","3","html-button-response","20","279557","0.0-3.0-22.0","63197","List1A","black","woman","","true","3","","","","",""
"null","CORRECT","","html-keyboard-response","21","281062","0.0-3.0-23.0-0.0","63197","List1A","black","woman","","","","null","","","",""
"2678","<p>You got 6 out of 8 right first time. Press Continue.</p>","0","html-button-response","22","283742","0.0-3.0-25.0","63197","List1A","black","woman","","","","","","","",""
"3205","As you did not score 100%, the memory game will repeat. Press Continue.","0","html-button-response","23","287950","0.0-3.0-26.0-0.0","63197","List1A","black","woman","","","","","","","",""
"4876","<img src='img/portrait_matrix_list1.jpg' style='width:900px;height:500px;''></img><p>If you have memorised all the portraits and names and are ready to start, press Continue.</p><p><strong>Please note: Your memory of these faces will be tested 4 times during this experiment.</strong></p>","0","html-button-response","24","293830","0.0-3.1-0.1","63197","List1A","black","woman","","","","","","","",""
"2070","<img src=""portrait/BM1.jpg""style=""height:400px;""></img>","4","html-button-response","25","296902","0.0-3.1-1.1","63197","List1A","black","woman","","true","4","","","","",""
"null","CORRECT","","html-keyboard-response","26","298405","0.0-3.1-2.1-0.1","63197","List1A","black","woman","","","","null","","","",""
"1885","<img src=""portrait/WM1.jpg""style=""height:400px;""></img>","6","html-button-response","27","300294","0.0-3.1-4.1","63197","List1A","black","woman","","true","6","","","","",""
"null","CORRECT","","html-keyboard-response","28","301797","0.0-3.1-5.1-0.1","63197","List1A","black","woman","","","","null","","","",""
"2359","<img src=""portrait/WM2.jpg""style=""height:400px;""></img>","7","html-button-response","29","304158","0.0-3.1-7.1","63197","List1A","black","woman","","true","7","","","","",""
"null","CORRECT","","html-keyboard-response","30","305661","0.0-3.1-8.1-0.1","63197","List1A","black","woman","","","","null","","","",""
"2799","<img src=""portrait/BW1.jpg""style=""height:400px;""></img>","0","html-button-response","31","308462","0.0-3.1-10.1","63197","List1A","black","woman","","true","0","","","","",""
"null","CORRECT","","html-keyboard-response","32","309965","0.0-3.1-11.1-0.1","63197","List1A","black","woman","","","","null","","","",""
"3817","<img src=""portrait/BW2.jpg""style=""height:400px;""></img>","2","html-button-response","33","313782","0.0-3.1-13.1","63197","List1A","black","woman","","true","2","","","","",""
"null","CORRECT","","html-keyboard-response","34","315285","0.0-3.1-14.1-0.1","63197","List1A","black","woman","","","","null","","","",""
"1911","<img src=""portrait/WW1.jpg""style=""height:400px;""></img>","1","html-button-response","35","317198","0.0-3.1-16.1","63197","List1A","black","woman","","true","1","","","","",""
"null","CORRECT","","html-keyboard-response","36","318701","0.0-3.1-17.1-0.1","63197","List1A","black","woman","","","","null","","","",""
"2120","<img src=""portrait/BM2.jpg""style=""height:400px;""></img>","5","html-button-response","37","320822","0.0-3.1-19.1","63197","List1A","black","woman","","true","5","","","","",""
"null","CORRECT","","html-keyboard-response","38","322327","0.0-3.1-20.1-0.1","63197","List1A","black","woman","","","","null","","","",""
"2638","<img src=""portrait/WW2.jpg""style=""height:400px;""></img>","3","html-button-response","39","324966","0.0-3.1-22.1","63197","List1A","black","woman","","true","3","","","","",""
"null","CORRECT","","html-keyboard-response","40","326471","0.0-3.1-23.1-0.1","63197","List1A","black","woman","","","","null","","","",""
"1598","<p>You got 8 out of 8 right first time. Press Continue.</p>","0","html-button-response","41","328070","0.0-3.1-25.1","63197","List1A","black","woman","","","","","","","",""
"30900","<p>In this experiment, you will view photographs of the people from the memory game interacting.</p><p>By using the <strong>exact</strong> phrase given <i>after</i> the photograph appears and recalling the correct names of the people in the photographs, form a sentence describing the interaction. You do not need to capitalise names.</p><p>Type your answer in the space provided. Please complete every sentence before moving onto the next trial.</p><p>You will only have a few seconds to memorise each given photograph and phrase before you can respond, so try your best to focus.</p><p>An example is given below. Press 'Continue' when you are ready.</p><img src='img/speaking_example.jpg' style='width:800px;height:460px;''></img>","0","html-button-response","42","359974","0.0-4.0","63197","List1A","black","woman","","","","","","","",""
"3621","<p>Before the experiment starts, you will watch two example trials. Press 'Continue'.</p>","0","html-button-response","43","364598","0.0-5.0","63197","List1A","black","woman","","","","","","","",""
"null","<img src='img/meet_eg.gif' style='height:400px;''></img>","","html-keyboard-response","44","367602","0.0-6.0","63197","List1A","black","woman","","","","null","","","",""
"null","<p>is meeting</p>","","html-keyboard-response","45","369604","0.0-7.0","63197","List1A","black","woman","","","","null","","","",""
"3162","<p><b>Answer:</b> kate is meeting beth</p>","0","html-button-response","46","372766","0.0-8.0","63197","List1A","black","woman","","","","","","","",""
"null","<img src='img/look_eg.gif' style='height:400px;''></img>","","html-keyboard-response","47","375771","0.0-9.0","63197","List1A","black","woman","","","","null","","","",""
"null","<p>are looking at each other</p>","","html-keyboard-response","48","377773","0.0-10.0","63197","List1A","black","woman","","","","null","","","",""
"1568","<p><b>Answer:</b> luke and dave are looking at each other</p>","0","html-button-response","49","379342","0.0-11.0","63197","List1A","black","woman","","","","","","","",""
"2028","<p>Ready to start the experiment?</p><br><p><strong>Remember to describe the picture using a full sentence,</strong></p><p><strong>that combines the names of the people with the <i>exact</i> phrase given.</strong></p><p><strong>To receive full payment you must do this correctly.</strong></p><p><strong> You do not need to capitalise names or use punctuation.</strong></p><br><p>Press 'Continue' to begin.</p>","0","html-button-response","50","382374","0.0-12.0","63197","List1A","black","woman","","","","","","","",""
"null","<div style=""font-size:60px;"">+</div>","","html-keyboard-response","51","383878","0.0-13.0-0.0","63197","List1A","black","woman","","","","null","","","",""
"null","<img src=""stim_listA/flirt6.gif""style=""height:400px;""></stim_listA>","","html-keyboard-response","52","385881","0.0-13.0-1.0","63197","List1A","black","woman","","","","null","","","",""
"null","are flirting with each other","","html-keyboard-response","53","387883","0.0-13.0-2.0","63197","List1A","black","woman","","","","null","","","",""
"13258","","","survey-text","54","401142","0.0-13.0-3.0","63197","List1A","black","woman","","","","","{""Q0"":""Mike and Luke are flirting""}","<img src=""stim_listA/flirt6.gif""style=""height:400px;""></stim_listA>","are flirting with each other",""
"null","<div style=""font-size:60px;"">+</div>","","html-keyboard-response","55","401644","0.0-13.0-0.1","63197","List1A","black","woman","","","","null","","","",""
"null","<img src=""stim_listA/fight7.gif""style=""height:400px;""></stim_listA>","","html-keyboard-response","56","403645","0.0-13.0-1.1","63197","List1A","black","woman","","","","null","","","",""
"null","is fighting","","html-keyboard-response","57","405647","0.0-13.0-2.1","63197","List1A","black","woman","","","","null","","","",""
"11782","","","survey-text","58","417430","0.0-13.0-3.1","63197","List1A","black","woman","","","","","{""Q0"":""kate is fighting Jane""}","<img src=""stim_listA/fight7.gif""style=""height:400px;""></stim_listA>","is fighting",""
"null","<div style=""font-size:60px;"">+</div>","","html-keyboard-response","59","417934","0.0-13.0-0.2","63197","List1A","black","woman","","","","null","","","",""
"null","<img src=""stim_listA/fight1.gif""style=""height:400px;""></stim_listA>","","html-keyboard-response","60","419936","0.0-13.0-1.2","63197","List1A","black","woman","","","","null","","","",""
"null","is fighting","","html-keyboard-response","61","421938","0.0-13.0-2.2","63197","List1A","black","woman","","","","null","","","",""
"7819","","","survey-text","62","429758","0.0-13.0-3.2","63197","List1A","black","woman","","","","","{""Q0"":""Kate is fighting Mike""}","<img src=""stim_listA/fight1.gif""style=""height:400px;""></stim_listA>","is fighting",""
"null","<div style=""font-size:60px;"">+</div>","","html-keyboard-response","63","430259","0.0-13.0-0.3","63197","List1A","black","woman","","","","null","","","",""
"null","<img src=""stim_listA/talk2.gif""style=""height:400px;""></stim_listA>","","html-keyboard-response","64","432262","0.0-13.0-1.3","63197","List1A","black","woman","","","","null","","","",""
"null","are talking to each other","","html-keyboard-response","65","434265","0.0-13.0-2.3","63197","List1A","black","woman","","","","null","","","",""
"14012","","","survey-text","66","448278","0.0-13.0-3.3","63197","List1A","black","woman","","","","","{""Q0"":""Mike and Beth are talking to each other""}","<img src=""stim_listA/talk2.gif""style=""height:400px;""></stim_listA>","are talking to each other",""
"null","<div style=""font-size:60px;"">+</div>","","html-keyboard-response","67","448780","0.0-13.0-0.4","63197","List1A","black","woman","","","","null","","","",""
"null","<img src=""stim_listA/shout4.gif""style=""height:400px;""></stim_listA>","","html-keyboard-response","68","450782","0.0-13.0-1.4","63197","List1A","black","woman","","","","null","","","",""
"null","are shouting at each other","","html-keyboard-response","69","452783","0.0-13.0-2.4","63197","List1A","black","woman","","","","null","","","",""
"17126","","","survey-text","70","469910","0.0-13.0-3.4","63197","List1A","black","woman","","","","","{""Q0"":""Dave and Jane are shouting at each other""}","<img src=""stim_listA/shout4.gif""style=""height:400px;""></stim_listA>","are shouting at each other",""
"null","<div style=""font-size:60px;"">+</div>","","html-keyboard-response","71","470413","0.0-13.0-0.5","63197","List1A","black","woman","","","","null","","","",""
"null","<img src=""stim_listA/touch5.gif""style=""height:400px;""></stim_listA>","","html-keyboard-response","72","472414","0.0-13.0-1.5","63197","List1A","black","woman","","","","null","","","",""
"null","is touching","","html-keyboard-response","73","474415","0.0-13.0-2.5","63197","List1A","black","woman","","","","null","","","",""
"6151","","","survey-text","74","480567","0.0-13.0-3.5","63197","List1A","black","woman","","","","","{""Q0"":""Dace is touching Mike""}","<img src=""stim_listA/touch5.gif""style=""height:400px;""></stim_listA>","is touching",""
"null","<div style=""font-size:60px;"">+</div>","","html-keyboard-response","75","481068","0.0-13.0-0.6","63197","List1A","black","woman","","","","null","","","",""
"null","<img src=""stim_listA/talk3.gif""style=""height:400px;""></stim_listA>","","html-keyboard-response","76","483070","0.0-13.0-1.6","63197","List1A","black","woman","","","","null","","","",""
"null","is talking to","","html-keyboard-response","77","485074","0.0-13.0-2.6","63197","List1A","black","woman","","","","null","","","",""
"5828","","","survey-text","78","490903","0.0-13.0-3.6","63197","List1A","black","woman","","","","","{""Q0"":""Jane is talking to Luke""}","<img src=""stim_listA/talk3.gif""style=""height:400px;""></stim_listA>","is talking to",""
"null","<div style=""font-size:60px;"">+</div>","","html-keyboard-response","79","491404","0.0-13.0-0.7","63197","List1A","black","woman","","","","null","","","",""
"null","<img src=""stim_listA/kiss7.gif""style=""height:400px;""></stim_listA>","","html-keyboard-response","80","493406","0.0-13.0-1.7","63197","List1A","black","woman","","","","null","","","",""
"null","is kissing","","html-keyboard-response","81","495408","0.0-13.0-2.7","63197","List1A","black","woman","","","","null","","","",""
"8669","","","survey-text","82","504078","0.0-13.0-3.7","63197","List1A","black","woman","","","","","{""Q0"":""Ruth is kissing Beth""}","<img src=""stim_listA/kiss7.gif""style=""height:400px;""></stim_listA>","is kissing",""
"null","<div style=""font-size:60px;"">+</div>","","html-keyboard-response","83","504580","0.0-13.0-0.8","63197","List1A","black","woman","","","","null","","","",""
"null","<img src=""stim_listA/fight6.gif""style=""height:400px;""></stim_listA>","","html-keyboard-response","84","506583","0.0-13.0-1.8","63197","List1A","black","woman","","","","null","","","",""
"null","are fighting each other","","html-keyboard-response","85","508585","0.0-13.0-2.8","63197","List1A","black","woman","","","","null","","","",""
"10850","","","survey-text","86","519439","0.0-13.0-3.8","63197","List1A","black","woman","","","","","{""Q0"":""Luke and Fred are fighting each other""}","<img src=""stim_listA/fight6.gif""style=""height:400px;""></stim_listA>","are fighting each other",""
"null","<div style=""font-size:60px;"">+</div>","","html-keyboard-response","87","519940","0.0-13.0-0.9","63197","List1A","black","woman","","","","null","","","",""
"null","<img src=""stim_listA/play7.gif""style=""height:400px;""></stim_listA>","","html-keyboard-response","88","521942","0.0-13.0-1.9","63197","List1A","black","woman","","","","null","","","",""
"null","is playing with","","html-keyboard-response","89","523944","0.0-13.0-2.9","63197","List1A","black","woman","","","","null","","","",""
"7910","","","survey-text","90","531855","0.0-13.0-3.9","63197","List1A","black","woman","","","","","{""Q0"":""Kate and Jane are talking""}","<img src=""stim_listA/play7.gif""style=""height:400px;""></stim_listA>","is playing with",""
"null","<div style=""font-size:60px;"">+</div>","","html-keyboard-response","91","532359","0.0-13.0-0.10","63197","List1A","black","woman","","","","null","","","",""
"null","<img src=""stim_listA/kiss3.gif""style=""height:400px;""></stim_listA>","","html-keyboard-response","92","534361","0.0-13.0-1.10","63197","List1A","black","woman","","","","null","","","",""
"null","is kissing","","html-keyboard-response","93","536364","0.0-13.0-2.10","63197","List1A","black","woman","","","","null","","","",""
"6275","","","survey-text","94","542639","0.0-13.0-3.10","63197","List1A","black","woman","","","","","{""Q0"":""Ruth is kissing Luke""}","<img src=""stim_listA/kiss3.gif""style=""height:400px;""></stim_listA>","is kissing",""
"null","<div style=""font-size:60px;"">+</div>","","html-keyboard-response","95","543141","0.0-13.0-0.11","63197","List1A","black","woman","","","","null","","","",""
"null","<img src=""stim_listA/shout8.gif""style=""height:400px;""></stim_listA>","","html-keyboard-response","96","545143","0.0-13.0-1.11","63197","List1A","black","woman","","","","null","","","",""
"null","are shouting at each other","","html-keyboard-response","97","547144","0.0-13.0-2.11","63197","List1A","black","woman","","","","null","","","",""
"7574","","","survey-text","98","554719","0.0-13.0-3.11","63197","List1A","black","woman","","","","","{""Q0"":""Jane and Kate are shouting at each other""}","<img src=""stim_listA/shout8.gif""style=""height:400px;""></stim_listA>","are shouting at each other",""
"null","<div style=""font-size:60px;"">+</div>","","html-keyboard-response","99","555221","0.0-13.0-0.12","63197","List1A","black","woman","","","","null","","","",""
"null","<img src=""stim_listA/argue1.gif""style=""height:400px;""></stim_listA>","","html-keyboard-response","100","557224","0.0-13.0-1.12","63197","List1A","black","woman","","","","null","","","",""
"null","is arguing with","","html-keyboard-response","101","559225","0.0-13.0-2.12","63197","List1A","black","woman","","","","null","","","",""
"6349","","","survey-text","102","565575","0.0-13.0-3.12","63197","List1A","black","woman","","","","","{""Q0"":""Mike is arguing with Beth""}","<img src=""stim_listA/argue1.gif""style=""height:400px;""></stim_listA>","is arguing with",""
"null","<div style=""font-size:60px;"">+</div>","","html-keyboard-response","103","566077","0.0-13.0-0.13","63197","List1A","black","woman","","","","null","","","",""
"null","<img src=""stim_listA/touch6.gif""style=""height:400px;""></stim_listA>","","html-keyboard-response","104","568080","0.0-13.0-1.13","63197","List1A","black","woman","","","","null","","","",""
"null","are touching each other","","html-keyboard-response","105","570082","0.0-13.0-2.13","63197","List1A","black","woman","","","","null","","","",""
"10572","","","survey-text","106","580655","0.0-13.0-3.13","63197","List1A","black","woman","","","","","{""Q0"":""Fred and Luke are touching""}","<img src=""stim_listA/touch6.gif""style=""height:400px;""></stim_listA>","are touching each other",""
"null","<div style=""font-size:60px;"">+</div>","","html-keyboard-response","107","581159","0.0-13.0-0.14","63197","List1A","black","woman","","","","null","","","",""
"null","<img src=""stim_listA/dance2.gif""style=""height:400px;""></stim_listA>","","html-keyboard-response","108","583161","0.0-13.0-1.14","63197","List1A","black","woman","","","","null","","","",""
"null","are dancing with each other","","html-keyboard-response","109","585162","0.0-13.0-2.14","63197","List1A","black","woman","","","","null","","","",""
"11636","","","survey-text","110","596799","0.0-13.0-3.14","63197","List1A","black","woman","","","","","{""Q0"":""Mike and Beth are dancing together""}","<img src=""stim_listA/dance2.gif""style=""height:400px;""></stim_listA>","are dancing with each other",""
"null","<div style=""font-size:60px;"">+</div>","","html-keyboard-response","111","597301","0.0-13.0-0.15","63197","List1A","black","woman","","","","null","","","",""
"null","<img src=""stim_listA/flirt5.gif""style=""height:400px;""></stim_listA>","","html-keyboard-response","112","599303","0.0-13.0-1.15","63197","List1A","black","woman","","","","null","","","",""
"null","is flirting with","","html-keyboard-response","113","601304","0.0-13.0-2.15","63197","List1A","black","woman","","","","null","","","",""
"6671","","","survey-text","114","607976","0.0-13.0-3.15","63197","List1A","black","woman","","","","","{""Q0"":""Dave is flirting with Fred""}","<img src=""stim_listA/flirt5.gif""style=""height:400px;""></stim_listA>","is flirting with",""
"null","<div style=""font-size:60px;"">+</div>","","html-keyboard-response","115","608477","0.0-13.0-0.16","63197","List1A","black","woman","","","","null","","","",""
"null","<img src=""stim_listA/touch2.gif""style=""height:400px;""></stim_listA>","","html-keyboard-response","116","610479","0.0-13.0-1.16","63197","List1A","black","woman","","","","null","","","",""
"null","are touching each other","","html-keyboard-response","117","612480","0.0-13.0-2.16","63197","List1A","black","woman","","","","null","","","",""
"7550","","","survey-text","118","620032","0.0-13.0-3.16","63197","List1A","black","woman","","","","","{""Q0"":""Fred and Beth are touching ""}","<img src=""stim_listA/touch2.gif""style=""height:400px;""></stim_listA>","are touching each other",""
"null","<div style=""font-size:60px;"">+</div>","","html-keyboard-response","119","620534","0.0-13.0-0.17","63197","List1A","black","woman","","","","null","","","",""
"null","<img src=""stim_listA/flirt3.gif""style=""height:400px;""></stim_listA>","","html-keyboard-response","120","622536","0.0-13.0-1.17","63197","List1A","black","woman","","","","null","","","",""
"null","is flirting with","","html-keyboard-response","121","624538","0.0-13.0-2.17","63197","List1A","black","woman","","","","null","","","",""
"7484","","","survey-text","122","632023","0.0-13.0-3.17","63197","List1A","black","woman","","","","","{""Q0"":""Jane is flirting with Luke""}","<img src=""stim_listA/flirt3.gif""style=""height:400px;""></stim_listA>","is flirting with",""
"null","<div style=""font-size:60px;"">+</div>","","html-keyboard-response","123","632526","0.0-13.0-0.18","63197","List1A","black","woman","","","","null","","","",""
"null","<img src=""stim_listA/flirt7.gif""style=""height:400px;""></stim_listA>","","html-keyboard-response","124","634528","0.0-13.0-1.18","63197","List1A","black","woman","","","","null","","","",""
"null","is flirting with","","html-keyboard-response","125","636529","0.0-13.0-2.18","63197","List1A","black","woman","","","","null","","","",""
"6213","","","survey-text","126","642744","0.0-13.0-3.18","63197","List1A","black","woman","","","","","{""Q0"":""Jane is flirting with Beth""}","<img src=""stim_listA/flirt7.gif""style=""height:400px;""></stim_listA>","is flirting with",""
"null","<div style=""font-size:60px;"">+</div>","","html-keyboard-response","127","643245","0.0-13.0-0.19","63197","List1A","black","woman","","","","null","","","",""
"null","<img src=""stim_listA/marry5.gif""style=""height:400px;""></stim_listA>","","html-keyboard-response","128","645249","0.0-13.0-1.19","63197","List1A","black","woman","","","","null","","","",""
"null","is marrying","","html-keyboard-response","129","647252","0.0-13.0-2.19","63197","List1A","black","woman","","","","null","","","",""
"8771","","","survey-text","130","656024","0.0-13.0-3.19","63197","List1A","black","woman","","","","","{""Q0"":""Luke is marrying Mike""}","<img src=""stim_listA/marry5.gif""style=""height:400px;""></stim_listA>","is marrying",""
"9519","<img src='img/portrait_matrix_list1.jpg' style='width:900px;height:500px;''></img><p>If you have memorised all the portraits and names and are ready to start, press Continue.</p><p><strong>Please note: Your memory of these faces will be tested 4 times during this experiment.</strong></p>","0","html-button-response","131","665544","0.0-14.0-0.0","63197","List1A","black","woman","","","","","","","",""
"2181","<img src=""portrait/WW2.jpg""style=""height:400px;""></img>","3","html-button-response","132","668728","0.0-14.0-1.0","63197","List1A","black","woman","","true","3","","","","",""
"null","CORRECT","","html-keyboard-response","133","670231","0.0-14.0-2.0-0.0","63197","List1A","black","woman","","","","null","","","",""
"1711","<img src=""portrait/BW1.jpg""style=""height:400px;""></img>","0","html-button-response","134","671944","0.0-14.0-4.0","63197","List1A","black","woman","","true","0","","","","",""
"null","CORRECT","","html-keyboard-response","135","673446","0.0-14.0-5.0-0.0","63197","List1A","black","woman","","","","null","","","",""
"1729","<img src=""portrait/BM2.jpg""style=""height:400px;""></img>","5","html-button-response","136","675176","0.0-14.0-7.0","63197","List1A","black","woman","","true","5","","","","",""
"null","CORRECT","","html-keyboard-response","137","676682","0.0-14.0-8.0-0.0","63197","List1A","black","woman","","","","null","","","",""
"1844","<img src=""portrait/WW1.jpg""style=""height:400px;""></img>","1","html-button-response","138","678528","0.0-14.0-10.0","63197","List1A","black","woman","","true","1","","","","",""
"null","CORRECT","","html-keyboard-response","139","680032","0.0-14.0-11.0-0.0","63197","List1A","black","woman","","","","null","","","",""
"1535","<img src=""portrait/WM2.jpg""style=""height:400px;""></img>","7","html-button-response","140","681568","0.0-14.0-13.0","63197","List1A","black","woman","","true","7","","","","",""
"null","CORRECT","","html-keyboard-response","141","683072","0.0-14.0-14.0-0.0","63197","List1A","black","woman","","","","null","","","",""
"1782","<img src=""portrait/WM1.jpg""style=""height:400px;""></img>","6","html-button-response","142","684856","0.0-14.0-16.0","63197","List1A","black","woman","","true","6","","","","",""
"null","CORRECT","","html-keyboard-response","143","686364","0.0-14.0-17.0-0.0","63197","List1A","black","woman","","","","null","","","",""
"7211","<img src=""portrait/BW2.jpg""style=""height:400px;""></img>","2","html-button-response","144","693575","0.0-14.0-19.0","63197","List1A","black","woman","","true","2","","","","",""
"null","CORRECT","","html-keyboard-response","145","695079","0.0-14.0-20.0-0.0","63197","List1A","black","woman","","","","null","","","",""
"1983","<img src=""portrait/BM1.jpg""style=""height:400px;""></img>","4","html-button-response","146","697064","0.0-14.0-22.0","63197","List1A","black","woman","","true","4","","","","",""
"null","CORRECT","","html-keyboard-response","147","698567","0.0-14.0-23.0-0.0","63197","List1A","black","woman","","","","null","","","",""
"1319","<p>You got 8 out of 8 right first time. Press Continue.</p>","0","html-button-response","148","699888","0.0-14.0-25.0","63197","List1A","black","woman","","","","","","","",""
"null","<div style=""font-size:60px;"">+</div>","","html-keyboard-response","149","701392","0.0-15.0-0.0","63197","List1A","black","woman","","","","null","","","",""
"null","<img src=""stim_listA/kiss2.gif""style=""height:400px;""></stim_listA>","","html-keyboard-response","150","703394","0.0-15.0-1.0","63197","List1A","black","woman","","","","null","","","",""
"null","are kissing each other","","html-keyboard-response","151","705396","0.0-15.0-2.0","63197","List1A","black","woman","","","","null","","","",""
"8995","","","survey-text","152","714392","0.0-15.0-3.0","63197","List1A","black","woman","","","","","{""Q0"":""Kate and Mike are kissing each other""}","<img src=""stim_listA/kiss2.gif""style=""height:400px;""></stim_listA>","are kissing each other",""
"null","<div style=""font-size:60px;"">+</div>","","html-keyboard-response","153","714893","0.0-15.0-0.1","63197","List1A","black","woman","","","","null","","","",""
"null","<img src=""stim_listA/touch8.gif""style=""height:400px;""></stim_listA>","","html-keyboard-response","154","716895","0.0-15.0-1.1","63197","List1A","black","woman","","","","null","","","",""
"null","are touching each other","","html-keyboard-response","155","718897","0.0-15.0-2.1","63197","List1A","black","woman","","","","null","","","",""
"10518","","","survey-text","156","729416","0.0-15.0-3.1","63197","List1A","black","woman","","","","","{""Q0"":""Beth and Ruth are touching each other""}","<img src=""stim_listA/touch8.gif""style=""height:400px;""></stim_listA>","are touching each other",""
"null","<div style=""font-size:60px;"">+</div>","","html-keyboard-response","157","729919","0.0-15.0-0.2","63197","List1A","black","woman","","","","null","","","",""
"null","<img src=""stim_listA/talk7.gif""style=""height:400px;""></stim_listA>","","html-keyboard-response","158","731922","0.0-15.0-1.2","63197","List1A","black","woman","","","","null","","","",""
"null","is talking to","","html-keyboard-response","159","733923","0.0-15.0-2.2","63197","List1A","black","woman","","","","null","","","",""
"8052","","","survey-text","160","741976","0.0-15.0-3.2","63197","List1A","black","woman","","","","","{""Q0"":""Beth is talking to Jane""}","<img src=""stim_listA/talk7.gif""style=""height:400px;""></stim_listA>","is talking to",""
"null","<div style=""font-size:60px;"">+</div>","","html-keyboard-response","161","742479","0.0-15.0-0.3","63197","List1A","black","woman","","","","null","","","",""
"null","<img src=""stim_listA/argue3.gif""style=""height:400px;""></stim_listA>","","html-keyboard-response","162","744482","0.0-15.0-1.3","63197","List1A","black","woman","","","","null","","","",""
"null","is arguing with","","html-keyboard-response","163","746485","0.0-15.0-2.3","63197","List1A","black","woman","","","","null","","","",""
"7155","","","survey-text","164","753640","0.0-15.0-3.3","63197","List1A","black","woman","","","","","{""Q0"":""Dave is arguing with Ruth""}","<img src=""stim_listA/argue3.gif""style=""height:400px;""></stim_listA>","is arguing with",""
"null","<div style=""font-size:60px;"">+</div>","","html-keyboard-response","165","754142","0.0-15.0-0.4","63197","List1A","black","woman","","","","null","","","",""
"null","<img src=""stim_listA/shout7.gif""style=""height:400px;""></stim_listA>","","html-keyboard-response","166","756144","0.0-15.0-1.4","63197","List1A","black","woman","","","","null","","","",""
"null","is shouting at","","html-keyboard-response","167","758145","0.0-15.0-2.4","63197","List1A","black","woman","","","","null","","","",""
"11134","","","survey-text","168","769280","0.0-15.0-3.4","63197","List1A","black","woman","","","","","{""Q0"":""Ruth is shouting at Beth""}","<img src=""stim_listA/shout7.gif""style=""height:400px;""></stim_listA>","is shouting at",""
"null","<div style=""font-size:60px;"">+</div>","","html-keyboard-response","169","769782","0.0-15.0-0.5","63197","List1A","black","woman","","","","null","","","",""
"null","<img src=""stim_listA/talk5.gif""style=""height:400px;""></stim_listA>","","html-keyboard-response","170","771785","0.0-15.0-1.5","63197","List1A","black","woman","","","","null","","","",""
"null","is talking to","","html-keyboard-response","171","773786","0.0-15.0-2.5","63197","List1A","black","woman","","","","null","","","",""
"5501","","","survey-text","172","779288","0.0-15.0-3.5","63197","List1A","black","woman","","","","","{""Q0"":""Fred is talking to Dave""}","<img src=""stim_listA/talk5.gif""style=""height:400px;""></stim_listA>","is talking to",""
"null","<div style=""font-size:60px;"">+</div>","","html-keyboard-response","173","779790","0.0-15.0-0.6","63197","List1A","black","woman","","","","null","","","",""
"null","<img src=""stim_listA/flirt8.gif""style=""height:400px;""></stim_listA>","","html-keyboard-response","174","781794","0.0-15.0-1.6","63197","List1A","black","woman","","","","null","","","",""
"null","are flirting with each other","","html-keyboard-response","175","783796","0.0-15.0-2.6","63197","List1A","black","woman","","","","null","","","",""
"14323","","","survey-text","176","798121","0.0-15.0-3.6","63197","List1A","black","woman","","","","","{""Q0"":""Ruth and Kate are flirting with each other""}","<img src=""stim_listA/flirt8.gif""style=""height:400px;""></stim_listA>","are flirting with each other",""
"null","<div style=""font-size:60px;"">+</div>","","html-keyboard-response","177","798623","0.0-15.0-0.7","63197","List1A","black","woman","","","","null","","","",""
"null","<img src=""stim_listA/argue2.gif""style=""height:400px;""></stim_listA>","","html-keyboard-response","178","800625","0.0-15.0-1.7","63197","List1A","black","woman","","","","null","","","",""
"null","are arguing with each other","","html-keyboard-response","179","802627","0.0-15.0-2.7","63197","List1A","black","woman","","","","null","","","",""
"8580","","","survey-text","180","811209","0.0-15.0-3.7","63197","List1A","black","woman","","","","","{""Q0"":""Fred and Kate are arguing with each other""}","<img src=""stim_listA/argue2.gif""style=""height:400px;""></stim_listA>","are arguing with each other",""
"null","<div style=""font-size:60px;"">+</div>","","html-keyboard-response","181","811711","0.0-15.0-0.8","63197","List1A","black","woman","","","","null","","","",""
"null","<img src=""stim_listA/play5.gif""style=""height:400px;""></stim_listA>","","html-keyboard-response","182","813713","0.0-15.0-1.8","63197","List1A","black","woman","","","","null","","","",""
"null","is playing with","","html-keyboard-response","183","815716","0.0-15.0-2.8","63197","List1A","black","woman","","","","null","","","",""
"6028","","","survey-text","184","821745","0.0-15.0-3.8","63197","List1A","black","woman","","","","","{""Q0"":""Dave is playing with Mike""}","<img src=""stim_listA/play5.gif""style=""height:400px;""></stim_listA>","is playing with",""
"null","<div style=""font-size:60px;"">+</div>","","html-keyboard-response","185","822247","0.0-15.0-0.9","63197","List1A","black","woman","","","","null","","","",""
"null","<img src=""stim_listA/talk1.gif""style=""height:400px;""></stim_listA>","","html-keyboard-response","186","824249","0.0-15.0-1.9","63197","List1A","black","woman","","","","null","","","",""
"null","is talking to","","html-keyboard-response","187","826252","0.0-15.0-2.9","63197","List1A","black","woman","","","","null","","","",""
"5189","","","survey-text","188","831441","0.0-15.0-3.9","63197","List1A","black","woman","","","","","{""Q0"":""Fred is talking with Kate""}","<img src=""stim_listA/talk1.gif""style=""height:400px;""></stim_listA>","is talking to",""
"null","<div style=""font-size:60px;"">+</div>","","html-keyboard-response","189","831943","0.0-15.0-0.10","63197","List1A","black","woman","","","","null","","","",""
"null","<img src=""stim_listA/kiss4.gif""style=""height:400px;""></stim_listA>","","html-keyboard-response","190","833945","0.0-15.0-1.10","63197","List1A","black","woman","","","","null","","","",""
"null","are kissing each other","","html-keyboard-response","191","835946","0.0-15.0-2.10","63197","List1A","black","woman","","","","null","","","",""
"9733","","","survey-text","192","845681","0.0-15.0-3.10","63197","List1A","black","woman","","","","","{""Q0"":""Dave and Jane are kissing each other""}","<img src=""stim_listA/kiss4.gif""style=""height:400px;""></stim_listA>","are kissing each other",""
"null","<div style=""font-size:60px;"">+</div>","","html-keyboard-response","193","846183","0.0-15.0-0.11","63197","List1A","black","woman","","","","null","","","",""
"null","<img src=""stim_listA/marry6.gif""style=""height:400px;""></stim_listA>","","html-keyboard-response","194","848185","0.0-15.0-1.11","63197","List1A","black","woman","","","","null","","","",""
"null","are marrying each other","","html-keyboard-response","195","850187","0.0-15.0-2.11","63197","List1A","black","woman","","","","null","","","",""
"8653","","","survey-text","196","858841","0.0-15.0-3.11","63197","List1A","black","woman","","","","","{""Q0"":""Fred is marrying Dave""}","<img src=""stim_listA/marry6.gif""style=""height:400px;""></stim_listA>","are marrying each other",""
"null","<div style=""font-size:60px;"">+</div>","","html-keyboard-response","197","859343","0.0-15.0-0.12","63197","List1A","black","woman","","","","null","","","",""
"null","<img src=""stim_listA/flirt4.gif""style=""height:400px;""></stim_listA>","","html-keyboard-response","198","861344","0.0-15.0-1.12","63197","List1A","black","woman","","","","null","","","",""
"null","are flirting with each other","","html-keyboard-response","199","863346","0.0-15.0-2.12","63197","List1A","black","woman","","","","null","","","",""
"9342","","","survey-text","200","872690","0.0-15.0-3.12","63197","List1A","black","woman","","","","","{""Q0"":""Ruth and Dave are flirting with each other""}","<img src=""stim_listA/flirt4.gif""style=""height:400px;""></stim_listA>","are flirting with each other",""
"null","<div style=""font-size:60px;"">+</div>","","html-keyboard-response","201","873192","0.0-15.0-0.13","63197","List1A","black","woman","","","","null","","","",""
"null","<img src=""stim_listA/play2.gif""style=""height:400px;""></stim_listA>","","html-keyboard-response","202","875194","0.0-15.0-1.13","63197","List1A","black","woman","","","","null","","","",""
"null","are playing with each other","","html-keyboard-response","203","877195","0.0-15.0-2.13","63197","List1A","black","woman","","","","null","","","",""
"8796","","","survey-text","204","885993","0.0-15.0-3.13","63197","List1A","black","woman","","","","","{""Q0"":""Beth and Fred are playing with each other""}","<img src=""stim_listA/play2.gif""style=""height:400px;""></stim_listA>","are playing with each other",""
"null","<div style=""font-size:60px;"">+</div>","","html-keyboard-response","205","886494","0.0-15.0-0.14","63197","List1A","black","woman","","","","null","","","",""
"null","<img src=""stim_listA/argue6.gif""style=""height:400px;""></stim_listA>","","html-keyboard-response","206","888496","0.0-15.0-1.14","63197","List1A","black","woman","","","","null","","","",""
"null","are arguing with each other","","html-keyboard-response","207","890498","0.0-15.0-2.14","63197","List1A","black","woman","","","","null","","","",""
"9261","","","survey-text","208","899761","0.0-15.0-3.14","63197","List1A","black","woman","","","","","{""Q0"":""Fred and Dave are arguing with each other""}","<img src=""stim_listA/argue6.gif""style=""height:400px;""></stim_listA>","are arguing with each other",""
"null","<div style=""font-size:60px;"">+</div>","","html-keyboard-response","209","900263","0.0-15.0-0.15","63197","List1A","black","woman","","","","null","","","",""
"null","<img src=""stim_listA/touch3.gif""style=""height:400px;""></stim_listA>","","html-keyboard-response","210","902269","0.0-15.0-1.15","63197","List1A","black","woman","","","","null","","","",""
"null","is touching","","html-keyboard-response","211","904271","0.0-15.0-2.15","63197","List1A","black","woman","","","","null","","","",""
"5913","","","survey-text","212","910185","0.0-15.0-3.15","63197","List1A","black","woman","","","","","{""Q0"":""Jane is touching Dave""}","<img src=""stim_listA/touch3.gif""style=""height:400px;""></stim_listA>","is touching",""
"null","<div style=""font-size:60px;"">+</div>","","html-keyboard-response","213","910687","0.0-15.0-0.16","63197","List1A","black","woman","","","","null","","","",""
"null","<img src=""stim_listA/marry1.gif""style=""height:400px;""></stim_listA>","","html-keyboard-response","214","912689","0.0-15.0-1.16","63197","List1A","black","woman","","","","null","","","",""
"null","is marrying","","html-keyboard-response","215","914691","0.0-15.0-2.16","63197","List1A","black","woman","","","","null","","","",""
"5278","","","survey-text","216","919969","0.0-15.0-3.16","63197","List1A","black","woman","","","","","{""Q0"":""Mike is marrying Beth""}","<img src=""stim_listA/marry1.gif""style=""height:400px;""></stim_listA>","is marrying",""
"null","<div style=""font-size:60px;"">+</div>","","html-keyboard-response","217","920472","0.0-15.0-0.17","63197","List1A","black","woman","","","","null","","","",""
"null","<img src=""stim_listA/fight3.gif""style=""height:400px;""></stim_listA>","","html-keyboard-response","218","922475","0.0-15.0-1.17","63197","List1A","black","woman","","","","null","","","",""
"null","is fighting","","html-keyboard-response","219","924477","0.0-15.0-2.17","63197","List1A","black","woman","","","","null","","","",""
"6667","","","survey-text","220","931145","0.0-15.0-3.17","63197","List1A","black","woman","","","","","{""Q0"":""Jane is fighting Dave""}","<img src=""stim_listA/fight3.gif""style=""height:400px;""></stim_listA>","is fighting",""
"null","<div style=""font-size:60px;"">+</div>","","html-keyboard-response","221","931647","0.0-15.0-0.18","63197","List1A","black","woman","","","","null","","","",""
"null","<img src=""stim_listA/talk4.gif""style=""height:400px;""></stim_listA>","","html-keyboard-response","222","933651","0.0-15.0-1.18","63197","List1A","black","woman","","","","null","","","",""
"null","are talking to each other","","html-keyboard-response","223","935653","0.0-15.0-2.18","63197","List1A","black","woman","","","","null","","","",""
"10812","","","survey-text","224","946465","0.0-15.0-3.18","63197","List1A","black","woman","","","","","{""Q0"":""Ruth and Dave are talking to each other""}","<img src=""stim_listA/talk4.gif""style=""height:400px;""></stim_listA>","are talking to each other",""
"null","<div style=""font-size:60px;"">+</div>","","html-keyboard-response","225","946967","0.0-15.0-0.19","63197","List1A","black","woman","","","","null","","","",""
"null","<img src=""stim_listA/talk8.gif""style=""height:400px;""></stim_listA>","","html-keyboard-response","226","948970","0.0-15.0-1.19","63197","List1A","black","woman","","","","null","","","",""
"null","are talking to each other","","html-keyboard-response","227","950972","0.0-15.0-2.19","63197","List1A","black","woman","","","","null","","","",""
"7180","","","survey-text","228","958153","0.0-15.0-3.19","63197","List1A","black","woman","","","","","{""Q0"":""Ruth and Kate are talking to each other""}","<img src=""stim_listA/talk8.gif""style=""height:400px;""></stim_listA>","are talking to each other",""
"4151","<img src='img/portrait_matrix_list1.jpg' style='width:900px;height:500px;''></img><p>If you have memorised all the portraits and names and are ready to start, press Continue.</p><p><strong>Please note: Your memory of these faces will be tested 4 times during this experiment.</strong></p>","0","html-button-response","229","962306","0.0-16.0-0.0","63197","List1A","black","woman","","","","","","","",""
"2205","<img src=""portrait/BW1.jpg""style=""height:400px;""></img>","0","html-button-response","230","965514","0.0-16.0-1.0","63197","List1A","black","woman","","true","0","","","","",""
"null","CORRECT","","html-keyboard-response","231","967018","0.0-16.0-2.0-0.0","63197","List1A","black","woman","","","","null","","","",""
"1829","<img src=""portrait/WM1.jpg""style=""height:400px;""></img>","6","html-button-response","232","968850","0.0-16.0-4.0","63197","List1A","black","woman","","true","6","","","","",""
"null","CORRECT","","html-keyboard-response","233","970354","0.0-16.0-5.0-0.0","63197","List1A","black","woman","","","","null","","","",""
"1382","<img src=""portrait/BW2.jpg""style=""height:400px;""></img>","2","html-button-response","234","971738","0.0-16.0-7.0","63197","List1A","black","woman","","true","2","","","","",""
"null","CORRECT","","html-keyboard-response","235","973242","0.0-16.0-8.0-0.0","63197","List1A","black","woman","","","","null","","","",""
"1367","<img src=""portrait/WW1.jpg""style=""height:400px;""></img>","1","html-button-response","236","974610","0.0-16.0-10.0","63197","List1A","black","woman","","true","1","","","","",""
"null","CORRECT","","html-keyboard-response","237","976113","0.0-16.0-11.0-0.0","63197","List1A","black","woman","","","","null","","","",""
"1407","<img src=""portrait/BM2.jpg""style=""height:400px;""></img>","5","html-button-response","238","977522","0.0-16.0-13.0","63197","List1A","black","woman","","true","5","","","","",""
"null","CORRECT","","html-keyboard-response","239","979027","0.0-16.0-14.0-0.0","63197","List1A","black","woman","","","","null","","","",""
"1486","<img src=""portrait/WW2.jpg""style=""height:400px;""></img>","3","html-button-response","240","980514","0.0-16.0-16.0","63197","List1A","black","woman","","true","3","","","","",""
"null","CORRECT","","html-keyboard-response","241","982018","0.0-16.0-17.0-0.0","63197","List1A","black","woman","","","","null","","","",""
"1414","<img src=""portrait/BM1.jpg""style=""height:400px;""></img>","4","html-button-response","242","983434","0.0-16.0-19.0","63197","List1A","black","woman","","true","4","","","","",""
"null","CORRECT","","html-keyboard-response","243","984937","0.0-16.0-20.0-0.0","63197","List1A","black","woman","","","","null","","","",""
"1423","<img src=""portrait/WM2.jpg""style=""height:400px;""></img>","7","html-button-response","244","986362","0.0-16.0-22.0","63197","List1A","black","woman","","true","7","","","","",""
"null","CORRECT","","html-keyboard-response","245","987866","0.0-16.0-23.0-0.0","63197","List1A","black","woman","","","","null","","","",""
"1742","<p>You got 8 out of 8 right first time. Press Continue.</p>","0","html-button-response","246","989610","0.0-16.0-25.0","63197","List1A","black","woman","","","","","","","",""
"null","<div style=""font-size:60px;"">+</div>","","html-keyboard-response","247","991114","0.0-17.0-0.0","63197","List1A","black","woman","","","","null","","","",""
"null","<img src=""stim_listA/flirt1.gif""style=""height:400px;""></stim_listA>","","html-keyboard-response","248","993122","0.0-17.0-1.0","63197","List1A","black","woman","","","","null","","","",""
"null","is flirting with","","html-keyboard-response","249","995125","0.0-17.0-2.0","63197","List1A","black","woman","","","","null","","","",""
"6403","","","survey-text","250","1001529","0.0-17.0-3.0","63197","List1A","black","woman","","","","","{""Q0"":""Fred is flirting with Kate""}","<img src=""stim_listA/flirt1.gif""style=""height:400px;""></stim_listA>","is flirting with",""
"null","<div style=""font-size:60px;"">+</div>","","html-keyboard-response","251","1002031","0.0-17.0-0.1","63197","List1A","black","woman","","","","null","","","",""
"null","<img src=""stim_listA/dance7.gif""style=""height:400px;""></stim_listA>","","html-keyboard-response","252","1004035","0.0-17.0-1.1","63197","List1A","black","woman","","","","null","","","",""
"null","is dancing with","","html-keyboard-response","253","1006037","0.0-17.0-2.1","63197","List1A","black","woman","","","","null","","","",""
"7324","","","survey-text","254","1013361","0.0-17.0-3.1","63197","List1A","black","woman","","","","","{""Q0"":""Jane is dancing with Beth""}","<img src=""stim_listA/dance7.gif""style=""height:400px;""></stim_listA>","is dancing with",""
"null","<div style=""font-size:60px;"">+</div>","","html-keyboard-response","255","1013864","0.0-17.0-0.2","63197","List1A","black","woman","","","","null","","","",""
"null","<img src=""stim_listA/shout6.gif""style=""height:400px;""></stim_listA>","","html-keyboard-response","256","1015867","0.0-17.0-1.2","63197","List1A","black","woman","","","","null","","","",""
"null","are shouting at each other","","html-keyboard-response","257","1017868","0.0-17.0-2.2","63197","List1A","black","woman","","","","null","","","",""
"10069","","","survey-text","258","1027938","0.0-17.0-3.2","63197","List1A","black","woman","","","","","{""Q0"":""Dave and Mike are shouting at each other""}","<img src=""stim_listA/shout6.gif""style=""height:400px;""></stim_listA>","are shouting at each other",""
"null","<div style=""font-size:60px;"">+</div>","","html-keyboard-response","259","1028440","0.0-17.0-0.3","63197","List1A","black","woman","","","","null","","","",""
"null","<img src=""stim_listA/kiss1.gif""style=""height:400px;""></stim_listA>","","html-keyboard-response","260","1030442","0.0-17.0-1.3","63197","List1A","black","woman","","","","null","","","",""
"null","is kissing","","html-keyboard-response","261","1032444","0.0-17.0-2.3","63197","List1A","black","woman","","","","null","","","",""
"4806","","","survey-text","262","1037250","0.0-17.0-3.3","63197","List1A","black","woman","","","","","{""Q0"":""Fred is kissing Beth""}","<img src=""stim_listA/kiss1.gif""style=""height:400px;""></stim_listA>","is kissing",""
"null","<div style=""font-size:60px;"">+</div>","","html-keyboard-response","263","1037752","0.0-17.0-0.4","63197","List1A","black","woman","","","","null","","","",""
"null","<img src=""stim_listA/kiss6.gif""style=""height:400px;""></stim_listA>","","html-keyboard-response","264","1039754","0.0-17.0-1.4","63197","List1A","black","woman","","","","null","","","",""
"null","are kissing each other","","html-keyboard-response","265","1041755","0.0-17.0-2.4","63197","List1A","black","woman","","","","null","","","",""
"5437","","","survey-text","266","1047194","0.0-17.0-3.4","63197","List1A","black","woman","","","","","{""Q0"":""Dave and Mike are kissing""}","<img src=""stim_listA/kiss6.gif""style=""height:400px;""></stim_listA>","are kissing each other",""
"null","<div style=""font-size:60px;"">+</div>","","html-keyboard-response","267","1047696","0.0-17.0-0.5","63197","List1A","black","woman","","","","null","","","",""
"null","<img src=""stim_listA/marry7.gif""style=""height:400px;""></stim_listA>","","html-keyboard-response","268","1049697","0.0-17.0-1.5","63197","List1A","black","woman","","","","null","","","",""
"null","is marrying","","html-keyboard-response","269","1051700","0.0-17.0-2.5","63197","List1A","black","woman","","","","null","","","",""
"6164","","","survey-text","270","1057866","0.0-17.0-3.5","63197","List1A","black","woman","","","","","{""Q0"":""Ruth is marrying Kate""}","<img src=""stim_listA/marry7.gif""style=""height:400px;""></stim_listA>","is marrying",""
"null","<div style=""font-size:60px;"">+</div>","","html-keyboard-response","271","1058369","0.0-17.0-0.6","63197","List1A","black","woman","","","","null","","","",""
"null","<img src=""stim_listA/argue8.gif""style=""height:400px;""></stim_listA>","","html-keyboard-response","272","1060372","0.0-17.0-1.6","63197","List1A","black","woman","","","","null","","","",""
"null","are arguing with each other","","html-keyboard-response","273","1062373","0.0-17.0-2.6","63197","List1A","black","woman","","","","null","","","",""
"9619","","","survey-text","274","1071994","0.0-17.0-3.6","63197","List1A","black","woman","","","","","{""Q0"":""Jane and Beth are arguing with each other""}","<img src=""stim_listA/argue8.gif""style=""height:400px;""></stim_listA>","are arguing with each other",""
"null","<div style=""font-size:60px;"">+</div>","","html-keyboard-response","275","1072496","0.0-17.0-0.7","63197","List1A","black","woman","","","","null","","","",""
"null","<img src=""stim_listA/fight4.gif""style=""height:400px;""></stim_listA>","","html-keyboard-response","276","1074499","0.0-17.0-1.7","63197","List1A","black","woman","","","","null","","","",""
"null","are fighting each other","","html-keyboard-response","277","1076506","0.0-17.0-2.7","63197","List1A","black","woman","","","","null","","","",""
"12655","","","survey-text","278","1089162","0.0-17.0-3.7","63197","List1A","black","woman","","","","","{""Q0"":""Luke and Ruth are fighting each other""}","<img src=""stim_listA/fight4.gif""style=""height:400px;""></stim_listA>","are fighting each other",""
"null","<div style=""font-size:60px;"">+</div>","","html-keyboard-response","279","1089664","0.0-17.0-0.8","63197","List1A","black","woman","","","","null","","","",""
"null","<img src=""stim_listA/shout5.gif""style=""height:400px;""></stim_listA>","","html-keyboard-response","280","1091666","0.0-17.0-1.8","63197","List1A","black","woman","","","","null","","","",""
"null","is shouting at","","html-keyboard-response","281","1093667","0.0-17.0-2.8","63197","List1A","black","woman","","","","null","","","",""
"5542","","","survey-text","282","1099211","0.0-17.0-3.8","63197","List1A","black","woman","","","","","{""Q0"":""Luke is shouting at Fred""}","<img src=""stim_listA/shout5.gif""style=""height:400px;""></stim_listA>","is shouting at",""
"null","<div style=""font-size:60px;"">+</div>","","html-keyboard-response","283","1099713","0.0-17.0-0.9","63197","List1A","black","woman","","","","null","","","",""
"null","<img src=""stim_listA/touch7.gif""style=""height:400px;""></stim_listA>","","html-keyboard-response","284","1101714","0.0-17.0-1.9","63197","List1A","black","woman","","","","null","","","",""
"null","is touching","","html-keyboard-response","285","1103716","0.0-17.0-2.9","63197","List1A","black","woman","","","","null","","","",""
"8637","","","survey-text","286","1112354","0.0-17.0-3.9","63197","List1A","black","woman","","","","","{""Q0"":""Jane is touching Kate""}","<img src=""stim_listA/touch7.gif""style=""height:400px;""></stim_listA>","is touching",""
"null","<div style=""font-size:60px;"">+</div>","","html-keyboard-response","287","1112857","0.0-17.0-0.10","63197","List1A","black","woman","","","","null","","","",""
"null","<img src=""stim_listA/dance3.gif""style=""height:400px;""></stim_listA>","","html-keyboard-response","288","1114860","0.0-17.0-1.10","63197","List1A","black","woman","","","","null","","","",""
"null","is dancing with","","html-keyboard-response","289","1116863","0.0-17.0-2.10","63197","List1A","black","woman","","","","null","","","",""
"16771","","","survey-text","290","1133634","0.0-17.0-3.10","63197","List1A","black","woman","","","","","{""Q0"":""sneezed and missed it ""}","<img src=""stim_listA/dance3.gif""style=""height:400px;""></stim_listA>","is dancing with",""
"null","<div style=""font-size:60px;"">+</div>","","html-keyboard-response","291","1134137","0.0-17.0-0.11","63197","List1A","black","woman","","","","null","","","",""
"null","<img src=""stim_listA/flirt2.gif""style=""height:400px;""></stim_listA>","","html-keyboard-response","292","1136139","0.0-17.0-1.11","63197","List1A","black","woman","","","","null","","","",""
"null","are flirting with each other","","html-keyboard-response","293","1138142","0.0-17.0-2.11","63197","List1A","black","woman","","","","null","","","",""
"12612","","","survey-text","294","1150755","0.0-17.0-3.11","63197","List1A","black","woman","","","","","{""Q0"":""Beth and Mike are flirting with each other""}","<img src=""stim_listA/flirt2.gif""style=""height:400px;""></stim_listA>","are flirting with each other",""
"null","<div style=""font-size:60px;"">+</div>","","html-keyboard-response","295","1151257","0.0-17.0-0.12","63197","List1A","black","woman","","","","null","","","",""
"null","<img src=""stim_listA/marry3.gif""style=""height:400px;""></stim_listA>","","html-keyboard-response","296","1153260","0.0-17.0-1.12","63197","List1A","black","woman","","","","null","","","",""
"null","is marrying","","html-keyboard-response","297","1155264","0.0-17.0-2.12","63197","List1A","black","woman","","","","null","","","",""
"6010","","","survey-text","298","1161275","0.0-17.0-3.12","63197","List1A","black","woman","","","","","{""Q0"":""Dave is marrying Ruth""}","<img src=""stim_listA/marry3.gif""style=""height:400px;""></stim_listA>","is marrying",""
"null","<div style=""font-size:60px;"">+</div>","","html-keyboard-response","299","1161777","0.0-17.0-0.13","63197","List1A","black","woman","","","","null","","","",""
"null","<img src=""stim_listA/shout1.gif""style=""height:400px;""></stim_listA>","","html-keyboard-response","300","1163780","0.0-17.0-1.13","63197","List1A","black","woman","","","","null","","","",""
"null","is shouting at","","html-keyboard-response","301","1165781","0.0-17.0-2.13","63197","List1A","black","woman","","","","null","","","",""
"5261","","","survey-text","302","1171043","0.0-17.0-3.13","63197","List1A","black","woman","","","","","{""Q0"":""Beth is shouting at Fred""}","<img src=""stim_listA/shout1.gif""style=""height:400px;""></stim_listA>","is shouting at",""
"null","<div style=""font-size:60px;"">+</div>","","html-keyboard-response","303","1171545","0.0-17.0-0.14","63197","List1A","black","woman","","","","null","","","",""
"null","<img src=""stim_listA/play4.gif""style=""height:400px;""></stim_listA>","","html-keyboard-response","304","1173547","0.0-17.0-1.14","63197","List1A","black","woman","","","","null","","","",""
"null","are playing with each other","","html-keyboard-response","305","1175548","0.0-17.0-2.14","63197","List1A","black","woman","","","","null","","","",""
"11934","","","survey-text","306","1187483","0.0-17.0-3.14","63197","List1A","black","woman","","","","","{""Q0"":""Luke and Ruth are playing with each other""}","<img src=""stim_listA/play4.gif""style=""height:400px;""></stim_listA>","are playing with each other",""
"null","<div style=""font-size:60px;"">+</div>","","html-keyboard-response","307","1187985","0.0-17.0-0.15","63197","List1A","black","woman","","","","null","","","",""
"null","<img src=""stim_listA/kiss5.gif""style=""height:400px;""></stim_listA>","","html-keyboard-response","308","1189988","0.0-17.0-1.15","63197","List1A","black","woman","","","","null","","","",""
"null","is kissing","","html-keyboard-response","309","1191990","0.0-17.0-2.15","63197","List1A","black","woman","","","","null","","","",""
"5140","","","survey-text","310","1197131","0.0-17.0-3.15","63197","List1A","black","woman","","","","","{""Q0"":""Fred is kissing Mike""}","<img src=""stim_listA/kiss5.gif""style=""height:400px;""></stim_listA>","is kissing",""
"null","<div style=""font-size:60px;"">+</div>","","html-keyboard-response","311","1197634","0.0-17.0-0.16","63197","List1A","black","woman","","","","null","","","",""
"null","<img src=""stim_listA/play6.gif""style=""height:400px;""></stim_listA>","","html-keyboard-response","312","1199638","0.0-17.0-1.16","63197","List1A","black","woman","","","","null","","","",""
"null","are playing with each other","","html-keyboard-response","313","1201639","0.0-17.0-2.16","63197","List1A","black","woman","","","","null","","","",""
"8467","","","survey-text","314","1210108","0.0-17.0-3.16","63197","List1A","black","woman","","","","","{""Q0"":""Fred and Luke are playing with each other""}","<img src=""stim_listA/play6.gif""style=""height:400px;""></stim_listA>","are playing with each other",""
"null","<div style=""font-size:60px;"">+</div>","","html-keyboard-response","315","1210610","0.0-17.0-0.17","63197","List1A","black","woman","","","","null","","","",""
"null","<img src=""stim_listA/dance6.gif""style=""height:400px;""></stim_listA>","","html-keyboard-response","316","1212615","0.0-17.0-1.17","63197","List1A","black","woman","","","","null","","","",""
"null","are dancing with each other","","html-keyboard-response","317","1214617","0.0-17.0-2.17","63197","List1A","black","woman","","","","null","","","",""
"10825","","","survey-text","318","1225443","0.0-17.0-3.17","63197","List1A","black","woman","","","","","{""Q0"":""Mike and Luke are dancing with each other""}","<img src=""stim_listA/dance6.gif""style=""height:400px;""></stim_listA>","are dancing with each other",""
"null","<div style=""font-size:60px;"">+</div>","","html-keyboard-response","319","1225946","0.0-17.0-0.18","63197","List1A","black","woman","","","","null","","","",""
"null","<img src=""stim_listA/dance4.gif""style=""height:400px;""></stim_listA>","","html-keyboard-response","320","1227948","0.0-17.0-1.18","63197","List1A","black","woman","","","","null","","","",""
"null","are dancing with each other","","html-keyboard-response","321","1229950","0.0-17.0-2.18","63197","List1A","black","woman","","","","null","","","",""
"10652","","","survey-text","322","1240604","0.0-17.0-3.18","63197","List1A","black","woman","","","","","{""Q0"":""Dave and Ruth are dancing with each other""}","<img src=""stim_listA/dance4.gif""style=""height:400px;""></stim_listA>","are dancing with each other",""
"null","<div style=""font-size:60px;"">+</div>","","html-keyboard-response","323","1241105","0.0-17.0-0.19","63197","List1A","black","woman","","","","null","","","",""
"null","<img src=""stim_listA/fight8.gif""style=""height:400px;""></stim_listA>","","html-keyboard-response","324","1243108","0.0-17.0-1.19","63197","List1A","black","woman","","","","null","","","",""
"null","are fighting each other","","html-keyboard-response","325","1245108","0.0-17.0-2.19","63197","List1A","black","woman","","","","null","","","",""
"8174","","","survey-text","326","1253284","0.0-17.0-3.19","63197","List1A","black","woman","","","","","{""Q0"":""Beth and Ruth are fighting each other""}","<img src=""stim_listA/fight8.gif""style=""height:400px;""></stim_listA>","are fighting each other",""
"2246","<img src='img/portrait_matrix_list1.jpg' style='width:900px;height:500px;''></img><p>If you have memorised all the portraits and names and are ready to start, press Continue.</p><p><strong>Please note: Your memory of these faces will be tested 4 times during this experiment.</strong></p>","0","html-button-response","327","1255532","0.0-18.0-0.0","63197","List1A","black","woman","","","","","","","",""
"3533","<img src=""portrait/BM2.jpg""style=""height:400px;""></img>","5","html-button-response","328","1260068","0.0-18.0-1.0","63197","List1A","black","woman","","true","5","","","","",""
"null","CORRECT","","html-keyboard-response","329","1261573","0.0-18.0-2.0-0.0","63197","List1A","black","woman","","","","null","","","",""
"2198","<img src=""portrait/BW1.jpg""style=""height:400px;""></img>","0","html-button-response","330","1263773","0.0-18.0-4.0","63197","List1A","black","woman","","true","0","","","","",""
"null","CORRECT","","html-keyboard-response","331","1265278","0.0-18.0-5.0-0.0","63197","List1A","black","woman","","","","null","","","",""
"1333","<img src=""portrait/WW1.jpg""style=""height:400px;""></img>","1","html-button-response","332","1266613","0.0-18.0-7.0","63197","List1A","black","woman","","true","1","","","","",""
"null","CORRECT","","html-keyboard-response","333","1268119","0.0-18.0-8.0-0.0","63197","List1A","black","woman","","","","null","","","",""
"1660","<img src=""portrait/WM2.jpg""style=""height:400px;""></img>","7","html-button-response","334","1269781","0.0-18.0-10.0","63197","List1A","black","woman","","true","7","","","","",""
"null","CORRECT","","html-keyboard-response","335","1271286","0.0-18.0-11.0-0.0","63197","List1A","black","woman","","","","null","","","",""
"1789","<img src=""portrait/BW2.jpg""style=""height:400px;""></img>","2","html-button-response","336","1273077","0.0-18.0-13.0","63197","List1A","black","woman","","true","2","","","","",""
"null","CORRECT","","html-keyboard-response","337","1274581","0.0-18.0-14.0-0.0","63197","List1A","black","woman","","","","null","","","",""
"1486","<img src=""portrait/BM1.jpg""style=""height:400px;""></img>","4","html-button-response","338","1276069","0.0-18.0-16.0","63197","List1A","black","woman","","true","4","","","","",""
"null","CORRECT","","html-keyboard-response","339","1277572","0.0-18.0-17.0-0.0","63197","List1A","black","woman","","","","null","","","",""
"2191","<img src=""portrait/WW2.jpg""style=""height:400px;""></img>","3","html-button-response","340","1279765","0.0-18.0-19.0","63197","List1A","black","woman","","true","3","","","","",""
"null","CORRECT","","html-keyboard-response","341","1281269","0.0-18.0-20.0-0.0","63197","List1A","black","woman","","","","null","","","",""
"2158","<img src=""portrait/WM1.jpg""style=""height:400px;""></img>","6","html-button-response","342","1283429","0.0-18.0-22.0","63197","List1A","black","woman","","true","6","","","","",""
"null","CORRECT","","html-keyboard-response","343","1284934","0.0-18.0-23.0-0.0","63197","List1A","black","woman","","","","null","","","",""
"1148","<p>You got 8 out of 8 right first time. Press Continue.</p>","0","html-button-response","344","1286085","0.0-18.0-25.0","63197","List1A","black","woman","","","","","","","",""
"null","<div style=""font-size:60px;"">+</div>","","html-keyboard-response","345","1287587","0.0-19.0-0.0","63197","List1A","black","woman","","","","null","","","",""
"null","<img src=""stim_listA/play1.gif""style=""height:400px;""></stim_listA>","","html-keyboard-response","346","1289590","0.0-19.0-1.0","63197","List1A","black","woman","","","","null","","","",""
"null","is playing with","","html-keyboard-response","347","1291592","0.0-19.0-2.0","63197","List1A","black","woman","","","","null","","","",""
"6843","","","survey-text","348","1298437","0.0-19.0-3.0","63197","List1A","black","woman","","","","","{""Q0"":""Kate is playing with Mike""}","<img src=""stim_listA/play1.gif""style=""height:400px;""></stim_listA>","is playing with",""
"null","<div style=""font-size:60px;"">+</div>","","html-keyboard-response","349","1298938","0.0-19.0-0.1","63197","List1A","black","woman","","","","null","","","",""
"null","<img src=""stim_listA/dance1.gif""style=""height:400px;""></stim_listA>","","html-keyboard-response","350","1300940","0.0-19.0-1.1","63197","List1A","black","woman","","","","null","","","",""
"null","is dancing with","","html-keyboard-response","351","1302942","0.0-19.0-2.1","63197","List1A","black","woman","","","","null","","","",""
"6774","","","survey-text","352","1309717","0.0-19.0-3.1","63197","List1A","black","woman","","","","","{""Q0"":""Kate is dancing with Fred""}","<img src=""stim_listA/dance1.gif""style=""height:400px;""></stim_listA>","is dancing with",""
"null","<div style=""font-size:60px;"">+</div>","","html-keyboard-response","353","1310218","0.0-19.0-0.2","63197","List1A","black","woman","","","","null","","","",""
"null","<img src=""stim_listA/dance5.gif""style=""height:400px;""></stim_listA>","","html-keyboard-response","354","1312221","0.0-19.0-1.2","63197","List1A","black","woman","","","","null","","","",""
"null","is dancing with","","html-keyboard-response","355","1314223","0.0-19.0-2.2","63197","List1A","black","woman","","","","null","","","",""
"5853","","","survey-text","356","1320077","0.0-19.0-3.2","63197","List1A","black","woman","","","","","{""Q0"":""Dave is dancing with Fred""}","<img src=""stim_listA/dance5.gif""style=""height:400px;""></stim_listA>","is dancing with",""
"null","<div style=""font-size:60px;"">+</div>","","html-keyboard-response","357","1320580","0.0-19.0-0.3","63197","List1A","black","woman","","","","null","","","",""
"null","<img src=""stim_listA/fight2.gif""style=""height:400px;""></stim_listA>","","html-keyboard-response","358","1322582","0.0-19.0-1.3","63197","List1A","black","woman","","","","null","","","",""
"null","are fighting each other","","html-keyboard-response","359","1324585","0.0-19.0-2.3","63197","List1A","black","woman","","","","null","","","",""
"7547","","","survey-text","360","1332134","0.0-19.0-3.3","63197","List1A","black","woman","","","","","{""Q0"":""Fred and Beth are fighting each other""}","<img src=""stim_listA/fight2.gif""style=""height:400px;""></stim_listA>","are fighting each other",""
"null","<div style=""font-size:60px;"">+</div>","","html-keyboard-response","361","1332639","0.0-19.0-0.4","63197","List1A","black","woman","","","","null","","","",""
"null","<img src=""stim_listA/argue4.gif""style=""height:400px;""></stim_listA>","","html-keyboard-response","362","1334640","0.0-19.0-1.4","63197","List1A","black","woman","","","","null","","","",""
"null","are arguing with each other","","html-keyboard-response","363","1336643","0.0-19.0-2.4","63197","List1A","black","woman","","","","null","","","",""
"8353","","","survey-text","364","1344997","0.0-19.0-3.4","63197","List1A","black","woman","","","","","{""Q0"":""Luke and Jane are arguing with each other""}","<img src=""stim_listA/argue4.gif""style=""height:400px;""></stim_listA>","are arguing with each other",""
"null","<div style=""font-size:60px;"">+</div>","","html-keyboard-response","365","1345499","0.0-19.0-0.5","63197","List1A","black","woman","","","","null","","","",""
"null","<img src=""stim_listA/play3.gif""style=""height:400px;""></stim_listA>","","html-keyboard-response","366","1347501","0.0-19.0-1.5","63197","List1A","black","woman","","","","null","","","",""
"null","is playing with","","html-keyboard-response","367","1349502","0.0-19.0-2.5","63197","List1A","black","woman","","","","null","","","",""
"6038","","","survey-text","368","1355541","0.0-19.0-3.5","63197","List1A","black","woman","","","","","{""Q0"":""Dave is playing with Jane""}","<img src=""stim_listA/play3.gif""style=""height:400px;""></stim_listA>","is playing with",""
"null","<div style=""font-size:60px;"">+</div>","","html-keyboard-response","369","1356044","0.0-19.0-0.6","63197","List1A","black","woman","","","","null","","","",""
"null","<img src=""stim_listA/dance8.gif""style=""height:400px;""></stim_listA>","","html-keyboard-response","370","1358046","0.0-19.0-1.6","63197","List1A","black","woman","","","","null","","","",""
"null","are dancing with each other","","html-keyboard-response","371","1360047","0.0-19.0-2.6","63197","List1A","black","woman","","","","null","","","",""
"10357","","","survey-text","372","1370405","0.0-19.0-3.6","63197","List1A","black","woman","","","","","{""Q0"":""Ruth and Kate are dancing with each other""}","<img src=""stim_listA/dance8.gif""style=""height:400px;""></stim_listA>","are dancing with each other",""
"null","<div style=""font-size:60px;"">+</div>","","html-keyboard-response","373","1370907","0.0-19.0-0.7","63197","List1A","black","woman","","","","null","","","",""
"null","<img src=""stim_listA/shout3.gif""style=""height:400px;""></stim_listA>","","html-keyboard-response","374","1372911","0.0-19.0-1.7","63197","List1A","black","woman","","","","null","","","",""
"null","is shouting at","","html-keyboard-response","375","1374913","0.0-19.0-2.7","63197","List1A","black","woman","","","","null","","","",""
"5123","","","survey-text","376","1380037","0.0-19.0-3.7","63197","List1A","black","woman","","","","","{""Q0"":""Ruth is shouting at Luke""}","<img src=""stim_listA/shout3.gif""style=""height:400px;""></stim_listA>","is shouting at",""
"null","<div style=""font-size:60px;"">+</div>","","html-keyboard-response","377","1380539","0.0-19.0-0.8","63197","List1A","black","woman","","","","null","","","",""
"null","<img src=""stim_listA/kiss8.gif""style=""height:400px;""></stim_listA>","","html-keyboard-response","378","1382542","0.0-19.0-1.8","63197","List1A","black","woman","","","","null","","","",""
"null","are kissing each other","","html-keyboard-response","379","1384543","0.0-19.0-2.8","63197","List1A","black","woman","","","","null","","","",""
"7270","","","survey-text","380","1391814","0.0-19.0-3.8","63197","List1A","black","woman","","","","","{""Q0"":""Jane and Kate are kissing each other""}","<img src=""stim_listA/kiss8.gif""style=""height:400px;""></stim_listA>","are kissing each other",""
"null","<div style=""font-size:60px;"">+</div>","","html-keyboard-response","381","1392317","0.0-19.0-0.9","63197","List1A","black","woman","","","","null","","","",""
"null","<img src=""stim_listA/marry2.gif""style=""height:400px;""></stim_listA>","","html-keyboard-response","382","1394321","0.0-19.0-1.9","63197","List1A","black","woman","","","","null","","","",""
"null","are marrying each other","","html-keyboard-response","383","1396323","0.0-19.0-2.9","63197","List1A","black","woman","","","","null","","","",""
"8043","","","survey-text","384","1404366","0.0-19.0-3.9","63197","List1A","black","woman","","","","","{""Q0"":""Fred and Kate are marrying each other""}","<img src=""stim_listA/marry2.gif""style=""height:400px;""></stim_listA>","are marrying each other",""
"null","<div style=""font-size:60px;"">+</div>","","html-keyboard-response","385","1404869","0.0-19.0-0.10","63197","List1A","black","woman","","","","null","","","",""
"null","<img src=""stim_listA/shout2.gif""style=""height:400px;""></stim_listA>","","html-keyboard-response","386","1406873","0.0-19.0-1.10","63197","List1A","black","woman","","","","null","","","",""
"null","are shouting at each other","","html-keyboard-response","387","1408875","0.0-19.0-2.10","63197","List1A","black","woman","","","","null","","","",""
"8618","","","survey-text","388","1417494","0.0-19.0-3.10","63197","List1A","black","woman","","","","","{""Q0"":""Kate and Mike are shouting at each other""}","<img src=""stim_listA/shout2.gif""style=""height:400px;""></stim_listA>","are shouting at each other",""
"null","<div style=""font-size:60px;"">+</div>","","html-keyboard-response","389","1417996","0.0-19.0-0.11","63197","List1A","black","woman","","","","null","","","",""
"null","<img src=""stim_listA/play8.gif""style=""height:400px;""></stim_listA>","","html-keyboard-response","390","1419999","0.0-19.0-1.11","63197","List1A","black","woman","","","","null","","","",""
"null","are playing with each other","","html-keyboard-response","391","1422000","0.0-19.0-2.11","63197","List1A","black","woman","","","","null","","","",""
"8605","","","survey-text","392","1430606","0.0-19.0-3.11","63197","List1A","black","woman","","","","","{""Q0"":""Ruth and Beth are playing with each other""}","<img src=""stim_listA/play8.gif""style=""height:400px;""></stim_listA>","are playing with each other",""
"null","<div style=""font-size:60px;"">+</div>","","html-keyboard-response","393","1431108","0.0-19.0-0.12","63197","List1A","black","woman","","","","null","","","",""
"null","<img src=""stim_listA/touch4.gif""style=""height:400px;""></stim_listA>","","html-keyboard-response","394","1433110","0.0-19.0-1.12","63197","List1A","black","woman","","","","null","","","",""
"null","are touching each other","","html-keyboard-response","395","1435111","0.0-19.0-2.12","63197","List1A","black","woman","","","","null","","","",""
"9975","","","survey-text","396","1445086","0.0-19.0-3.12","63197","List1A","black","woman","","","","","{""Q0"":""Ruth and Luke are touching each other""}","<img src=""stim_listA/touch4.gif""style=""height:400px;""></stim_listA>","are touching each other",""
"null","<div style=""font-size:60px;"">+</div>","","html-keyboard-response","397","1445588","0.0-19.0-0.13","63197","List1A","black","woman","","","","null","","","",""
"null","<img src=""stim_listA/argue5.gif""style=""height:400px;""></stim_listA>","","html-keyboard-response","398","1447591","0.0-19.0-1.13","63197","List1A","black","woman","","","","null","","","",""
"null","is arguing with","","html-keyboard-response","399","1449593","0.0-19.0-2.13","63197","List1A","black","woman","","","","null","","","",""
"6644","","","survey-text","400","1456238","0.0-19.0-3.13","63197","List1A","black","woman","","","","","{""Q0"":""Mike is arguing with Luke""}","<img src=""stim_listA/argue5.gif""style=""height:400px;""></stim_listA>","is arguing with",""
"null","<div style=""font-size:60px;"">+</div>","","html-keyboard-response","401","1456740","0.0-19.0-0.14","63197","List1A","black","woman","","","","null","","","",""
"null","<img src=""stim_listA/marry8.gif""style=""height:400px;""></stim_listA>","","html-keyboard-response","402","1458742","0.0-19.0-1.14","63197","List1A","black","woman","","","","null","","","",""
"null","are marrying each other","","html-keyboard-response","403","1460745","0.0-19.0-2.14","63197","List1A","black","woman","","","","null","","","",""
"8036","","","survey-text","404","1468782","0.0-19.0-3.14","63197","List1A","black","woman","","","","","{""Q0"":""Jane and Beth are marrying each other""}","<img src=""stim_listA/marry8.gif""style=""height:400px;""></stim_listA>","are marrying each other",""
"null","<div style=""font-size:60px;"">+</div>","","html-keyboard-response","405","1469284","0.0-19.0-0.15","63197","List1A","black","woman","","","","null","","","",""
"null","<img src=""stim_listA/touch1.gif""style=""height:400px;""></stim_listA>","","html-keyboard-response","406","1471286","0.0-19.0-1.15","63197","List1A","black","woman","","","","null","","","",""
"null","is touching","","html-keyboard-response","407","1473288","0.0-19.0-2.15","63197","List1A","black","woman","","","","null","","","",""
"5166","","","survey-text","408","1478455","0.0-19.0-3.15","63197","List1A","black","woman","","","","","{""Q0"":""Mike is touching Kate""}","<img src=""stim_listA/touch1.gif""style=""height:400px;""></stim_listA>","is touching",""
"null","<div style=""font-size:60px;"">+</div>","","html-keyboard-response","409","1478958","0.0-19.0-0.16","63197","List1A","black","woman","","","","null","","","",""
"null","<img src=""stim_listA/fight5.gif""style=""height:400px;""></stim_listA>","","html-keyboard-response","410","1480960","0.0-19.0-1.16","63197","List1A","black","woman","","","","null","","","",""
"null","is fighting","","html-keyboard-response","411","1482962","0.0-19.0-2.16","63197","List1A","black","woman","","","","null","","","",""
"9795","","","survey-text","412","1492758","0.0-19.0-3.16","63197","List1A","black","woman","","","","","{""Q0"":""mike is fighting dave""}","<img src=""stim_listA/fight5.gif""style=""height:400px;""></stim_listA>","is fighting",""
"null","<div style=""font-size:60px;"">+</div>","","html-keyboard-response","413","1493260","0.0-19.0-0.17","63197","List1A","black","woman","","","","null","","","",""
"null","<img src=""stim_listA/talk6.gif""style=""height:400px;""></stim_listA>","","html-keyboard-response","414","1495262","0.0-19.0-1.17","63197","List1A","black","woman","","","","null","","","",""
"null","are talking to each other","","html-keyboard-response","415","1497265","0.0-19.0-2.17","63197","List1A","black","woman","","","","null","","","",""
"14436","","","survey-text","416","1511703","0.0-19.0-3.17","63197","List1A","black","woman","","","","","{""Q0"":""Mike and Luke are talking to each other""}","<img src=""stim_listA/talk6.gif""style=""height:400px;""></stim_listA>","are talking to each other",""
"null","<div style=""font-size:60px;"">+</div>","","html-keyboard-response","417","1512206","0.0-19.0-0.18","63197","List1A","black","woman","","","","null","","","",""
"null","<img src=""stim_listA/marry4.gif""style=""height:400px;""></stim_listA>","","html-keyboard-response","418","1514208","0.0-19.0-1.18","63197","List1A","black","woman","","","","null","","","",""
"null","are marrying each other","","html-keyboard-response","419","1516211","0.0-19.0-2.18","63197","List1A","black","woman","","","","null","","","",""
"10786","","","survey-text","420","1526999","0.0-19.0-3.18","63197","List1A","black","woman","","","","","{""Q0"":""Luke and Jane are marrying each other""}","<img src=""stim_listA/marry4.gif""style=""height:400px;""></stim_listA>","are marrying each other",""
"null","<div style=""font-size:60px;"">+</div>","","html-keyboard-response","421","1527500","0.0-19.0-0.19","63197","List1A","black","woman","","","","null","","","",""
"null","<img src=""stim_listA/argue7.gif""style=""height:400px;""></stim_listA>","","html-keyboard-response","422","1529502","0.0-19.0-1.19","63197","List1A","black","woman","","","","null","","","",""
"null","is arguing with","","html-keyboard-response","423","1531504","0.0-19.0-2.19","63197","List1A","black","woman","","","","null","","","",""
"7717","","","survey-text","424","1539223","0.0-19.0-3.19","63197","List1A","black","woman","","","","","{""Q0"":""Kate is arguing with Ruth""}","<img src=""stim_listA/argue7.gif""style=""height:400px;""></stim_listA>","is arguing with",""
"2870","<p>Thank you for completing that task.</p><p>The final part of this session is a short questionnaire.</p><p>Press Continue.</p>","0","html-button-response","425","1542095","0.0-20.0","63197","List1A","black","woman","","","","","","","",""
"22277","","","survey-text","426","1565375","0.0-21.0","63197","List1A","black","woman","","","","","{""Q0"":""35"",""Q1"":""English"",""Q2"":""English"",""Q3"":""UK"",""Q4"":""Black British"",""Q5"":""Female""}","","","demographics"
"6390","","","survey-likert","427","1571767","0.0-22.0","63197","List1A","black","woman","","","","","{""Q0"":3}","","","likert_ESS"
"26858","","","survey-likert","428","1598639","0.0-23.0","63197","List1A","black","woman","","","","","{""Q0"":5}","","","likert_NSSAL_Q1"
"3979","","","survey-likert","429","1602631","0.0-24.0","63197","List1A","black","woman","","","","","{""Q0"":5}","","","likert_NSSAL_Q2"
"4226","","","survey-likert","430","1606871","0.0-25.0","63197","List1A","black","woman","","","","","{""Q0"":4}","","","likert_CGRS_Q1"
"4323","","","survey-likert","431","1611207","0.0-26.0","63197","List1A","black","woman","","","","","{""Q0"":4}","","","likert_CGRS_Q2"
"3883","","","survey-likert","432","1615103","0.0-27.0","63197","List1A","black","woman","","","","","{""Q0"":4}","","","likert_CGRS_Q3"
"8384","","","survey-text","433","1623503","0.0-28.0","63197","List1A","black","woman","","","","","{""Q0"":""5db901cd2197ad000f396cbe""}","","","worker_id"
"26826","","","external-html","434","1650568","0.0-29.0","63197","List1A","black","woman","debrief.html","","","","","","",""
