rt,stimulus,button_pressed,trial_type,trial_index,time_elapsed,internal_node_id,subject,list,ppt_race,ppt_gender,url,first_guess,correct,key_press,responses,image_type,phrase_type,test_part
25858,Welcome to the experiment. Press Continue to begin.,0,html-button-response,0,25861,0.0-0.0,63312,List2B,white,man,,,,,,,,
45167,,,external-html,1,72095,0.0-1.0,63312,List2B,white,man,consent.html,,,,,,,
13483,"<p>On the next page, you will see portraits of 8 people and their names.</p><p>Your first task is to take a few minutes to memorise the names of these people.</p><p>You will have to recall their names during the rest of the experiment, so it is</p><p>essential that you try to memorise these people and their names as best as you can.</p><br><p><strong>You will then be tested on your memory of these names and portraits.</strong></p><br><p>The experiment will start after you have completed this memory test.</p><br><p>Ready?</p>",0,html-button-response,2,85579,0.0-2.0,63312,List2B,white,man,,,,,,,,
250440,"<img src='img/portrait_matrix_list2.jpg' style='width:900px;height:500px;''></img><p>If you have memorised all the portraits and names and are ready to start, press Continue.</p><p><strong>Please note: Your memory of these faces will be tested 4 times during this experiment.</strong></p>",0,html-button-response,3,337024,0.0-3.0-0.0,63312,List2B,white,man,,,,,,,,
11362,"<img src=""portrait/BM2.jpg""style=""height:400px;""></img>",5,html-button-response,4,349388,0.0-3.0-1.0,63312,List2B,white,man,,TRUE,5,,,,,
null,CORRECT,,html-keyboard-response,5,350893,0.0-3.0-2.0-0.0,63312,List2B,white,man,,,,null,,,,
4369,"<img src=""portrait/BM1.jpg""style=""height:400px;""></img>",4,html-button-response,6,355264,0.0-3.0-4.0,63312,List2B,white,man,,TRUE,4,,,,,
null,CORRECT,,html-keyboard-response,7,356766,0.0-3.0-5.0-0.0,63312,List2B,white,man,,,,null,,,,
8158,"<img src=""portrait/BW1.jpg""style=""height:400px;""></img>",0,html-button-response,8,364926,0.0-3.0-7.0,63312,List2B,white,man,,TRUE,0,,,,,
null,CORRECT,,html-keyboard-response,9,366430,0.0-3.0-8.0-0.0,63312,List2B,white,man,,,,null,,,,
3464,"<img src=""portrait/WW1.jpg""style=""height:400px;""></img>",2,html-button-response,10,369896,0.0-3.0-10.0,63312,List2B,white,man,,TRUE,1,,,,,
4776,"<img src=""portrait/WW1.jpg""style=""height:400px;""></img>",1,html-button-response,11,375676,0.0-3.0-12.0-0.0,63312,List2B,white,man,,FALSE,1,,,,,
null,CORRECT,,html-keyboard-response,12,377178,0.0-3.0-12.0-1.0-0.0,63312,List2B,white,man,,,,null,,,,
8552,"<img src=""portrait/BW2.jpg""style=""height:400px;""></img>",2,html-button-response,13,385732,0.0-3.0-13.0,63312,List2B,white,man,,TRUE,2,,,,,
null,CORRECT,,html-keyboard-response,14,387236,0.0-3.0-14.0-0.0,63312,List2B,white,man,,,,null,,,,
7789,"<img src=""portrait/WM2.jpg""style=""height:400px;""></img>",7,html-button-response,15,395027,0.0-3.0-16.0,63312,List2B,white,man,,TRUE,7,,,,,
null,CORRECT,,html-keyboard-response,16,396532,0.0-3.0-17.0-0.0,63312,List2B,white,man,,,,null,,,,
4065,"<img src=""portrait/WM1.jpg""style=""height:400px;""></img>",6,html-button-response,17,400599,0.0-3.0-19.0,63312,List2B,white,man,,TRUE,6,,,,,
null,CORRECT,,html-keyboard-response,18,402102,0.0-3.0-20.0-0.0,63312,List2B,white,man,,,,null,,,,
5541,"<img src=""portrait/WW2.jpg""style=""height:400px;""></img>",3,html-button-response,19,407645,0.0-3.0-22.0,63312,List2B,white,man,,TRUE,3,,,,,
null,CORRECT,,html-keyboard-response,20,409149,0.0-3.0-23.0-0.0,63312,List2B,white,man,,,,null,,,,
5408,<p>You got 7 out of 8 right first time. Press Continue.</p>,0,html-button-response,21,414558,0.0-3.0-25.0,63312,List2B,white,man,,,,,,,,
2256,"As you did not score 100%, the memory game will repeat. Press Continue.",0,html-button-response,22,417816,0.0-3.0-26.0-0.0,63312,List2B,white,man,,,,,,,,
28828,"<img src='img/portrait_matrix_list2.jpg' style='width:900px;height:500px;''></img><p>If you have memorised all the portraits and names and are ready to start, press Continue.</p><p><strong>Please note: Your memory of these faces will be tested 4 times during this experiment.</strong></p>",0,html-button-response,23,447647,0.0-3.1-0.1,63312,List2B,white,man,,,,,,,,
5122,"<img src=""portrait/BM2.jpg""style=""height:400px;""></img>",5,html-button-response,24,453771,0.0-3.1-1.1,63312,List2B,white,man,,TRUE,5,,,,,
null,CORRECT,,html-keyboard-response,25,455273,0.0-3.1-2.1-0.1,63312,List2B,white,man,,,,null,,,,
12218,"<img src=""portrait/BM1.jpg""style=""height:400px;""></img>",4,html-button-response,26,467493,0.0-3.1-4.1,63312,List2B,white,man,,TRUE,4,,,,,
null,CORRECT,,html-keyboard-response,27,468996,0.0-3.1-5.1-0.1,63312,List2B,white,man,,,,null,,,,
5313,"<img src=""portrait/BW1.jpg""style=""height:400px;""></img>",0,html-button-response,28,474311,0.0-3.1-7.1,63312,List2B,white,man,,TRUE,0,,,,,
null,CORRECT,,html-keyboard-response,29,475813,0.0-3.1-8.1-0.1,63312,List2B,white,man,,,,null,,,,
5646,"<img src=""portrait/WW1.jpg""style=""height:400px;""></img>",1,html-button-response,30,481461,0.0-3.1-10.1,63312,List2B,white,man,,TRUE,1,,,,,
null,CORRECT,,html-keyboard-response,31,482964,0.0-3.1-11.1-0.1,63312,List2B,white,man,,,,null,,,,
26162,"<img src=""portrait/BW2.jpg""style=""height:400px;""></img>",2,html-button-response,32,509128,0.0-3.1-13.1,63312,List2B,white,man,,TRUE,2,,,,,
null,CORRECT,,html-keyboard-response,33,510630,0.0-3.1-14.1-0.1,63312,List2B,white,man,,,,null,,,,
8504,"<img src=""portrait/WM2.jpg""style=""height:400px;""></img>",7,html-button-response,34,519135,0.0-3.1-16.1,63312,List2B,white,man,,TRUE,7,,,,,
null,CORRECT,,html-keyboard-response,35,520639,0.0-3.1-17.1-0.1,63312,List2B,white,man,,,,null,,,,
4564,"<img src=""portrait/WM1.jpg""style=""height:400px;""></img>",6,html-button-response,36,525205,0.0-3.1-19.1,63312,List2B,white,man,,TRUE,6,,,,,
null,CORRECT,,html-keyboard-response,37,526708,0.0-3.1-20.1-0.1,63312,List2B,white,man,,,,null,,,,
3731,"<img src=""portrait/WW2.jpg""style=""height:400px;""></img>",3,html-button-response,38,530441,0.0-3.1-22.1,63312,List2B,white,man,,TRUE,3,,,,,
null,CORRECT,,html-keyboard-response,39,531943,0.0-3.1-23.1-0.1,63312,List2B,white,man,,,,null,,,,
26669,<p>You got 8 out of 8 right first time. Press Continue.</p>,0,html-button-response,40,558613,0.0-3.1-25.1,63312,List2B,white,man,,,,,,,,
30740,"<p>In this experiment, you will view photographs of the people from the memory game interacting.</p><p>By using the <strong>exact</strong> phrase given <i>after</i> the photograph appears and recalling the correct names of the people in the photographs, form a sentence describing the interaction. You do not need to capitalise names.</p><p>Type your answer in the space provided. Please complete every sentence before moving onto the next trial.</p><p>You will only have a few seconds to memorise each given photograph and phrase before you can respond, so try your best to focus.</p><p>An example is given below. Press 'Continue' when you are ready.</p><img src='img/speaking_example.jpg' style='width:800px;height:460px;''></img>",0,html-button-response,41,590357,0.0-4.0,63312,List2B,white,man,,,,,,,,
2177,"<p>Before the experiment starts, you will watch two example trials. Press 'Continue'.</p>",0,html-button-response,42,593536,0.0-5.0,63312,List2B,white,man,,,,,,,,
null,<img src='img/meet_eg.gif' style='height:400px;''></img>,,html-keyboard-response,43,596540,0.0-6.0,63312,List2B,white,man,,,,null,,,,
null,<p>is meeting</p>,,html-keyboard-response,44,598542,0.0-7.0,63312,List2B,white,man,,,,null,,,,
5046,<p><b>Answer:</b> jane is meeting ruth</p>,0,html-button-response,45,603590,0.0-8.0,63312,List2B,white,man,,,,,,,,
null,<img src='img/look_eg.gif' style='height:400px;''></img>,,html-keyboard-response,46,606592,0.0-9.0,63312,List2B,white,man,,,,null,,,,
null,<p>are looking at each other</p>,,html-keyboard-response,47,608593,0.0-10.0,63312,List2B,white,man,,,,null,,,,
7993,<p><b>Answer:</b> fred and mike are looking at each other</p>,0,html-button-response,48,616587,0.0-11.0,63312,List2B,white,man,,,,,,,,
6530,"<p>Ready to start the experiment?</p><br><p><strong>Remember to describe the picture using a full sentence,</strong></p><p><strong>that combines the names of the people with the <i>exact</i> phrase given.</strong></p><p><strong>To receive full payment you must do this correctly.</strong></p><p><strong> You do not need to capitalise names or use punctuation.</strong></p><br><p>Press 'Continue' to begin.</p>",0,html-button-response,49,624119,0.0-12.0,63312,List2B,white,man,,,,,,,,
null,"<div style=""font-size:60px;"">+</div>",,html-keyboard-response,50,625621,0.0-13.0-0.0,63312,List2B,white,man,,,,null,,,,
null,"<img src=""stim_listB/talk8.gif""style=""height:400px;""></stim_listB>",,html-keyboard-response,51,627623,0.0-13.0-1.0,63312,List2B,white,man,,,,null,,,,
null,are talking to each other,,html-keyboard-response,52,629624,0.0-13.0-2.0,63312,List2B,white,man,,,,null,,,,
13025,,,survey-text,53,642651,0.0-13.0-3.0,63312,List2B,white,man,,,,,"{""Q0"":""beth and jane are talking to each other""}","<img src=""stim_listB/talk8.gif""style=""height:400px;""></stim_listB>",are talking to each other,
null,"<div style=""font-size:60px;"">+</div>",,html-keyboard-response,54,643153,0.0-13.0-0.1,63312,List2B,white,man,,,,null,,,,
null,"<img src=""stim_listB/touch6.gif""style=""height:400px;""></stim_listB>",,html-keyboard-response,55,645155,0.0-13.0-1.1,63312,List2B,white,man,,,,null,,,,
null,are touching each other,,html-keyboard-response,56,647157,0.0-13.0-2.1,63312,List2B,white,man,,,,null,,,,
43107,,,survey-text,57,690266,0.0-13.0-3.1,63312,List2B,white,man,,,,,"{""Q0"":""fred and like are touching each other""}","<img src=""stim_listB/touch6.gif""style=""height:400px;""></stim_listB>",are touching each other,
null,"<div style=""font-size:60px;"">+</div>",,html-keyboard-response,58,690767,0.0-13.0-0.2,63312,List2B,white,man,,,,null,,,,
null,"<img src=""stim_listB/marry6.gif""style=""height:400px;""></stim_listB>",,html-keyboard-response,59,692770,0.0-13.0-1.2,63312,List2B,white,man,,,,null,,,,
null,are marrying each other,,html-keyboard-response,60,694772,0.0-13.0-2.2,63312,List2B,white,man,,,,null,,,,
6061,,,survey-text,61,700834,0.0-13.0-3.2,63312,List2B,white,man,,,,,"{""Q0"":""""}","<img src=""stim_listB/marry6.gif""style=""height:400px;""></stim_listB>",are marrying each other,
null,"<div style=""font-size:60px;"">+</div>",,html-keyboard-response,62,701336,0.0-13.0-0.3,63312,List2B,white,man,,,,null,,,,
null,"<img src=""stim_listB/talk4.gif""style=""height:400px;""></stim_listB>",,html-keyboard-response,63,703337,0.0-13.0-1.3,63312,List2B,white,man,,,,null,,,,
null,are talking to each other,,html-keyboard-response,64,705338,0.0-13.0-2.3,63312,List2B,white,man,,,,null,,,,
13199,,,survey-text,65,718538,0.0-13.0-3.3,63312,List2B,white,man,,,,,"{""Q0"":""ruth and mike are talking  to each other""}","<img src=""stim_listB/talk4.gif""style=""height:400px;""></stim_listB>",are talking to each other,
null,"<div style=""font-size:60px;"">+</div>",,html-keyboard-response,66,719040,0.0-13.0-0.4,63312,List2B,white,man,,,,null,,,,
null,"<img src=""stim_listB/argue8.gif""style=""height:400px;""></stim_listB>",,html-keyboard-response,67,721042,0.0-13.0-1.4,63312,List2B,white,man,,,,null,,,,
null,are arguing with each other,,html-keyboard-response,68,723043,0.0-13.0-2.4,63312,List2B,white,man,,,,null,,,,
17787,,,survey-text,69,740831,0.0-13.0-3.4,63312,List2B,white,man,,,,,"{""Q0"":""ruth and kate are arguing with each other""}","<img src=""stim_listB/argue8.gif""style=""height:400px;""></stim_listB>",are arguing with each other,
null,"<div style=""font-size:60px;"">+</div>",,html-keyboard-response,70,741334,0.0-13.0-0.5,63312,List2B,white,man,,,,null,,,,
null,"<img src=""stim_listB/marry8.gif""style=""height:400px;""></stim_listB>",,html-keyboard-response,71,743337,0.0-13.0-1.5,63312,List2B,white,man,,,,null,,,,
null,are marrying each other,,html-keyboard-response,72,745338,0.0-13.0-2.5,63312,List2B,white,man,,,,null,,,,
23087,,,survey-text,73,768426,0.0-13.0-3.5,63312,List2B,white,man,,,,,"{""Q0"":""ruth and kate are marrying each other""}","<img src=""stim_listB/marry8.gif""style=""height:400px;""></stim_listB>",are marrying each other,
null,"<div style=""font-size:60px;"">+</div>",,html-keyboard-response,74,768927,0.0-13.0-0.6,63312,List2B,white,man,,,,null,,,,
null,"<img src=""stim_listB/talk6.gif""style=""height:400px;""></stim_listB>",,html-keyboard-response,75,770931,0.0-13.0-1.6,63312,List2B,white,man,,,,null,,,,
null,are talking to each other,,html-keyboard-response,76,772933,0.0-13.0-2.6,63312,List2B,white,man,,,,null,,,,
19138,,,survey-text,77,792072,0.0-13.0-3.6,63312,List2B,white,man,,,,,"{""Q0"":""dave and fred are arguing with each other""}","<img src=""stim_listB/talk6.gif""style=""height:400px;""></stim_listB>",are talking to each other,
null,"<div style=""font-size:60px;"">+</div>",,html-keyboard-response,78,792574,0.0-13.0-0.7,63312,List2B,white,man,,,,null,,,,
null,"<img src=""stim_listB/play3.gif""style=""height:400px;""></stim_listB>",,html-keyboard-response,79,794576,0.0-13.0-1.7,63312,List2B,white,man,,,,null,,,,
null,is playing with,,html-keyboard-response,80,796577,0.0-13.0-2.7,63312,List2B,white,man,,,,null,,,,
15346,,,survey-text,81,811923,0.0-13.0-3.7,63312,List2B,white,man,,,,,"{""Q0"":""ruth is playing with mike""}","<img src=""stim_listB/play3.gif""style=""height:400px;""></stim_listB>",is playing with,
null,"<div style=""font-size:60px;"">+</div>",,html-keyboard-response,82,812425,0.0-13.0-0.8,63312,List2B,white,man,,,,null,,,,
null,"<img src=""stim_listB/talk7.gif""style=""height:400px;""></stim_listB>",,html-keyboard-response,83,814427,0.0-13.0-1.8,63312,List2B,white,man,,,,null,,,,
null,is talking to,,html-keyboard-response,84,816428,0.0-13.0-2.8,63312,List2B,white,man,,,,null,,,,
10095,,,survey-text,85,826525,0.0-13.0-3.8,63312,List2B,white,man,,,,,"{""Q0"":""ruth is talking to kate""}","<img src=""stim_listB/talk7.gif""style=""height:400px;""></stim_listB>",is talking to,
null,"<div style=""font-size:60px;"">+</div>",,html-keyboard-response,86,827026,0.0-13.0-0.9,63312,List2B,white,man,,,,null,,,,
null,"<img src=""stim_listB/shout6.gif""style=""height:400px;""></stim_listB>",,html-keyboard-response,87,829028,0.0-13.0-1.9,63312,List2B,white,man,,,,null,,,,
null,are shouting at each other,,html-keyboard-response,88,831029,0.0-13.0-2.9,63312,List2B,white,man,,,,null,,,,
14937,,,survey-text,89,845967,0.0-13.0-3.9,63312,List2B,white,man,,,,,"{""Q0"":""mike and dave are shouting at each other""}","<img src=""stim_listB/shout6.gif""style=""height:400px;""></stim_listB>",are shouting at each other,
null,"<div style=""font-size:60px;"">+</div>",,html-keyboard-response,90,846470,0.0-13.0-0.10,63312,List2B,white,man,,,,null,,,,
null,"<img src=""stim_listB/flirt2.gif""style=""height:400px;""></stim_listB>",,html-keyboard-response,91,848474,0.0-13.0-1.10,63312,List2B,white,man,,,,null,,,,
null,are flirting with each other,,html-keyboard-response,92,850475,0.0-13.0-2.10,63312,List2B,white,man,,,,null,,,,
16264,,,survey-text,93,866741,0.0-13.0-3.10,63312,List2B,white,man,,,,,"{""Q0"":""ruth and dave are flirting with each other""}","<img src=""stim_listB/flirt2.gif""style=""height:400px;""></stim_listB>",are flirting with each other,
null,"<div style=""font-size:60px;"">+</div>",,html-keyboard-response,94,867242,0.0-13.0-0.11,63312,List2B,white,man,,,,null,,,,
null,"<img src=""stim_listB/argue5.gif""style=""height:400px;""></stim_listB>",,html-keyboard-response,95,869243,0.0-13.0-1.11,63312,List2B,white,man,,,,null,,,,
null,is arguing with,,html-keyboard-response,96,871244,0.0-13.0-2.11,63312,List2B,white,man,,,,null,,,,
14838,,,survey-text,97,886084,0.0-13.0-3.11,63312,List2B,white,man,,,,,"{""Q0"":""fred is arguing with dave""}","<img src=""stim_listB/argue5.gif""style=""height:400px;""></stim_listB>",is arguing with,
null,"<div style=""font-size:60px;"">+</div>",,html-keyboard-response,98,886585,0.0-13.0-0.12,63312,List2B,white,man,,,,null,,,,
null,"<img src=""stim_listB/touch1.gif""style=""height:400px;""></stim_listB>",,html-keyboard-response,99,888587,0.0-13.0-1.12,63312,List2B,white,man,,,,null,,,,
null,is touching,,html-keyboard-response,100,890589,0.0-13.0-2.12,63312,List2B,white,man,,,,null,,,,
12519,,,survey-text,101,903108,0.0-13.0-3.12,63312,List2B,white,man,,,,,"{""Q0"":""dave is touching jane""}","<img src=""stim_listB/touch1.gif""style=""height:400px;""></stim_listB>",is touching,
null,"<div style=""font-size:60px;"">+</div>",,html-keyboard-response,102,903610,0.0-13.0-0.13,63312,List2B,white,man,,,,null,,,,
null,"<img src=""stim_listB/talk1.gif""style=""height:400px;""></stim_listB>",,html-keyboard-response,103,905611,0.0-13.0-1.13,63312,List2B,white,man,,,,null,,,,
null,is talking to,,html-keyboard-response,104,907615,0.0-13.0-2.13,63312,List2B,white,man,,,,null,,,,
16575,,,survey-text,105,924192,0.0-13.0-3.13,63312,List2B,white,man,,,,,"{""Q0"":""luke is talking to jane""}","<img src=""stim_listB/talk1.gif""style=""height:400px;""></stim_listB>",is talking to,
null,"<div style=""font-size:60px;"">+</div>",,html-keyboard-response,106,924693,0.0-13.0-0.14,63312,List2B,white,man,,,,null,,,,
null,"<img src=""stim_listB/marry1.gif""style=""height:400px;""></stim_listB>",,html-keyboard-response,107,926696,0.0-13.0-1.14,63312,List2B,white,man,,,,null,,,,
null,is marrying,,html-keyboard-response,108,928697,0.0-13.0-2.14,63312,List2B,white,man,,,,null,,,,
10557,,,survey-text,109,939255,0.0-13.0-3.14,63312,List2B,white,man,,,,,"{""Q0"":""ruth is marrying dave""}","<img src=""stim_listB/marry1.gif""style=""height:400px;""></stim_listB>",is marrying,
null,"<div style=""font-size:60px;"">+</div>",,html-keyboard-response,110,939757,0.0-13.0-0.15,63312,List2B,white,man,,,,null,,,,
null,"<img src=""stim_listB/argue6.gif""style=""height:400px;""></stim_listB>",,html-keyboard-response,111,941760,0.0-13.0-1.15,63312,List2B,white,man,,,,null,,,,
null,are arguing with each other,,html-keyboard-response,112,943762,0.0-13.0-2.15,63312,List2B,white,man,,,,null,,,,
11803,,,survey-text,113,955567,0.0-13.0-3.15,63312,List2B,white,man,,,,,"{""Q0"":""luke is arguing with mike""}","<img src=""stim_listB/argue6.gif""style=""height:400px;""></stim_listB>",are arguing with each other,
null,"<div style=""font-size:60px;"">+</div>",,html-keyboard-response,114,956068,0.0-13.0-0.16,63312,List2B,white,man,,,,null,,,,
null,"<img src=""stim_listB/play7.gif""style=""height:400px;""></stim_listB>",,html-keyboard-response,115,958070,0.0-13.0-1.16,63312,List2B,white,man,,,,null,,,,
null,is playing with,,html-keyboard-response,116,960071,0.0-13.0-2.16,63312,List2B,white,man,,,,null,,,,
11330,,,survey-text,117,971402,0.0-13.0-3.16,63312,List2B,white,man,,,,,"{""Q0"":""kate is playing with jane""}","<img src=""stim_listB/play7.gif""style=""height:400px;""></stim_listB>",is playing with,
null,"<div style=""font-size:60px;"">+</div>",,html-keyboard-response,118,971905,0.0-13.0-0.17,63312,List2B,white,man,,,,null,,,,
null,"<img src=""stim_listB/dance5.gif""style=""height:400px;""></stim_listB>",,html-keyboard-response,119,973907,0.0-13.0-1.17,63312,List2B,white,man,,,,null,,,,
null,is dancing with,,html-keyboard-response,120,975908,0.0-13.0-2.17,63312,List2B,white,man,,,,null,,,,
15500,,,survey-text,121,991409,0.0-13.0-3.17,63312,List2B,white,man,,,,,"{""Q0"":""luke is dancing with mike""}","<img src=""stim_listB/dance5.gif""style=""height:400px;""></stim_listB>",is dancing with,
null,"<div style=""font-size:60px;"">+</div>",,html-keyboard-response,122,991911,0.0-13.0-0.18,63312,List2B,white,man,,,,null,,,,
null,"<img src=""stim_listB/argue2.gif""style=""height:400px;""></stim_listB>",,html-keyboard-response,123,993914,0.0-13.0-1.18,63312,List2B,white,man,,,,null,,,,
null,are arguing with each other,,html-keyboard-response,124,995916,0.0-13.0-2.18,63312,List2B,white,man,,,,null,,,,
31169,,,survey-text,125,1027086,0.0-13.0-3.18,63312,List2B,white,man,,,,,"{""Q0"":""jane and luke are arguing with each other""}","<img src=""stim_listB/argue2.gif""style=""height:400px;""></stim_listB>",are arguing with each other,
null,"<div style=""font-size:60px;"">+</div>",,html-keyboard-response,126,1027587,0.0-13.0-0.19,63312,List2B,white,man,,,,null,,,,
null,"<img src=""stim_listB/shout5.gif""style=""height:400px;""></stim_listB>",,html-keyboard-response,127,1029590,0.0-13.0-1.19,63312,List2B,white,man,,,,null,,,,
null,is shouting at,,html-keyboard-response,128,1031592,0.0-13.0-2.19,63312,List2B,white,man,,,,null,,,,
11031,,,survey-text,129,1042625,0.0-13.0-3.19,63312,List2B,white,man,,,,,"{""Q0"":""fred is shouting at luke""}","<img src=""stim_listB/shout5.gif""style=""height:400px;""></stim_listB>",is shouting at,
23341,"<img src='img/portrait_matrix_list2.jpg' style='width:900px;height:500px;''></img><p>If you have memorised all the portraits and names and are ready to start, press Continue.</p><p><strong>Please note: Your memory of these faces will be tested 4 times during this experiment.</strong></p>",0,html-button-response,130,1065968,0.0-14.0-0.0,63312,List2B,white,man,,,,,,,,
4059,"<img src=""portrait/WW2.jpg""style=""height:400px;""></img>",3,html-button-response,131,1071030,0.0-14.0-1.0,63312,List2B,white,man,,TRUE,3,,,,,
null,CORRECT,,html-keyboard-response,132,1072532,0.0-14.0-2.0-0.0,63312,List2B,white,man,,,,null,,,,
10199,"<img src=""portrait/WW1.jpg""style=""height:400px;""></img>",1,html-button-response,133,1082733,0.0-14.0-4.0,63312,List2B,white,man,,TRUE,1,,,,,
null,CORRECT,,html-keyboard-response,134,1084235,0.0-14.0-5.0-0.0,63312,List2B,white,man,,,,null,,,,
5951,"<img src=""portrait/BM2.jpg""style=""height:400px;""></img>",5,html-button-response,135,1090188,0.0-14.0-7.0,63312,List2B,white,man,,TRUE,5,,,,,
null,CORRECT,,html-keyboard-response,136,1091690,0.0-14.0-8.0-0.0,63312,List2B,white,man,,,,null,,,,
3332,"<img src=""portrait/WM2.jpg""style=""height:400px;""></img>",7,html-button-response,137,1095024,0.0-14.0-10.0,63312,List2B,white,man,,TRUE,7,,,,,
null,CORRECT,,html-keyboard-response,138,1096526,0.0-14.0-11.0-0.0,63312,List2B,white,man,,,,null,,,,
3004,"<img src=""portrait/BM1.jpg""style=""height:400px;""></img>",4,html-button-response,139,1099532,0.0-14.0-13.0,63312,List2B,white,man,,TRUE,4,,,,,
null,CORRECT,,html-keyboard-response,140,1101035,0.0-14.0-14.0-0.0,63312,List2B,white,man,,,,null,,,,
3197,"<img src=""portrait/WM1.jpg""style=""height:400px;""></img>",6,html-button-response,141,1104233,0.0-14.0-16.0,63312,List2B,white,man,,TRUE,6,,,,,
null,CORRECT,,html-keyboard-response,142,1105737,0.0-14.0-17.0-0.0,63312,List2B,white,man,,,,null,,,,
3870,"<img src=""portrait/BW1.jpg""style=""height:400px;""></img>",0,html-button-response,143,1109609,0.0-14.0-19.0,63312,List2B,white,man,,TRUE,0,,,,,
null,CORRECT,,html-keyboard-response,144,1111112,0.0-14.0-20.0-0.0,63312,List2B,white,man,,,,null,,,,
9808,"<img src=""portrait/BW2.jpg""style=""height:400px;""></img>",2,html-button-response,145,1120920,0.0-14.0-22.0,63312,List2B,white,man,,TRUE,2,,,,,
null,CORRECT,,html-keyboard-response,146,1122424,0.0-14.0-23.0-0.0,63312,List2B,white,man,,,,null,,,,
2533,<p>You got 8 out of 8 right first time. Press Continue.</p>,0,html-button-response,147,1124959,0.0-14.0-25.0,63312,List2B,white,man,,,,,,,,
null,"<div style=""font-size:60px;"">+</div>",,html-keyboard-response,148,1126461,0.0-15.0-0.0,63312,List2B,white,man,,,,null,,,,
null,"<img src=""stim_listB/touch5.gif""style=""height:400px;""></stim_listB>",,html-keyboard-response,149,1128464,0.0-15.0-1.0,63312,List2B,white,man,,,,null,,,,
null,is touching,,html-keyboard-response,150,1130467,0.0-15.0-2.0,63312,List2B,white,man,,,,null,,,,
11006,,,survey-text,151,1141475,0.0-15.0-3.0,63312,List2B,white,man,,,,,"{""Q0"":""dave is touching mike""}","<img src=""stim_listB/touch5.gif""style=""height:400px;""></stim_listB>",is touching,
null,"<div style=""font-size:60px;"">+</div>",,html-keyboard-response,152,1141976,0.0-15.0-0.1,63312,List2B,white,man,,,,null,,,,
null,"<img src=""stim_listB/kiss6.gif""style=""height:400px;""></stim_listB>",,html-keyboard-response,153,1143978,0.0-15.0-1.1,63312,List2B,white,man,,,,null,,,,
null,are kissing each other,,html-keyboard-response,154,1145980,0.0-15.0-2.1,63312,List2B,white,man,,,,null,,,,
13237,,,survey-text,155,1159217,0.0-15.0-3.1,63312,List2B,white,man,,,,,"{""Q0"":""dave and mike are kissing each other""}","<img src=""stim_listB/kiss6.gif""style=""height:400px;""></stim_listB>",are kissing each other,
null,"<div style=""font-size:60px;"">+</div>",,html-keyboard-response,156,1159718,0.0-15.0-0.2,63312,List2B,white,man,,,,null,,,,
null,"<img src=""stim_listB/dance6.gif""style=""height:400px;""></stim_listB>",,html-keyboard-response,157,1161721,0.0-15.0-1.2,63312,List2B,white,man,,,,null,,,,
null,are dancing with each other,,html-keyboard-response,158,1163722,0.0-15.0-2.2,63312,List2B,white,man,,,,null,,,,
16257,,,survey-text,159,1179981,0.0-15.0-3.2,63312,List2B,white,man,,,,,"{""Q0"":""dave abd fred are dancing with each other""}","<img src=""stim_listB/dance6.gif""style=""height:400px;""></stim_listB>",are dancing with each other,
null,"<div style=""font-size:60px;"">+</div>",,html-keyboard-response,160,1180482,0.0-15.0-0.3,63312,List2B,white,man,,,,null,,,,
null,"<img src=""stim_listB/shout4.gif""style=""height:400px;""></stim_listB>",,html-keyboard-response,161,1182483,0.0-15.0-1.3,63312,List2B,white,man,,,,null,,,,
null,are shouting at each other,,html-keyboard-response,162,1184486,0.0-15.0-2.3,63312,List2B,white,man,,,,null,,,,
15401,,,survey-text,163,1199888,0.0-15.0-3.3,63312,List2B,white,man,,,,,"{""Q0"":""mike and kate are shouting at each other""}","<img src=""stim_listB/shout4.gif""style=""height:400px;""></stim_listB>",are shouting at each other,
null,"<div style=""font-size:60px;"">+</div>",,html-keyboard-response,164,1200390,0.0-15.0-0.4,63312,List2B,white,man,,,,null,,,,
null,"<img src=""stim_listB/marry7.gif""style=""height:400px;""></stim_listB>",,html-keyboard-response,165,1202393,0.0-15.0-1.4,63312,List2B,white,man,,,,null,,,,
null,is marrying,,html-keyboard-response,166,1204394,0.0-15.0-2.4,63312,List2B,white,man,,,,null,,,,
13507,,,survey-text,167,1217902,0.0-15.0-3.4,63312,List2B,white,man,,,,,"{""Q0"":""beth is marrying jane""}","<img src=""stim_listB/marry7.gif""style=""height:400px;""></stim_listB>",is marrying,
null,"<div style=""font-size:60px;"">+</div>",,html-keyboard-response,168,1218404,0.0-15.0-0.5,63312,List2B,white,man,,,,null,,,,
null,"<img src=""stim_listB/play8.gif""style=""height:400px;""></stim_listB>",,html-keyboard-response,169,1220406,0.0-15.0-1.5,63312,List2B,white,man,,,,null,,,,
null,are playing with each other,,html-keyboard-response,170,1222408,0.0-15.0-2.5,63312,List2B,white,man,,,,null,,,,
13509,,,survey-text,171,1235917,0.0-15.0-3.5,63312,List2B,white,man,,,,,"{""Q0"":""beth is playing with ruth""}","<img src=""stim_listB/play8.gif""style=""height:400px;""></stim_listB>",are playing with each other,
null,"<div style=""font-size:60px;"">+</div>",,html-keyboard-response,172,1236419,0.0-15.0-0.6,63312,List2B,white,man,,,,null,,,,
null,"<img src=""stim_listB/fight4.gif""style=""height:400px;""></stim_listB>",,html-keyboard-response,173,1238421,0.0-15.0-1.6,63312,List2B,white,man,,,,null,,,,
null,are fighting each other,,html-keyboard-response,174,1240423,0.0-15.0-2.6,63312,List2B,white,man,,,,null,,,,
21200,,,survey-text,175,1261625,0.0-15.0-3.6,63312,List2B,white,man,,,,,"{""Q0"":""beth and fred are fighting each other""}","<img src=""stim_listB/fight4.gif""style=""height:400px;""></stim_listB>",are fighting each other,
null,"<div style=""font-size:60px;"">+</div>",,html-keyboard-response,176,1262127,0.0-15.0-0.7,63312,List2B,white,man,,,,null,,,,
null,"<img src=""stim_listB/talk3.gif""style=""height:400px;""></stim_listB>",,html-keyboard-response,177,1264129,0.0-15.0-1.7,63312,List2B,white,man,,,,null,,,,
null,is talking to,,html-keyboard-response,178,1266131,0.0-15.0-2.7,63312,List2B,white,man,,,,null,,,,
21617,,,survey-text,179,1287750,0.0-15.0-3.7,63312,List2B,white,man,,,,,"{""Q0"":""kate is talking to beth""}","<img src=""stim_listB/talk3.gif""style=""height:400px;""></stim_listB>",is talking to,
null,"<div style=""font-size:60px;"">+</div>",,html-keyboard-response,180,1288252,0.0-15.0-0.8,63312,List2B,white,man,,,,null,,,,
null,"<img src=""stim_listB/flirt4.gif""style=""height:400px;""></stim_listB>",,html-keyboard-response,181,1290254,0.0-15.0-1.8,63312,List2B,white,man,,,,null,,,,
null,are flirting with each other,,html-keyboard-response,182,1292255,0.0-15.0-2.8,63312,List2B,white,man,,,,null,,,,
16514,,,survey-text,183,1308771,0.0-15.0-3.8,63312,List2B,white,man,,,,,"{""Q0"":""beth and mike are flirting with each other""}","<img src=""stim_listB/flirt4.gif""style=""height:400px;""></stim_listB>",are flirting with each other,
null,"<div style=""font-size:60px;"">+</div>",,html-keyboard-response,184,1309273,0.0-15.0-0.9,63312,List2B,white,man,,,,null,,,,
null,"<img src=""stim_listB/flirt8.gif""style=""height:400px;""></stim_listB>",,html-keyboard-response,185,1311276,0.0-15.0-1.9,63312,List2B,white,man,,,,null,,,,
null,are flirting with each other,,html-keyboard-response,186,1313277,0.0-15.0-2.9,63312,List2B,white,man,,,,null,,,,
17254,,,survey-text,187,1330532,0.0-15.0-3.9,63312,List2B,white,man,,,,,"{""Q0"":""beth and jane are flirting with each other""}","<img src=""stim_listB/flirt8.gif""style=""height:400px;""></stim_listB>",are flirting with each other,
null,"<div style=""font-size:60px;"">+</div>",,html-keyboard-response,188,1331033,0.0-15.0-0.10,63312,List2B,white,man,,,,null,,,,
null,"<img src=""stim_listB/shout3.gif""style=""height:400px;""></stim_listB>",,html-keyboard-response,189,1333035,0.0-15.0-1.10,63312,List2B,white,man,,,,null,,,,
null,is shouting at,,html-keyboard-response,190,1335037,0.0-15.0-2.10,63312,List2B,white,man,,,,null,,,,
7313,,,survey-text,191,1342351,0.0-15.0-3.10,63312,List2B,white,man,,,,,"{""Q0"":""beth is shouting at fred""}","<img src=""stim_listB/shout3.gif""style=""height:400px;""></stim_listB>",is shouting at,
null,"<div style=""font-size:60px;"">+</div>",,html-keyboard-response,192,1342853,0.0-15.0-0.11,63312,List2B,white,man,,,,null,,,,
null,"<img src=""stim_listB/fight7.gif""style=""height:400px;""></stim_listB>",,html-keyboard-response,193,1344855,0.0-15.0-1.11,63312,List2B,white,man,,,,null,,,,
null,is fighting,,html-keyboard-response,194,1346857,0.0-15.0-2.11,63312,List2B,white,man,,,,null,,,,
12914,,,survey-text,195,1359773,0.0-15.0-3.11,63312,List2B,white,man,,,,,"{""Q0"":""jane is fighting kate""}","<img src=""stim_listB/fight7.gif""style=""height:400px;""></stim_listB>",is fighting,
null,"<div style=""font-size:60px;"">+</div>",,html-keyboard-response,196,1360274,0.0-15.0-0.12,63312,List2B,white,man,,,,null,,,,
null,"<img src=""stim_listB/kiss4.gif""style=""height:400px;""></stim_listB>",,html-keyboard-response,197,1362276,0.0-15.0-1.12,63312,List2B,white,man,,,,null,,,,
null,are kissing each other,,html-keyboard-response,198,1364279,0.0-15.0-2.12,63312,List2B,white,man,,,,null,,,,
8592,,,survey-text,199,1372873,0.0-15.0-3.12,63312,List2B,white,man,,,,,"{""Q0"":""mike is kissing kate""}","<img src=""stim_listB/kiss4.gif""style=""height:400px;""></stim_listB>",are kissing each other,
null,"<div style=""font-size:60px;"">+</div>",,html-keyboard-response,200,1373375,0.0-15.0-0.13,63312,List2B,white,man,,,,null,,,,
null,"<img src=""stim_listB/dance1.gif""style=""height:400px;""></stim_listB>",,html-keyboard-response,201,1375377,0.0-15.0-1.13,63312,List2B,white,man,,,,null,,,,
null,is dancing with,,html-keyboard-response,202,1377379,0.0-15.0-2.13,63312,List2B,white,man,,,,null,,,,
13470,,,survey-text,203,1390851,0.0-15.0-3.13,63312,List2B,white,man,,,,,"{""Q0"":""luke is dancing with jane""}","<img src=""stim_listB/dance1.gif""style=""height:400px;""></stim_listB>",is dancing with,
null,"<div style=""font-size:60px;"">+</div>",,html-keyboard-response,204,1391352,0.0-15.0-0.14,63312,List2B,white,man,,,,null,,,,
null,"<img src=""stim_listB/touch3.gif""style=""height:400px;""></stim_listB>",,html-keyboard-response,205,1393355,0.0-15.0-1.14,63312,List2B,white,man,,,,null,,,,
null,is touching,,html-keyboard-response,206,1395357,0.0-15.0-2.14,63312,List2B,white,man,,,,null,,,,
8203,,,survey-text,207,1403562,0.0-15.0-3.14,63312,List2B,white,man,,,,,"{""Q0"":""mike is touching kate""}","<img src=""stim_listB/touch3.gif""style=""height:400px;""></stim_listB>",is touching,
null,"<div style=""font-size:60px;"">+</div>",,html-keyboard-response,208,1404063,0.0-15.0-0.15,63312,List2B,white,man,,,,null,,,,
null,"<img src=""stim_listB/fight6.gif""style=""height:400px;""></stim_listB>",,html-keyboard-response,209,1406065,0.0-15.0-1.15,63312,List2B,white,man,,,,null,,,,
null,are fighting each other,,html-keyboard-response,210,1408066,0.0-15.0-2.15,63312,List2B,white,man,,,,null,,,,
15632,,,survey-text,211,1423699,0.0-15.0-3.15,63312,List2B,white,man,,,,,"{""Q0"":""luke and fred are fighting each other""}","<img src=""stim_listB/fight6.gif""style=""height:400px;""></stim_listB>",are fighting each other,
null,"<div style=""font-size:60px;"">+</div>",,html-keyboard-response,212,1424200,0.0-15.0-0.16,63312,List2B,white,man,,,,null,,,,
null,"<img src=""stim_listB/kiss5.gif""style=""height:400px;""></stim_listB>",,html-keyboard-response,213,1426202,0.0-15.0-1.16,63312,List2B,white,man,,,,null,,,,
null,is kissing,,html-keyboard-response,214,1428203,0.0-15.0-2.16,63312,List2B,white,man,,,,null,,,,
7940,,,survey-text,215,1436145,0.0-15.0-3.16,63312,List2B,white,man,,,,,"{""Q0"":""fred is kissing luke""}","<img src=""stim_listB/kiss5.gif""style=""height:400px;""></stim_listB>",is kissing,
null,"<div style=""font-size:60px;"">+</div>",,html-keyboard-response,216,1436646,0.0-15.0-0.17,63312,List2B,white,man,,,,null,,,,
null,"<img src=""stim_listB/argue1.gif""style=""height:400px;""></stim_listB>",,html-keyboard-response,217,1438648,0.0-15.0-1.17,63312,List2B,white,man,,,,null,,,,
null,is arguing with,,html-keyboard-response,218,1440649,0.0-15.0-2.17,63312,List2B,white,man,,,,null,,,,
11736,,,survey-text,219,1452387,0.0-15.0-3.17,63312,List2B,white,man,,,,,"{""Q0"":""dave is arguing with ruth""}","<img src=""stim_listB/argue1.gif""style=""height:400px;""></stim_listB>",is arguing with,
null,"<div style=""font-size:60px;"">+</div>",,html-keyboard-response,220,1452888,0.0-15.0-0.18,63312,List2B,white,man,,,,null,,,,
null,"<img src=""stim_listB/argue7.gif""style=""height:400px;""></stim_listB>",,html-keyboard-response,221,1454890,0.0-15.0-1.18,63312,List2B,white,man,,,,null,,,,
null,is arguing with,,html-keyboard-response,222,1456891,0.0-15.0-2.18,63312,List2B,white,man,,,,null,,,,
15446,,,survey-text,223,1472338,0.0-15.0-3.18,63312,List2B,white,man,,,,,"{""Q0"":""beth is arguing with kate""}","<img src=""stim_listB/argue7.gif""style=""height:400px;""></stim_listB>",is arguing with,
null,"<div style=""font-size:60px;"">+</div>",,html-keyboard-response,224,1472840,0.0-15.0-0.19,63312,List2B,white,man,,,,null,,,,
null,"<img src=""stim_listB/play5.gif""style=""height:400px;""></stim_listB>",,html-keyboard-response,225,1474843,0.0-15.0-1.19,63312,List2B,white,man,,,,null,,,,
null,is playing with,,html-keyboard-response,226,1476844,0.0-15.0-2.19,63312,List2B,white,man,,,,null,,,,
18932,,,survey-text,227,1495777,0.0-15.0-3.19,63312,List2B,white,man,,,,,"{""Q0"":""mike is playing with dave""}","<img src=""stim_listB/play5.gif""style=""height:400px;""></stim_listB>",is playing with,
8162,"<img src='img/portrait_matrix_list2.jpg' style='width:900px;height:500px;''></img><p>If you have memorised all the portraits and names and are ready to start, press Continue.</p><p><strong>Please note: Your memory of these faces will be tested 4 times during this experiment.</strong></p>",0,html-button-response,228,1503941,0.0-16.0-0.0,63312,List2B,white,man,,,,,,,,
5426,"<img src=""portrait/BW2.jpg""style=""height:400px;""></img>",2,html-button-response,229,1510371,0.0-16.0-1.0,63312,List2B,white,man,,TRUE,2,,,,,
null,CORRECT,,html-keyboard-response,230,1511874,0.0-16.0-2.0-0.0,63312,List2B,white,man,,,,null,,,,
2034,"<img src=""portrait/WM1.jpg""style=""height:400px;""></img>",6,html-button-response,231,1513910,0.0-16.0-4.0,63312,List2B,white,man,,TRUE,6,,,,,
null,CORRECT,,html-keyboard-response,232,1515411,0.0-16.0-5.0-0.0,63312,List2B,white,man,,,,null,,,,
2833,"<img src=""portrait/BM1.jpg""style=""height:400px;""></img>",4,html-button-response,233,1518245,0.0-16.0-7.0,63312,List2B,white,man,,TRUE,4,,,,,
null,CORRECT,,html-keyboard-response,234,1519748,0.0-16.0-8.0-0.0,63312,List2B,white,man,,,,null,,,,
2934,"<img src=""portrait/WM2.jpg""style=""height:400px;""></img>",7,html-button-response,235,1522684,0.0-16.0-10.0,63312,List2B,white,man,,TRUE,7,,,,,
null,CORRECT,,html-keyboard-response,236,1524186,0.0-16.0-11.0-0.0,63312,List2B,white,man,,,,null,,,,
5082,"<img src=""portrait/WW1.jpg""style=""height:400px;""></img>",1,html-button-response,237,1529269,0.0-16.0-13.0,63312,List2B,white,man,,TRUE,1,,,,,
null,CORRECT,,html-keyboard-response,238,1530772,0.0-16.0-14.0-0.0,63312,List2B,white,man,,,,null,,,,
2431,"<img src=""portrait/BM2.jpg""style=""height:400px;""></img>",5,html-button-response,239,1533205,0.0-16.0-16.0,63312,List2B,white,man,,TRUE,5,,,,,
null,CORRECT,,html-keyboard-response,240,1534709,0.0-16.0-17.0-0.0,63312,List2B,white,man,,,,null,,,,
1596,"<img src=""portrait/WW2.jpg""style=""height:400px;""></img>",3,html-button-response,241,1536307,0.0-16.0-19.0,63312,List2B,white,man,,TRUE,3,,,,,
null,CORRECT,,html-keyboard-response,242,1537809,0.0-16.0-20.0-0.0,63312,List2B,white,man,,,,null,,,,
3786,"<img src=""portrait/BW1.jpg""style=""height:400px;""></img>",0,html-button-response,243,1541597,0.0-16.0-22.0,63312,List2B,white,man,,TRUE,0,,,,,
null,CORRECT,,html-keyboard-response,244,1543100,0.0-16.0-23.0-0.0,63312,List2B,white,man,,,,null,,,,
1861,<p>You got 8 out of 8 right first time. Press Continue.</p>,0,html-button-response,245,1544962,0.0-16.0-25.0,63312,List2B,white,man,,,,,,,,
null,"<div style=""font-size:60px;"">+</div>",,html-keyboard-response,246,1546466,0.0-17.0-0.0,63312,List2B,white,man,,,,null,,,,
null,"<img src=""stim_listB/play4.gif""style=""height:400px;""></stim_listB>",,html-keyboard-response,247,1548469,0.0-17.0-1.0,63312,List2B,white,man,,,,null,,,,
null,are playing with each other,,html-keyboard-response,248,1550470,0.0-17.0-2.0,63312,List2B,white,man,,,,null,,,,
9553,,,survey-text,249,1560025,0.0-17.0-3.0,63312,List2B,white,man,,,,,"{""Q0"":""fred and beth are playing with each other""}","<img src=""stim_listB/play4.gif""style=""height:400px;""></stim_listB>",are playing with each other,
null,"<div style=""font-size:60px;"">+</div>",,html-keyboard-response,250,1560527,0.0-17.0-0.1,63312,List2B,white,man,,,,null,,,,
null,"<img src=""stim_listB/kiss2.gif""style=""height:400px;""></stim_listB>",,html-keyboard-response,251,1562529,0.0-17.0-1.1,63312,List2B,white,man,,,,null,,,,
null,are kissing each other,,html-keyboard-response,252,1564530,0.0-17.0-2.1,63312,List2B,white,man,,,,null,,,,
17369,,,survey-text,253,1581901,0.0-17.0-3.1,63312,List2B,white,man,,,,,"{""Q0"":""dave and jane are kissing each other""}","<img src=""stim_listB/kiss2.gif""style=""height:400px;""></stim_listB>",are kissing each other,
null,"<div style=""font-size:60px;"">+</div>",,html-keyboard-response,254,1582403,0.0-17.0-0.2,63312,List2B,white,man,,,,null,,,,
null,"<img src=""stim_listB/play6.gif""style=""height:400px;""></stim_listB>",,html-keyboard-response,255,1584406,0.0-17.0-1.2,63312,List2B,white,man,,,,null,,,,
null,are playing with each other,,html-keyboard-response,256,1586407,0.0-17.0-2.2,63312,List2B,white,man,,,,null,,,,
14200,,,survey-text,257,1600609,0.0-17.0-3.2,63312,List2B,white,man,,,,,"{""Q0"":""fred and luke are playing with each other""}","<img src=""stim_listB/play6.gif""style=""height:400px;""></stim_listB>",are playing with each other,
null,"<div style=""font-size:60px;"">+</div>",,html-keyboard-response,258,1601112,0.0-17.0-0.3,63312,List2B,white,man,,,,null,,,,
null,"<img src=""stim_listB/touch8.gif""style=""height:400px;""></stim_listB>",,html-keyboard-response,259,1603115,0.0-17.0-1.3,63312,List2B,white,man,,,,null,,,,
null,are touching each other,,html-keyboard-response,260,1605116,0.0-17.0-2.3,63312,List2B,white,man,,,,null,,,,
12084,,,survey-text,261,1617202,0.0-17.0-3.3,63312,List2B,white,man,,,,,"{""Q0"":""beth and ruth are touching each other""}","<img src=""stim_listB/touch8.gif""style=""height:400px;""></stim_listB>",are touching each other,
null,"<div style=""font-size:60px;"">+</div>",,html-keyboard-response,262,1617704,0.0-17.0-0.4,63312,List2B,white,man,,,,null,,,,
null,"<img src=""stim_listB/shout7.gif""style=""height:400px;""></stim_listB>",,html-keyboard-response,263,1619707,0.0-17.0-1.4,63312,List2B,white,man,,,,null,,,,
null,is shouting at,,html-keyboard-response,264,1621708,0.0-17.0-2.4,63312,List2B,white,man,,,,null,,,,
9813,,,survey-text,265,1631522,0.0-17.0-3.4,63312,List2B,white,man,,,,,"{""Q0"":""beth is shouting at ruth""}","<img src=""stim_listB/shout7.gif""style=""height:400px;""></stim_listB>",is shouting at,
null,"<div style=""font-size:60px;"">+</div>",,html-keyboard-response,266,1632024,0.0-17.0-0.5,63312,List2B,white,man,,,,null,,,,
null,"<img src=""stim_listB/kiss8.gif""style=""height:400px;""></stim_listB>",,html-keyboard-response,267,1634027,0.0-17.0-1.5,63312,List2B,white,man,,,,null,,,,
null,are kissing each other,,html-keyboard-response,268,1636030,0.0-17.0-2.5,63312,List2B,white,man,,,,null,,,,
20501,,,survey-text,269,1656532,0.0-17.0-3.5,63312,List2B,white,man,,,,,"{""Q0"":""kate and jane are kissing each other""}","<img src=""stim_listB/kiss8.gif""style=""height:400px;""></stim_listB>",are kissing each other,
null,"<div style=""font-size:60px;"">+</div>",,html-keyboard-response,270,1657034,0.0-17.0-0.6,63312,List2B,white,man,,,,null,,,,
null,"<img src=""stim_listB/talk5.gif""style=""height:400px;""></stim_listB>",,html-keyboard-response,271,1659036,0.0-17.0-1.6,63312,List2B,white,man,,,,null,,,,
null,is talking to,,html-keyboard-response,272,1661039,0.0-17.0-2.6,63312,List2B,white,man,,,,null,,,,
11319,,,survey-text,273,1672359,0.0-17.0-3.6,63312,List2B,white,man,,,,,"{""Q0"":""luke is talking to mike""}","<img src=""stim_listB/talk5.gif""style=""height:400px;""></stim_listB>",is talking to,
null,"<div style=""font-size:60px;"">+</div>",,html-keyboard-response,274,1672860,0.0-17.0-0.7,63312,List2B,white,man,,,,null,,,,
null,"<img src=""stim_listB/flirt3.gif""style=""height:400px;""></stim_listB>",,html-keyboard-response,275,1674862,0.0-17.0-1.7,63312,List2B,white,man,,,,null,,,,
null,is flirting with,,html-keyboard-response,276,1676865,0.0-17.0-2.7,63312,List2B,white,man,,,,null,,,,
19712,,,survey-text,277,1696578,0.0-17.0-3.7,63312,List2B,white,man,,,,,"{""Q0"":""fred is flirting with kate""}","<img src=""stim_listB/flirt3.gif""style=""height:400px;""></stim_listB>",is flirting with,
null,"<div style=""font-size:60px;"">+</div>",,html-keyboard-response,278,1697080,0.0-17.0-0.8,63312,List2B,white,man,,,,null,,,,
null,"<img src=""stim_listB/marry2.gif""style=""height:400px;""></stim_listB>",,html-keyboard-response,279,1699081,0.0-17.0-1.8,63312,List2B,white,man,,,,null,,,,
null,are marrying each other,,html-keyboard-response,280,1701083,0.0-17.0-2.8,63312,List2B,white,man,,,,null,,,,
17494,,,survey-text,281,1718577,0.0-17.0-3.8,63312,List2B,white,man,,,,,"{""Q0"":""luke is marrying jane""}","<img src=""stim_listB/marry2.gif""style=""height:400px;""></stim_listB>",are marrying each other,
null,"<div style=""font-size:60px;"">+</div>",,html-keyboard-response,282,1719079,0.0-17.0-0.9,63312,List2B,white,man,,,,null,,,,
null,"<img src=""stim_listB/fight5.gif""style=""height:400px;""></stim_listB>",,html-keyboard-response,283,1721080,0.0-17.0-1.9,63312,List2B,white,man,,,,null,,,,
null,is fighting,,html-keyboard-response,284,1723082,0.0-17.0-2.9,63312,List2B,white,man,,,,null,,,,
12056,,,survey-text,285,1735139,0.0-17.0-3.9,63312,List2B,white,man,,,,,"{""Q0"":""mike is fighting dave""}","<img src=""stim_listB/fight5.gif""style=""height:400px;""></stim_listB>",is fighting,
null,"<div style=""font-size:60px;"">+</div>",,html-keyboard-response,286,1735640,0.0-17.0-0.10,63312,List2B,white,man,,,,null,,,,
null,"<img src=""stim_listB/kiss1.gif""style=""height:400px;""></stim_listB>",,html-keyboard-response,287,1737642,0.0-17.0-1.10,63312,List2B,white,man,,,,null,,,,
null,is kissing,,html-keyboard-response,288,1739643,0.0-17.0-2.10,63312,List2B,white,man,,,,null,,,,
7634,,,survey-text,289,1747278,0.0-17.0-3.10,63312,List2B,white,man,,,,,"{""Q0"":""luke is kissing ruth""}","<img src=""stim_listB/kiss1.gif""style=""height:400px;""></stim_listB>",is kissing,
null,"<div style=""font-size:60px;"">+</div>",,html-keyboard-response,290,1747781,0.0-17.0-0.11,63312,List2B,white,man,,,,null,,,,
null,"<img src=""stim_listB/fight1.gif""style=""height:400px;""></stim_listB>",,html-keyboard-response,291,1749783,0.0-17.0-1.11,63312,List2B,white,man,,,,null,,,,
null,is fighting,,html-keyboard-response,292,1751783,0.0-17.0-2.11,63312,List2B,white,man,,,,null,,,,
7448,,,survey-text,293,1759232,0.0-17.0-3.11,63312,List2B,white,man,,,,,"{""Q0"":""dave is fighting jane""}","<img src=""stim_listB/fight1.gif""style=""height:400px;""></stim_listB>",is fighting,
null,"<div style=""font-size:60px;"">+</div>",,html-keyboard-response,294,1759734,0.0-17.0-0.12,63312,List2B,white,man,,,,null,,,,
null,"<img src=""stim_listB/flirt7.gif""style=""height:400px;""></stim_listB>",,html-keyboard-response,295,1761736,0.0-17.0-1.12,63312,List2B,white,man,,,,null,,,,
null,is flirting with,,html-keyboard-response,296,1763738,0.0-17.0-2.12,63312,List2B,white,man,,,,null,,,,
13128,,,survey-text,297,1776867,0.0-17.0-3.12,63312,List2B,white,man,,,,,"{""Q0"":""jane is flirting with kate""}","<img src=""stim_listB/flirt7.gif""style=""height:400px;""></stim_listB>",is flirting with,
null,"<div style=""font-size:60px;"">+</div>",,html-keyboard-response,298,1777369,0.0-17.0-0.13,63312,List2B,white,man,,,,null,,,,
null,"<img src=""stim_listB/marry4.gif""style=""height:400px;""></stim_listB>",,html-keyboard-response,299,1779371,0.0-17.0-1.13,63312,List2B,white,man,,,,null,,,,
null,are marrying each other,,html-keyboard-response,300,1781372,0.0-17.0-2.13,63312,List2B,white,man,,,,null,,,,
15980,,,survey-text,301,1797353,0.0-17.0-3.13,63312,List2B,white,man,,,,,"{""Q0"":""fred and kate are marrying each other""}","<img src=""stim_listB/marry4.gif""style=""height:400px;""></stim_listB>",are marrying each other,
null,"<div style=""font-size:60px;"">+</div>",,html-keyboard-response,302,1797855,0.0-17.0-0.14,63312,List2B,white,man,,,,null,,,,
null,"<img src=""stim_listB/play2.gif""style=""height:400px;""></stim_listB>",,html-keyboard-response,303,1799858,0.0-17.0-1.14,63312,List2B,white,man,,,,null,,,,
null,are playing with each other,,html-keyboard-response,304,1801859,0.0-17.0-2.14,63312,List2B,white,man,,,,null,,,,
15492,,,survey-text,305,1817353,0.0-17.0-3.14,63312,List2B,white,man,,,,,"{""Q0"":""luke and ruth are playing with each other""}","<img src=""stim_listB/play2.gif""style=""height:400px;""></stim_listB>",are playing with each other,
null,"<div style=""font-size:60px;"">+</div>",,html-keyboard-response,306,1817855,0.0-17.0-0.15,63312,List2B,white,man,,,,null,,,,
null,"<img src=""stim_listB/dance8.gif""style=""height:400px;""></stim_listB>",,html-keyboard-response,307,1819857,0.0-17.0-1.15,63312,List2B,white,man,,,,null,,,,
null,are dancing with each other,,html-keyboard-response,308,1821858,0.0-17.0-2.15,63312,List2B,white,man,,,,null,,,,
13632,,,survey-text,309,1835492,0.0-17.0-3.15,63312,List2B,white,man,,,,,"{""Q0"":""jane and beth are dancing with each other""}","<img src=""stim_listB/dance8.gif""style=""height:400px;""></stim_listB>",are dancing with each other,
null,"<div style=""font-size:60px;"">+</div>",,html-keyboard-response,310,1835994,0.0-17.0-0.16,63312,List2B,white,man,,,,null,,,,
null,"<img src=""stim_listB/dance7.gif""style=""height:400px;""></stim_listB>",,html-keyboard-response,311,1837996,0.0-17.0-1.16,63312,List2B,white,man,,,,null,,,,
null,is dancing with,,html-keyboard-response,312,1839998,0.0-17.0-2.16,63312,List2B,white,man,,,,null,,,,
11296,,,survey-text,313,1851295,0.0-17.0-3.16,63312,List2B,white,man,,,,,"{""Q0"":""ruth is dancing with kate""}","<img src=""stim_listB/dance7.gif""style=""height:400px;""></stim_listB>",is dancing with,
null,"<div style=""font-size:60px;"">+</div>",,html-keyboard-response,314,1851797,0.0-17.0-0.17,63312,List2B,white,man,,,,null,,,,
null,"<img src=""stim_listB/touch2.gif""style=""height:400px;""></stim_listB>",,html-keyboard-response,315,1853800,0.0-17.0-1.17,63312,List2B,white,man,,,,null,,,,
null,are touching each other,,html-keyboard-response,316,1855801,0.0-17.0-2.17,63312,List2B,white,man,,,,null,,,,
10586,,,survey-text,317,1866388,0.0-17.0-3.17,63312,List2B,white,man,,,,,"{""Q0"":""luke and ruth are touching each other""}","<img src=""stim_listB/touch2.gif""style=""height:400px;""></stim_listB>",are touching each other,
null,"<div style=""font-size:60px;"">+</div>",,html-keyboard-response,318,1866890,0.0-17.0-0.18,63312,List2B,white,man,,,,null,,,,
null,"<img src=""stim_listB/touch4.gif""style=""height:400px;""></stim_listB>",,html-keyboard-response,319,1868892,0.0-17.0-1.18,63312,List2B,white,man,,,,null,,,,
null,are touching each other,,html-keyboard-response,320,1870893,0.0-17.0-2.18,63312,List2B,white,man,,,,null,,,,
14868,,,survey-text,321,1885763,0.0-17.0-3.18,63312,List2B,white,man,,,,,"{""Q0"":""fred and beth are touching each other""}","<img src=""stim_listB/touch4.gif""style=""height:400px;""></stim_listB>",are touching each other,
null,"<div style=""font-size:60px;"">+</div>",,html-keyboard-response,322,1886265,0.0-17.0-0.19,63312,List2B,white,man,,,,null,,,,
null,"<img src=""stim_listB/talk2.gif""style=""height:400px;""></stim_listB>",,html-keyboard-response,323,1888267,0.0-17.0-1.19,63312,List2B,white,man,,,,null,,,,
null,are talking to each other,,html-keyboard-response,324,1890268,0.0-17.0-2.19,63312,List2B,white,man,,,,null,,,,
19439,,,survey-text,325,1909708,0.0-17.0-3.19,63312,List2B,white,man,,,,,"{""Q0"":""dave and ruth are talking to each other""}","<img src=""stim_listB/talk2.gif""style=""height:400px;""></stim_listB>",are talking to each other,
7140,"<img src='img/portrait_matrix_list2.jpg' style='width:900px;height:500px;''></img><p>If you have memorised all the portraits and names and are ready to start, press Continue.</p><p><strong>Please note: Your memory of these faces will be tested 4 times during this experiment.</strong></p>",0,html-button-response,326,1916849,0.0-18.0-0.0,63312,List2B,white,man,,,,,,,,
2387,"<img src=""portrait/BW2.jpg""style=""height:400px;""></img>",2,html-button-response,327,1920239,0.0-18.0-1.0,63312,List2B,white,man,,TRUE,2,,,,,
null,CORRECT,,html-keyboard-response,328,1921742,0.0-18.0-2.0-0.0,63312,List2B,white,man,,,,null,,,,
5020,"<img src=""portrait/BM1.jpg""style=""height:400px;""></img>",4,html-button-response,329,1926763,0.0-18.0-4.0,63312,List2B,white,man,,TRUE,4,,,,,
null,CORRECT,,html-keyboard-response,330,1928265,0.0-18.0-5.0-0.0,63312,List2B,white,man,,,,null,,,,
3456,"<img src=""portrait/BW1.jpg""style=""height:400px;""></img>",0,html-button-response,331,1931723,0.0-18.0-7.0,63312,List2B,white,man,,TRUE,0,,,,,
null,CORRECT,,html-keyboard-response,332,1933225,0.0-18.0-8.0-0.0,63312,List2B,white,man,,,,null,,,,
2550,"<img src=""portrait/WM1.jpg""style=""height:400px;""></img>",6,html-button-response,333,1935777,0.0-18.0-10.0,63312,List2B,white,man,,TRUE,6,,,,,
null,CORRECT,,html-keyboard-response,334,1937280,0.0-18.0-11.0-0.0,63312,List2B,white,man,,,,null,,,,
1803,"<img src=""portrait/WW2.jpg""style=""height:400px;""></img>",3,html-button-response,335,1939084,0.0-18.0-13.0,63312,List2B,white,man,,TRUE,3,,,,,
null,CORRECT,,html-keyboard-response,336,1940587,0.0-18.0-14.0-0.0,63312,List2B,white,man,,,,null,,,,
2259,"<img src=""portrait/WM2.jpg""style=""height:400px;""></img>",7,html-button-response,337,1942848,0.0-18.0-16.0,63312,List2B,white,man,,TRUE,7,,,,,
null,CORRECT,,html-keyboard-response,338,1944353,0.0-18.0-17.0-0.0,63312,List2B,white,man,,,,null,,,,
1665,"<img src=""portrait/BM2.jpg""style=""height:400px;""></img>",5,html-button-response,339,1946020,0.0-18.0-19.0,63312,List2B,white,man,,TRUE,5,,,,,
null,CORRECT,,html-keyboard-response,340,1947523,0.0-18.0-20.0-0.0,63312,List2B,white,man,,,,null,,,,
4019,"<img src=""portrait/WW1.jpg""style=""height:400px;""></img>",1,html-button-response,341,1951544,0.0-18.0-22.0,63312,List2B,white,man,,TRUE,1,,,,,
null,CORRECT,,html-keyboard-response,342,1953048,0.0-18.0-23.0-0.0,63312,List2B,white,man,,,,null,,,,
1642,<p>You got 8 out of 8 right first time. Press Continue.</p>,0,html-button-response,343,1954692,0.0-18.0-25.0,63312,List2B,white,man,,,,,,,,
null,"<div style=""font-size:60px;"">+</div>",,html-keyboard-response,344,1956196,0.0-19.0-0.0,63312,List2B,white,man,,,,null,,,,
null,"<img src=""stim_listB/argue4.gif""style=""height:400px;""></stim_listB>",,html-keyboard-response,345,1958198,0.0-19.0-1.0,63312,List2B,white,man,,,,null,,,,
null,are arguing with each other,,html-keyboard-response,346,1960200,0.0-19.0-2.0,63312,List2B,white,man,,,,null,,,,
11406,,,survey-text,347,1971607,0.0-19.0-3.0,63312,List2B,white,man,,,,,"{""Q0"":""fred and kate are arguing with each other""}","<img src=""stim_listB/argue4.gif""style=""height:400px;""></stim_listB>",are arguing with each other,
null,"<div style=""font-size:60px;"">+</div>",,html-keyboard-response,348,1972109,0.0-19.0-0.1,63312,List2B,white,man,,,,null,,,,
null,"<img src=""stim_listB/kiss3.gif""style=""height:400px;""></stim_listB>",,html-keyboard-response,349,1974112,0.0-19.0-1.1,63312,List2B,white,man,,,,null,,,,
null,is kissing,,html-keyboard-response,350,1976113,0.0-19.0-2.1,63312,List2B,white,man,,,,null,,,,
6233,,,survey-text,351,1982347,0.0-19.0-3.1,63312,List2B,white,man,,,,,"{""Q0"":""beth is kissing fred""}","<img src=""stim_listB/kiss3.gif""style=""height:400px;""></stim_listB>",is kissing,
null,"<div style=""font-size:60px;"">+</div>",,html-keyboard-response,352,1982849,0.0-19.0-0.2,63312,List2B,white,man,,,,null,,,,
null,"<img src=""stim_listB/flirt6.gif""style=""height:400px;""></stim_listB>",,html-keyboard-response,353,1984851,0.0-19.0-1.2,63312,List2B,white,man,,,,null,,,,
null,are flirting with each other,,html-keyboard-response,354,1986852,0.0-19.0-2.2,63312,List2B,white,man,,,,null,,,,
19830,,,survey-text,355,2006683,0.0-19.0-3.2,63312,List2B,white,man,,,,,"{""Q0"":""dave and fred are flirting with each other""}","<img src=""stim_listB/flirt6.gif""style=""height:400px;""></stim_listB>",are flirting with each other,
null,"<div style=""font-size:60px;"">+</div>",,html-keyboard-response,356,2007185,0.0-19.0-0.3,63312,List2B,white,man,,,,null,,,,
null,"<img src=""stim_listB/play1.gif""style=""height:400px;""></stim_listB>",,html-keyboard-response,357,2009187,0.0-19.0-1.3,63312,List2B,white,man,,,,null,,,,
null,is playing with,,html-keyboard-response,358,2011188,0.0-19.0-2.3,63312,List2B,white,man,,,,null,,,,
19812,,,survey-text,359,2031001,0.0-19.0-3.3,63312,List2B,white,man,,,,,"{""Q0"":""dave is playing with jane""}","<img src=""stim_listB/play1.gif""style=""height:400px;""></stim_listB>",is playing with,
null,"<div style=""font-size:60px;"">+</div>",,html-keyboard-response,360,2031503,0.0-19.0-0.4,63312,List2B,white,man,,,,null,,,,
null,"<img src=""stim_listB/fight8.gif""style=""height:400px;""></stim_listB>",,html-keyboard-response,361,2033505,0.0-19.0-1.4,63312,List2B,white,man,,,,null,,,,
null,are fighting each other,,html-keyboard-response,362,2035506,0.0-19.0-2.4,63312,List2B,white,man,,,,null,,,,
10428,,,survey-text,363,2045936,0.0-19.0-3.4,63312,List2B,white,man,,,,,"{""Q0"":""ruth and beth are fighting each other""}","<img src=""stim_listB/fight8.gif""style=""height:400px;""></stim_listB>",are fighting each other,
null,"<div style=""font-size:60px;"">+</div>",,html-keyboard-response,364,2046437,0.0-19.0-0.5,63312,List2B,white,man,,,,null,,,,
null,"<img src=""stim_listB/flirt5.gif""style=""height:400px;""></stim_listB>",,html-keyboard-response,365,2048440,0.0-19.0-1.5,63312,List2B,white,man,,,,null,,,,
null,is flirting with,,html-keyboard-response,366,2050442,0.0-19.0-2.5,63312,List2B,white,man,,,,null,,,,
7672,,,survey-text,367,2058116,0.0-19.0-3.5,63312,List2B,white,man,,,,,"{""Q0"":""luke is flirting with mike""}","<img src=""stim_listB/flirt5.gif""style=""height:400px;""></stim_listB>",is flirting with,
null,"<div style=""font-size:60px;"">+</div>",,html-keyboard-response,368,2058618,0.0-19.0-0.6,63312,List2B,white,man,,,,null,,,,
null,"<img src=""stim_listB/dance4.gif""style=""height:400px;""></stim_listB>",,html-keyboard-response,369,2060619,0.0-19.0-1.6,63312,List2B,white,man,,,,null,,,,
null,are dancing with each other,,html-keyboard-response,370,2062621,0.0-19.0-2.6,63312,List2B,white,man,,,,null,,,,
8813,,,survey-text,371,2071436,0.0-19.0-3.6,63312,List2B,white,man,,,,,"{""Q0"":""mike is dancing with beth""}","<img src=""stim_listB/dance4.gif""style=""height:400px;""></stim_listB>",are dancing with each other,
null,"<div style=""font-size:60px;"">+</div>",,html-keyboard-response,372,2071937,0.0-19.0-0.7,63312,List2B,white,man,,,,null,,,,
null,"<img src=""stim_listB/touch7.gif""style=""height:400px;""></stim_listB>",,html-keyboard-response,373,2073940,0.0-19.0-1.7,63312,List2B,white,man,,,,null,,,,
null,is touching,,html-keyboard-response,374,2075942,0.0-19.0-2.7,63312,List2B,white,man,,,,null,,,,
8452,,,survey-text,375,2084395,0.0-19.0-3.7,63312,List2B,white,man,,,,,"{""Q0"":""jane is touching kate""}","<img src=""stim_listB/touch7.gif""style=""height:400px;""></stim_listB>",is touching,
null,"<div style=""font-size:60px;"">+</div>",,html-keyboard-response,376,2084896,0.0-19.0-0.8,63312,List2B,white,man,,,,null,,,,
null,"<img src=""stim_listB/marry3.gif""style=""height:400px;""></stim_listB>",,html-keyboard-response,377,2086898,0.0-19.0-1.8,63312,List2B,white,man,,,,null,,,,
null,is marrying,,html-keyboard-response,378,2088900,0.0-19.0-2.8,63312,List2B,white,man,,,,null,,,,
6761,,,survey-text,379,2095661,0.0-19.0-3.8,63312,List2B,white,man,,,,,"{""Q0"":""beth is marrying mike""}","<img src=""stim_listB/marry3.gif""style=""height:400px;""></stim_listB>",is marrying,
null,"<div style=""font-size:60px;"">+</div>",,html-keyboard-response,380,2096162,0.0-19.0-0.9,63312,List2B,white,man,,,,null,,,,
null,"<img src=""stim_listB/dance3.gif""style=""height:400px;""></stim_listB>",,html-keyboard-response,381,2098165,0.0-19.0-1.9,63312,List2B,white,man,,,,null,,,,
null,is dancing with,,html-keyboard-response,382,2100167,0.0-19.0-2.9,63312,List2B,white,man,,,,null,,,,
7071,,,survey-text,383,2107239,0.0-19.0-3.9,63312,List2B,white,man,,,,,"{""Q0"":""fred is dancing with kate""}","<img src=""stim_listB/dance3.gif""style=""height:400px;""></stim_listB>",is dancing with,
null,"<div style=""font-size:60px;"">+</div>",,html-keyboard-response,384,2107741,0.0-19.0-0.10,63312,List2B,white,man,,,,null,,,,
null,"<img src=""stim_listB/fight3.gif""style=""height:400px;""></stim_listB>",,html-keyboard-response,385,2109744,0.0-19.0-1.10,63312,List2B,white,man,,,,null,,,,
null,is fighting,,html-keyboard-response,386,2111746,0.0-19.0-2.10,63312,List2B,white,man,,,,null,,,,
7469,,,survey-text,387,2119217,0.0-19.0-3.10,63312,List2B,white,man,,,,,"{""Q0"":""mike is fighting kate""}","<img src=""stim_listB/fight3.gif""style=""height:400px;""></stim_listB>",is fighting,
null,"<div style=""font-size:60px;"">+</div>",,html-keyboard-response,388,2119718,0.0-19.0-0.11,63312,List2B,white,man,,,,null,,,,
null,"<img src=""stim_listB/marry5.gif""style=""height:400px;""></stim_listB>",,html-keyboard-response,389,2121720,0.0-19.0-1.11,63312,List2B,white,man,,,,null,,,,
null,is marrying,,html-keyboard-response,390,2123721,0.0-19.0-2.11,63312,List2B,white,man,,,,null,,,,
8555,,,survey-text,391,2132278,0.0-19.0-3.11,63312,List2B,white,man,,,,,"{""Q0"":""dave is marrying fred""}","<img src=""stim_listB/marry5.gif""style=""height:400px;""></stim_listB>",is marrying,
null,"<div style=""font-size:60px;"">+</div>",,html-keyboard-response,392,2132779,0.0-19.0-0.12,63312,List2B,white,man,,,,null,,,,
null,"<img src=""stim_listB/fight2.gif""style=""height:400px;""></stim_listB>",,html-keyboard-response,393,2134782,0.0-19.0-1.12,63312,List2B,white,man,,,,null,,,,
null,are fighting each other,,html-keyboard-response,394,2136784,0.0-19.0-2.12,63312,List2B,white,man,,,,null,,,,
10086,,,survey-text,395,2146871,0.0-19.0-3.12,63312,List2B,white,man,,,,,"{""Q0"":""ruth and luke are fighting each other""}","<img src=""stim_listB/fight2.gif""style=""height:400px;""></stim_listB>",are fighting each other,
null,"<div style=""font-size:60px;"">+</div>",,html-keyboard-response,396,2147372,0.0-19.0-0.13,63312,List2B,white,man,,,,null,,,,
null,"<img src=""stim_listB/flirt1.gif""style=""height:400px;""></stim_listB>",,html-keyboard-response,397,2149374,0.0-19.0-1.13,63312,List2B,white,man,,,,null,,,,
null,is flirting with,,html-keyboard-response,398,2151376,0.0-19.0-2.13,63312,List2B,white,man,,,,null,,,,
10967,,,survey-text,399,2162345,0.0-19.0-3.13,63312,List2B,white,man,,,,,"{""Q0"":""jane is flirting with luke""}","<img src=""stim_listB/flirt1.gif""style=""height:400px;""></stim_listB>",is flirting with,
null,"<div style=""font-size:60px;"">+</div>",,html-keyboard-response,400,2162846,0.0-19.0-0.14,63312,List2B,white,man,,,,null,,,,
null,"<img src=""stim_listB/shout2.gif""style=""height:400px;""></stim_listB>",,html-keyboard-response,401,2164848,0.0-19.0-1.14,63312,List2B,white,man,,,,null,,,,
null,are shouting at each other,,html-keyboard-response,402,2166849,0.0-19.0-2.14,63312,List2B,white,man,,,,null,,,,
10338,,,survey-text,403,2177188,0.0-19.0-3.14,63312,List2B,white,man,,,,,"{""Q0"":""jane and dave are shouting at each other""}","<img src=""stim_listB/shout2.gif""style=""height:400px;""></stim_listB>",are shouting at each other,
null,"<div style=""font-size:60px;"">+</div>",,html-keyboard-response,404,2177690,0.0-19.0-0.15,63312,List2B,white,man,,,,null,,,,
null,"<img src=""stim_listB/argue3.gif""style=""height:400px;""></stim_listB>",,html-keyboard-response,405,2179693,0.0-19.0-1.15,63312,List2B,white,man,,,,null,,,,
null,is arguing with,,html-keyboard-response,406,2181695,0.0-19.0-2.15,63312,List2B,white,man,,,,null,,,,
20257,,,survey-text,407,2201954,0.0-19.0-3.15,63312,List2B,white,man,,,,,"{""Q0"":""mike is arguing with beth""}","<img src=""stim_listB/argue3.gif""style=""height:400px;""></stim_listB>",is arguing with,
null,"<div style=""font-size:60px;"">+</div>",,html-keyboard-response,408,2202456,0.0-19.0-0.16,63312,List2B,white,man,,,,null,,,,
null,"<img src=""stim_listB/kiss7.gif""style=""height:400px;""></stim_listB>",,html-keyboard-response,409,2204458,0.0-19.0-1.16,63312,List2B,white,man,,,,null,,,,
null,is kissing,,html-keyboard-response,410,2206460,0.0-19.0-2.16,63312,List2B,white,man,,,,null,,,,
7812,,,survey-text,411,2214274,0.0-19.0-3.16,63312,List2B,white,man,,,,,"{""Q0"":""beth is kissing ruth""}","<img src=""stim_listB/kiss7.gif""style=""height:400px;""></stim_listB>",is kissing,
null,"<div style=""font-size:60px;"">+</div>",,html-keyboard-response,412,2214775,0.0-19.0-0.17,63312,List2B,white,man,,,,null,,,,
null,"<img src=""stim_listB/dance2.gif""style=""height:400px;""></stim_listB>",,html-keyboard-response,413,2216778,0.0-19.0-1.17,63312,List2B,white,man,,,,null,,,,
null,are dancing with each other,,html-keyboard-response,414,2218779,0.0-19.0-2.17,63312,List2B,white,man,,,,null,,,,
15921,,,survey-text,415,2234701,0.0-19.0-3.17,63312,List2B,white,man,,,,,"{""Q0"":""dave and ruth are dancing with each other""}","<img src=""stim_listB/dance2.gif""style=""height:400px;""></stim_listB>",are dancing with each other,
null,"<div style=""font-size:60px;"">+</div>",,html-keyboard-response,416,2235203,0.0-19.0-0.18,63312,List2B,white,man,,,,null,,,,
null,"<img src=""stim_listB/shout8.gif""style=""height:400px;""></stim_listB>",,html-keyboard-response,417,2237205,0.0-19.0-1.18,63312,List2B,white,man,,,,null,,,,
null,are shouting at each other,,html-keyboard-response,418,2239207,0.0-19.0-2.18,63312,List2B,white,man,,,,null,,,,
16927,,,survey-text,419,2256135,0.0-19.0-3.18,63312,List2B,white,man,,,,,"{""Q0"":""jane and kate are shouting at each other""}","<img src=""stim_listB/shout8.gif""style=""height:400px;""></stim_listB>",are shouting at each other,
null,"<div style=""font-size:60px;"">+</div>",,html-keyboard-response,420,2256637,0.0-19.0-0.19,63312,List2B,white,man,,,,null,,,,
null,"<img src=""stim_listB/shout1.gif""style=""height:400px;""></stim_listB>",,html-keyboard-response,421,2258639,0.0-19.0-1.19,63312,List2B,white,man,,,,null,,,,
null,is shouting at,,html-keyboard-response,422,2260640,0.0-19.0-2.19,63312,List2B,white,man,,,,null,,,,
14360,,,survey-text,423,2275001,0.0-19.0-3.19,63312,List2B,white,man,,,,,"{""Q0"":""luke is shouting at ruth""}","<img src=""stim_listB/shout1.gif""style=""height:400px;""></stim_listB>",is shouting at,
2927,<p>Thank you for completing that task.</p><p>The final part of this session is a short questionnaire.</p><p>Press Continue.</p>,0,html-button-response,424,2277930,0.0-20.0,63312,List2B,white,man,,,,,,,,
27349,,,survey-text,425,2306281,0.0-21.0,63312,List2B,white,man,,,,,"{""Q0"":""66"",""Q1"":""english"",""Q2"":""english"",""Q3"":""england"",""Q4"":""British"",""Q5"":""male""}",,,demographics
25796,,,survey-likert,426,2332081,0.0-22.0,63312,List2B,white,man,,,,,"{""Q0"":3}",,,likert_ESS
7521,,,survey-likert,427,2339604,0.0-23.0,63312,List2B,white,man,,,,,"{""Q0"":2}",,,likert_NSSAL_Q1
1428,,,survey-likert,428,2341033,0.0-24.0,63312,List2B,white,man,,,,,"{""Q0"":""""}",,,likert_NSSAL_Q2
5396,,,survey-likert,429,2346431,0.0-25.0,63312,List2B,white,man,,,,,"{""Q0"":3}",,,likert_CGRS_Q1
4161,,,survey-likert,430,2350595,0.0-26.0,63312,List2B,white,man,,,,,"{""Q0"":2}",,,likert_CGRS_Q2
3013,,,survey-likert,431,2353611,0.0-27.0,63312,List2B,white,man,,,,,"{""Q0"":2}",,,likert_CGRS_Q3
47102,,,survey-text,432,2400716,0.0-28.0,63312,List2B,white,man,,,,,"{""Q0"":""ccc""}",,,worker_id
35291,,,external-html,433,2436086,0.0-29.0,63312,List2B,white,man,debrief.html,,,,,,,
