rt,stimulus,button_pressed,trial_type,trial_index,time_elapsed,internal_node_id,subject,list,ppt_race,ppt_gender,url,first_guess,correct,key_press,responses,image_type,phrase_type,test_part
10676,Welcome to the experiment. Press Continue to begin.,0,html-button-response,0,10815,0.0-0.0,63694,List2B,black,man,,,,,,,,
69321,,,external-html,1,81530,0.0-1.0,63694,List2B,black,man,consent.html,,,,,,,
1723,"<p>On the next page, you will see portraits of 8 people and their names.</p><p>Your first task is to take a few minutes to memorise the names of these people.</p><p>You will have to recall their names during the rest of the experiment, so it is</p><p>essential that you try to memorise these people and their names as best as you can.</p><br><p><strong>You will then be tested on your memory of these names and portraits.</strong></p><br><p>The experiment will start after you have completed this memory test.</p><br><p>Ready?</p>",0,html-button-response,2,83331,0.0-2.0,63694,List2B,black,man,,,,,,,,
111193,"<img src='img/portrait_matrix_list2.jpg' style='width:900px;height:500px;''></img><p>If you have memorised all the portraits and names and are ready to start, press Continue.</p><p><strong>Please note: Your memory of these faces will be tested 4 times during this experiment.</strong></p>",0,html-button-response,3,195657,0.0-3.0-0.0,63694,List2B,black,man,,,,,,,,
15583,"<img src=""portrait/BW1.jpg""style=""height:400px;""></img>",0,html-button-response,4,212342,0.0-3.0-1.0,63694,List2B,black,man,,TRUE,0,,,,,
null,CORRECT,,html-keyboard-response,5,213896,0.0-3.0-2.0-0.0,63694,List2B,black,man,,,,null,,,,
8213,"<img src=""portrait/WM1.jpg""style=""height:400px;""></img>",6,html-button-response,6,222143,0.0-3.0-4.0,63694,List2B,black,man,,TRUE,6,,,,,
null,CORRECT,,html-keyboard-response,7,223661,0.0-3.0-5.0-0.0,63694,List2B,black,man,,,,null,,,,
4178,"<img src=""portrait/WW2.jpg""style=""height:400px;""></img>",3,html-button-response,8,227852,0.0-3.0-7.0,63694,List2B,black,man,,TRUE,3,,,,,
null,CORRECT,,html-keyboard-response,9,229368,0.0-3.0-8.0-0.0,63694,List2B,black,man,,,,null,,,,
7984,"<img src=""portrait/BW2.jpg""style=""height:400px;""></img>",2,html-button-response,10,237364,0.0-3.0-10.0,63694,List2B,black,man,,TRUE,2,,,,,
null,CORRECT,,html-keyboard-response,11,238870,0.0-3.0-11.0-0.0,63694,List2B,black,man,,,,null,,,,
4380,"<img src=""portrait/WM2.jpg""style=""height:400px;""></img>",7,html-button-response,12,243265,0.0-3.0-13.0,63694,List2B,black,man,,TRUE,7,,,,,
null,CORRECT,,html-keyboard-response,13,244772,0.0-3.0-14.0-0.0,63694,List2B,black,man,,,,null,,,,
4814,"<img src=""portrait/BM1.jpg""style=""height:400px;""></img>",4,html-button-response,14,249620,0.0-3.0-16.0,63694,List2B,black,man,,TRUE,4,,,,,
null,CORRECT,,html-keyboard-response,15,251131,0.0-3.0-17.0-0.0,63694,List2B,black,man,,,,null,,,,
13184,"<img src=""portrait/WW1.jpg""style=""height:400px;""></img>",1,html-button-response,16,264335,0.0-3.0-19.0,63694,List2B,black,man,,TRUE,1,,,,,
null,CORRECT,,html-keyboard-response,17,265842,0.0-3.0-20.0-0.0,63694,List2B,black,man,,,,null,,,,
4897,"<img src=""portrait/BM2.jpg""style=""height:400px;""></img>",5,html-button-response,18,270758,0.0-3.0-22.0,63694,List2B,black,man,,TRUE,5,,,,,
null,CORRECT,,html-keyboard-response,19,272266,0.0-3.0-23.0-0.0,63694,List2B,black,man,,,,null,,,,
6034,<p>You got 8 out of 8 right first time. Press Continue.</p>,0,html-button-response,20,278381,0.0-3.0-25.0,63694,List2B,black,man,,,,,,,,
75234,"<p>In this experiment, you will view photographs of the people from the memory game interacting.</p><p>By using the <strong>exact</strong> phrase given <i>after</i> the photograph appears and recalling the correct names of the people in the photographs, form a sentence describing the interaction. You do not need to capitalise names.</p><p>Type your answer in the space provided. Please complete every sentence before moving onto the next trial.</p><p>You will only have a few seconds to memorise each given photograph and phrase before you can respond, so try your best to focus.</p><p>An example is given below. Press 'Continue' when you are ready.</p><img src='img/speaking_example.jpg' style='width:800px;height:460px;''></img>",0,html-button-response,21,354767,0.0-4.0,63694,List2B,black,man,,,,,,,,
12827,"<p>Before the experiment starts, you will watch two example trials. Press 'Continue'.</p>",0,html-button-response,22,368676,0.0-5.0,63694,List2B,black,man,,,,,,,,
null,<img src='img/meet_eg.gif' style='height:400px;''></img>,,html-keyboard-response,23,371805,0.0-6.0,63694,List2B,black,man,,,,null,,,,
null,<p>is meeting</p>,,html-keyboard-response,24,373813,0.0-7.0,63694,List2B,black,man,,,,null,,,,
7584,<p><b>Answer:</b> jane is meeting ruth</p>,0,html-button-response,25,381419,0.0-8.0,63694,List2B,black,man,,,,,,,,
null,<img src='img/look_eg.gif' style='height:400px;''></img>,,html-keyboard-response,26,384445,0.0-9.0,63694,List2B,black,man,,,,null,,,,
null,<p>are looking at each other</p>,,html-keyboard-response,27,386457,0.0-10.0,63694,List2B,black,man,,,,null,,,,
11875,<p><b>Answer:</b> fred and mike are looking at each other</p>,0,html-button-response,28,398344,0.0-11.0,63694,List2B,black,man,,,,,,,,
7728,"<p>Ready to start the experiment?</p><br><p><strong>Remember to describe the picture using a full sentence,</strong></p><p><strong>that combines the names of the people with the <i>exact</i> phrase given.</strong></p><p><strong>To receive full payment you must do this correctly.</strong></p><p><strong> You do not need to capitalise names or use punctuation.</strong></p><br><p>Press 'Continue' to begin.</p>",0,html-button-response,29,407099,0.0-12.0,63694,List2B,black,man,,,,,,,,
null,"<div style=""font-size:60px;"">+</div>",,html-keyboard-response,30,408609,0.0-13.0-0.0,63694,List2B,black,man,,,,null,,,,
null,"<img src=""stim_listB/flirt2.gif""style=""height:400px;""></stim_listB>",,html-keyboard-response,31,410654,0.0-13.0-1.0,63694,List2B,black,man,,,,null,,,,
null,are flirting with each other,,html-keyboard-response,32,412660,0.0-13.0-2.0,63694,List2B,black,man,,,,null,,,,
29773,,,survey-text,33,442485,0.0-13.0-3.0,63694,List2B,black,man,,,,,"{""Q0"":""Jane is speaking to dave""}","<img src=""stim_listB/flirt2.gif""style=""height:400px;""></stim_listB>",are flirting with each other,
null,"<div style=""font-size:60px;"">+</div>",,html-keyboard-response,34,443005,0.0-13.0-0.1,63694,List2B,black,man,,,,null,,,,
null,"<img src=""stim_listB/flirt4.gif""style=""height:400px;""></stim_listB>",,html-keyboard-response,35,445051,0.0-13.0-1.1,63694,List2B,black,man,,,,null,,,,
null,are flirting with each other,,html-keyboard-response,36,447063,0.0-13.0-2.1,63694,List2B,black,man,,,,null,,,,
28375,,,survey-text,37,475464,0.0-13.0-3.1,63694,List2B,black,man,,,,,"{""Q0"":""Fred is flirting with kate""}","<img src=""stim_listB/flirt4.gif""style=""height:400px;""></stim_listB>",are flirting with each other,
null,"<div style=""font-size:60px;"">+</div>",,html-keyboard-response,38,475975,0.0-13.0-0.2,63694,List2B,black,man,,,,null,,,,
null,"<img src=""stim_listB/touch8.gif""style=""height:400px;""></stim_listB>",,html-keyboard-response,39,477991,0.0-13.0-1.2,63694,List2B,black,man,,,,null,,,,
null,are touching each other,,html-keyboard-response,40,480005,0.0-13.0-2.2,63694,List2B,black,man,,,,null,,,,
22901,,,survey-text,41,502914,0.0-13.0-3.2,63694,List2B,black,man,,,,,"{""Q0"":""Beth is touching jane""}","<img src=""stim_listB/touch8.gif""style=""height:400px;""></stim_listB>",are touching each other,
null,"<div style=""font-size:60px;"">+</div>",,html-keyboard-response,42,503423,0.0-13.0-0.3,63694,List2B,black,man,,,,null,,,,
null,"<img src=""stim_listB/dance6.gif""style=""height:400px;""></stim_listB>",,html-keyboard-response,43,505439,0.0-13.0-1.3,63694,List2B,black,man,,,,null,,,,
null,are dancing with each other,,html-keyboard-response,44,507448,0.0-13.0-2.3,63694,List2B,black,man,,,,null,,,,
21716,,,survey-text,45,529171,0.0-13.0-3.3,63694,List2B,black,man,,,,,"{""Q0"":""Fred is dancing with dave""}","<img src=""stim_listB/dance6.gif""style=""height:400px;""></stim_listB>",are dancing with each other,
null,"<div style=""font-size:60px;"">+</div>",,html-keyboard-response,46,529685,0.0-13.0-0.4,63694,List2B,black,man,,,,null,,,,
null,"<img src=""stim_listB/kiss6.gif""style=""height:400px;""></stim_listB>",,html-keyboard-response,47,531699,0.0-13.0-1.4,63694,List2B,black,man,,,,null,,,,
null,are kissing each other,,html-keyboard-response,48,533712,0.0-13.0-2.4,63694,List2B,black,man,,,,null,,,,
27674,,,survey-text,49,561397,0.0-13.0-3.4,63694,List2B,black,man,,,,,"{""Q0"":""Fred is kissing dave""}","<img src=""stim_listB/kiss6.gif""style=""height:400px;""></stim_listB>",are kissing each other,
null,"<div style=""font-size:60px;"">+</div>",,html-keyboard-response,50,561906,0.0-13.0-0.5,63694,List2B,black,man,,,,null,,,,
null,"<img src=""stim_listB/kiss2.gif""style=""height:400px;""></stim_listB>",,html-keyboard-response,51,563922,0.0-13.0-1.5,63694,List2B,black,man,,,,null,,,,
null,are kissing each other,,html-keyboard-response,52,565934,0.0-13.0-2.5,63694,List2B,black,man,,,,null,,,,
24263,,,survey-text,53,590211,0.0-13.0-3.5,63694,List2B,black,man,,,,,"{""Q0"":""Dave is kissing with jane""}","<img src=""stim_listB/kiss2.gif""style=""height:400px;""></stim_listB>",are kissing each other,
null,"<div style=""font-size:60px;"">+</div>",,html-keyboard-response,54,590722,0.0-13.0-0.6,63694,List2B,black,man,,,,null,,,,
null,"<img src=""stim_listB/argue1.gif""style=""height:400px;""></stim_listB>",,html-keyboard-response,55,592736,0.0-13.0-1.6,63694,List2B,black,man,,,,null,,,,
null,is arguing with,,html-keyboard-response,56,594743,0.0-13.0-2.6,63694,List2B,black,man,,,,null,,,,
36120,,,survey-text,57,630871,0.0-13.0-3.6,63694,List2B,black,man,,,,,"{""Q0"":""Dave is arguing with Jane""}","<img src=""stim_listB/argue1.gif""style=""height:400px;""></stim_listB>",is arguing with,
null,"<div style=""font-size:60px;"">+</div>",,html-keyboard-response,58,631378,0.0-13.0-0.7,63694,List2B,black,man,,,,null,,,,
null,"<img src=""stim_listB/talk4.gif""style=""height:400px;""></stim_listB>",,html-keyboard-response,59,633387,0.0-13.0-1.7,63694,List2B,black,man,,,,null,,,,
null,are talking to each other,,html-keyboard-response,60,635394,0.0-13.0-2.7,63694,List2B,black,man,,,,null,,,,
19070,,,survey-text,61,654481,0.0-13.0-3.7,63694,List2B,black,man,,,,,"{""Q0"":""Beth is talking with fred""}","<img src=""stim_listB/talk4.gif""style=""height:400px;""></stim_listB>",are talking to each other,
null,"<div style=""font-size:60px;"">+</div>",,html-keyboard-response,62,654990,0.0-13.0-0.8,63694,List2B,black,man,,,,null,,,,
null,"<img src=""stim_listB/talk3.gif""style=""height:400px;""></stim_listB>",,html-keyboard-response,63,657004,0.0-13.0-1.8,63694,List2B,black,man,,,,null,,,,
null,is talking to,,html-keyboard-response,64,659009,0.0-13.0-2.8,63694,List2B,black,man,,,,null,,,,
63387,,,survey-text,65,722435,0.0-13.0-3.8,63694,List2B,black,man,,,,,"{""Q0"":""Fred is talking with beth""}","<img src=""stim_listB/talk3.gif""style=""height:400px;""></stim_listB>",is talking to,
null,"<div style=""font-size:60px;"">+</div>",,html-keyboard-response,66,722960,0.0-13.0-0.9,63694,List2B,black,man,,,,null,,,,
null,"<img src=""stim_listB/talk1.gif""style=""height:400px;""></stim_listB>",,html-keyboard-response,67,725029,0.0-13.0-1.9,63694,List2B,black,man,,,,null,,,,
null,is talking to,,html-keyboard-response,68,727035,0.0-13.0-2.9,63694,List2B,black,man,,,,null,,,,
15129,,,survey-text,69,742185,0.0-13.0-3.9,63694,List2B,black,man,,,,,"{""Q0"":""Jane is talking to dave""}","<img src=""stim_listB/talk1.gif""style=""height:400px;""></stim_listB>",is talking to,
null,"<div style=""font-size:60px;"">+</div>",,html-keyboard-response,70,742695,0.0-13.0-0.10,63694,List2B,black,man,,,,null,,,,
null,"<img src=""stim_listB/argue5.gif""style=""height:400px;""></stim_listB>",,html-keyboard-response,71,744712,0.0-13.0-1.10,63694,List2B,black,man,,,,null,,,,
null,is arguing with,,html-keyboard-response,72,746718,0.0-13.0-2.10,63694,List2B,black,man,,,,null,,,,
50628,,,survey-text,73,797386,0.0-13.0-3.10,63694,List2B,black,man,,,,,"{""Q0"":""Dave is arguing with jane""}","<img src=""stim_listB/argue5.gif""style=""height:400px;""></stim_listB>",is arguing with,
null,"<div style=""font-size:60px;"">+</div>",,html-keyboard-response,74,797901,0.0-13.0-0.11,63694,List2B,black,man,,,,null,,,,
null,"<img src=""stim_listB/touch6.gif""style=""height:400px;""></stim_listB>",,html-keyboard-response,75,799986,0.0-13.0-1.11,63694,List2B,black,man,,,,null,,,,
null,are touching each other,,html-keyboard-response,76,801993,0.0-13.0-2.11,63694,List2B,black,man,,,,null,,,,
42883,,,survey-text,77,844898,0.0-13.0-3.11,63694,List2B,black,man,,,,,"{""Q0"":""Dave is touching fred""}","<img src=""stim_listB/touch6.gif""style=""height:400px;""></stim_listB>",are touching each other,
null,"<div style=""font-size:60px;"">+</div>",,html-keyboard-response,78,845412,0.0-13.0-0.12,63694,List2B,black,man,,,,null,,,,
null,"<img src=""stim_listB/touch5.gif""style=""height:400px;""></stim_listB>",,html-keyboard-response,79,847432,0.0-13.0-1.12,63694,List2B,black,man,,,,null,,,,
null,is touching,,html-keyboard-response,80,849438,0.0-13.0-2.12,63694,List2B,black,man,,,,null,,,,
15552,,,survey-text,81,865005,0.0-13.0-3.12,63694,List2B,black,man,,,,,"{""Q0"":""Mike is touching fred""}","<img src=""stim_listB/touch5.gif""style=""height:400px;""></stim_listB>",is touching,
null,"<div style=""font-size:60px;"">+</div>",,html-keyboard-response,82,865513,0.0-13.0-0.13,63694,List2B,black,man,,,,null,,,,
null,"<img src=""stim_listB/shout8.gif""style=""height:400px;""></stim_listB>",,html-keyboard-response,83,867551,0.0-13.0-1.13,63694,List2B,black,man,,,,null,,,,
null,are shouting at each other,,html-keyboard-response,84,869558,0.0-13.0-2.13,63694,List2B,black,man,,,,null,,,,
20758,,,survey-text,85,890388,0.0-13.0-3.13,63694,List2B,black,man,,,,,"{""Q0"":""Beth is shouting with Jane""}","<img src=""stim_listB/shout8.gif""style=""height:400px;""></stim_listB>",are shouting at each other,
null,"<div style=""font-size:60px;"">+</div>",,html-keyboard-response,86,890914,0.0-13.0-0.14,63694,List2B,black,man,,,,null,,,,
null,"<img src=""stim_listB/talk7.gif""style=""height:400px;""></stim_listB>",,html-keyboard-response,87,892972,0.0-13.0-1.14,63694,List2B,black,man,,,,null,,,,
null,is talking to,,html-keyboard-response,88,894977,0.0-13.0-2.14,63694,List2B,black,man,,,,null,,,,
17741,,,survey-text,89,912743,0.0-13.0-3.14,63694,List2B,black,man,,,,,"{""Q0"":""Beth is talking to jane""}","<img src=""stim_listB/talk7.gif""style=""height:400px;""></stim_listB>",is talking to,
null,"<div style=""font-size:60px;"">+</div>",,html-keyboard-response,90,913268,0.0-13.0-0.15,63694,List2B,black,man,,,,null,,,,
null,"<img src=""stim_listB/touch1.gif""style=""height:400px;""></stim_listB>",,html-keyboard-response,91,915311,0.0-13.0-1.15,63694,List2B,black,man,,,,null,,,,
null,is touching,,html-keyboard-response,92,917321,0.0-13.0-2.15,63694,List2B,black,man,,,,null,,,,
31818,,,survey-text,93,949153,0.0-13.0-3.15,63694,List2B,black,man,,,,,"{""Q0"":""Dave is touching jane""}","<img src=""stim_listB/touch1.gif""style=""height:400px;""></stim_listB>",is touching,
null,"<div style=""font-size:60px;"">+</div>",,html-keyboard-response,94,949662,0.0-13.0-0.16,63694,List2B,black,man,,,,null,,,,
null,"<img src=""stim_listB/flirt1.gif""style=""height:400px;""></stim_listB>",,html-keyboard-response,95,951676,0.0-13.0-1.16,63694,List2B,black,man,,,,null,,,,
null,is flirting with,,html-keyboard-response,96,953684,0.0-13.0-2.16,63694,List2B,black,man,,,,null,,,,
21948,,,survey-text,97,975644,0.0-13.0-3.16,63694,List2B,black,man,,,,,"{""Q0"":""Dave is flirting with Jane""}","<img src=""stim_listB/flirt1.gif""style=""height:400px;""></stim_listB>",is flirting with,
null,"<div style=""font-size:60px;"">+</div>",,html-keyboard-response,98,976151,0.0-13.0-0.17,63694,List2B,black,man,,,,null,,,,
null,"<img src=""stim_listB/dance4.gif""style=""height:400px;""></stim_listB>",,html-keyboard-response,99,978163,0.0-13.0-1.17,63694,List2B,black,man,,,,null,,,,
null,are dancing with each other,,html-keyboard-response,100,980171,0.0-13.0-2.17,63694,List2B,black,man,,,,null,,,,
42167,,,survey-text,101,1022350,0.0-13.0-3.17,63694,List2B,black,man,,,,,"{""Q0"":""Fred and Beth are dancing with each other""}","<img src=""stim_listB/dance4.gif""style=""height:400px;""></stim_listB>",are dancing with each other,
null,"<div style=""font-size:60px;"">+</div>",,html-keyboard-response,102,1022856,0.0-13.0-0.18,63694,List2B,black,man,,,,null,,,,
null,"<img src=""stim_listB/argue8.gif""style=""height:400px;""></stim_listB>",,html-keyboard-response,103,1024868,0.0-13.0-1.18,63694,List2B,black,man,,,,null,,,,
null,are arguing with each other,,html-keyboard-response,104,1026875,0.0-13.0-2.18,63694,List2B,black,man,,,,null,,,,
22321,,,survey-text,105,1049208,0.0-13.0-3.18,63694,List2B,black,man,,,,,"{""Q0"":""Beth and Jane are arguing with each other""}","<img src=""stim_listB/argue8.gif""style=""height:400px;""></stim_listB>",are arguing with each other,
null,"<div style=""font-size:60px;"">+</div>",,html-keyboard-response,106,1049714,0.0-13.0-0.19,63694,List2B,black,man,,,,null,,,,
null,"<img src=""stim_listB/marry1.gif""style=""height:400px;""></stim_listB>",,html-keyboard-response,107,1051736,0.0-13.0-1.19,63694,List2B,black,man,,,,null,,,,
null,is marrying,,html-keyboard-response,108,1053742,0.0-13.0-2.19,63694,List2B,black,man,,,,null,,,,
57611,,,survey-text,109,1111465,0.0-13.0-3.19,63694,List2B,black,man,,,,,"{""Q0"":""Jane and  Dave are married""}","<img src=""stim_listB/marry1.gif""style=""height:400px;""></stim_listB>",is marrying,
154882,"<img src='img/portrait_matrix_list2.jpg' style='width:900px;height:500px;''></img><p>If you have memorised all the portraits and names and are ready to start, press Continue.</p><p><strong>Please note: Your memory of these faces will be tested 4 times during this experiment.</strong></p>",0,html-button-response,110,1266562,0.0-14.0-0.0,63694,List2B,black,man,,,,,,,,
6664,"<img src=""portrait/BW2.jpg""style=""height:400px;""></img>",2,html-button-response,111,1274291,0.0-14.0-1.0,63694,List2B,black,man,,TRUE,2,,,,,
null,CORRECT,,html-keyboard-response,112,1275825,0.0-14.0-2.0-0.0,63694,List2B,black,man,,,,null,,,,
5458,"<img src=""portrait/WM1.jpg""style=""height:400px;""></img>",6,html-button-response,113,1281307,0.0-14.0-4.0,63694,List2B,black,man,,TRUE,6,,,,,
null,CORRECT,,html-keyboard-response,114,1282815,0.0-14.0-5.0-0.0,63694,List2B,black,man,,,,null,,,,
4413,"<img src=""portrait/BM2.jpg""style=""height:400px;""></img>",4,html-button-response,115,1287245,0.0-14.0-7.0,63694,List2B,black,man,,TRUE,5,,,,,
8957,"<img src=""portrait/BM2.jpg""style=""height:400px;""></img>",5,html-button-response,116,1297248,0.0-14.0-9.0-0.0,63694,List2B,black,man,,FALSE,5,,,,,
null,CORRECT,,html-keyboard-response,117,1298778,0.0-14.0-9.0-1.0-0.0,63694,List2B,black,man,,,,null,,,,
5295,"<img src=""portrait/WM2.jpg""style=""height:400px;""></img>",7,html-button-response,118,1304093,0.0-14.0-10.0,63694,List2B,black,man,,TRUE,7,,,,,
null,CORRECT,,html-keyboard-response,119,1305610,0.0-14.0-11.0-0.0,63694,List2B,black,man,,,,null,,,,
4714,"<img src=""portrait/BW1.jpg""style=""height:400px;""></img>",0,html-button-response,120,1310340,0.0-14.0-13.0,63694,List2B,black,man,,TRUE,0,,,,,
null,CORRECT,,html-keyboard-response,121,1311854,0.0-14.0-14.0-0.0,63694,List2B,black,man,,,,null,,,,
9580,"<img src=""portrait/WW1.jpg""style=""height:400px;""></img>",1,html-button-response,122,1321449,0.0-14.0-16.0,63694,List2B,black,man,,TRUE,1,,,,,
null,CORRECT,,html-keyboard-response,123,1322959,0.0-14.0-17.0-0.0,63694,List2B,black,man,,,,null,,,,
2216,"<img src=""portrait/WW2.jpg""style=""height:400px;""></img>",3,html-button-response,124,1325187,0.0-14.0-19.0,63694,List2B,black,man,,TRUE,3,,,,,
null,CORRECT,,html-keyboard-response,125,1326808,0.0-14.0-20.0-0.0,63694,List2B,black,man,,,,null,,,,
19614,"<img src=""portrait/BM1.jpg""style=""height:400px;""></img>",4,html-button-response,126,1346485,0.0-14.0-22.0,63694,List2B,black,man,,TRUE,4,,,,,
null,CORRECT,,html-keyboard-response,127,1348002,0.0-14.0-23.0-0.0,63694,List2B,black,man,,,,null,,,,
4333,<p>You got 7 out of 8 right first time. Press Continue.</p>,0,html-button-response,128,1352370,0.0-14.0-25.0,63694,List2B,black,man,,,,,,,,
11586,"As you did not score 100%, the memory game will repeat. Press Continue.",0,html-button-response,129,1364975,0.0-14.0-26.0-0.0,63694,List2B,black,man,,,,,,,,
43131,"<img src='img/portrait_matrix_list2.jpg' style='width:900px;height:500px;''></img><p>If you have memorised all the portraits and names and are ready to start, press Continue.</p><p><strong>Please note: Your memory of these faces will be tested 4 times during this experiment.</strong></p>",0,html-button-response,130,1409212,0.0-14.1-0.1,63694,List2B,black,man,,,,,,,,
3617,"<img src=""portrait/BW2.jpg""style=""height:400px;""></img>",2,html-button-response,131,1413850,0.0-14.1-1.1,63694,List2B,black,man,,TRUE,2,,,,,
null,CORRECT,,html-keyboard-response,132,1415356,0.0-14.1-2.1-0.1,63694,List2B,black,man,,,,null,,,,
3745,"<img src=""portrait/WM1.jpg""style=""height:400px;""></img>",6,html-button-response,133,1419120,0.0-14.1-4.1,63694,List2B,black,man,,TRUE,6,,,,,
null,CORRECT,,html-keyboard-response,134,1420629,0.0-14.1-5.1-0.1,63694,List2B,black,man,,,,null,,,,
5672,"<img src=""portrait/BM2.jpg""style=""height:400px;""></img>",5,html-button-response,135,1426308,0.0-14.1-7.1,63694,List2B,black,man,,TRUE,5,,,,,
null,CORRECT,,html-keyboard-response,136,1427821,0.0-14.1-8.1-0.1,63694,List2B,black,man,,,,null,,,,
3455,"<img src=""portrait/WM2.jpg""style=""height:400px;""></img>",7,html-button-response,137,1431290,0.0-14.1-10.1,63694,List2B,black,man,,TRUE,7,,,,,
null,CORRECT,,html-keyboard-response,138,1432795,0.0-14.1-11.1-0.1,63694,List2B,black,man,,,,null,,,,
3865,"<img src=""portrait/BW1.jpg""style=""height:400px;""></img>",0,html-button-response,139,1436669,0.0-14.1-13.1,63694,List2B,black,man,,TRUE,0,,,,,
null,CORRECT,,html-keyboard-response,140,1438175,0.0-14.1-14.1-0.1,63694,List2B,black,man,,,,null,,,,
20167,"<img src=""portrait/WW1.jpg""style=""height:400px;""></img>",1,html-button-response,141,1458361,0.0-14.1-16.1,63694,List2B,black,man,,TRUE,1,,,,,
null,CORRECT,,html-keyboard-response,142,1459867,0.0-14.1-17.1-0.1,63694,List2B,black,man,,,,null,,,,
3587,"<img src=""portrait/WW2.jpg""style=""height:400px;""></img>",3,html-button-response,143,1463464,0.0-14.1-19.1,63694,List2B,black,man,,TRUE,3,,,,,
null,CORRECT,,html-keyboard-response,144,1464998,0.0-14.1-20.1-0.1,63694,List2B,black,man,,,,null,,,,
6505,"<img src=""portrait/BM1.jpg""style=""height:400px;""></img>",4,html-button-response,145,1471515,0.0-14.1-22.1,63694,List2B,black,man,,TRUE,4,,,,,
null,CORRECT,,html-keyboard-response,146,1473033,0.0-14.1-23.1-0.1,63694,List2B,black,man,,,,null,,,,
6362,<p>You got 8 out of 8 right first time. Press Continue.</p>,0,html-button-response,147,1479442,0.0-14.1-25.1,63694,List2B,black,man,,,,,,,,
null,"<div style=""font-size:60px;"">+</div>",,html-keyboard-response,148,1480994,0.0-15.0-0.0,63694,List2B,black,man,,,,null,,,,
null,"<img src=""stim_listB/flirt7.gif""style=""height:400px;""></stim_listB>",,html-keyboard-response,149,1483018,0.0-15.0-1.0,63694,List2B,black,man,,,,null,,,,
null,is flirting with,,html-keyboard-response,150,1485030,0.0-15.0-2.0,63694,List2B,black,man,,,,null,,,,
44808,,,survey-text,151,1529872,0.0-15.0-3.0,63694,List2B,black,man,,,,,"{""Q0"":""Kate and Ruth are flirting ""}","<img src=""stim_listB/flirt7.gif""style=""height:400px;""></stim_listB>",is flirting with,
null,"<div style=""font-size:60px;"">+</div>",,html-keyboard-response,152,1530385,0.0-15.0-0.1,63694,List2B,black,man,,,,null,,,,
null,"<img src=""stim_listB/kiss4.gif""style=""height:400px;""></stim_listB>",,html-keyboard-response,153,1532401,0.0-15.0-1.1,63694,List2B,black,man,,,,null,,,,
null,are kissing each other,,html-keyboard-response,154,1534410,0.0-15.0-2.1,63694,List2B,black,man,,,,null,,,,
30258,,,survey-text,155,1564683,0.0-15.0-3.1,63694,List2B,black,man,,,,,"{""Q0"":""Kate and Mike are kissing each other""}","<img src=""stim_listB/kiss4.gif""style=""height:400px;""></stim_listB>",are kissing each other,
null,"<div style=""font-size:60px;"">+</div>",,html-keyboard-response,156,1565192,0.0-15.0-0.2,63694,List2B,black,man,,,,null,,,,
null,"<img src=""stim_listB/argue6.gif""style=""height:400px;""></stim_listB>",,html-keyboard-response,157,1567208,0.0-15.0-1.2,63694,List2B,black,man,,,,null,,,,
null,are arguing with each other,,html-keyboard-response,158,1569218,0.0-15.0-2.2,63694,List2B,black,man,,,,null,,,,
26770,,,survey-text,159,1595998,0.0-15.0-3.2,63694,List2B,black,man,,,,,"{""Q0"":""Mike and Luke are arguing""}","<img src=""stim_listB/argue6.gif""style=""height:400px;""></stim_listB>",are arguing with each other,
null,"<div style=""font-size:60px;"">+</div>",,html-keyboard-response,160,1596504,0.0-15.0-0.3,63694,List2B,black,man,,,,null,,,,
null,"<img src=""stim_listB/flirt6.gif""style=""height:400px;""></stim_listB>",,html-keyboard-response,161,1598511,0.0-15.0-1.3,63694,List2B,black,man,,,,null,,,,
null,are flirting with each other,,html-keyboard-response,162,1600520,0.0-15.0-2.3,63694,List2B,black,man,,,,null,,,,
23990,,,survey-text,163,1624520,0.0-15.0-3.3,63694,List2B,black,man,,,,,"{""Q0"":""Fred and Dave are flirting with each other""}","<img src=""stim_listB/flirt6.gif""style=""height:400px;""></stim_listB>",are flirting with each other,
null,"<div style=""font-size:60px;"">+</div>",,html-keyboard-response,164,1625030,0.0-15.0-0.4,63694,List2B,black,man,,,,null,,,,
null,"<img src=""stim_listB/touch2.gif""style=""height:400px;""></stim_listB>",,html-keyboard-response,165,1627043,0.0-15.0-1.4,63694,List2B,black,man,,,,null,,,,
null,are touching each other,,html-keyboard-response,166,1629048,0.0-15.0-2.4,63694,List2B,black,man,,,,null,,,,
3086,,,survey-text,167,1632145,0.0-15.0-3.4,63694,List2B,black,man,,,,,"{""Q0"":""""}","<img src=""stim_listB/touch2.gif""style=""height:400px;""></stim_listB>",are touching each other,
null,"<div style=""font-size:60px;"">+</div>",,html-keyboard-response,168,1632652,0.0-15.0-0.5,63694,List2B,black,man,,,,null,,,,
null,"<img src=""stim_listB/flirt8.gif""style=""height:400px;""></stim_listB>",,html-keyboard-response,169,1634663,0.0-15.0-1.5,63694,List2B,black,man,,,,null,,,,
null,are flirting with each other,,html-keyboard-response,170,1636674,0.0-15.0-2.5,63694,List2B,black,man,,,,null,,,,
43709,,,survey-text,171,1680394,0.0-15.0-3.5,63694,List2B,black,man,,,,,"{""Q0"":""Kate and Ruth are flirting with each other""}","<img src=""stim_listB/flirt8.gif""style=""height:400px;""></stim_listB>",are flirting with each other,
null,"<div style=""font-size:60px;"">+</div>",,html-keyboard-response,172,1680905,0.0-15.0-0.6,63694,List2B,black,man,,,,null,,,,
null,"<img src=""stim_listB/shout1.gif""style=""height:400px;""></stim_listB>",,html-keyboard-response,173,1682920,0.0-15.0-1.6,63694,List2B,black,man,,,,null,,,,
null,is shouting at,,html-keyboard-response,174,1684938,0.0-15.0-2.6,63694,List2B,black,man,,,,null,,,,
30409,,,survey-text,175,1715358,0.0-15.0-3.6,63694,List2B,black,man,,,,,"{""Q0"":""Dave and Ruth are shouting with each other""}","<img src=""stim_listB/shout1.gif""style=""height:400px;""></stim_listB>",is shouting at,
null,"<div style=""font-size:60px;"">+</div>",,html-keyboard-response,176,1715863,0.0-15.0-0.7,63694,List2B,black,man,,,,null,,,,
null,"<img src=""stim_listB/touch3.gif""style=""height:400px;""></stim_listB>",,html-keyboard-response,177,1717401,0.0-15.0-1.7,63694,List2B,black,man,,,,null,,,,
null,is touching,,html-keyboard-response,178,1719408,0.0-15.0-2.7,63694,List2B,black,man,,,,null,,,,
23297,,,survey-text,179,1742712,0.0-15.0-3.7,63694,List2B,black,man,,,,,"{""Q0"":""Mike is touching kate""}","<img src=""stim_listB/touch3.gif""style=""height:400px;""></stim_listB>",is touching,
null,"<div style=""font-size:60px;"">+</div>",,html-keyboard-response,180,1743223,0.0-15.0-0.8,63694,List2B,black,man,,,,null,,,,
null,"<img src=""stim_listB/dance2.gif""style=""height:400px;""></stim_listB>",,html-keyboard-response,181,1745259,0.0-15.0-1.8,63694,List2B,black,man,,,,null,,,,
null,are dancing with each other,,html-keyboard-response,182,1747266,0.0-15.0-2.8,63694,List2B,black,man,,,,null,,,,
28457,,,survey-text,183,1775728,0.0-15.0-3.8,63694,List2B,black,man,,,,,"{""Q0"":""Dave and Ruth are dancing with each other""}","<img src=""stim_listB/dance2.gif""style=""height:400px;""></stim_listB>",are dancing with each other,
null,"<div style=""font-size:60px;"">+</div>",,html-keyboard-response,184,1776239,0.0-15.0-0.9,63694,List2B,black,man,,,,null,,,,
null,"<img src=""stim_listB/flirt5.gif""style=""height:400px;""></stim_listB>",,html-keyboard-response,185,1778254,0.0-15.0-1.9,63694,List2B,black,man,,,,null,,,,
null,is flirting with,,html-keyboard-response,186,1780269,0.0-15.0-2.9,63694,List2B,black,man,,,,null,,,,
20610,,,survey-text,187,1800891,0.0-15.0-3.9,63694,List2B,black,man,,,,,"{""Q0"":""Luke is flirting with fred""}","<img src=""stim_listB/flirt5.gif""style=""height:400px;""></stim_listB>",is flirting with,
null,"<div style=""font-size:60px;"">+</div>",,html-keyboard-response,188,1801398,0.0-15.0-0.10,63694,List2B,black,man,,,,null,,,,
null,"<img src=""stim_listB/fight5.gif""style=""height:400px;""></stim_listB>",,html-keyboard-response,189,1803408,0.0-15.0-1.10,63694,List2B,black,man,,,,null,,,,
null,is fighting,,html-keyboard-response,190,1805419,0.0-15.0-2.10,63694,List2B,black,man,,,,null,,,,
17223,,,survey-text,191,1822655,0.0-15.0-3.10,63694,List2B,black,man,,,,,"{""Q0"":""Dave is fighting fred""}","<img src=""stim_listB/fight5.gif""style=""height:400px;""></stim_listB>",is fighting,
null,"<div style=""font-size:60px;"">+</div>",,html-keyboard-response,192,1823164,0.0-15.0-0.11,63694,List2B,black,man,,,,null,,,,
null,"<img src=""stim_listB/play5.gif""style=""height:400px;""></stim_listB>",,html-keyboard-response,193,1825177,0.0-15.0-1.11,63694,List2B,black,man,,,,null,,,,
null,is playing with,,html-keyboard-response,194,1827187,0.0-15.0-2.11,63694,List2B,black,man,,,,null,,,,
21962,,,survey-text,195,1849161,0.0-15.0-3.11,63694,List2B,black,man,,,,,"{""Q0"":""Dave is fighting mike""}","<img src=""stim_listB/play5.gif""style=""height:400px;""></stim_listB>",is playing with,
null,"<div style=""font-size:60px;"">+</div>",,html-keyboard-response,196,1849667,0.0-15.0-0.12,63694,List2B,black,man,,,,null,,,,
null,"<img src=""stim_listB/talk8.gif""style=""height:400px;""></stim_listB>",,html-keyboard-response,197,1851678,0.0-15.0-1.12,63694,List2B,black,man,,,,null,,,,
null,are talking to each other,,html-keyboard-response,198,1853684,0.0-15.0-2.12,63694,List2B,black,man,,,,null,,,,
44253,,,survey-text,199,1897955,0.0-15.0-3.12,63694,List2B,black,man,,,,,"{""Q0"":""Kate and Jane are talking to each other""}","<img src=""stim_listB/talk8.gif""style=""height:400px;""></stim_listB>",are talking to each other,
null,"<div style=""font-size:60px;"">+</div>",,html-keyboard-response,200,1898465,0.0-15.0-0.13,63694,List2B,black,man,,,,null,,,,
null,"<img src=""stim_listB/fight1.gif""style=""height:400px;""></stim_listB>",,html-keyboard-response,201,1900495,0.0-15.0-1.13,63694,List2B,black,man,,,,null,,,,
null,is fighting,,html-keyboard-response,202,1902511,0.0-15.0-2.13,63694,List2B,black,man,,,,null,,,,
18685,,,survey-text,203,1921208,0.0-15.0-3.13,63694,List2B,black,man,,,,,"{""Q0"":""Dave is fighting jane""}","<img src=""stim_listB/fight1.gif""style=""height:400px;""></stim_listB>",is fighting,
null,"<div style=""font-size:60px;"">+</div>",,html-keyboard-response,204,1921720,0.0-15.0-0.14,63694,List2B,black,man,,,,null,,,,
null,"<img src=""stim_listB/play4.gif""style=""height:400px;""></stim_listB>",,html-keyboard-response,205,1923734,0.0-15.0-1.14,63694,List2B,black,man,,,,null,,,,
null,are playing with each other,,html-keyboard-response,206,1925744,0.0-15.0-2.14,63694,List2B,black,man,,,,null,,,,
29425,,,survey-text,207,1955178,0.0-15.0-3.14,63694,List2B,black,man,,,,,"{""Q0"":""Fred and Kate are talking to each other""}","<img src=""stim_listB/play4.gif""style=""height:400px;""></stim_listB>",are playing with each other,
null,"<div style=""font-size:60px;"">+</div>",,html-keyboard-response,208,1955685,0.0-15.0-0.15,63694,List2B,black,man,,,,null,,,,
null,"<img src=""stim_listB/marry8.gif""style=""height:400px;""></stim_listB>",,html-keyboard-response,209,1957694,0.0-15.0-1.15,63694,List2B,black,man,,,,null,,,,
null,are marrying each other,,html-keyboard-response,210,1959698,0.0-15.0-2.15,63694,List2B,black,man,,,,null,,,,
33396,,,survey-text,211,1993103,0.0-15.0-3.15,63694,List2B,black,man,,,,,"{""Q0"":""Kate and Ruth are marrying each other""}","<img src=""stim_listB/marry8.gif""style=""height:400px;""></stim_listB>",are marrying each other,
null,"<div style=""font-size:60px;"">+</div>",,html-keyboard-response,212,1993612,0.0-15.0-0.16,63694,List2B,black,man,,,,null,,,,
null,"<img src=""stim_listB/marry6.gif""style=""height:400px;""></stim_listB>",,html-keyboard-response,213,1995627,0.0-15.0-1.16,63694,List2B,black,man,,,,null,,,,
null,are marrying each other,,html-keyboard-response,214,1997642,0.0-15.0-2.16,63694,List2B,black,man,,,,null,,,,
21464,,,survey-text,215,2019116,0.0-15.0-3.16,63694,List2B,black,man,,,,,"{""Q0"":""Dave and Mike are marrying each other""}","<img src=""stim_listB/marry6.gif""style=""height:400px;""></stim_listB>",are marrying each other,
null,"<div style=""font-size:60px;"">+</div>",,html-keyboard-response,216,2019621,0.0-15.0-0.17,63694,List2B,black,man,,,,null,,,,
null,"<img src=""stim_listB/argue2.gif""style=""height:400px;""></stim_listB>",,html-keyboard-response,217,2021633,0.0-15.0-1.17,63694,List2B,black,man,,,,null,,,,
null,are arguing with each other,,html-keyboard-response,218,2023644,0.0-15.0-2.17,63694,List2B,black,man,,,,null,,,,
21745,,,survey-text,219,2045396,0.0-15.0-3.17,63694,List2B,black,man,,,,,"{""Q0"":""Luke and Jane are arguing with each other""}","<img src=""stim_listB/argue2.gif""style=""height:400px;""></stim_listB>",are arguing with each other,
null,"<div style=""font-size:60px;"">+</div>",,html-keyboard-response,220,2045905,0.0-15.0-0.18,63694,List2B,black,man,,,,null,,,,
null,"<img src=""stim_listB/play2.gif""style=""height:400px;""></stim_listB>",,html-keyboard-response,221,2047921,0.0-15.0-1.18,63694,List2B,black,man,,,,null,,,,
null,are playing with each other,,html-keyboard-response,222,2049932,0.0-15.0-2.18,63694,List2B,black,man,,,,null,,,,
40348,,,survey-text,223,2090287,0.0-15.0-3.18,63694,List2B,black,man,,,,,"{""Q0"":""Luke and Ruth are talking to each other""}","<img src=""stim_listB/play2.gif""style=""height:400px;""></stim_listB>",are playing with each other,
null,"<div style=""font-size:60px;"">+</div>",,html-keyboard-response,224,2090792,0.0-15.0-0.19,63694,List2B,black,man,,,,null,,,,
null,"<img src=""stim_listB/marry4.gif""style=""height:400px;""></stim_listB>",,html-keyboard-response,225,2092804,0.0-15.0-1.19,63694,List2B,black,man,,,,null,,,,
null,are marrying each other,,html-keyboard-response,226,2094814,0.0-15.0-2.19,63694,List2B,black,man,,,,null,,,,
23859,,,survey-text,227,2118680,0.0-15.0-3.19,63694,List2B,black,man,,,,,"{""Q0"":""Fred and Kate are marrying each other""}","<img src=""stim_listB/marry4.gif""style=""height:400px;""></stim_listB>",are marrying each other,
39761,"<img src='img/portrait_matrix_list2.jpg' style='width:900px;height:500px;''></img><p>If you have memorised all the portraits and names and are ready to start, press Continue.</p><p><strong>Please note: Your memory of these faces will be tested 4 times during this experiment.</strong></p>",0,html-button-response,228,2158586,0.0-16.0-0.0,63694,List2B,black,man,,,,,,,,
5701,"<img src=""portrait/WW1.jpg""style=""height:400px;""></img>",1,html-button-response,229,2165318,0.0-16.0-1.0,63694,List2B,black,man,,TRUE,1,,,,,
null,CORRECT,,html-keyboard-response,230,2166869,0.0-16.0-2.0-0.0,63694,List2B,black,man,,,,null,,,,
1633,"<img src=""portrait/WW2.jpg""style=""height:400px;""></img>",3,html-button-response,231,2168515,0.0-16.0-4.0,63694,List2B,black,man,,TRUE,3,,,,,
null,CORRECT,,html-keyboard-response,232,2170024,0.0-16.0-5.0-0.0,63694,List2B,black,man,,,,null,,,,
5176,"<img src=""portrait/BM2.jpg""style=""height:400px;""></img>",5,html-button-response,233,2175228,0.0-16.0-7.0,63694,List2B,black,man,,TRUE,5,,,,,
null,CORRECT,,html-keyboard-response,234,2176750,0.0-16.0-8.0-0.0,63694,List2B,black,man,,,,null,,,,
470727,"<img src=""portrait/BM1.jpg""style=""height:400px;""></img>",4,html-button-response,235,2647536,0.0-16.0-10.0,63694,List2B,black,man,,TRUE,4,,,,,
null,CORRECT,,html-keyboard-response,236,2649100,0.0-16.0-11.0-0.0,63694,List2B,black,man,,,,null,,,,
3118,"<img src=""portrait/BW1.jpg""style=""height:400px;""></img>",0,html-button-response,237,2652288,0.0-16.0-13.0,63694,List2B,black,man,,TRUE,0,,,,,
null,CORRECT,,html-keyboard-response,238,2653813,0.0-16.0-14.0-0.0,63694,List2B,black,man,,,,null,,,,
3673,"<img src=""portrait/WM2.jpg""style=""height:400px;""></img>",7,html-button-response,239,2657504,0.0-16.0-16.0,63694,List2B,black,man,,TRUE,7,,,,,
null,CORRECT,,html-keyboard-response,240,2659023,0.0-16.0-17.0-0.0,63694,List2B,black,man,,,,null,,,,
3140,"<img src=""portrait/WM1.jpg""style=""height:400px;""></img>",6,html-button-response,241,2662181,0.0-16.0-19.0,63694,List2B,black,man,,TRUE,6,,,,,
null,CORRECT,,html-keyboard-response,242,2663696,0.0-16.0-20.0-0.0,63694,List2B,black,man,,,,null,,,,
3567,"<img src=""portrait/BW2.jpg""style=""height:400px;""></img>",2,html-button-response,243,2667278,0.0-16.0-22.0,63694,List2B,black,man,,TRUE,2,,,,,
null,CORRECT,,html-keyboard-response,244,2668785,0.0-16.0-23.0-0.0,63694,List2B,black,man,,,,null,,,,
2076,<p>You got 8 out of 8 right first time. Press Continue.</p>,0,html-button-response,245,2670905,0.0-16.0-25.0,63694,List2B,black,man,,,,,,,,
null,"<div style=""font-size:60px;"">+</div>",,html-keyboard-response,246,2672440,0.0-17.0-0.0,63694,List2B,black,man,,,,null,,,,
null,"<img src=""stim_listB/play3.gif""style=""height:400px;""></stim_listB>",,html-keyboard-response,247,2674499,0.0-17.0-1.0,63694,List2B,black,man,,,,null,,,,
null,is playing with,,html-keyboard-response,248,2676513,0.0-17.0-2.0,63694,List2B,black,man,,,,null,,,,
14270,,,survey-text,249,2690838,0.0-17.0-3.0,63694,List2B,black,man,,,,,"{""Q0"":""Kate is playing with Mike""}","<img src=""stim_listB/play3.gif""style=""height:400px;""></stim_listB>",is playing with,
null,"<div style=""font-size:60px;"">+</div>",,html-keyboard-response,250,2691353,0.0-17.0-0.1,63694,List2B,black,man,,,,null,,,,
null,"<img src=""stim_listB/kiss5.gif""style=""height:400px;""></stim_listB>",,html-keyboard-response,251,2693363,0.0-17.0-1.1,63694,List2B,black,man,,,,null,,,,
null,is kissing,,html-keyboard-response,252,2695370,0.0-17.0-2.1,63694,List2B,black,man,,,,null,,,,
16999,,,survey-text,253,2712376,0.0-17.0-3.1,63694,List2B,black,man,,,,,"{""Q0"":""Luke is kissing fred""}","<img src=""stim_listB/kiss5.gif""style=""height:400px;""></stim_listB>",is kissing,
null,"<div style=""font-size:60px;"">+</div>",,html-keyboard-response,254,2712885,0.0-17.0-0.2,63694,List2B,black,man,,,,null,,,,
null,"<img src=""stim_listB/touch4.gif""style=""height:400px;""></stim_listB>",,html-keyboard-response,255,2714899,0.0-17.0-1.2,63694,List2B,black,man,,,,null,,,,
null,are touching each other,,html-keyboard-response,256,2716918,0.0-17.0-2.2,63694,List2B,black,man,,,,null,,,,
24135,,,survey-text,257,2741060,0.0-17.0-3.2,63694,List2B,black,man,,,,,"{""Q0"":""Fred and Kate are touching hands""}","<img src=""stim_listB/touch4.gif""style=""height:400px;""></stim_listB>",are touching each other,
null,"<div style=""font-size:60px;"">+</div>",,html-keyboard-response,258,2741567,0.0-17.0-0.3,63694,List2B,black,man,,,,null,,,,
null,"<img src=""stim_listB/marry3.gif""style=""height:400px;""></stim_listB>",,html-keyboard-response,259,2743580,0.0-17.0-1.3,63694,List2B,black,man,,,,null,,,,
null,is marrying,,html-keyboard-response,260,2745590,0.0-17.0-2.3,63694,List2B,black,man,,,,null,,,,
25413,,,survey-text,261,2771013,0.0-17.0-3.3,63694,List2B,black,man,,,,,"{""Q0"":""Mike is marrying kate""}","<img src=""stim_listB/marry3.gif""style=""height:400px;""></stim_listB>",is marrying,
null,"<div style=""font-size:60px;"">+</div>",,html-keyboard-response,262,2771523,0.0-17.0-0.4,63694,List2B,black,man,,,,null,,,,
null,"<img src=""stim_listB/talk6.gif""style=""height:400px;""></stim_listB>",,html-keyboard-response,263,2773548,0.0-17.0-1.4,63694,List2B,black,man,,,,null,,,,
null,are talking to each other,,html-keyboard-response,264,2775556,0.0-17.0-2.4,63694,List2B,black,man,,,,null,,,,
19468,,,survey-text,265,2795044,0.0-17.0-3.4,63694,List2B,black,man,,,,,"{""Q0"":""Fred and Dave are talking to each other""}","<img src=""stim_listB/talk6.gif""style=""height:400px;""></stim_listB>",are talking to each other,
null,"<div style=""font-size:60px;"">+</div>",,html-keyboard-response,266,2795551,0.0-17.0-0.5,63694,List2B,black,man,,,,null,,,,
null,"<img src=""stim_listB/kiss3.gif""style=""height:400px;""></stim_listB>",,html-keyboard-response,267,2797566,0.0-17.0-1.5,63694,List2B,black,man,,,,null,,,,
null,is kissing,,html-keyboard-response,268,2799577,0.0-17.0-2.5,63694,List2B,black,man,,,,null,,,,
13478,,,survey-text,269,2813087,0.0-17.0-3.5,63694,List2B,black,man,,,,,"{""Q0"":""Fred is kissing kate""}","<img src=""stim_listB/kiss3.gif""style=""height:400px;""></stim_listB>",is kissing,
null,"<div style=""font-size:60px;"">+</div>",,html-keyboard-response,270,2813594,0.0-17.0-0.6,63694,List2B,black,man,,,,null,,,,
null,"<img src=""stim_listB/marry2.gif""style=""height:400px;""></stim_listB>",,html-keyboard-response,271,2815625,0.0-17.0-1.6,63694,List2B,black,man,,,,null,,,,
null,are marrying each other,,html-keyboard-response,272,2817643,0.0-17.0-2.6,63694,List2B,black,man,,,,null,,,,
26850,,,survey-text,273,2844528,0.0-17.0-3.6,63694,List2B,black,man,,,,,"{""Q0"":""Jane and Luke are marrying each other""}","<img src=""stim_listB/marry2.gif""style=""height:400px;""></stim_listB>",are marrying each other,
null,"<div style=""font-size:60px;"">+</div>",,html-keyboard-response,274,2845036,0.0-17.0-0.7,63694,List2B,black,man,,,,null,,,,
null,"<img src=""stim_listB/play8.gif""style=""height:400px;""></stim_listB>",,html-keyboard-response,275,2847050,0.0-17.0-1.7,63694,List2B,black,man,,,,null,,,,
null,are playing with each other,,html-keyboard-response,276,2849060,0.0-17.0-2.7,63694,List2B,black,man,,,,null,,,,
19520,,,survey-text,277,2868589,0.0-17.0-3.7,63694,List2B,black,man,,,,,"{""Q0"":""Kate and Ruth are playing with each other""}","<img src=""stim_listB/play8.gif""style=""height:400px;""></stim_listB>",are playing with each other,
null,"<div style=""font-size:60px;"">+</div>",,html-keyboard-response,278,2869095,0.0-17.0-0.8,63694,List2B,black,man,,,,null,,,,
null,"<img src=""stim_listB/fight2.gif""style=""height:400px;""></stim_listB>",,html-keyboard-response,279,2871107,0.0-17.0-1.8,63694,List2B,black,man,,,,null,,,,
null,are fighting each other,,html-keyboard-response,280,2873115,0.0-17.0-2.8,63694,List2B,black,man,,,,null,,,,
28773,,,survey-text,281,2901899,0.0-17.0-3.8,63694,List2B,black,man,,,,,"{""Q0"":""Luke and Ruth are fighting with each other""}","<img src=""stim_listB/fight2.gif""style=""height:400px;""></stim_listB>",are fighting each other,
null,"<div style=""font-size:60px;"">+</div>",,html-keyboard-response,282,2902407,0.0-17.0-0.9,63694,List2B,black,man,,,,null,,,,
null,"<img src=""stim_listB/talk2.gif""style=""height:400px;""></stim_listB>",,html-keyboard-response,283,2904421,0.0-17.0-1.9,63694,List2B,black,man,,,,null,,,,
null,are talking to each other,,html-keyboard-response,284,2906435,0.0-17.0-2.9,63694,List2B,black,man,,,,null,,,,
20885,,,survey-text,285,2927332,0.0-17.0-3.9,63694,List2B,black,man,,,,,"{""Q0"":""Dave and Ruth are talking to each other""}","<img src=""stim_listB/talk2.gif""style=""height:400px;""></stim_listB>",are talking to each other,
null,"<div style=""font-size:60px;"">+</div>",,html-keyboard-response,286,2927839,0.0-17.0-0.10,63694,List2B,black,man,,,,null,,,,
null,"<img src=""stim_listB/touch7.gif""style=""height:400px;""></stim_listB>",,html-keyboard-response,287,2929865,0.0-17.0-1.10,63694,List2B,black,man,,,,null,,,,
null,is touching,,html-keyboard-response,288,2931910,0.0-17.0-2.10,63694,List2B,black,man,,,,null,,,,
21793,,,survey-text,289,2953723,0.0-17.0-3.10,63694,List2B,black,man,,,,,"{""Q0"":""Jane and Kate are touching""}","<img src=""stim_listB/touch7.gif""style=""height:400px;""></stim_listB>",is touching,
null,"<div style=""font-size:60px;"">+</div>",,html-keyboard-response,290,2954624,0.0-17.0-0.11,63694,List2B,black,man,,,,null,,,,
null,"<img src=""stim_listB/dance3.gif""style=""height:400px;""></stim_listB>",,html-keyboard-response,291,2956646,0.0-17.0-1.11,63694,List2B,black,man,,,,null,,,,
null,is dancing with,,html-keyboard-response,292,2958657,0.0-17.0-2.11,63694,List2B,black,man,,,,null,,,,
15461,,,survey-text,293,2974141,0.0-17.0-3.11,63694,List2B,black,man,,,,,"{""Q0"":""Kate is dancing with fred""}","<img src=""stim_listB/dance3.gif""style=""height:400px;""></stim_listB>",is dancing with,
null,"<div style=""font-size:60px;"">+</div>",,html-keyboard-response,294,2974650,0.0-17.0-0.12,63694,List2B,black,man,,,,null,,,,
null,"<img src=""stim_listB/fight4.gif""style=""height:400px;""></stim_listB>",,html-keyboard-response,295,2976671,0.0-17.0-1.12,63694,List2B,black,man,,,,null,,,,
null,are fighting each other,,html-keyboard-response,296,2978676,0.0-17.0-2.12,63694,List2B,black,man,,,,null,,,,
15413,,,survey-text,297,2994098,0.0-17.0-3.12,63694,List2B,black,man,,,,,"{""Q0"":""Kate and Fred are fighting""}","<img src=""stim_listB/fight4.gif""style=""height:400px;""></stim_listB>",are fighting each other,
null,"<div style=""font-size:60px;"">+</div>",,html-keyboard-response,298,2994604,0.0-17.0-0.13,63694,List2B,black,man,,,,null,,,,
null,"<img src=""stim_listB/kiss7.gif""style=""height:400px;""></stim_listB>",,html-keyboard-response,299,2996612,0.0-17.0-1.13,63694,List2B,black,man,,,,null,,,,
null,is kissing,,html-keyboard-response,300,2998621,0.0-17.0-2.13,63694,List2B,black,man,,,,null,,,,
12763,,,survey-text,301,3011396,0.0-17.0-3.13,63694,List2B,black,man,,,,,"{""Q0"":""Kate is kissing ruth""}","<img src=""stim_listB/kiss7.gif""style=""height:400px;""></stim_listB>",is kissing,
null,"<div style=""font-size:60px;"">+</div>",,html-keyboard-response,302,3011902,0.0-17.0-0.14,63694,List2B,black,man,,,,null,,,,
null,"<img src=""stim_listB/shout6.gif""style=""height:400px;""></stim_listB>",,html-keyboard-response,303,3013914,0.0-17.0-1.14,63694,List2B,black,man,,,,null,,,,
null,are shouting at each other,,html-keyboard-response,304,3015920,0.0-17.0-2.14,63694,List2B,black,man,,,,null,,,,
22645,,,survey-text,305,3038604,0.0-17.0-3.14,63694,List2B,black,man,,,,,"{""Q0"":""Mike and Dave are shouting at each other""}","<img src=""stim_listB/shout6.gif""style=""height:400px;""></stim_listB>",are shouting at each other,
null,"<div style=""font-size:60px;"">+</div>",,html-keyboard-response,306,3039115,0.0-17.0-0.15,63694,List2B,black,man,,,,null,,,,
null,"<img src=""stim_listB/shout2.gif""style=""height:400px;""></stim_listB>",,html-keyboard-response,307,3041124,0.0-17.0-1.15,63694,List2B,black,man,,,,null,,,,
null,are shouting at each other,,html-keyboard-response,308,3043129,0.0-17.0-2.15,63694,List2B,black,man,,,,null,,,,
25654,,,survey-text,309,3068797,0.0-17.0-3.15,63694,List2B,black,man,,,,,"{""Q0"":""Jane and Dave are shouting at each other""}","<img src=""stim_listB/shout2.gif""style=""height:400px;""></stim_listB>",are shouting at each other,
null,"<div style=""font-size:60px;"">+</div>",,html-keyboard-response,310,3069303,0.0-17.0-0.16,63694,List2B,black,man,,,,null,,,,
null,"<img src=""stim_listB/fight6.gif""style=""height:400px;""></stim_listB>",,html-keyboard-response,311,3071317,0.0-17.0-1.16,63694,List2B,black,man,,,,null,,,,
null,are fighting each other,,html-keyboard-response,312,3073330,0.0-17.0-2.16,63694,List2B,black,man,,,,null,,,,
15279,,,survey-text,313,3088620,0.0-17.0-3.16,63694,List2B,black,man,,,,,"{""Q0"":""Luke and Fred are fighting""}","<img src=""stim_listB/fight6.gif""style=""height:400px;""></stim_listB>",are fighting each other,
null,"<div style=""font-size:60px;"">+</div>",,html-keyboard-response,314,3089127,0.0-17.0-0.17,63694,List2B,black,man,,,,null,,,,
null,"<img src=""stim_listB/play7.gif""style=""height:400px;""></stim_listB>",,html-keyboard-response,315,3091142,0.0-17.0-1.17,63694,List2B,black,man,,,,null,,,,
null,is playing with,,html-keyboard-response,316,3093155,0.0-17.0-2.17,63694,List2B,black,man,,,,null,,,,
14366,,,survey-text,317,3107533,0.0-17.0-3.17,63694,List2B,black,man,,,,,"{""Q0"":""Kate is playing with jane""}","<img src=""stim_listB/play7.gif""style=""height:400px;""></stim_listB>",is playing with,
null,"<div style=""font-size:60px;"">+</div>",,html-keyboard-response,318,3108045,0.0-17.0-0.18,63694,List2B,black,man,,,,null,,,,
null,"<img src=""stim_listB/shout4.gif""style=""height:400px;""></stim_listB>",,html-keyboard-response,319,3110060,0.0-17.0-1.18,63694,List2B,black,man,,,,null,,,,
null,are shouting at each other,,html-keyboard-response,320,3112069,0.0-17.0-2.18,63694,List2B,black,man,,,,null,,,,
23606,,,survey-text,321,3135686,0.0-17.0-3.18,63694,List2B,black,man,,,,,"{""Q0"":""Mike and Kate are shouting at each other""}","<img src=""stim_listB/shout4.gif""style=""height:400px;""></stim_listB>",are shouting at each other,
null,"<div style=""font-size:60px;"">+</div>",,html-keyboard-response,322,3136194,0.0-17.0-0.19,63694,List2B,black,man,,,,null,,,,
null,"<img src=""stim_listB/shout3.gif""style=""height:400px;""></stim_listB>",,html-keyboard-response,323,3138210,0.0-17.0-1.19,63694,List2B,black,man,,,,null,,,,
null,is shouting at,,html-keyboard-response,324,3140227,0.0-17.0-2.19,63694,List2B,black,man,,,,null,,,,
18385,,,survey-text,325,3158625,0.0-17.0-3.19,63694,List2B,black,man,,,,,"{""Q0"":""Fred is shouting at kate""}","<img src=""stim_listB/shout3.gif""style=""height:400px;""></stim_listB>",is shouting at,
35674,"<img src='img/portrait_matrix_list2.jpg' style='width:900px;height:500px;''></img><p>If you have memorised all the portraits and names and are ready to start, press Continue.</p><p><strong>Please note: Your memory of these faces will be tested 4 times during this experiment.</strong></p>",0,html-button-response,326,3194440,0.0-18.0-0.0,63694,List2B,black,man,,,,,,,,
5656,"<img src=""portrait/BM1.jpg""style=""height:400px;""></img>",4,html-button-response,327,3201136,0.0-18.0-1.0,63694,List2B,black,man,,TRUE,4,,,,,
null,CORRECT,,html-keyboard-response,328,3202684,0.0-18.0-2.0-0.0,63694,List2B,black,man,,,,null,,,,
4030,"<img src=""portrait/WM1.jpg""style=""height:400px;""></img>",6,html-button-response,329,3206729,0.0-18.0-4.0,63694,List2B,black,man,,TRUE,6,,,,,
null,CORRECT,,html-keyboard-response,330,3208251,0.0-18.0-5.0-0.0,63694,List2B,black,man,,,,null,,,,
2031,"<img src=""portrait/WW2.jpg""style=""height:400px;""></img>",3,html-button-response,331,3210301,0.0-18.0-7.0,63694,List2B,black,man,,TRUE,3,,,,,
null,CORRECT,,html-keyboard-response,332,3211819,0.0-18.0-8.0-0.0,63694,List2B,black,man,,,,null,,,,
2786,"<img src=""portrait/BW2.jpg""style=""height:400px;""></img>",2,html-button-response,333,3214619,0.0-18.0-10.0,63694,List2B,black,man,,TRUE,2,,,,,
null,CORRECT,,html-keyboard-response,334,3216126,0.0-18.0-11.0-0.0,63694,List2B,black,man,,,,null,,,,
6230,"<img src=""portrait/WW1.jpg""style=""height:400px;""></img>",1,html-button-response,335,3222369,0.0-18.0-13.0,63694,List2B,black,man,,TRUE,1,,,,,
null,CORRECT,,html-keyboard-response,336,3223885,0.0-18.0-14.0-0.0,63694,List2B,black,man,,,,null,,,,
3757,"<img src=""portrait/BW1.jpg""style=""height:400px;""></img>",0,html-button-response,337,3227661,0.0-18.0-16.0,63694,List2B,black,man,,TRUE,0,,,,,
null,CORRECT,,html-keyboard-response,338,3229179,0.0-18.0-17.0-0.0,63694,List2B,black,man,,,,null,,,,
3149,"<img src=""portrait/BM2.jpg""style=""height:400px;""></img>",5,html-button-response,339,3232346,0.0-18.0-19.0,63694,List2B,black,man,,TRUE,5,,,,,
null,CORRECT,,html-keyboard-response,340,3233862,0.0-18.0-20.0-0.0,63694,List2B,black,man,,,,null,,,,
2414,"<img src=""portrait/WM2.jpg""style=""height:400px;""></img>",7,html-button-response,341,3236295,0.0-18.0-22.0,63694,List2B,black,man,,TRUE,7,,,,,
null,CORRECT,,html-keyboard-response,342,3237812,0.0-18.0-23.0-0.0,63694,List2B,black,man,,,,null,,,,
4332,<p>You got 8 out of 8 right first time. Press Continue.</p>,0,html-button-response,343,3242160,0.0-18.0-25.0,63694,List2B,black,man,,,,,,,,
null,"<div style=""font-size:60px;"">+</div>",,html-keyboard-response,344,3243706,0.0-19.0-0.0,63694,List2B,black,man,,,,null,,,,
null,"<img src=""stim_listB/dance1.gif""style=""height:400px;""></stim_listB>",,html-keyboard-response,345,3245714,0.0-19.0-1.0,63694,List2B,black,man,,,,null,,,,
null,is dancing with,,html-keyboard-response,346,3247720,0.0-19.0-2.0,63694,List2B,black,man,,,,null,,,,
14794,,,survey-text,347,3262530,0.0-19.0-3.0,63694,List2B,black,man,,,,,"{""Q0"":""Luke is dancing with Jane""}","<img src=""stim_listB/dance1.gif""style=""height:400px;""></stim_listB>",is dancing with,
null,"<div style=""font-size:60px;"">+</div>",,html-keyboard-response,348,3263051,0.0-19.0-0.1,63694,List2B,black,man,,,,null,,,,
null,"<img src=""stim_listB/kiss1.gif""style=""height:400px;""></stim_listB>",,html-keyboard-response,349,3265064,0.0-19.0-1.1,63694,List2B,black,man,,,,null,,,,
null,is kissing,,html-keyboard-response,350,3267079,0.0-19.0-2.1,63694,List2B,black,man,,,,null,,,,
14531,,,survey-text,351,3281619,0.0-19.0-3.1,63694,List2B,black,man,,,,,"{""Q0"":""Luke is kissing jane""}","<img src=""stim_listB/kiss1.gif""style=""height:400px;""></stim_listB>",is kissing,
null,"<div style=""font-size:60px;"">+</div>",,html-keyboard-response,352,3282130,0.0-19.0-0.2,63694,List2B,black,man,,,,null,,,,
null,"<img src=""stim_listB/talk5.gif""style=""height:400px;""></stim_listB>",,html-keyboard-response,353,3284142,0.0-19.0-1.2,63694,List2B,black,man,,,,null,,,,
null,is talking to,,html-keyboard-response,354,3286148,0.0-19.0-2.2,63694,List2B,black,man,,,,null,,,,
14177,,,survey-text,355,3300338,0.0-19.0-3.2,63694,List2B,black,man,,,,,"{""Q0"":""Luke is talking to mike""}","<img src=""stim_listB/talk5.gif""style=""height:400px;""></stim_listB>",is talking to,
null,"<div style=""font-size:60px;"">+</div>",,html-keyboard-response,356,3300848,0.0-19.0-0.3,63694,List2B,black,man,,,,null,,,,
null,"<img src=""stim_listB/play6.gif""style=""height:400px;""></stim_listB>",,html-keyboard-response,357,3302878,0.0-19.0-1.3,63694,List2B,black,man,,,,null,,,,
null,are playing with each other,,html-keyboard-response,358,3304909,0.0-19.0-2.3,63694,List2B,black,man,,,,null,,,,
18175,,,survey-text,359,3323095,0.0-19.0-3.3,63694,List2B,black,man,,,,,"{""Q0"":""Luke and Mike are playing with each other""}","<img src=""stim_listB/play6.gif""style=""height:400px;""></stim_listB>",are playing with each other,
null,"<div style=""font-size:60px;"">+</div>",,html-keyboard-response,360,3323610,0.0-19.0-0.4,63694,List2B,black,man,,,,null,,,,
null,"<img src=""stim_listB/play1.gif""style=""height:400px;""></stim_listB>",,html-keyboard-response,361,3325625,0.0-19.0-1.4,63694,List2B,black,man,,,,null,,,,
null,is playing with,,html-keyboard-response,362,3327638,0.0-19.0-2.4,63694,List2B,black,man,,,,null,,,,
20168,,,survey-text,363,3347818,0.0-19.0-3.4,63694,List2B,black,man,,,,,"{""Q0"":""Jane and Dave are talking""}","<img src=""stim_listB/play1.gif""style=""height:400px;""></stim_listB>",is playing with,
null,"<div style=""font-size:60px;"">+</div>",,html-keyboard-response,364,3348327,0.0-19.0-0.5,63694,List2B,black,man,,,,null,,,,
null,"<img src=""stim_listB/fight7.gif""style=""height:400px;""></stim_listB>",,html-keyboard-response,365,3350342,0.0-19.0-1.5,63694,List2B,black,man,,,,null,,,,
null,is fighting,,html-keyboard-response,366,3352352,0.0-19.0-2.5,63694,List2B,black,man,,,,null,,,,
13226,,,survey-text,367,3365588,0.0-19.0-3.5,63694,List2B,black,man,,,,,"{""Q0"":""Jane is fighting kate""}","<img src=""stim_listB/fight7.gif""style=""height:400px;""></stim_listB>",is fighting,
null,"<div style=""font-size:60px;"">+</div>",,html-keyboard-response,368,3366099,0.0-19.0-0.6,63694,List2B,black,man,,,,null,,,,
null,"<img src=""stim_listB/marry7.gif""style=""height:400px;""></stim_listB>",,html-keyboard-response,369,3368118,0.0-19.0-1.6,63694,List2B,black,man,,,,null,,,,
null,is marrying,,html-keyboard-response,370,3370131,0.0-19.0-2.6,63694,List2B,black,man,,,,null,,,,
16682,,,survey-text,371,3386825,0.0-19.0-3.6,63694,List2B,black,man,,,,,"{""Q0"":""Kate is marrying jane""}","<img src=""stim_listB/marry7.gif""style=""height:400px;""></stim_listB>",is marrying,
null,"<div style=""font-size:60px;"">+</div>",,html-keyboard-response,372,3387336,0.0-19.0-0.7,63694,List2B,black,man,,,,null,,,,
null,"<img src=""stim_listB/argue7.gif""style=""height:400px;""></stim_listB>",,html-keyboard-response,373,3389350,0.0-19.0-1.7,63694,List2B,black,man,,,,null,,,,
null,is arguing with,,html-keyboard-response,374,3391365,0.0-19.0-2.7,63694,List2B,black,man,,,,null,,,,
17186,,,survey-text,375,3408560,0.0-19.0-3.7,63694,List2B,black,man,,,,,"{""Q0"":""Kate and Jane are arguing""}","<img src=""stim_listB/argue7.gif""style=""height:400px;""></stim_listB>",is arguing with,
null,"<div style=""font-size:60px;"">+</div>",,html-keyboard-response,376,3409070,0.0-19.0-0.8,63694,List2B,black,man,,,,null,,,,
null,"<img src=""stim_listB/shout7.gif""style=""height:400px;""></stim_listB>",,html-keyboard-response,377,3411082,0.0-19.0-1.8,63694,List2B,black,man,,,,null,,,,
null,is shouting at,,html-keyboard-response,378,3413090,0.0-19.0-2.8,63694,List2B,black,man,,,,null,,,,
13728,,,survey-text,379,3426828,0.0-19.0-3.8,63694,List2B,black,man,,,,,"{""Q0"":""Beth and Jane are arguing""}","<img src=""stim_listB/shout7.gif""style=""height:400px;""></stim_listB>",is shouting at,
null,"<div style=""font-size:60px;"">+</div>",,html-keyboard-response,380,3427339,0.0-19.0-0.9,63694,List2B,black,man,,,,null,,,,
null,"<img src=""stim_listB/dance8.gif""style=""height:400px;""></stim_listB>",,html-keyboard-response,381,3429352,0.0-19.0-1.9,63694,List2B,black,man,,,,null,,,,
null,are dancing with each other,,html-keyboard-response,382,3431362,0.0-19.0-2.9,63694,List2B,black,man,,,,null,,,,
19740,,,survey-text,383,3451111,0.0-19.0-3.9,63694,List2B,black,man,,,,,"{""Q0"":""Beth and Jane are dancing""}","<img src=""stim_listB/dance8.gif""style=""height:400px;""></stim_listB>",are dancing with each other,
null,"<div style=""font-size:60px;"">+</div>",,html-keyboard-response,384,3451619,0.0-19.0-0.10,63694,List2B,black,man,,,,null,,,,
null,"<img src=""stim_listB/dance7.gif""style=""height:400px;""></stim_listB>",,html-keyboard-response,385,3453635,0.0-19.0-1.10,63694,List2B,black,man,,,,null,,,,
null,is dancing with,,html-keyboard-response,386,3455645,0.0-19.0-2.10,63694,List2B,black,man,,,,null,,,,
17773,,,survey-text,387,3473427,0.0-19.0-3.10,63694,List2B,black,man,,,,,"{""Q0"":""Ruth is dancing with kate""}","<img src=""stim_listB/dance7.gif""style=""height:400px;""></stim_listB>",is dancing with,
null,"<div style=""font-size:60px;"">+</div>",,html-keyboard-response,388,3473937,0.0-19.0-0.11,63694,List2B,black,man,,,,null,,,,
null,"<img src=""stim_listB/fight8.gif""style=""height:400px;""></stim_listB>",,html-keyboard-response,389,3475955,0.0-19.0-1.11,63694,List2B,black,man,,,,null,,,,
null,are fighting each other,,html-keyboard-response,390,3477964,0.0-19.0-2.11,63694,List2B,black,man,,,,null,,,,
17829,,,survey-text,391,3495799,0.0-19.0-3.11,63694,List2B,black,man,,,,,"{""Q0"":""Ruth and Beth are fighting""}","<img src=""stim_listB/fight8.gif""style=""height:400px;""></stim_listB>",are fighting each other,
null,"<div style=""font-size:60px;"">+</div>",,html-keyboard-response,392,3496306,0.0-19.0-0.12,63694,List2B,black,man,,,,null,,,,
null,"<img src=""stim_listB/kiss8.gif""style=""height:400px;""></stim_listB>",,html-keyboard-response,393,3498324,0.0-19.0-1.12,63694,List2B,black,man,,,,null,,,,
null,are kissing each other,,html-keyboard-response,394,3500338,0.0-19.0-2.12,63694,List2B,black,man,,,,null,,,,
15115,,,survey-text,395,3515461,0.0-19.0-3.12,63694,List2B,black,man,,,,,"{""Q0"":""Kate and Jane are kissing""}","<img src=""stim_listB/kiss8.gif""style=""height:400px;""></stim_listB>",are kissing each other,
null,"<div style=""font-size:60px;"">+</div>",,html-keyboard-response,396,3515970,0.0-19.0-0.13,63694,List2B,black,man,,,,null,,,,
null,"<img src=""stim_listB/fight3.gif""style=""height:400px;""></stim_listB>",,html-keyboard-response,397,3517986,0.0-19.0-1.13,63694,List2B,black,man,,,,null,,,,
null,is fighting,,html-keyboard-response,398,3519990,0.0-19.0-2.13,63694,List2B,black,man,,,,null,,,,
16639,,,survey-text,399,3536636,0.0-19.0-3.13,63694,List2B,black,man,,,,,"{""Q0"":""Mike is fighting kate""}","<img src=""stim_listB/fight3.gif""style=""height:400px;""></stim_listB>",is fighting,
null,"<div style=""font-size:60px;"">+</div>",,html-keyboard-response,400,3537148,0.0-19.0-0.14,63694,List2B,black,man,,,,null,,,,
null,"<img src=""stim_listB/argue4.gif""style=""height:400px;""></stim_listB>",,html-keyboard-response,401,3539164,0.0-19.0-1.14,63694,List2B,black,man,,,,null,,,,
null,are arguing with each other,,html-keyboard-response,402,3541170,0.0-19.0-2.14,63694,List2B,black,man,,,,null,,,,
20240,,,survey-text,403,3561421,0.0-19.0-3.14,63694,List2B,black,man,,,,,"{""Q0"":""Fred and Kate are arguing with each other""}","<img src=""stim_listB/argue4.gif""style=""height:400px;""></stim_listB>",are arguing with each other,
null,"<div style=""font-size:60px;"">+</div>",,html-keyboard-response,404,3561930,0.0-19.0-0.15,63694,List2B,black,man,,,,null,,,,
null,"<img src=""stim_listB/argue3.gif""style=""height:400px;""></stim_listB>",,html-keyboard-response,405,3563945,0.0-19.0-1.15,63694,List2B,black,man,,,,null,,,,
null,is arguing with,,html-keyboard-response,406,3565956,0.0-19.0-2.15,63694,List2B,black,man,,,,null,,,,
19477,,,survey-text,407,3585445,0.0-19.0-3.15,63694,List2B,black,man,,,,,"{""Q0"":""Mike and Beth are arguing""}","<img src=""stim_listB/argue3.gif""style=""height:400px;""></stim_listB>",is arguing with,
null,"<div style=""font-size:60px;"">+</div>",,html-keyboard-response,408,3585958,0.0-19.0-0.16,63694,List2B,black,man,,,,null,,,,
null,"<img src=""stim_listB/flirt3.gif""style=""height:400px;""></stim_listB>",,html-keyboard-response,409,3587972,0.0-19.0-1.16,63694,List2B,black,man,,,,null,,,,
null,is flirting with,,html-keyboard-response,410,3589989,0.0-19.0-2.16,63694,List2B,black,man,,,,null,,,,
18681,,,survey-text,411,3608677,0.0-19.0-3.16,63694,List2B,black,man,,,,,"{""Q0"":""Kate is flirting with fred""}","<img src=""stim_listB/flirt3.gif""style=""height:400px;""></stim_listB>",is flirting with,
null,"<div style=""font-size:60px;"">+</div>",,html-keyboard-response,412,3609186,0.0-19.0-0.17,63694,List2B,black,man,,,,null,,,,
null,"<img src=""stim_listB/shout5.gif""style=""height:400px;""></stim_listB>",,html-keyboard-response,413,3611199,0.0-19.0-1.17,63694,List2B,black,man,,,,null,,,,
null,is shouting at,,html-keyboard-response,414,3613208,0.0-19.0-2.17,63694,List2B,black,man,,,,null,,,,
14054,,,survey-text,415,3627273,0.0-19.0-3.17,63694,List2B,black,man,,,,,"{""Q0"":""Fred is shouting at luke""}","<img src=""stim_listB/shout5.gif""style=""height:400px;""></stim_listB>",is shouting at,
null,"<div style=""font-size:60px;"">+</div>",,html-keyboard-response,416,3627784,0.0-19.0-0.18,63694,List2B,black,man,,,,null,,,,
null,"<img src=""stim_listB/marry5.gif""style=""height:400px;""></stim_listB>",,html-keyboard-response,417,3629801,0.0-19.0-1.18,63694,List2B,black,man,,,,null,,,,
null,is marrying,,html-keyboard-response,418,3631810,0.0-19.0-2.18,63694,List2B,black,man,,,,null,,,,
24282,,,survey-text,419,3656140,0.0-19.0-3.18,63694,List2B,black,man,,,,,"{""Q0"":""Fred is marrying luke""}","<img src=""stim_listB/marry5.gif""style=""height:400px;""></stim_listB>",is marrying,
null,"<div style=""font-size:60px;"">+</div>",,html-keyboard-response,420,3656657,0.0-19.0-0.19,63694,List2B,black,man,,,,null,,,,
null,"<img src=""stim_listB/dance5.gif""style=""height:400px;""></stim_listB>",,html-keyboard-response,421,3658676,0.0-19.0-1.19,63694,List2B,black,man,,,,null,,,,
null,is dancing with,,html-keyboard-response,422,3660691,0.0-19.0-2.19,63694,List2B,black,man,,,,null,,,,
13054,,,survey-text,423,3673757,0.0-19.0-3.19,63694,List2B,black,man,,,,,"{""Q0"":""Mike is dancing with luke""}","<img src=""stim_listB/dance5.gif""style=""height:400px;""></stim_listB>",is dancing with,
2414,<p>Thank you for completing that task.</p><p>The final part of this session is a short questionnaire.</p><p>Press Continue.</p>,0,html-button-response,424,3676183,0.0-20.0,63694,List2B,black,man,,,,,,,,
40673,,,survey-text,425,3717882,0.0-21.0,63694,List2B,black,man,,,,,"{""Q0"":""52"",""Q1"":""English"",""Q2"":""English"",""Q3"":""USA"",""Q4"":""Black"",""Q5"":""Male""}",,,demographics
20587,,,survey-likert,426,3738516,0.0-22.0,63694,List2B,black,man,,,,,"{""Q0"":3}",,,likert_ESS
23071,,,survey-likert,427,3761612,0.0-23.0,63694,List2B,black,man,,,,,"{""Q0"":2}",,,likert_NSSAL_Q1
20352,,,survey-likert,428,3781987,0.0-24.0,63694,List2B,black,man,,,,,"{""Q0"":4}",,,likert_NSSAL_Q2
10610,,,survey-likert,429,3792610,0.0-25.0,63694,List2B,black,man,,,,,"{""Q0"":3}",,,likert_CGRS_Q1
5868,,,survey-likert,430,3798498,0.0-26.0,63694,List2B,black,man,,,,,"{""Q0"":3}",,,likert_CGRS_Q2
10533,,,survey-likert,431,3809053,0.0-27.0,63694,List2B,black,man,,,,,"{""Q0"":3}",,,likert_CGRS_Q3
48435,,,survey-text,432,3857638,0.0-28.0,63694,List2B,black,man,,,,,"{""Q0"":""ccc""}",,,worker_id
10650,,,external-html,433,3868887,0.0-29.0,63694,List2B,black,man,debrief.html,,,,,,,
